PE UV       SUBTECH     SPECTRUM    ASCII       PEDS        4.00        
   -1
DG03A_9387.Sample.asc
23/12/20
09:12:52.00
23/12/20
09:12:52.00
Administrator

250.000000
1
Lambda 750
750N8071901
PerkinElmer UV WinLab 6.0.4.0738 / 1.61.00 Lambda 900

0
0
3350/servo 860.8/2
0
0
UV/VIS
1
1
1
CommonBeamDepol,150mm sphere / downward view
0
0
0
0
Program
Program
3350/servo 860.8/2
3350/0.2 860.8/0.2
3350/0.2 860.8/0.2
0
1
 
 
 
0
 
860.8
319.2
860.8
Front
100
on
 
 
0
0
0
 
0
 
 
 
0
 
 
0
0
0
0
0
 
 
 
 
0
0


0
0
#HDR
-1
-1
#GR
nm
%R
1.0
0.0
2300.000000
-10.000000
206
8
8.077585
4.109674
#DATA
2300.000000	6.950421
2290.000000	8.077585
2280.000000	7.983401
2270.000000	7.205256
2260.000000	5.662353
2250.000000	7.256910
2240.000000	7.060369
2230.000000	7.163951
2220.000000	6.839168
2210.000000	6.993244
2200.000000	7.076366
2190.000000	7.440346
2180.000000	7.324773
2170.000000	6.556886
2160.000000	7.589255
2150.000000	7.704702
2140.000000	7.265319
2130.000000	6.805171
2120.000000	7.576872
2110.000000	6.875780
2100.000000	6.830421
2090.000000	7.046052
2080.000000	7.202929
2070.000000	6.609954
2060.000000	7.000605
2050.000000	6.862411
2040.000000	7.027709
2030.000000	6.883115
2020.000000	6.633027
2010.000000	6.698078
2000.000000	6.772922
1990.000000	6.721175
1980.000000	6.651832
1970.000000	6.753594
1960.000000	6.786608
1950.000000	6.753078
1940.000000	6.586525
1930.000000	6.550590
1920.000000	6.666819
1910.000000	6.828093
1900.000000	6.563837
1890.000000	6.693926
1880.000000	6.743837
1870.000000	6.785883
1860.000000	6.521019
1850.000000	6.471815
1840.000000	6.462871
1830.000000	6.511214
1820.000000	6.553049
1810.000000	6.516246
1800.000000	6.486067
1790.000000	6.315006
1780.000000	6.299512
1770.000000	6.355594
1760.000000	6.427117
1750.000000	6.439811
1740.000000	6.395557
1730.000000	6.371087
1720.000000	6.252915
1710.000000	6.322854
1700.000000	6.230515
1690.000000	6.253975
1680.000000	6.243790
1670.000000	6.203604
1660.000000	6.271346
1650.000000	6.131804
1640.000000	6.157547
1630.000000	6.211424
1620.000000	6.134693
1610.000000	6.048740
1600.000000	5.996868
1590.000000	6.002504
1580.000000	6.071039
1570.000000	6.129077
1560.000000	6.095449
1550.000000	6.004605
1540.000000	6.019516
1530.000000	5.965967
1520.000000	5.958834
1510.000000	5.947388
1500.000000	5.880211
1490.000000	5.903036
1480.000000	5.912194
1470.000000	5.848248
1460.000000	5.916044
1450.000000	5.831747
1440.000000	5.792058
1430.000000	5.769951
1420.000000	5.795461
1410.000000	5.855924
1400.000000	5.843480
1390.000000	5.770806
1380.000000	5.800534
1370.000000	5.811822
1360.000000	5.752099
1350.000000	5.655599
1340.000000	5.672468
1330.000000	5.684353
1320.000000	5.682411
1310.000000	5.740229
1300.000000	5.684732
1290.000000	5.616758
1280.000000	5.632206
1270.000000	5.680633
1260.000000	5.610813
1250.000000	5.729783
1240.000000	5.720889
1230.000000	5.609466
1220.000000	5.541828
1210.000000	5.511656
1200.000000	5.557710
1190.000000	5.590177
1180.000000	5.598894
1170.000000	5.514827
1160.000000	5.526432
1150.000000	5.515285
1140.000000	5.487601
1130.000000	5.484645
1120.000000	5.479011
1110.000000	5.379006
1100.000000	5.320436
1090.000000	5.364162
1080.000000	5.377240
1070.000000	5.419216
1060.000000	5.349673
1050.000000	5.456776
1040.000000	5.431757
1030.000000	5.295436
1020.000000	5.361681
1010.000000	5.373971
1000.000000	5.368651
990.000000	5.347550
980.000000	5.348625
970.000000	5.270280
960.000000	5.211895
950.000000	5.393231
940.000000	5.455211
930.000000	5.195335
920.000000	5.248314
910.000000	5.040312
900.000000	5.253683
890.000000	5.503730
880.000000	5.459852
870.000000	4.907276
860.000000	4.956920
850.000000	5.163106
840.000000	5.148453
830.000000	5.137275
820.000000	5.091836
810.000000	5.099352
800.000000	5.098565
790.000000	5.068872
780.000000	5.088183
770.000000	5.011875
760.000000	5.015955
750.000000	5.051096
740.000000	4.990539
730.000000	4.964800
720.000000	5.006315
710.000000	4.986077
700.000000	4.987854
690.000000	4.947336
680.000000	4.963298
670.000000	4.917053
660.000000	4.934995
650.000000	4.913583
640.000000	4.918802
630.000000	4.902301
620.000000	4.883561
610.000000	4.841744
600.000000	4.840837
590.000000	4.809641
580.000000	4.802159
570.000000	4.817899
560.000000	4.807540
550.000000	4.792345
540.000000	4.731926
530.000000	4.753801
520.000000	4.760330
510.000000	4.719643
500.000000	4.722012
490.000000	4.692607
480.000000	4.663769
470.000000	4.691017
460.000000	4.647773
450.000000	4.635266
440.000000	4.613207
430.000000	4.582661
420.000000	4.547956
410.000000	4.519872
400.000000	4.540142
390.000000	4.498112
380.000000	4.511850
370.000000	4.470824
360.000000	4.546575
350.000000	4.658352
340.000000	4.672397
330.000000	4.358925
320.000000	4.561693
310.000000	5.138743
300.000000	4.170607
290.000000	4.109674
280.000000	4.240990
270.000000	4.148467
260.000000	4.161299
250.000000	4.219304
