PE UV       SUBTECH     SPECTRUM    ASCII       PEDS        4.00        
   -1
DG05A_9238.Sample.asc
23/12/20
08:47:48.00
23/12/20
08:47:48.00
Administrator

250.000000
1
Lambda 750
750N8071901
PerkinElmer UV WinLab 6.0.4.0738 / 1.61.00 Lambda 900

0
0
3350/servo 860.8/2
0
0
UV/VIS
1
1
1
CommonBeamDepol,150mm sphere / downward view
0
0
0
0
Program
Program
3350/servo 860.8/2
3350/0.2 860.8/0.2
3350/0.2 860.8/0.2
0
1
 
 
 
0
 
860.8
319.2
860.8
Front
100
on
 
 
0
0
0
 
0
 
 
 
0
 
 
0
0
0
0
0
 
 
 
 
0
0


0
0
#HDR
-1
-1
#GR
nm
%R
1.0
0.0
2300.000000
-10.000000
206
8
12.261714
6.547677
#DATA
2300.000000	11.782619
2290.000000	11.382901
2280.000000	10.875048
2270.000000	11.825781
2260.000000	11.835727
2250.000000	11.526993
2240.000000	11.010035
2230.000000	11.697549
2220.000000	10.977885
2210.000000	11.012521
2200.000000	10.817771
2190.000000	11.212770
2180.000000	11.499770
2170.000000	11.544457
2160.000000	12.261714
2150.000000	11.196596
2140.000000	10.497909
2130.000000	11.441024
2120.000000	11.872137
2110.000000	11.414362
2100.000000	10.981539
2090.000000	11.307154
2080.000000	11.192965
2070.000000	11.100577
2060.000000	11.212126
2050.000000	10.974176
2040.000000	10.920746
2030.000000	10.914877
2020.000000	10.607912
2010.000000	10.820849
2000.000000	10.748280
1990.000000	10.528913
1980.000000	10.742055
1970.000000	10.522236
1960.000000	10.592307
1950.000000	10.748626
1940.000000	10.533232
1930.000000	10.281591
1920.000000	10.542792
1910.000000	10.478176
1900.000000	10.327584
1890.000000	10.462810
1880.000000	10.367870
1870.000000	10.569231
1860.000000	10.218793
1850.000000	10.354168
1840.000000	10.241312
1830.000000	10.211974
1820.000000	10.129208
1810.000000	10.216605
1800.000000	10.189252
1790.000000	10.145336
1780.000000	10.072597
1770.000000	10.101196
1760.000000	10.037413
1750.000000	9.944005
1740.000000	9.942597
1730.000000	9.952350
1720.000000	9.985822
1710.000000	9.945081
1700.000000	9.856312
1690.000000	9.879736
1680.000000	9.851710
1670.000000	9.778779
1660.000000	9.705172
1650.000000	9.769013
1640.000000	9.668630
1630.000000	9.700363
1620.000000	9.617189
1610.000000	9.609722
1600.000000	9.605096
1590.000000	9.543329
1580.000000	9.503542
1570.000000	9.496859
1560.000000	9.504488
1550.000000	9.449506
1540.000000	9.414428
1530.000000	9.420660
1520.000000	9.313170
1510.000000	9.325381
1500.000000	9.286499
1490.000000	9.210912
1480.000000	9.259702
1470.000000	9.299771
1460.000000	9.218234
1450.000000	9.182897
1440.000000	9.083300
1430.000000	9.080701
1420.000000	9.079840
1410.000000	9.164016
1400.000000	9.100323
1390.000000	9.050340
1380.000000	8.993124
1370.000000	8.905964
1360.000000	8.856117
1350.000000	8.871122
1340.000000	8.777938
1330.000000	8.945763
1320.000000	8.944207
1310.000000	8.865035
1300.000000	8.821089
1290.000000	8.777304
1280.000000	8.777652
1270.000000	8.676761
1260.000000	8.630686
1250.000000	8.602055
1240.000000	8.550295
1230.000000	8.542215
1220.000000	8.420934
1210.000000	8.472692
1200.000000	8.418797
1190.000000	8.530168
1180.000000	8.460145
1170.000000	8.397531
1160.000000	8.272075
1150.000000	8.308179
1140.000000	8.254221
1130.000000	8.265814
1120.000000	8.066886
1110.000000	8.064911
1100.000000	8.141720
1090.000000	8.128826
1080.000000	8.131955
1070.000000	8.061691
1060.000000	8.035261
1050.000000	8.055877
1040.000000	7.930104
1030.000000	7.730313
1020.000000	7.848995
1010.000000	7.863289
1000.000000	7.771478
990.000000	7.817505
980.000000	7.708922
970.000000	7.802425
960.000000	7.864427
950.000000	7.650363
940.000000	7.738828
930.000000	7.651815
920.000000	7.682081
910.000000	7.552405
900.000000	7.578294
890.000000	7.313930
880.000000	7.289220
870.000000	7.140640
860.000000	7.493031
850.000000	7.388998
840.000000	7.359553
830.000000	7.107525
820.000000	7.121435
810.000000	7.156702
800.000000	7.111865
790.000000	6.940752
780.000000	7.089270
770.000000	7.005938
760.000000	6.972005
750.000000	6.975505
740.000000	6.958775
730.000000	6.913207
720.000000	6.926256
710.000000	6.858173
700.000000	6.857558
690.000000	6.828782
680.000000	6.828868
670.000000	6.766123
660.000000	6.766084
650.000000	6.737550
640.000000	6.704066
630.000000	6.712846
620.000000	6.702416
610.000000	6.670653
600.000000	6.659066
590.000000	6.648339
580.000000	6.636880
570.000000	6.635446
560.000000	6.624278
550.000000	6.603407
540.000000	6.559212
530.000000	6.562228
520.000000	6.576363
510.000000	6.573346
500.000000	6.547677
490.000000	6.582232
480.000000	6.555994
470.000000	6.590480
460.000000	6.583584
450.000000	6.631551
440.000000	6.618004
430.000000	6.695306
420.000000	6.690529
410.000000	6.722771
400.000000	6.780052
390.000000	6.805021
380.000000	6.892480
370.000000	6.978779
360.000000	7.259363
350.000000	7.204656
340.000000	7.313621
330.000000	7.820285
320.000000	8.007056
310.000000	8.688018
300.000000	8.298526
290.000000	8.701408
280.000000	9.124399
270.000000	9.374002
260.000000	9.951223
250.000000	10.818324
