PE UV       SUBTECH     SPECTRUM    ASCII       PEDS        4.00        
   -1
blanc.Sample.Cycle1.asc
23/09/07
12:32:21.00
23/09/07
12:32:21.00
Administrator

250.000000
1
Lambda 750
750N8071901
PerkinElmer UV WinLab 6.0.4.0738 / 1.61.00 Lambda 900

0
0
3350/servo 860.8/2
0
0
UV/VIS
1
1
1
CommonBeamDepol,150mm sphere / downward view
0
0
0
0
Program
Program
3350/servo 860.8/2
3350/0.2 860.8/0.2
3350/0.2 860.8/0.2
0
1
 
 
 
0
 
860.8
319.2
860.8
Front
100
on
 
 
0
0
0
 
0
 
 
 
0
 
 
0
0
0
0
0
 
 
 
 
0
0


0
0
#HDR
-1
-1
#GR
nm
%R
1.0
0.0
2500.000000
-10.000000
226
8
101.119979
98.115601
#DATA
2500.000000	100.109497
2490.000000	98.818861
2480.000000	99.908446
2470.000000	98.921247
2460.000000	99.336123
2450.000000	101.119979
2440.000000	100.497286
2430.000000	100.283112
2420.000000	100.061858
2410.000000	100.700187
2400.000000	99.798548
2390.000000	100.714152
2380.000000	100.045988
2370.000000	100.221021
2360.000000	99.802738
2350.000000	100.802411
2340.000000	99.818512
2330.000000	100.216181
2320.000000	100.401246
2310.000000	100.514607
2300.000000	99.503341
2290.000000	100.053695
2280.000000	100.473917
2270.000000	99.647266
2260.000000	100.136298
2250.000000	100.009640
2240.000000	100.280007
2230.000000	100.071401
2220.000000	100.056040
2210.000000	99.971035
2200.000000	100.318603
2190.000000	100.354387
2180.000000	100.344955
2170.000000	99.784826
2160.000000	100.328900
2150.000000	100.160230
2140.000000	100.187996
2130.000000	100.325312
2120.000000	100.068394
2110.000000	99.889322
2100.000000	100.143805
2090.000000	100.116649
2080.000000	100.260821
2070.000000	99.760239
2060.000000	100.252544
2050.000000	99.961042
2040.000000	99.846757
2030.000000	99.871043
2020.000000	99.948365
2010.000000	99.956688
2000.000000	99.915797
1990.000000	100.041801
1980.000000	99.763117
1970.000000	99.918284
1960.000000	100.012138
1950.000000	99.764180
1940.000000	100.062698
1930.000000	99.709677
1920.000000	99.907698
1910.000000	99.920054
1900.000000	99.986969
1890.000000	100.030252
1880.000000	99.997560
1870.000000	99.944868
1860.000000	100.000243
1850.000000	100.049802
1840.000000	99.893492
1830.000000	99.922714
1820.000000	99.926267
1810.000000	100.027684
1800.000000	99.900291
1790.000000	99.986520
1780.000000	100.029210
1770.000000	99.962441
1760.000000	99.952921
1750.000000	99.941187
1740.000000	99.932175
1730.000000	100.048437
1720.000000	99.899032
1710.000000	100.001466
1700.000000	99.945746
1690.000000	100.000000
1680.000000	100.016373
1670.000000	99.901749
1660.000000	99.982176
1650.000000	99.918767
1640.000000	99.913475
1630.000000	99.922565
1620.000000	99.893517
1610.000000	99.891442
1600.000000	99.904502
1590.000000	99.906704
1580.000000	99.966021
1570.000000	99.953903
1560.000000	99.934273
1550.000000	99.917106
1540.000000	99.919074
1530.000000	99.902070
1520.000000	99.939659
1510.000000	99.896282
1500.000000	99.955206
1490.000000	99.951865
1480.000000	99.897539
1470.000000	99.943891
1460.000000	99.957754
1450.000000	99.940294
1440.000000	99.959193
1430.000000	99.924419
1420.000000	99.877671
1410.000000	99.890011
1400.000000	99.928629
1390.000000	99.913915
1380.000000	99.955527
1370.000000	99.895215
1360.000000	99.970526
1350.000000	99.918341
1340.000000	99.925602
1330.000000	99.997149
1320.000000	99.969313
1310.000000	99.903903
1300.000000	99.873440
1290.000000	99.956152
1280.000000	99.928373
1270.000000	99.945358
1260.000000	99.904135
1250.000000	99.930697
1240.000000	99.935424
1230.000000	99.930893
1220.000000	99.994748
1210.000000	99.983961
1200.000000	100.042479
1190.000000	99.990152
1180.000000	99.945359
1170.000000	99.918970
1160.000000	99.942904
1150.000000	99.965083
1140.000000	99.930729
1130.000000	99.909287
1120.000000	99.969237
1110.000000	99.967570
1100.000000	99.952892
1090.000000	99.912345
1080.000000	99.927834
1070.000000	99.920050
1060.000000	99.956738
1050.000000	99.910482
1040.000000	99.917766
1030.000000	99.959417
1020.000000	99.921035
1010.000000	99.850257
1000.000000	99.935162
990.000000	99.869345
980.000000	99.900430
970.000000	99.965544
960.000000	99.858218
950.000000	99.913111
940.000000	99.825223
930.000000	99.950437
920.000000	99.933636
910.000000	99.796066
900.000000	99.993558
890.000000	99.799253
880.000000	100.024839
870.000000	99.951421
860.000000	99.978169
850.000000	99.616939
840.000000	100.379937
830.000000	99.851840
820.000000	100.372894
810.000000	100.140374
800.000000	100.408472
790.000000	99.855778
780.000000	100.072561
770.000000	100.004624
760.000000	99.905297
750.000000	99.956572
740.000000	99.902819
730.000000	100.250975
720.000000	100.057458
710.000000	100.090283
700.000000	100.015493
690.000000	100.013710
680.000000	100.009893
670.000000	100.050826
660.000000	100.060982
650.000000	99.967809
640.000000	99.994140
630.000000	99.910741
620.000000	99.976617
610.000000	99.968307
600.000000	100.131482
590.000000	99.973085
580.000000	99.939658
570.000000	100.034041
560.000000	99.965088
550.000000	99.973824
540.000000	99.967527
530.000000	100.008756
520.000000	99.987591
510.000000	99.979434
500.000000	99.944404
490.000000	99.899851
480.000000	99.866219
470.000000	99.986644
460.000000	99.947353
450.000000	99.958867
440.000000	99.989278
430.000000	100.025686
420.000000	99.905186
410.000000	99.865986
400.000000	99.901532
390.000000	99.816110
380.000000	99.865076
370.000000	99.695046
360.000000	99.133950
350.000000	100.270587
340.000000	99.018666
330.000000	100.049255
320.000000	98.115601
310.000000	100.120445
300.000000	99.238272
290.000000	99.416496
280.000000	99.536158
270.000000	98.688820
260.000000	98.987541
250.000000	98.673601
