PE UV       SUBTECH     SPECTRUM    ASCII       PEDS        4.00        
   -1
Empty Chamber.Sample.asc
18/03/12
08:55:48.00
18/03/12
08:55:48.00
Administrator

200.000000
1
Lambda 750
750N8071901
PerkinElmer UV WinLab 6.0.4.0738 / 1.61.00 Lambda 900

0
0
3350/servo 860.8/2
0
0
UV/VIS
1
1
1
CommonBeamDepol,150mm sphere / downward view
0
0
0
0
Program
Program
3350/servo 860.8/2
3350/0.2 860.8/0.2
3350/0.2 860.8/0.2
0
1
 
 
 
0
 
860.8
319.2
860.8
Front
100
on
 
 
0
0
0
 
0
 
 
 
0
 
 
0
0
0
0
0
 
 
 
 
0
0


0
0
#HDR
-1
-1
#GR
nm
%T
1.0
0.0
2350.000000
-1.000000
2151
8
100.959186
99.526102
#DATA
2350.000000	100.001106
2349.000000	100.256060
2348.000000	100.263591
2347.000000	99.980452
2346.000000	100.069175
2345.000000	99.708841
2344.000000	100.001311
2343.000000	99.732275
2342.000000	99.681110
2341.000000	100.241560
2340.000000	100.118719
2339.000000	100.065530
2338.000000	99.856180
2337.000000	99.864554
2336.000000	99.800664
2335.000000	99.831977
2334.000000	99.908669
2333.000000	100.475428
2332.000000	100.085825
2331.000000	99.884655
2330.000000	100.007263
2329.000000	99.852621
2328.000000	99.981142
2327.000000	100.043645
2326.000000	100.170591
2325.000000	99.908697
2324.000000	100.187084
2323.000000	100.129490
2322.000000	99.663147
2321.000000	99.908335
2320.000000	100.071040
2319.000000	100.241511
2318.000000	100.001615
2317.000000	100.102133
2316.000000	99.894729
2315.000000	100.151740
2314.000000	100.198043
2313.000000	99.677324
2312.000000	100.079172
2311.000000	100.140027
2310.000000	100.084585
2309.000000	100.119847
2308.000000	100.036176
2307.000000	99.938238
2306.000000	100.120275
2305.000000	100.051211
2304.000000	100.063219
2303.000000	100.334179
2302.000000	100.062990
2301.000000	100.063837
2300.000000	100.010397
2299.000000	100.146636
2298.000000	99.903259
2297.000000	99.932951
2296.000000	100.176530
2295.000000	100.040605
2294.000000	99.851497
2293.000000	99.924367
2292.000000	99.897212
2291.000000	99.964526
2290.000000	100.074098
2289.000000	100.095673
2288.000000	99.990613
2287.000000	100.035527
2286.000000	99.876218
2285.000000	99.998889
2284.000000	100.090846
2283.000000	99.956297
2282.000000	100.019992
2281.000000	100.121950
2280.000000	100.007482
2279.000000	99.899542
2278.000000	99.758244
2277.000000	99.840369
2276.000000	100.018359
2275.000000	100.076471
2274.000000	99.905458
2273.000000	100.067794
2272.000000	100.263933
2271.000000	99.985153
2270.000000	99.940812
2269.000000	99.938973
2268.000000	100.052675
2267.000000	100.196276
2266.000000	100.145360
2265.000000	99.915542
2264.000000	99.943589
2263.000000	100.214429
2262.000000	100.136052
2261.000000	99.946795
2260.000000	100.010192
2259.000000	99.985063
2258.000000	100.031308
2257.000000	100.189206
2256.000000	100.035572
2255.000000	99.989902
2254.000000	99.967696
2253.000000	99.968214
2252.000000	100.009788
2251.000000	100.115858
2250.000000	100.116720
2249.000000	100.056514
2248.000000	100.107341
2247.000000	100.054521
2246.000000	99.996771
2245.000000	100.000202
2244.000000	99.951940
2243.000000	99.952664
2242.000000	99.933606
2241.000000	99.969091
2240.000000	100.083405
2239.000000	99.992621
2238.000000	99.886511
2237.000000	99.950962
2236.000000	100.100156
2235.000000	100.005560
2234.000000	99.974829
2233.000000	100.038108
2232.000000	100.009501
2231.000000	100.025260
2230.000000	100.107170
2229.000000	100.070119
2228.000000	100.073710
2227.000000	99.899992
2226.000000	99.832930
2225.000000	99.899600
2224.000000	99.870264
2223.000000	99.854173
2222.000000	99.917970
2221.000000	99.982422
2220.000000	99.995756
2219.000000	99.984332
2218.000000	99.897265
2217.000000	99.893992
2216.000000	99.995760
2215.000000	99.923138
2214.000000	99.911540
2213.000000	100.027480
2212.000000	99.957695
2211.000000	99.961830
2210.000000	99.950207
2209.000000	99.934236
2208.000000	99.996366
2207.000000	99.988289
2206.000000	100.081865
2205.000000	100.082241
2204.000000	99.991621
2203.000000	99.910400
2202.000000	99.922536
2201.000000	100.041755
2200.000000	99.983770
2199.000000	100.006559
2198.000000	100.126241
2197.000000	99.968739
2196.000000	100.024920
2195.000000	100.063996
2194.000000	99.877005
2193.000000	99.941796
2192.000000	99.989305
2191.000000	100.131897
2190.000000	100.200693
2189.000000	100.079022
2188.000000	100.009277
2187.000000	99.937197
2186.000000	99.841996
2185.000000	99.970992
2184.000000	99.880248
2183.000000	100.165048
2182.000000	100.082889
2181.000000	100.075479
2180.000000	100.051137
2179.000000	100.015222
2178.000000	100.058432
2177.000000	100.137881
2176.000000	100.062073
2175.000000	100.051375
2174.000000	100.044311
2173.000000	99.983995
2172.000000	99.966166
2171.000000	100.055042
2170.000000	100.102059
2169.000000	100.059230
2168.000000	99.918584
2167.000000	99.788858
2166.000000	99.903002
2165.000000	100.166184
2164.000000	100.085135
2163.000000	100.073241
2162.000000	100.028352
2161.000000	99.997587
2160.000000	100.022127
2159.000000	100.097770
2158.000000	100.013073
2157.000000	99.897982
2156.000000	99.980906
2155.000000	99.900995
2154.000000	100.038090
2153.000000	100.083116
2152.000000	99.922989
2151.000000	99.972376
2150.000000	100.133154
2149.000000	99.801423
2148.000000	99.981403
2147.000000	100.070787
2146.000000	100.268458
2145.000000	100.021026
2144.000000	100.141057
2143.000000	100.135518
2142.000000	99.924165
2141.000000	100.039271
2140.000000	100.051823
2139.000000	100.059335
2138.000000	99.939221
2137.000000	99.908194
2136.000000	99.884052
2135.000000	99.933529
2134.000000	99.901826
2133.000000	100.077230
2132.000000	100.083071
2131.000000	100.055268
2130.000000	100.066578
2129.000000	99.884876
2128.000000	99.840603
2127.000000	99.948547
2126.000000	99.860278
2125.000000	99.859721
2124.000000	100.029875
2123.000000	100.065341
2122.000000	99.967002
2121.000000	100.125713
2120.000000	100.098495
2119.000000	99.927307
2118.000000	100.008245
2117.000000	100.040562
2116.000000	100.011867
2115.000000	100.019811
2114.000000	99.927143
2113.000000	100.070582
2112.000000	100.036751
2111.000000	100.079791
2110.000000	100.073715
2109.000000	100.128865
2108.000000	100.112385
2107.000000	100.120740
2106.000000	100.113047
2105.000000	100.019741
2104.000000	99.747884
2103.000000	99.874494
2102.000000	99.999295
2101.000000	99.927706
2100.000000	99.987111
2099.000000	99.930687
2098.000000	99.947134
2097.000000	99.965444
2096.000000	99.907426
2095.000000	99.981868
2094.000000	100.162210
2093.000000	100.063910
2092.000000	100.032577
2091.000000	100.052744
2090.000000	100.023586
2089.000000	99.997984
2088.000000	100.084781
2087.000000	100.008775
2086.000000	99.949629
2085.000000	100.007057
2084.000000	99.969658
2083.000000	100.034288
2082.000000	99.973076
2081.000000	100.018858
2080.000000	100.126211
2079.000000	100.054462
2078.000000	100.021377
2077.000000	99.980943
2076.000000	100.017153
2075.000000	100.089121
2074.000000	99.927616
2073.000000	99.964110
2072.000000	99.959567
2071.000000	99.905567
2070.000000	99.972171
2069.000000	100.004036
2068.000000	100.004541
2067.000000	99.973461
2066.000000	99.934838
2065.000000	100.025332
2064.000000	100.079222
2063.000000	100.023313
2062.000000	100.019572
2061.000000	99.975187
2060.000000	100.068758
2059.000000	99.992834
2058.000000	99.995158
2057.000000	99.987180
2056.000000	99.988895
2055.000000	99.999798
2054.000000	100.028167
2053.000000	100.092147
2052.000000	100.062332
2051.000000	100.010398
2050.000000	100.005654
2049.000000	100.026872
2048.000000	100.019697
2047.000000	100.017774
2046.000000	100.093321
2045.000000	99.967094
2044.000000	99.908145
2043.000000	100.002626
2042.000000	99.987280
2041.000000	99.977278
2040.000000	99.926581
2039.000000	99.943330
2038.000000	100.012935
2037.000000	99.988684
2036.000000	99.962822
2035.000000	99.986461
2034.000000	100.061763
2033.000000	100.032242
2032.000000	99.986762
2031.000000	100.044482
2030.000000	99.991914
2029.000000	99.986862
2028.000000	100.004043
2027.000000	100.005155
2026.000000	100.039031
2025.000000	100.055931
2024.000000	100.012337
2023.000000	99.966230
2022.000000	99.942277
2021.000000	99.933714
2020.000000	99.983018
2019.000000	99.987462
2018.000000	99.999494
2017.000000	100.006979
2016.000000	99.984124
2015.000000	99.931256
2014.000000	99.980788
2013.000000	100.051997
2012.000000	99.989481
2011.000000	99.992108
2010.000000	99.978047
2009.000000	99.975519
2008.000000	100.015483
2007.000000	99.984213
2006.000000	99.954266
2005.000000	100.024296
2004.000000	100.067536
2003.000000	100.005567
2002.000000	100.015286
2001.000000	100.005467
2000.000000	99.952429
1999.000000	99.989777
1998.000000	100.043534
1997.000000	100.009516
1996.000000	99.985018
1995.000000	100.016404
1994.000000	99.998076
1993.000000	100.001823
1992.000000	99.977316
1991.000000	99.992405
1990.000000	99.993517
1989.000000	100.008205
1988.000000	99.977826
1987.000000	100.015698
1986.000000	99.983189
1985.000000	99.962320
1984.000000	100.020873
1983.000000	100.060107
1982.000000	100.043371
1981.000000	99.980652
1980.000000	99.967986
1979.000000	99.985108
1978.000000	100.002230
1977.000000	99.951173
1976.000000	99.963035
1975.000000	99.992604
1974.000000	100.038717
1973.000000	100.009624
1972.000000	99.991896
1971.000000	99.994733
1970.000000	99.980453
1969.000000	99.987037
1968.000000	100.002126
1967.000000	99.956865
1966.000000	99.989669
1965.000000	99.986224
1964.000000	99.984504
1963.000000	100.003748
1962.000000	100.031396
1961.000000	100.032103
1960.000000	99.988353
1959.000000	99.987544
1958.000000	99.995646
1957.000000	99.994126
1956.000000	100.004658
1955.000000	99.995747
1954.000000	99.993521
1953.000000	99.988258
1952.000000	100.052961
1951.000000	100.010022
1950.000000	99.946469
1949.000000	100.000810
1948.000000	100.027015
1947.000000	100.006577
1946.000000	100.028924
1945.000000	99.968947
1944.000000	100.035309
1943.000000	100.035423
1942.000000	100.038739
1941.000000	99.983917
1940.000000	99.979265
1939.000000	99.990294
1938.000000	100.010917
1937.000000	100.006165
1936.000000	100.015773
1935.000000	99.920169
1934.000000	99.931015
1933.000000	100.113939
1932.000000	99.981919
1931.000000	100.033337
1930.000000	100.056496
1929.000000	100.112296
1928.000000	100.030409
1927.000000	100.043239
1926.000000	100.014840
1925.000000	99.975260
1924.000000	100.002424
1923.000000	100.005855
1922.000000	99.955499
1921.000000	100.030998
1920.000000	99.901658
1919.000000	100.043851
1918.000000	99.927385
1917.000000	99.951751
1916.000000	100.041496
1915.000000	100.039487
1914.000000	100.030513
1913.000000	100.045059
1912.000000	99.973839
1911.000000	99.949988
1910.000000	99.988591
1909.000000	99.984649
1908.000000	100.033434
1907.000000	99.988480
1906.000000	99.939172
1905.000000	100.034459
1904.000000	99.998787
1903.000000	99.992018
1902.000000	99.984034
1901.000000	99.946865
1900.000000	100.048411
1899.000000	100.061690
1898.000000	99.935307
1897.000000	99.967958
1896.000000	100.003639
1895.000000	100.049866
1894.000000	99.932265
1893.000000	99.995146
1892.000000	100.030955
1891.000000	100.043805
1890.000000	99.996561
1889.000000	100.034289
1888.000000	100.021430
1887.000000	99.996463
1886.000000	99.962517
1885.000000	99.959097
1884.000000	99.959506
1883.000000	100.037074
1882.000000	100.010402
1881.000000	100.012320
1880.000000	99.989298
1879.000000	100.004745
1878.000000	100.050900
1877.000000	99.999798
1876.000000	99.978307
1875.000000	99.965189
1874.000000	100.024424
1873.000000	100.003330
1872.000000	100.037430
1871.000000	100.005852
1870.000000	100.000908
1869.000000	100.073482
1868.000000	100.008679
1867.000000	100.019981
1866.000000	100.045422
1865.000000	100.041583
1864.000000	99.966396
1863.000000	99.982839
1862.000000	100.016965
1861.000000	99.996567
1860.000000	100.025242
1859.000000	99.965666
1858.000000	100.005453
1857.000000	100.046958
1856.000000	100.009392
1855.000000	99.987582
1854.000000	99.988795
1853.000000	99.993033
1852.000000	99.975567
1851.000000	100.029180
1850.000000	99.995861
1849.000000	100.014638
1848.000000	100.040080
1847.000000	100.025141
1846.000000	100.016456
1845.000000	99.974470
1844.000000	99.972450
1843.000000	99.972650
1842.000000	99.982841
1841.000000	99.992834
1840.000000	100.009890
1839.000000	100.001918
1838.000000	99.996970
1837.000000	100.049996
1836.000000	100.041926
1835.000000	100.031623
1834.000000	100.051027
1833.000000	100.055583
1832.000000	100.039011
1831.000000	99.988882
1830.000000	99.983930
1829.000000	99.993733
1828.000000	100.005560
1827.000000	99.996057
1826.000000	99.988069
1825.000000	99.985946
1824.000000	99.982911
1823.000000	99.985538
1822.000000	99.997471
1821.000000	100.001821
1820.000000	100.046264
1819.000000	100.044747
1818.000000	100.020250
1817.000000	100.019746
1816.000000	100.019241
1815.000000	100.023092
1814.000000	100.017724
1813.000000	100.021979
1812.000000	100.026538
1811.000000	100.013977
1810.000000	99.999088
1809.000000	99.993111
1808.000000	99.986630
1807.000000	99.976199
1806.000000	100.002533
1805.000000	99.986020
1804.000000	99.966269
1803.000000	99.986019
1802.000000	99.995744
1801.000000	99.998987
1800.000000	100.002837
1799.000000	99.998480
1798.000000	99.993313
1797.000000	99.985611
1796.000000	100.008006
1795.000000	100.016621
1794.000000	100.000507
1793.000000	100.016218
1792.000000	100.005371
1791.000000	100.016624
1790.000000	100.027170
1789.000000	100.023821
1788.000000	100.008312
1787.000000	100.008516
1786.000000	100.025143
1785.000000	100.037211
1784.000000	100.022204
1783.000000	99.990370
1782.000000	99.978107
1781.000000	99.980745
1780.000000	99.975172
1779.000000	99.986620
1778.000000	99.974963
1777.000000	99.964022
1776.000000	99.973750
1775.000000	99.973853
1774.000000	99.994933
1773.000000	100.016220
1772.000000	99.996351
1771.000000	99.989357
1770.000000	99.999088
1769.000000	100.007399
1768.000000	100.004561
1767.000000	99.987231
1766.000000	99.978008
1765.000000	99.995439
1764.000000	99.997365
1763.000000	99.969288
1762.000000	100.015915
1761.000000	100.001622
1760.000000	100.008516
1759.000000	100.014090
1758.000000	100.024025
1757.000000	100.005676
1756.000000	100.025140
1755.000000	100.007703
1754.000000	99.998581
1753.000000	99.965347
1752.000000	99.960379
1751.000000	100.024225
1750.000000	100.008615
1749.000000	100.007095
1748.000000	100.009628
1747.000000	100.024127
1746.000000	100.024936
1745.000000	99.978010
1744.000000	100.001317
1743.000000	99.994730
1742.000000	99.982266
1741.000000	99.998885
1740.000000	100.003648
1739.000000	99.997467
1738.000000	100.007803
1737.000000	99.961400
1736.000000	99.975890
1735.000000	100.011352
1734.000000	100.023720
1733.000000	100.005878
1732.000000	99.983682
1731.000000	99.981054
1730.000000	99.981361
1729.000000	100.031725
1728.000000	100.035681
1727.000000	100.032335
1726.000000	99.999291
1725.000000	99.992602
1724.000000	99.995237
1723.000000	100.002026
1722.000000	99.966466
1721.000000	99.976194
1720.000000	100.007092
1719.000000	100.048148
1718.000000	99.980140
1717.000000	99.987840
1716.000000	100.008004
1715.000000	99.983283
1714.000000	99.985005
1713.000000	100.031218
1712.000000	100.006485
1711.000000	100.005573
1710.000000	100.031925
1709.000000	100.009931
1708.000000	99.979740
1707.000000	100.008513
1706.000000	99.992705
1705.000000	100.027971
1704.000000	99.992501
1703.000000	99.988854
1702.000000	99.943280
1701.000000	100.002331
1700.000000	100.025133
1699.000000	100.015300
1698.000000	100.014992
1697.000000	99.982982
1696.000000	99.977311
1695.000000	100.013880
1694.000000	99.995137
1693.000000	99.975486
1692.000000	100.008511
1691.000000	100.021581
1690.000000	99.985714
1689.000000	99.979435
1688.000000	100.025230
1687.000000	100.002330
1686.000000	100.008002
1685.000000	100.013776
1684.000000	100.011649
1683.000000	99.986528
1682.000000	99.988554
1681.000000	100.012360
1680.000000	100.028874
1679.000000	100.031310
1678.000000	100.006483
1677.000000	99.998177
1676.000000	99.997974
1675.000000	100.008611
1674.000000	99.961411
1673.000000	100.002330
1672.000000	99.999696
1671.000000	99.951898
1670.000000	99.968409
1669.000000	100.001519
1668.000000	99.989978
1667.000000	100.016001
1666.000000	99.987142
1665.000000	100.003139
1664.000000	100.013062
1663.000000	99.972462
1662.000000	99.997975
1661.000000	100.004354
1660.000000	99.999595
1659.000000	99.990990
1658.000000	99.993217
1657.000000	99.995039
1656.000000	100.004354
1655.000000	99.976513
1654.000000	99.971661
1653.000000	99.985524
1652.000000	99.966187
1651.000000	99.999291
1650.000000	100.005670
1649.000000	99.990584
1648.000000	99.989875
1647.000000	99.993520
1646.000000	100.006481
1645.000000	99.997874
1644.000000	100.006784
1643.000000	100.020862
1642.000000	100.017112
1641.000000	99.999494
1640.000000	100.000506
1639.000000	100.020048
1638.000000	100.017819
1637.000000	99.989472
1636.000000	99.981980
1635.000000	100.009922
1634.000000	100.002430
1633.000000	100.005467
1632.000000	99.992813
1631.000000	99.996254
1630.000000	100.017920
1629.000000	100.000911
1628.000000	99.987547
1627.000000	99.991597
1626.000000	99.986838
1625.000000	99.990889
1624.000000	99.984207
1623.000000	99.972669
1622.000000	100.004353
1621.000000	100.004353
1620.000000	99.992914
1619.000000	99.995445
1618.000000	99.988765
1617.000000	99.992711
1616.000000	99.997469
1615.000000	99.986334
1614.000000	100.001316
1613.000000	100.008706
1612.000000	99.990789
1611.000000	100.011034
1610.000000	99.986134
1609.000000	99.992509
1608.000000	100.018425
1607.000000	100.005061
1606.000000	99.993725
1605.000000	99.990890
1604.000000	99.971558
1603.000000	99.993016
1602.000000	100.009414
1601.000000	99.996558
1600.000000	100.013869
1599.000000	100.022779
1598.000000	100.009415
1597.000000	100.002227
1596.000000	99.991802
1595.000000	99.986843
1594.000000	99.989170
1593.000000	99.988260
1592.000000	99.990689
1591.000000	99.994333
1590.000000	100.009919
1589.000000	100.005669
1588.000000	99.992712
1587.000000	99.999494
1586.000000	100.014375
1585.000000	100.020652
1584.000000	100.009921
1583.000000	100.005466
1582.000000	99.998684
1581.000000	99.989070
1580.000000	100.002024
1579.000000	100.006781
1578.000000	99.994434
1577.000000	99.986034
1576.000000	100.002227
1575.000000	100.020547
1574.000000	100.014980
1573.000000	99.998077
1572.000000	100.004352
1571.000000	99.994130
1570.000000	99.969442
1569.000000	99.978041
1568.000000	99.999393
1567.000000	100.004756
1566.000000	99.990185
1565.000000	99.981483
1564.000000	99.996661
1563.000000	99.995851
1562.000000	99.991703
1561.000000	99.992412
1560.000000	100.009815
1559.000000	100.002125
1558.000000	99.991197
1557.000000	99.996256
1556.000000	99.993423
1555.000000	99.997571
1554.000000	99.987758
1553.000000	99.966718
1552.000000	99.987152
1551.000000	99.992008
1550.000000	99.996054
1549.000000	100.020539
1548.000000	100.033899
1547.000000	100.014266
1546.000000	100.002428
1545.000000	99.986443
1544.000000	99.994334
1543.000000	99.990389
1542.000000	99.991906
1541.000000	100.010117
1540.000000	100.011230
1539.000000	100.020538
1538.000000	99.999494
1537.000000	99.993930
1536.000000	99.984220
1535.000000	100.008396
1534.000000	100.015073
1533.000000	99.996459
1532.000000	100.003238
1531.000000	99.988770
1530.000000	99.992918
1529.000000	100.004856
1528.000000	100.012142
1527.000000	100.027929
1526.000000	100.038664
1525.000000	100.012445
1524.000000	100.000708
1523.000000	100.010927
1522.000000	100.005058
1521.000000	99.993222
1520.000000	100.034000
1519.000000	99.984822
1518.000000	100.002226
1517.000000	99.978146
1516.000000	100.031881
1515.000000	99.993423
1514.000000	100.004553
1513.000000	100.005566
1512.000000	100.000000
1511.000000	100.020345
1510.000000	99.982597
1509.000000	100.010524
1508.000000	99.985225
1507.000000	99.985027
1506.000000	99.983915
1505.000000	100.006981
1504.000000	99.999089
1503.000000	100.005059
1502.000000	99.991094
1501.000000	99.997065
1500.000000	99.999393
1499.000000	100.008601
1498.000000	99.986644
1497.000000	99.981690
1496.000000	99.986544
1495.000000	100.009107
1494.000000	99.980879
1493.000000	99.996763
1492.000000	100.011231
1491.000000	100.019730
1490.000000	99.984319
1489.000000	99.983309
1488.000000	99.981894
1487.000000	99.984524
1486.000000	100.018007
1485.000000	99.992415
1484.000000	100.020838
1483.000000	100.002933
1482.000000	100.018506
1481.000000	99.994944
1480.000000	99.973409
1479.000000	99.992214
1478.000000	99.981092
1477.000000	99.981901
1476.000000	100.011021
1475.000000	100.006775
1474.000000	99.999393
1473.000000	100.008696
1472.000000	100.003741
1471.000000	99.986351
1470.000000	100.019009
1469.000000	100.041059
1468.000000	100.018610
1467.000000	99.995753
1466.000000	100.006269
1465.000000	100.000506
1464.000000	100.018909
1463.000000	100.007280
1462.000000	100.015374
1461.000000	100.003438
1460.000000	99.980792
1459.000000	99.997775
1458.000000	100.003844
1457.000000	99.997371
1456.000000	100.001921
1455.000000	99.986656
1454.000000	99.991509
1453.000000	99.963106
1452.000000	99.988879
1451.000000	99.981601
1450.000000	99.998079
1449.000000	100.007481
1448.000000	100.020321
1447.000000	100.012535
1446.000000	99.984128
1445.000000	99.997877
1444.000000	99.990398
1443.000000	99.983830
1442.000000	100.001112
1441.000000	99.994441
1440.000000	100.007884
1439.000000	100.015970
1438.000000	100.004548
1437.000000	99.979182
1436.000000	99.981103
1435.000000	100.001819
1434.000000	100.006771
1433.000000	99.984641
1432.000000	99.981409
1431.000000	100.020516
1430.000000	100.020210
1429.000000	100.006871
1428.000000	99.990403
1427.000000	100.002930
1426.000000	100.000000
1425.000000	99.999091
1424.000000	99.990306
1423.000000	99.984653
1422.000000	100.012522
1421.000000	100.007573
1420.000000	99.988695
1419.000000	99.998890
1418.000000	99.994753
1417.000000	99.987893
1416.000000	99.998083
1415.000000	99.991426
1414.000000	99.990722
1413.000000	99.987900
1412.000000	99.981449
1411.000000	100.001210
1410.000000	100.006855
1409.000000	100.006954
1408.000000	99.996473
1407.000000	99.984384
1406.000000	99.993956
1405.000000	100.011384
1404.000000	100.000201
1403.000000	100.005237
1402.000000	100.010777
1401.000000	100.016519
1400.000000	100.007855
1399.000000	100.004229
1398.000000	100.006947
1397.000000	100.013693
1396.000000	100.016408
1395.000000	100.000000
1394.000000	99.991747
1393.000000	99.995370
1392.000000	99.987119
1391.000000	99.994164
1390.000000	99.997686
1389.000000	99.995875
1388.000000	100.003522
1387.000000	100.001610
1386.000000	99.967203
1385.000000	99.956942
1384.000000	100.003522
1383.000000	100.028884
1382.000000	99.982795
1381.000000	99.998591
1380.000000	100.040354
1379.000000	100.018312
1378.000000	99.990945
1377.000000	100.010969
1376.000000	100.031096
1375.000000	100.008853
1374.000000	99.998088
1373.000000	99.987726
1372.000000	99.994367
1371.000000	100.012979
1370.000000	100.019922
1369.000000	100.021027
1368.000000	100.001308
1367.000000	99.992557
1366.000000	99.989842
1365.000000	99.994167
1364.000000	99.998089
1363.000000	99.989540
1362.000000	99.974251
1361.000000	99.980585
1360.000000	100.017308
1359.000000	100.021337
1358.000000	100.003121
1357.000000	100.012487
1356.000000	99.983586
1355.000000	100.002720
1354.000000	100.047274
1353.000000	100.038508
1352.000000	99.989114
1351.000000	99.974294
1350.000000	100.011799
1349.000000	100.040653
1348.000000	100.004438
1347.000000	99.967724
1346.000000	100.006256
1345.000000	100.019476
1344.000000	99.996772
1343.000000	99.967310
1342.000000	99.980827
1341.000000	99.980830
1340.000000	99.992534
1339.000000	99.999294
1338.000000	99.985671
1337.000000	99.997477
1336.000000	99.993644
1335.000000	100.006861
1334.000000	99.996368
1333.000000	99.996065
1332.000000	99.986883
1331.000000	100.011200
1330.000000	100.002320
1329.000000	99.996268
1328.000000	99.998789
1327.000000	99.984866
1326.000000	100.001009
1325.000000	99.993544
1324.000000	99.984562
1323.000000	99.988096
1322.000000	100.000000
1321.000000	100.003733
1320.000000	99.991626
1319.000000	99.998486
1318.000000	100.001715
1317.000000	100.012209
1316.000000	100.022701
1315.000000	100.006761
1314.000000	100.041989
1313.000000	99.984156
1312.000000	99.991120
1311.000000	99.988094
1310.000000	100.012513
1309.000000	99.999596
1308.000000	99.993642
1307.000000	99.991827
1306.000000	99.968722
1305.000000	100.007874
1304.000000	99.995761
1303.000000	99.994752
1302.000000	100.000505
1301.000000	100.009992
1300.000000	99.987790
1299.000000	99.969927
1298.000000	99.994954
1297.000000	99.999596
1296.000000	100.008174
1295.000000	99.995560
1294.000000	99.979819
1293.000000	99.975987
1292.000000	100.016449
1291.000000	100.012715
1290.000000	99.990011
1289.000000	100.012511
1288.000000	100.008274
1287.000000	99.972963
1286.000000	99.984365
1285.000000	99.985878
1284.000000	99.985374
1283.000000	100.002421
1282.000000	99.998084
1281.000000	100.003026
1280.000000	99.986388
1279.000000	99.992942
1278.000000	100.002823
1277.000000	100.001412
1276.000000	99.989918
1275.000000	99.987300
1274.000000	100.003226
1273.000000	100.022983
1272.000000	99.976617
1271.000000	99.983373
1270.000000	99.995565
1269.000000	99.993550
1268.000000	100.003628
1267.000000	100.017537
1266.000000	99.968265
1265.000000	100.007761
1264.000000	100.001713
1263.000000	99.996171
1262.000000	100.023277
1261.000000	100.011991
1260.000000	100.027311
1259.000000	99.964834
1258.000000	100.001814
1257.000000	99.999798
1256.000000	100.000806
1255.000000	99.987305
1254.000000	100.011286
1253.000000	99.979449
1252.000000	99.980759
1251.000000	99.997481
1250.000000	99.972196
1249.000000	99.978341
1248.000000	99.987912
1247.000000	99.991337
1246.000000	99.991035
1245.000000	100.018538
1244.000000	99.990128
1243.000000	99.994158
1242.000000	100.008764
1241.000000	99.981064
1240.000000	99.968982
1239.000000	100.010273
1238.000000	100.000101
1237.000000	100.006445
1236.000000	100.021042
1235.000000	100.006845
1234.000000	99.989935
1233.000000	99.993961
1232.000000	100.004026
1231.000000	99.997786
1230.000000	100.001207
1229.000000	100.016603
1228.000000	100.007948
1227.000000	100.001308
1226.000000	100.006941
1225.000000	99.995474
1224.000000	100.000201
1223.000000	100.013072
1222.000000	99.986630
1221.000000	99.989546
1220.000000	100.007438
1219.000000	99.990754
1218.000000	99.991157
1217.000000	99.999699
1216.000000	99.986535
1215.000000	99.986236
1214.000000	99.998492
1213.000000	100.010953
1212.000000	100.003617
1211.000000	100.002613
1210.000000	99.999196
1209.000000	99.995178
1208.000000	99.998292
1207.000000	100.016282
1206.000000	100.000201
1205.000000	100.018789
1204.000000	100.017185
1203.000000	100.028135
1202.000000	100.019591
1201.000000	100.003717
1200.000000	99.988645
1199.000000	99.988950
1198.000000	100.000301
1197.000000	100.007232
1196.000000	100.004319
1195.000000	100.028635
1194.000000	100.041502
1193.000000	99.985936
1192.000000	99.983927
1191.000000	100.004621
1190.000000	100.003918
1189.000000	99.991561
1188.000000	99.999598
1187.000000	99.992066
1186.000000	99.988049
1185.000000	100.001004
1184.000000	100.014461
1183.000000	100.006628
1182.000000	100.001908
1181.000000	100.011045
1180.000000	100.014959
1179.000000	100.000803
1178.000000	99.991067
1177.000000	99.996487
1176.000000	99.985951
1175.000000	99.989263
1174.000000	99.996388
1173.000000	100.006923
1172.000000	100.008127
1171.000000	99.998696
1170.000000	99.998194
1169.000000	99.998596
1168.000000	99.997192
1167.000000	99.982452
1166.000000	99.978244
1165.000000	99.992381
1164.000000	99.996090
1163.000000	99.990878
1162.000000	99.990880
1161.000000	99.991883
1160.000000	99.986873
1159.000000	99.984771
1158.000000	99.996894
1157.000000	99.995793
1156.000000	99.992088
1155.000000	100.007210
1154.000000	100.002403
1153.000000	99.986787
1152.000000	99.992493
1151.000000	99.994595
1150.000000	100.008408
1149.000000	100.017515
1148.000000	99.995497
1147.000000	99.998599
1146.000000	100.006503
1145.000000	99.999800
1144.000000	99.988798
1143.000000	99.991000
1142.000000	100.005999
1141.000000	100.002599
1140.000000	99.998301
1139.000000	100.016490
1138.000000	100.006495
1137.000000	99.977422
1136.000000	99.981120
1135.000000	99.992309
1134.000000	99.996404
1133.000000	99.995307
1132.000000	99.993809
1131.000000	99.989517
1130.000000	99.982533
1129.000000	99.987627
1128.000000	99.988028
1127.000000	100.001397
1126.000000	99.989025
1125.000000	99.988229
1124.000000	99.999102
1123.000000	99.983244
1122.000000	99.995313
1121.000000	99.995114
1120.000000	99.991226
1119.000000	100.001396
1118.000000	100.007378
1117.000000	99.999801
1116.000000	100.001695
1115.000000	99.999801
1114.000000	99.995117
1113.000000	99.999801
1112.000000	99.993523
1111.000000	99.994421
1110.000000	99.993127
1109.000000	99.983067
1108.000000	99.970919
1107.000000	99.991535
1106.000000	100.001494
1105.000000	99.995918
1104.000000	99.986164
1103.000000	99.992933
1102.000000	99.997214
1101.000000	99.990052
1100.000000	99.981697
1099.000000	100.006266
1098.000000	100.017206
1097.000000	100.016607
1096.000000	100.017899
1095.000000	99.995824
1094.000000	99.988669
1093.000000	99.975459
1092.000000	99.998013
1091.000000	99.994338
1090.000000	99.998510
1089.000000	100.023240
1088.000000	100.013305
1087.000000	100.013404
1086.000000	100.004169
1085.000000	100.003771
1084.000000	99.998810
1083.000000	99.993057
1082.000000	100.000595
1081.000000	99.984729
1080.000000	99.999405
1079.000000	99.993657
1078.000000	99.985531
1077.000000	100.017837
1076.000000	99.995740
1075.000000	99.997325
1074.000000	99.994454
1073.000000	100.024560
1072.000000	100.008514
1071.000000	99.991688
1070.000000	100.004750
1069.000000	100.008013
1068.000000	100.017706
1067.000000	100.007220
1066.000000	99.980225
1065.000000	99.997528
1064.000000	99.990909
1063.000000	99.999605
1062.000000	100.000790
1061.000000	100.000494
1060.000000	99.979069
1059.000000	99.997927
1058.000000	100.031294
1057.000000	100.030695
1056.000000	100.016970
1055.000000	99.985207
1054.000000	99.990435
1053.000000	99.994873
1052.000000	100.002366
1051.000000	99.993102
1050.000000	100.004828
1049.000000	100.002659
1048.000000	100.000394
1047.000000	99.997933
1046.000000	99.986123
1045.000000	99.978848
1044.000000	99.998131
1043.000000	100.006393
1042.000000	100.006391
1041.000000	99.990367
1040.000000	100.018282
1039.000000	100.003144
1038.000000	99.993812
1037.000000	99.983408
1036.000000	100.017182
1035.000000	100.013152
1034.000000	100.008439
1033.000000	99.995096
1032.000000	99.994019
1031.000000	100.002549
1030.000000	99.998824
1029.000000	99.992456
1028.000000	100.001861
1027.000000	100.005777
1026.000000	100.021242
1025.000000	100.012427
1024.000000	99.982394
1023.000000	99.982985
1022.000000	99.988661
1021.000000	100.007134
1020.000000	99.998534
1019.000000	100.016117
1018.000000	100.006444
1017.000000	100.001269
1016.000000	99.993950
1015.000000	99.994830
1014.000000	99.986836
1013.000000	100.008189
1012.000000	100.001754
1011.000000	99.998831
1010.000000	99.980235
1009.000000	99.972259
1008.000000	100.006812
1007.000000	100.017607
1006.000000	100.002917
1005.000000	99.993585
1004.000000	99.992228
1003.000000	99.983099
1002.000000	99.982815
1001.000000	99.993302
1000.000000	100.004949
999.000000	99.981669
998.000000	99.991275
997.000000	100.003295
996.000000	99.985566
995.000000	99.988962
994.000000	99.991870
993.000000	99.997678
992.000000	100.006480
991.000000	100.020111
990.000000	99.999517
989.000000	100.007245
988.000000	100.015257
987.000000	100.013419
986.000000	100.022387
985.000000	100.021703
984.000000	99.989878
983.000000	99.997976
982.000000	99.995858
981.000000	99.986328
980.000000	99.989414
979.000000	100.000385
978.000000	100.001827
977.000000	99.993272
976.000000	99.999135
975.000000	100.022090
974.000000	100.019582
973.000000	99.986185
972.000000	99.984368
971.000000	100.011217
970.000000	100.005365
969.000000	99.996361
968.000000	100.006222
967.000000	99.997704
966.000000	99.992828
965.000000	100.000669
964.000000	100.020064
963.000000	100.022249
962.000000	100.004867
961.000000	100.004006
960.000000	100.006006
959.000000	100.013722
958.000000	100.021337
957.000000	99.999048
956.000000	99.978407
955.000000	100.000000
954.000000	99.994204
953.000000	99.992308
952.000000	100.013004
951.000000	100.008917
950.000000	100.000284
949.000000	100.001232
948.000000	99.995928
947.000000	99.981452
946.000000	99.987137
945.000000	100.016734
944.000000	100.018045
943.000000	99.991032
942.000000	99.988116
941.000000	99.995664
940.000000	99.993593
939.000000	99.984935
938.000000	99.984101
937.000000	99.994829
936.000000	99.980363
935.000000	99.983286
934.000000	99.995964
933.000000	100.029831
932.000000	100.016496
931.000000	99.993632
930.000000	100.008236
929.000000	99.999252
928.000000	99.979534
927.000000	99.992249
926.000000	100.014840
925.000000	99.992447
924.000000	99.983138
923.000000	100.005773
922.000000	100.025958
921.000000	99.996840
920.000000	99.990248
919.000000	99.999814
918.000000	100.026247
917.000000	100.049219
916.000000	100.003611
915.000000	99.953667
914.000000	99.993530
913.000000	99.999723
912.000000	99.978134
911.000000	99.989583
910.000000	100.014464
909.000000	99.966129
908.000000	99.951357
907.000000	99.981350
906.000000	99.995869
905.000000	100.033114
904.000000	100.008799
903.000000	100.021245
902.000000	100.040173
901.000000	99.999178
900.000000	99.967584
899.000000	99.984854
898.000000	99.971652
897.000000	99.983424
896.000000	100.023117
895.000000	99.999636
894.000000	100.002543
893.000000	99.964435
892.000000	99.938194
891.000000	99.944592
890.000000	99.969866
889.000000	99.948102
888.000000	99.995213
887.000000	100.010646
886.000000	99.987469
885.000000	99.994774
884.000000	100.064194
883.000000	99.970697
882.000000	99.929792
881.000000	100.014088
880.000000	100.007174
879.000000	99.912379
878.000000	99.930141
877.000000	99.913688
876.000000	100.089702
875.000000	99.989564
874.000000	99.972907
873.000000	100.023238
872.000000	99.995642
871.000000	99.993068
870.000000	99.941150
869.000000	99.929511
868.000000	99.901085
867.000000	99.892356
866.000000	100.089504
865.000000	100.033581
864.000000	99.932943
863.000000	99.981837
862.000000	99.974080
861.000000	99.969806
860.000000	99.982756
859.000000	99.659903
858.000000	100.052736
857.000000	100.438343
856.000000	99.861923
855.000000	100.187617
854.000000	99.572142
853.000000	100.189838
852.000000	100.103348
851.000000	100.490652
850.000000	100.203992
849.000000	100.230297
848.000000	100.085047
847.000000	99.997799
846.000000	99.526102
845.000000	99.633391
844.000000	99.795936
843.000000	99.743427
842.000000	99.910213
841.000000	100.114656
840.000000	100.094327
839.000000	100.065951
838.000000	100.382906
837.000000	99.852316
836.000000	99.962487
835.000000	99.622972
834.000000	99.915432
833.000000	99.752554
832.000000	100.205441
831.000000	99.945900
830.000000	99.979119
829.000000	100.037847
828.000000	100.059718
827.000000	99.920303
826.000000	100.047576
825.000000	99.852974
824.000000	99.836589
823.000000	99.706292
822.000000	100.186494
821.000000	100.010642
820.000000	99.916542
819.000000	100.022375
818.000000	99.904390
817.000000	99.836236
816.000000	99.960524
815.000000	99.940684
814.000000	100.023271
813.000000	99.969095
812.000000	99.734169
811.000000	99.845006
810.000000	99.956770
809.000000	99.748122
808.000000	99.963953
807.000000	99.952586
806.000000	99.894526
805.000000	100.054576
804.000000	100.010245
803.000000	100.131107
802.000000	100.016978
801.000000	100.043176
800.000000	100.055864
799.000000	100.117554
798.000000	99.957843
797.000000	99.997894
796.000000	99.844689
795.000000	99.831577
794.000000	99.943454
793.000000	99.791195
792.000000	100.052831
791.000000	99.857601
790.000000	99.866659
789.000000	99.984866
788.000000	100.057915
787.000000	99.834432
786.000000	99.782264
785.000000	99.968731
784.000000	100.070095
783.000000	100.107543
782.000000	99.973615
781.000000	100.080918
780.000000	99.903453
779.000000	99.949896
778.000000	99.943258
777.000000	100.052715
776.000000	100.026901
775.000000	99.960680
774.000000	100.028341
773.000000	100.080359
772.000000	100.046544
771.000000	99.980570
770.000000	99.908985
769.000000	100.011634
768.000000	99.882425
767.000000	99.952921
766.000000	99.876154
765.000000	100.018944
764.000000	99.901967
763.000000	99.991544
762.000000	100.059022
761.000000	99.944768
760.000000	99.992952
759.000000	99.922462
758.000000	99.883229
757.000000	100.017137
756.000000	100.101206
755.000000	99.897286
754.000000	99.883021
753.000000	99.986758
752.000000	99.955270
751.000000	100.015571
750.000000	99.963954
749.000000	99.937856
748.000000	99.829892
747.000000	99.930070
746.000000	99.870580
745.000000	99.909870
744.000000	99.991921
743.000000	100.033058
742.000000	99.960277
741.000000	99.967561
740.000000	100.031904
739.000000	99.950298
738.000000	99.950716
737.000000	100.022679
736.000000	100.042500
735.000000	100.105771
734.000000	100.029185
733.000000	99.956484
732.000000	99.972779
731.000000	100.021723
730.000000	100.014611
729.000000	100.054800
728.000000	99.991423
727.000000	100.069566
726.000000	99.972632
725.000000	99.914106
724.000000	99.979395
723.000000	99.963481
722.000000	99.894447
721.000000	99.953866
720.000000	100.045365
719.000000	99.967496
718.000000	100.027991
717.000000	100.060989
716.000000	100.000544
715.000000	100.050391
714.000000	100.031368
713.000000	100.007889
712.000000	99.960178
711.000000	99.937107
710.000000	99.981932
709.000000	99.980481
708.000000	99.953981
707.000000	99.892102
706.000000	99.920951
705.000000	100.038000
704.000000	100.024824
703.000000	99.942103
702.000000	99.955281
701.000000	99.996634
700.000000	100.008012
699.000000	99.931186
698.000000	99.950123
697.000000	99.953219
696.000000	99.959849
695.000000	99.942247
694.000000	99.997539
693.000000	100.047864
692.000000	99.978397
691.000000	99.961047
690.000000	99.957028
689.000000	99.987413
688.000000	99.924315
687.000000	99.936519
686.000000	99.942977
685.000000	99.965413
684.000000	100.049201
683.000000	100.031881
682.000000	100.001919
681.000000	99.903411
680.000000	99.932581
679.000000	99.904923
678.000000	100.044622
677.000000	100.119327
676.000000	99.997164
675.000000	99.986735
674.000000	99.994600
673.000000	99.986818
672.000000	100.051282
671.000000	100.043135
670.000000	99.935169
669.000000	99.971872
668.000000	99.961616
667.000000	99.994134
666.000000	99.968474
665.000000	99.941536
664.000000	99.957573
663.000000	99.871948
662.000000	99.872213
661.000000	99.968994
660.000000	100.089404
659.000000	100.037715
658.000000	99.977518
657.000000	100.037835
656.000000	100.066028
655.000000	99.988161
654.000000	99.972265
653.000000	99.977314
652.000000	99.965646
651.000000	99.971243
650.000000	99.934488
649.000000	100.025100
648.000000	99.907254
647.000000	99.925103
646.000000	99.926908
645.000000	99.894476
644.000000	99.910879
643.000000	99.897487
642.000000	99.926891
641.000000	99.966881
640.000000	99.902751
639.000000	99.960595
638.000000	99.915053
637.000000	99.995856
636.000000	99.995579
635.000000	99.931682
634.000000	99.988851
633.000000	99.994009
632.000000	99.971523
631.000000	99.978248
630.000000	100.053015
629.000000	100.028303
628.000000	99.930764
627.000000	99.990408
626.000000	100.003412
625.000000	100.005350
624.000000	100.073076
623.000000	100.111754
622.000000	99.994832
621.000000	99.999169
620.000000	99.952946
619.000000	99.982746
618.000000	99.850027
617.000000	100.007385
616.000000	99.993353
615.000000	100.034540
614.000000	99.992892
613.000000	100.007577
612.000000	99.989838
611.000000	99.962215
610.000000	99.896071
609.000000	99.910273
608.000000	100.047160
607.000000	99.912249
606.000000	99.972283
605.000000	99.916968
604.000000	99.878298
603.000000	99.964868
602.000000	99.894275
601.000000	99.915911
600.000000	99.936217
599.000000	99.990108
598.000000	99.996300
597.000000	99.925359
596.000000	99.879921
595.000000	99.961727
594.000000	99.970037
593.000000	100.003885
592.000000	99.941989
591.000000	99.941809
590.000000	99.935796
589.000000	99.938676
588.000000	100.094964
587.000000	100.021739
586.000000	99.881955
585.000000	100.017317
584.000000	100.037026
583.000000	99.924134
582.000000	99.951025
581.000000	99.964922
580.000000	99.927178
579.000000	99.949714
578.000000	99.875808
577.000000	99.933098
576.000000	99.957879
575.000000	99.962787
574.000000	100.001667
573.000000	100.027447
572.000000	100.107325
571.000000	99.900823
570.000000	99.982773
569.000000	100.037355
568.000000	100.011765
567.000000	100.000000
566.000000	99.981747
565.000000	99.959897
564.000000	100.003984
563.000000	99.983874
562.000000	99.985172
561.000000	99.903630
560.000000	99.984082
559.000000	99.946146
558.000000	99.906479
557.000000	99.948656
556.000000	100.024442
555.000000	100.046387
554.000000	99.915024
553.000000	99.997500
552.000000	100.022494
551.000000	100.000093
550.000000	100.031013
549.000000	99.979533
548.000000	99.976012
547.000000	99.996666
546.000000	99.963984
545.000000	99.964541
544.000000	100.028255
543.000000	100.016577
542.000000	99.965176
541.000000	100.004263
540.000000	99.980367
539.000000	99.939611
538.000000	99.999629
537.000000	99.966740
536.000000	99.912745
535.000000	100.007880
534.000000	99.956366
533.000000	99.976092
532.000000	99.967575
531.000000	99.932192
530.000000	99.931054
529.000000	99.982658
528.000000	99.972000
527.000000	99.930854
526.000000	99.980998
525.000000	99.971081
524.000000	99.902198
523.000000	99.942138
522.000000	99.997125
521.000000	100.006214
520.000000	99.953559
519.000000	99.966445
518.000000	99.931017
517.000000	99.957798
516.000000	99.989521
515.000000	99.972741
514.000000	99.959585
513.000000	100.014746
512.000000	99.932860
511.000000	99.985345
510.000000	99.972550
509.000000	99.996384
508.000000	99.989337
507.000000	100.052027
506.000000	100.015766
505.000000	100.011596
504.000000	100.015026
503.000000	100.012615
502.000000	100.044520
501.000000	100.003154
500.000000	99.944910
499.000000	100.027278
498.000000	99.997867
497.000000	100.003710
496.000000	99.959464
495.000000	99.929961
494.000000	99.964189
493.000000	99.967254
492.000000	99.933335
491.000000	99.990074
490.000000	100.000093
489.000000	99.961712
488.000000	99.960684
487.000000	99.948347
486.000000	99.986275
485.000000	100.086246
484.000000	100.108049
483.000000	99.973168
482.000000	100.003065
481.000000	99.963970
480.000000	99.918844
479.000000	99.958206
478.000000	100.013942
477.000000	100.003533
476.000000	99.974431
475.000000	99.982433
474.000000	99.967007
473.000000	100.009020
472.000000	99.994605
471.000000	99.982413
470.000000	99.975438
469.000000	99.953113
468.000000	99.956190
467.000000	100.042903
466.000000	100.004840
465.000000	99.985016
464.000000	99.965844
463.000000	99.947784
462.000000	99.968816
461.000000	99.953284
460.000000	99.891514
459.000000	99.890926
458.000000	99.969653
457.000000	99.959327
456.000000	99.916623
455.000000	99.986595
454.000000	100.083181
453.000000	100.062892
452.000000	99.990406
451.000000	100.024773
450.000000	100.068186
449.000000	100.087959
448.000000	100.003446
447.000000	99.971777
446.000000	100.012017
445.000000	100.007175
444.000000	100.017894
443.000000	100.001118
442.000000	99.982666
441.000000	100.004100
440.000000	99.958994
439.000000	99.967004
438.000000	99.913900
437.000000	99.907175
436.000000	99.923928
435.000000	99.905074
434.000000	99.976038
433.000000	100.056339
432.000000	100.030601
431.000000	99.972011
430.000000	99.952417
429.000000	99.940757
428.000000	99.955396
427.000000	99.963046
426.000000	100.055543
425.000000	99.985155
424.000000	99.872646
423.000000	99.986279
422.000000	100.011670
421.000000	100.060877
420.000000	100.088781
419.000000	99.985519
418.000000	100.007098
417.000000	99.974963
416.000000	99.950768
415.000000	99.930253
414.000000	99.993742
413.000000	99.981217
412.000000	99.980847
411.000000	100.003083
410.000000	100.047760
409.000000	99.971689
408.000000	100.005888
407.000000	99.999159
406.000000	99.922512
405.000000	99.989529
404.000000	100.090526
403.000000	99.976817
402.000000	99.996635
401.000000	99.928049
400.000000	100.028905
399.000000	100.042000
398.000000	99.994016
397.000000	100.002150
396.000000	100.040214
395.000000	100.015046
394.000000	99.847198
393.000000	99.927003
392.000000	100.006452
391.000000	99.994951
390.000000	100.021127
389.000000	99.960646
388.000000	99.931857
387.000000	100.037051
386.000000	99.959254
385.000000	99.936646
384.000000	99.990935
383.000000	100.011875
382.000000	99.830925
381.000000	100.091819
380.000000	100.015046
379.000000	99.958230
378.000000	99.967685
377.000000	100.319911
376.000000	100.163080
375.000000	99.840433
374.000000	99.957173
373.000000	100.031216
372.000000	100.086815
371.000000	100.054641
370.000000	100.349014
369.000000	99.863630
368.000000	100.141947
367.000000	100.104918
366.000000	100.135389
365.000000	100.047963
364.000000	100.042042
363.000000	100.076952
362.000000	100.281274
361.000000	100.128476
360.000000	99.835068
359.000000	99.768531
358.000000	99.768596
357.000000	99.931736
356.000000	99.903005
355.000000	100.062403
354.000000	99.970998
353.000000	100.237228
352.000000	100.081067
351.000000	99.775968
350.000000	100.153301
349.000000	100.240151
348.000000	99.852452
347.000000	100.352657
346.000000	100.037488
345.000000	100.142966
344.000000	100.154150
343.000000	99.772190
342.000000	99.912835
341.000000	100.282056
340.000000	99.876279
339.000000	100.028290
338.000000	99.939157
337.000000	99.994249
336.000000	100.272634
335.000000	99.889872
334.000000	100.481953
333.000000	99.845300
332.000000	99.931017
331.000000	100.116125
330.000000	100.173464
329.000000	100.167139
328.000000	99.855356
327.000000	99.784621
326.000000	100.107294
325.000000	99.959323
324.000000	100.290318
323.000000	99.865835
322.000000	100.006194
321.000000	100.177575
320.000000	100.005456
319.000000	99.766878
318.000000	99.841508
317.000000	99.843350
316.000000	100.263432
315.000000	99.991253
314.000000	100.262244
313.000000	100.235330
312.000000	99.883055
311.000000	100.087629
310.000000	99.864897
309.000000	99.759668
308.000000	99.897345
307.000000	99.646384
306.000000	99.926734
305.000000	99.941081
304.000000	100.021174
303.000000	100.005431
302.000000	100.123268
301.000000	100.256025
300.000000	99.681648
299.000000	100.080053
298.000000	99.943808
297.000000	99.986720
296.000000	100.029447
295.000000	100.055691
294.000000	100.036157
293.000000	100.104793
292.000000	100.188841
291.000000	99.926644
290.000000	99.799598
289.000000	100.193881
288.000000	100.036403
287.000000	99.957506
286.000000	100.137844
285.000000	100.248027
284.000000	100.014064
283.000000	100.054659
282.000000	99.708720
281.000000	99.737547
280.000000	99.931152
279.000000	100.066703
278.000000	99.901148
277.000000	100.014555
276.000000	99.921649
275.000000	100.154712
274.000000	100.238821
273.000000	99.878990
272.000000	100.017541
271.000000	99.943892
270.000000	99.992281
269.000000	100.066845
268.000000	100.176521
267.000000	100.084929
266.000000	100.121614
265.000000	99.926601
264.000000	99.873176
263.000000	99.969062
262.000000	100.233454
261.000000	100.132207
260.000000	99.795941
259.000000	100.065105
258.000000	100.012256
257.000000	100.013267
256.000000	100.058514
255.000000	100.032102
254.000000	99.933409
253.000000	100.142572
252.000000	100.124106
251.000000	99.905307
250.000000	99.788543
249.000000	100.024181
248.000000	100.211567
247.000000	100.082231
246.000000	100.102120
245.000000	100.081723
244.000000	100.036860
243.000000	100.019328
242.000000	100.221753
241.000000	100.188601
240.000000	100.119090
239.000000	100.124648
238.000000	100.255928
237.000000	100.208095
236.000000	100.029573
235.000000	100.062856
234.000000	100.156652
233.000000	100.028239
232.000000	100.084514
231.000000	99.967375
230.000000	99.854564
229.000000	100.060540
228.000000	100.012190
227.000000	99.955673
226.000000	99.860590
225.000000	99.817207
224.000000	99.871631
223.000000	99.982788
222.000000	100.115304
221.000000	99.908784
220.000000	99.757844
219.000000	99.838234
218.000000	100.025408
217.000000	100.146142
216.000000	99.968418
215.000000	100.030071
214.000000	100.006148
213.000000	99.755107
212.000000	99.978028
211.000000	99.898923
210.000000	99.694216
209.000000	99.796007
208.000000	99.816897
207.000000	99.649872
206.000000	99.888067
205.000000	99.791086
204.000000	99.983167
203.000000	100.959186
202.000000	100.568922
201.000000	99.843742
200.000000	100.248411
