PE UV       SUBTECH     SPECTRUM    ASCII       PEDS        4.00        
   -1
RDgAgneauUK 42.Sample.asc
18/03/12
14:53:41.00
18/03/12
14:53:41.00
Administrator

200.000000
1
Lambda 750
750N8071901
PerkinElmer UV WinLab 6.0.4.0738 / 1.61.00 Lambda 900

0
0
3350/servo 860.8/2
0
0
UV/VIS
1
1
1
CommonBeamDepol,150mm sphere / downward view
0
0
0
0
Program
Program
3350/servo 860.8/2
3350/0.2 860.8/0.2
3350/0.2 860.8/0.2
0
1
 
 
 
0
 
860.8
319.2
860.8
Front
100
on
 
 
0
0
0
 
0
 
 
 
0
 
 
0
0
0
0
0
 
 
 
 
0
0


0
0
#HDR
-1
-1
#GR
nm
%R
1.0
0.0
2350.000000
-1.000000
2151
8
70.181688
13.598975
#DATA
2350.000000	24.818396
2349.000000	24.733061
2348.000000	24.746980
2347.000000	25.673084
2346.000000	24.974211
2345.000000	25.129281
2344.000000	25.157838
2343.000000	24.583668
2342.000000	24.734560
2341.000000	25.269998
2340.000000	25.418775
2339.000000	25.218769
2338.000000	25.528977
2337.000000	25.847296
2336.000000	25.650833
2335.000000	25.799896
2334.000000	25.704187
2333.000000	25.948736
2332.000000	26.142448
2331.000000	25.840884
2330.000000	25.663968
2329.000000	25.779624
2328.000000	25.773094
2327.000000	25.714372
2326.000000	25.951760
2325.000000	25.873789
2324.000000	25.907215
2323.000000	25.520028
2322.000000	25.439484
2321.000000	25.627001
2320.000000	25.652278
2319.000000	25.440154
2318.000000	25.826682
2317.000000	25.577650
2316.000000	25.502460
2315.000000	25.297562
2314.000000	25.237849
2313.000000	25.163202
2312.000000	25.271446
2311.000000	25.142705
2310.000000	24.997698
2309.000000	24.935623
2308.000000	24.977213
2307.000000	24.789713
2306.000000	24.638392
2305.000000	24.756217
2304.000000	24.531234
2303.000000	24.620658
2302.000000	24.490581
2301.000000	24.199257
2300.000000	24.020722
2299.000000	23.943686
2298.000000	23.739663
2297.000000	23.825122
2296.000000	23.917426
2295.000000	23.776590
2294.000000	23.796462
2293.000000	23.523038
2292.000000	23.363010
2291.000000	23.231981
2290.000000	23.263745
2289.000000	23.282731
2288.000000	23.111134
2287.000000	23.234093
2286.000000	23.055647
2285.000000	23.097315
2284.000000	23.076667
2283.000000	22.872026
2282.000000	22.919361
2281.000000	22.895118
2280.000000	22.895205
2279.000000	23.029688
2278.000000	22.887084
2277.000000	22.867810
2276.000000	23.063267
2275.000000	23.333095
2274.000000	23.331701
2273.000000	23.272716
2272.000000	23.216204
2271.000000	23.212150
2270.000000	23.381916
2269.000000	23.412870
2268.000000	23.278580
2267.000000	23.607379
2266.000000	23.887460
2265.000000	23.812155
2264.000000	23.959545
2263.000000	24.157104
2262.000000	24.161089
2261.000000	24.353035
2260.000000	24.579298
2259.000000	24.737868
2258.000000	24.939832
2257.000000	25.168031
2256.000000	25.320929
2255.000000	25.508696
2254.000000	25.797617
2253.000000	25.885234
2252.000000	26.014389
2251.000000	26.511583
2250.000000	26.744838
2249.000000	26.790775
2248.000000	27.083801
2247.000000	27.372784
2246.000000	27.636701
2245.000000	27.766743
2244.000000	27.908137
2243.000000	28.210475
2242.000000	28.460118
2241.000000	28.587071
2240.000000	28.670894
2239.000000	28.800163
2238.000000	28.963564
2237.000000	29.228752
2236.000000	29.368864
2235.000000	29.470479
2234.000000	29.618787
2233.000000	29.737852
2232.000000	29.776323
2231.000000	29.650548
2230.000000	29.713773
2229.000000	29.917312
2228.000000	30.053680
2227.000000	30.063005
2226.000000	29.987616
2225.000000	29.877833
2224.000000	29.827567
2223.000000	29.778109
2222.000000	29.808522
2221.000000	29.799894
2220.000000	29.728386
2219.000000	29.716930
2218.000000	29.718099
2217.000000	29.538440
2216.000000	29.571469
2215.000000	29.714610
2214.000000	29.664992
2213.000000	29.571679
2212.000000	29.338142
2211.000000	29.208927
2210.000000	29.218286
2209.000000	29.100098
2208.000000	28.891487
2207.000000	28.744564
2206.000000	28.839794
2205.000000	28.814126
2204.000000	28.610740
2203.000000	28.510816
2202.000000	28.448691
2201.000000	28.340940
2200.000000	28.258312
2199.000000	28.272791
2198.000000	28.142161
2197.000000	27.945667
2196.000000	27.811054
2195.000000	27.937583
2194.000000	27.735094
2193.000000	27.600573
2192.000000	27.454751
2191.000000	27.417175
2190.000000	27.384748
2189.000000	27.260341
2188.000000	27.310136
2187.000000	27.164571
2186.000000	26.989018
2185.000000	27.063749
2184.000000	26.945847
2183.000000	26.961111
2182.000000	26.899287
2181.000000	26.717302
2180.000000	26.674520
2179.000000	26.767173
2178.000000	26.779810
2177.000000	26.706123
2176.000000	26.583775
2175.000000	26.779699
2174.000000	26.788475
2173.000000	26.744195
2172.000000	26.863375
2171.000000	26.856641
2170.000000	27.082188
2169.000000	27.154139
2168.000000	27.061740
2167.000000	27.175739
2166.000000	27.246922
2165.000000	27.373676
2164.000000	27.608162
2163.000000	27.748054
2162.000000	27.763456
2161.000000	27.798672
2160.000000	28.188108
2159.000000	28.083470
2158.000000	28.185989
2157.000000	28.297005
2156.000000	28.603444
2155.000000	28.721313
2154.000000	28.846028
2153.000000	29.236382
2152.000000	29.225136
2151.000000	29.299768
2150.000000	29.654292
2149.000000	29.573261
2148.000000	29.747080
2147.000000	29.785418
2146.000000	30.058542
2145.000000	30.366035
2144.000000	30.438030
2143.000000	30.674382
2142.000000	30.825162
2141.000000	30.959727
2140.000000	31.020242
2139.000000	31.066278
2138.000000	31.502485
2137.000000	31.317945
2136.000000	31.471164
2135.000000	31.608647
2134.000000	31.813957
2133.000000	31.786962
2132.000000	31.897482
2131.000000	32.073087
2130.000000	32.394666
2129.000000	32.204014
2128.000000	32.226290
2127.000000	32.289597
2126.000000	32.439884
2125.000000	32.447443
2124.000000	32.564072
2123.000000	32.658508
2122.000000	32.701304
2121.000000	32.718223
2120.000000	32.744376
2119.000000	32.784533
2118.000000	32.851236
2117.000000	32.843777
2116.000000	32.883849
2115.000000	32.989701
2114.000000	32.946975
2113.000000	33.030532
2112.000000	33.131589
2111.000000	33.191918
2110.000000	33.150692
2109.000000	33.082286
2108.000000	33.128436
2107.000000	33.284016
2106.000000	33.052664
2105.000000	32.948924
2104.000000	33.056234
2103.000000	33.272778
2102.000000	33.201537
2101.000000	33.302993
2100.000000	33.119081
2099.000000	33.280375
2098.000000	33.170841
2097.000000	33.265531
2096.000000	33.313388
2095.000000	33.166657
2094.000000	33.183901
2093.000000	33.079307
2092.000000	33.122241
2091.000000	33.175976
2090.000000	33.107053
2089.000000	33.066465
2088.000000	33.133595
2087.000000	33.080498
2086.000000	32.948804
2085.000000	32.908595
2084.000000	32.755287
2083.000000	32.731750
2082.000000	32.644027
2081.000000	32.550323
2080.000000	32.537967
2079.000000	32.366233
2078.000000	32.177415
2077.000000	32.074241
2076.000000	32.033611
2075.000000	31.941550
2074.000000	31.778447
2073.000000	31.683805
2072.000000	31.542267
2071.000000	31.336906
2070.000000	31.174851
2069.000000	30.951235
2068.000000	30.732719
2067.000000	30.605144
2066.000000	30.426621
2065.000000	30.276836
2064.000000	30.043103
2063.000000	29.802235
2062.000000	29.698517
2061.000000	29.563095
2060.000000	29.329436
2059.000000	29.136564
2058.000000	28.938502
2057.000000	28.804409
2056.000000	28.646218
2055.000000	28.486596
2054.000000	28.283311
2053.000000	28.077452
2052.000000	27.938675
2051.000000	27.804805
2050.000000	27.708525
2049.000000	27.558133
2048.000000	27.403708
2047.000000	27.290859
2046.000000	27.247827
2045.000000	27.222514
2044.000000	27.165492
2043.000000	27.078114
2042.000000	27.036770
2041.000000	27.148127
2040.000000	27.199437
2039.000000	27.173980
2038.000000	27.225316
2037.000000	27.297804
2036.000000	27.379542
2035.000000	27.440199
2034.000000	27.553452
2033.000000	27.698751
2032.000000	27.811452
2031.000000	27.911719
2030.000000	28.017263
2029.000000	28.135176
2028.000000	28.291586
2027.000000	28.434582
2026.000000	28.566979
2025.000000	28.674621
2024.000000	28.741087
2023.000000	28.821355
2022.000000	28.863856
2021.000000	28.892277
2020.000000	28.986222
2019.000000	29.049949
2018.000000	29.033162
2017.000000	28.992779
2016.000000	29.008334
2015.000000	28.996354
2014.000000	28.935538
2013.000000	28.939510
2012.000000	28.894793
2011.000000	28.861445
2010.000000	28.789180
2009.000000	28.655261
2008.000000	28.564099
2007.000000	28.469742
2006.000000	28.367434
2005.000000	28.312465
2004.000000	28.210765
2003.000000	28.094570
2002.000000	27.986921
2001.000000	27.889094
2000.000000	27.750866
1999.000000	27.607899
1998.000000	27.501716
1997.000000	27.347526
1996.000000	27.213997
1995.000000	27.103731
1994.000000	26.978156
1993.000000	26.852268
1992.000000	26.694251
1991.000000	26.527735
1990.000000	26.427304
1989.000000	26.272296
1988.000000	26.092926
1987.000000	25.979208
1986.000000	25.883703
1985.000000	25.769651
1984.000000	25.611815
1983.000000	25.495429
1982.000000	25.399007
1981.000000	25.250437
1980.000000	25.083607
1979.000000	24.937366
1978.000000	24.799160
1977.000000	24.646204
1976.000000	24.541078
1975.000000	24.420240
1974.000000	24.232200
1973.000000	24.132726
1972.000000	24.034541
1971.000000	23.870145
1970.000000	23.725269
1969.000000	23.619285
1968.000000	23.517755
1967.000000	23.410639
1966.000000	23.282667
1965.000000	23.141087
1964.000000	22.986617
1963.000000	22.913434
1962.000000	22.781805
1961.000000	22.652093
1960.000000	22.540676
1959.000000	22.413093
1958.000000	22.390863
1957.000000	22.328438
1956.000000	22.136343
1955.000000	22.067591
1954.000000	21.975685
1953.000000	21.865710
1952.000000	21.821770
1951.000000	21.806864
1950.000000	21.738149
1949.000000	21.723025
1948.000000	21.735686
1947.000000	21.601219
1946.000000	21.604405
1945.000000	21.559820
1944.000000	21.574839
1943.000000	21.609548
1942.000000	21.579668
1941.000000	21.624082
1940.000000	21.691776
1939.000000	21.797126
1938.000000	21.815530
1937.000000	21.911716
1936.000000	22.041175
1935.000000	22.068747
1934.000000	22.289569
1933.000000	22.338924
1932.000000	22.373569
1931.000000	22.657541
1930.000000	22.803895
1929.000000	23.045426
1928.000000	23.172262
1927.000000	23.419734
1926.000000	23.655607
1925.000000	23.891476
1924.000000	24.210859
1923.000000	24.457258
1922.000000	24.723556
1921.000000	25.159940
1920.000000	25.475960
1919.000000	25.756102
1918.000000	26.113685
1917.000000	26.473254
1916.000000	26.843452
1915.000000	27.419042
1914.000000	27.911742
1913.000000	28.310977
1912.000000	28.628541
1911.000000	29.154500
1910.000000	29.656385
1909.000000	30.228591
1908.000000	30.841997
1907.000000	31.410382
1906.000000	31.896628
1905.000000	32.552471
1904.000000	33.126719
1903.000000	33.723059
1902.000000	34.469367
1901.000000	35.123726
1900.000000	35.849074
1899.000000	36.512290
1898.000000	37.188261
1897.000000	37.756376
1896.000000	38.470800
1895.000000	39.198543
1894.000000	39.828237
1893.000000	40.542178
1892.000000	41.200106
1891.000000	41.819387
1890.000000	42.475688
1889.000000	43.083250
1888.000000	43.655233
1887.000000	44.255246
1886.000000	44.809359
1885.000000	45.338530
1884.000000	45.875518
1883.000000	46.479283
1882.000000	46.986441
1881.000000	47.491732
1880.000000	47.927754
1879.000000	48.380475
1878.000000	48.832883
1877.000000	49.217545
1876.000000	49.645452
1875.000000	50.064274
1874.000000	50.441102
1873.000000	50.778000
1872.000000	51.063572
1871.000000	51.372940
1870.000000	51.666070
1869.000000	51.961107
1868.000000	52.189226
1867.000000	52.341111
1866.000000	52.564971
1865.000000	52.734698
1864.000000	52.858001
1863.000000	53.035915
1862.000000	53.137629
1861.000000	53.207678
1860.000000	53.352328
1859.000000	53.453045
1858.000000	53.472226
1857.000000	53.600559
1856.000000	53.668620
1855.000000	53.689328
1854.000000	53.776593
1853.000000	53.875614
1852.000000	53.888698
1851.000000	53.917382
1850.000000	53.952368
1849.000000	53.952829
1848.000000	53.972475
1847.000000	53.959080
1846.000000	53.926300
1845.000000	53.916201
1844.000000	53.955665
1843.000000	53.911621
1842.000000	53.869563
1841.000000	53.831068
1840.000000	53.789389
1839.000000	53.791997
1838.000000	53.760661
1837.000000	53.717648
1836.000000	53.635017
1835.000000	53.561535
1834.000000	53.524631
1833.000000	53.506800
1832.000000	53.398385
1831.000000	53.328361
1830.000000	53.305627
1829.000000	53.247357
1828.000000	53.210613
1827.000000	53.153478
1826.000000	53.106077
1825.000000	53.086764
1824.000000	53.033770
1823.000000	52.988675
1822.000000	52.926170
1821.000000	52.877286
1820.000000	52.866102
1819.000000	52.817530
1818.000000	52.759643
1817.000000	52.725152
1816.000000	52.672491
1815.000000	52.615028
1814.000000	52.547233
1813.000000	52.501914
1812.000000	52.474814
1811.000000	52.439269
1810.000000	52.381777
1809.000000	52.336273
1808.000000	52.272021
1807.000000	52.205051
1806.000000	52.177067
1805.000000	52.104837
1804.000000	52.051736
1803.000000	52.027667
1802.000000	51.967146
1801.000000	51.925401
1800.000000	51.891325
1799.000000	51.857263
1798.000000	51.829667
1797.000000	51.801963
1796.000000	51.776235
1795.000000	51.728290
1794.000000	51.698765
1793.000000	51.653985
1792.000000	51.596789
1791.000000	51.571412
1790.000000	51.546021
1789.000000	51.497035
1788.000000	51.470299
1787.000000	51.447790
1786.000000	51.407076
1785.000000	51.375124
1784.000000	51.309346
1783.000000	51.261079
1782.000000	51.243141
1781.000000	51.196370
1780.000000	51.170872
1779.000000	51.131352
1778.000000	51.046039
1777.000000	50.977588
1776.000000	50.923223
1775.000000	50.846022
1774.000000	50.779238
1773.000000	50.747524
1772.000000	50.657567
1771.000000	50.592904
1770.000000	50.509186
1769.000000	50.428658
1768.000000	50.372348
1767.000000	50.305955
1766.000000	50.270595
1765.000000	50.219139
1764.000000	50.160250
1763.000000	50.060511
1762.000000	49.986619
1761.000000	49.948350
1760.000000	49.892946
1759.000000	49.816577
1758.000000	49.786360
1757.000000	49.704329
1756.000000	49.643581
1755.000000	49.587985
1754.000000	49.503181
1753.000000	49.460389
1752.000000	49.385879
1751.000000	49.351089
1750.000000	49.276956
1749.000000	49.223381
1748.000000	49.135358
1747.000000	49.100477
1746.000000	49.032115
1745.000000	48.903923
1744.000000	48.821818
1743.000000	48.784408
1742.000000	48.707365
1741.000000	48.644674
1740.000000	48.603036
1739.000000	48.551240
1738.000000	48.469211
1737.000000	48.416451
1736.000000	48.388097
1735.000000	48.398815
1734.000000	48.379265
1733.000000	48.369092
1732.000000	48.372084
1731.000000	48.362980
1730.000000	48.390498
1729.000000	48.471991
1728.000000	48.507420
1727.000000	48.612706
1726.000000	48.631125
1725.000000	48.737901
1724.000000	48.818784
1723.000000	48.921375
1722.000000	49.043024
1721.000000	49.147740
1720.000000	49.312096
1719.000000	49.491202
1718.000000	49.605326
1717.000000	49.715616
1716.000000	49.845543
1715.000000	49.931715
1714.000000	50.094983
1713.000000	50.211177
1712.000000	50.303695
1711.000000	50.385596
1710.000000	50.464130
1709.000000	50.560771
1708.000000	50.621739
1707.000000	50.694335
1706.000000	50.753075
1705.000000	50.808016
1704.000000	50.868160
1703.000000	50.913656
1702.000000	50.909135
1701.000000	50.959832
1700.000000	50.983617
1699.000000	50.946728
1698.000000	50.973577
1697.000000	51.027433
1696.000000	51.075211
1695.000000	51.113248
1694.000000	51.143349
1693.000000	51.208659
1692.000000	51.261683
1691.000000	51.358641
1690.000000	51.449321
1689.000000	51.533297
1688.000000	51.651544
1687.000000	51.766537
1686.000000	51.917311
1685.000000	52.116214
1684.000000	52.271054
1683.000000	52.446197
1682.000000	52.626381
1681.000000	52.840169
1680.000000	53.018060
1679.000000	53.254244
1678.000000	53.463925
1677.000000	53.683782
1676.000000	53.882247
1675.000000	54.134936
1674.000000	54.341155
1673.000000	54.571598
1672.000000	54.754959
1671.000000	54.941447
1670.000000	55.144594
1669.000000	55.339758
1668.000000	55.500946
1667.000000	55.717487
1666.000000	55.813520
1665.000000	55.946721
1664.000000	56.062246
1663.000000	56.176264
1662.000000	56.285566
1661.000000	56.385937
1660.000000	56.478525
1659.000000	56.540063
1658.000000	56.612991
1657.000000	56.647793
1656.000000	56.701368
1655.000000	56.729743
1654.000000	56.749593
1653.000000	56.788401
1652.000000	56.813695
1651.000000	56.804024
1650.000000	56.822867
1649.000000	56.807790
1648.000000	56.771892
1647.000000	56.763965
1646.000000	56.773216
1645.000000	56.733213
1644.000000	56.700715
1643.000000	56.682870
1642.000000	56.655212
1641.000000	56.580393
1640.000000	56.559813
1639.000000	56.534739
1638.000000	56.506165
1637.000000	56.421802
1636.000000	56.368716
1635.000000	56.338533
1634.000000	56.286681
1633.000000	56.243780
1632.000000	56.188701
1631.000000	56.134184
1630.000000	56.058914
1629.000000	56.011840
1628.000000	55.966347
1627.000000	55.900753
1626.000000	55.811182
1625.000000	55.738346
1624.000000	55.675947
1623.000000	55.622567
1622.000000	55.561416
1621.000000	55.488896
1620.000000	55.428726
1619.000000	55.340543
1618.000000	55.262931
1617.000000	55.201114
1616.000000	55.123303
1615.000000	55.032546
1614.000000	54.966254
1613.000000	54.889297
1612.000000	54.786937
1611.000000	54.715808
1610.000000	54.633318
1609.000000	54.561466
1608.000000	54.485137
1607.000000	54.374881
1606.000000	54.287536
1605.000000	54.209522
1604.000000	54.118171
1603.000000	54.022293
1602.000000	53.932374
1601.000000	53.853520
1600.000000	53.761446
1599.000000	53.683898
1598.000000	53.599896
1597.000000	53.510837
1596.000000	53.423717
1595.000000	53.342719
1594.000000	53.268347
1593.000000	53.203057
1592.000000	53.123953
1591.000000	53.038034
1590.000000	52.965074
1589.000000	52.891819
1588.000000	52.816273
1587.000000	52.745857
1586.000000	52.678332
1585.000000	52.605876
1584.000000	52.545410
1583.000000	52.477656
1582.000000	52.403378
1581.000000	52.345583
1580.000000	52.285630
1579.000000	52.209932
1578.000000	52.138273
1577.000000	52.074738
1576.000000	52.002785
1575.000000	51.924572
1574.000000	51.856950
1573.000000	51.783464
1572.000000	51.722390
1571.000000	51.668449
1570.000000	51.601557
1569.000000	51.540143
1568.000000	51.496610
1567.000000	51.430737
1566.000000	51.379377
1565.000000	51.333406
1564.000000	51.271610
1563.000000	51.234143
1562.000000	51.190011
1561.000000	51.144745
1560.000000	51.102724
1559.000000	51.073858
1558.000000	51.037202
1557.000000	51.003840
1556.000000	50.960422
1555.000000	50.928210
1554.000000	50.884813
1553.000000	50.848541
1552.000000	50.803787
1551.000000	50.733573
1550.000000	50.682792
1549.000000	50.625674
1548.000000	50.562971
1547.000000	50.474816
1546.000000	50.380527
1545.000000	50.316776
1544.000000	50.220405
1543.000000	50.110476
1542.000000	50.016542
1541.000000	49.906616
1540.000000	49.803824
1539.000000	49.701489
1538.000000	49.557368
1537.000000	49.439214
1536.000000	49.319177
1535.000000	49.198491
1534.000000	49.080116
1533.000000	48.979198
1532.000000	48.872373
1531.000000	48.759952
1530.000000	48.654853
1529.000000	48.544838
1528.000000	48.435043
1527.000000	48.352273
1526.000000	48.279045
1525.000000	48.163291
1524.000000	48.083282
1523.000000	48.009135
1522.000000	47.945239
1521.000000	47.866935
1520.000000	47.832876
1519.000000	47.755223
1518.000000	47.700640
1517.000000	47.624381
1516.000000	47.611621
1515.000000	47.530940
1514.000000	47.471040
1513.000000	47.444885
1512.000000	47.399190
1511.000000	47.377525
1510.000000	47.318892
1509.000000	47.284956
1508.000000	47.243870
1507.000000	47.200476
1506.000000	47.165746
1505.000000	47.152699
1504.000000	47.133392
1503.000000	47.099742
1502.000000	47.087416
1501.000000	47.065990
1500.000000	47.044403
1499.000000	47.025978
1498.000000	47.006536
1497.000000	47.006350
1496.000000	47.007364
1495.000000	47.022932
1494.000000	47.019470
1493.000000	47.025378
1492.000000	47.046349
1491.000000	47.057538
1490.000000	47.083039
1489.000000	47.108333
1488.000000	47.120968
1487.000000	47.137720
1486.000000	47.180594
1485.000000	47.196978
1484.000000	47.242616
1483.000000	47.296405
1482.000000	47.316159
1481.000000	47.369603
1480.000000	47.409741
1479.000000	47.451610
1478.000000	47.485033
1477.000000	47.528575
1476.000000	47.556951
1475.000000	47.618374
1474.000000	47.671411
1473.000000	47.696925
1472.000000	47.737233
1471.000000	47.769122
1470.000000	47.826571
1469.000000	47.882320
1468.000000	47.924594
1467.000000	47.967534
1466.000000	48.010249
1465.000000	48.077174
1464.000000	48.109910
1463.000000	48.180798
1462.000000	48.238781
1461.000000	48.291313
1460.000000	48.340494
1459.000000	48.402241
1458.000000	48.499723
1457.000000	48.544726
1456.000000	48.611521
1455.000000	48.684647
1454.000000	48.771570
1453.000000	48.854078
1452.000000	48.946568
1451.000000	49.028466
1450.000000	49.137502
1449.000000	49.239794
1448.000000	49.347962
1447.000000	49.431088
1446.000000	49.553816
1445.000000	49.654659
1444.000000	49.771731
1443.000000	49.889692
1442.000000	50.011572
1441.000000	50.140382
1440.000000	50.271392
1439.000000	50.401215
1438.000000	50.553797
1437.000000	50.705020
1436.000000	50.861138
1435.000000	51.025088
1434.000000	51.181776
1433.000000	51.344661
1432.000000	51.528550
1431.000000	51.719318
1430.000000	51.898339
1429.000000	52.094232
1428.000000	52.274263
1427.000000	52.490140
1426.000000	52.704416
1425.000000	52.910822
1424.000000	53.122498
1423.000000	53.357808
1422.000000	53.598355
1421.000000	53.854868
1420.000000	54.077077
1419.000000	54.331236
1418.000000	54.593019
1417.000000	54.849837
1416.000000	55.110762
1415.000000	55.380409
1414.000000	55.657953
1413.000000	55.932168
1412.000000	56.212294
1411.000000	56.504686
1410.000000	56.786551
1409.000000	57.060874
1408.000000	57.346877
1407.000000	57.623644
1406.000000	57.906953
1405.000000	58.186130
1404.000000	58.441180
1403.000000	58.722459
1402.000000	59.006438
1401.000000	59.273488
1400.000000	59.533475
1399.000000	59.785902
1398.000000	60.013472
1397.000000	60.262356
1396.000000	60.514098
1395.000000	60.740100
1394.000000	60.964187
1393.000000	61.191186
1392.000000	61.406665
1391.000000	61.606213
1390.000000	61.796756
1389.000000	61.970612
1388.000000	62.169576
1387.000000	62.350950
1386.000000	62.490795
1385.000000	62.657104
1384.000000	62.831544
1383.000000	62.985511
1382.000000	63.105783
1381.000000	63.231290
1380.000000	63.345091
1379.000000	63.444927
1378.000000	63.551245
1377.000000	63.659317
1376.000000	63.754891
1375.000000	63.828824
1374.000000	63.918458
1373.000000	64.008302
1372.000000	64.066120
1371.000000	64.139603
1370.000000	64.229799
1369.000000	64.300993
1368.000000	64.360964
1367.000000	64.427527
1366.000000	64.498526
1365.000000	64.562994
1364.000000	64.627193
1363.000000	64.695210
1362.000000	64.758771
1361.000000	64.828636
1360.000000	64.915056
1359.000000	64.990962
1358.000000	65.080396
1357.000000	65.141700
1356.000000	65.181928
1355.000000	65.274502
1354.000000	65.373578
1353.000000	65.446382
1352.000000	65.503015
1351.000000	65.577649
1350.000000	65.655695
1349.000000	65.743174
1348.000000	65.803170
1347.000000	65.858286
1346.000000	65.959136
1345.000000	66.032075
1344.000000	66.075567
1343.000000	66.159502
1342.000000	66.232964
1341.000000	66.295034
1340.000000	66.362692
1339.000000	66.432880
1338.000000	66.513452
1337.000000	66.572550
1336.000000	66.596112
1335.000000	66.648910
1334.000000	66.718253
1333.000000	66.776665
1332.000000	66.846332
1331.000000	66.920590
1330.000000	66.981603
1329.000000	67.036788
1328.000000	67.070918
1327.000000	67.099166
1326.000000	67.118715
1325.000000	67.144228
1324.000000	67.178730
1323.000000	67.213737
1322.000000	67.230094
1321.000000	67.264795
1320.000000	67.304735
1319.000000	67.324825
1318.000000	67.355278
1317.000000	67.373434
1316.000000	67.387323
1315.000000	67.424051
1314.000000	67.473739
1313.000000	67.483500
1312.000000	67.504516
1311.000000	67.507262
1310.000000	67.516933
1309.000000	67.532047
1308.000000	67.555106
1307.000000	67.565836
1306.000000	67.567685
1305.000000	67.611096
1304.000000	67.645177
1303.000000	67.638929
1302.000000	67.652785
1301.000000	67.672941
1300.000000	67.655131
1299.000000	67.662443
1298.000000	67.671682
1297.000000	67.681836
1296.000000	67.687273
1295.000000	67.702650
1294.000000	67.699034
1293.000000	67.692480
1292.000000	67.692396
1291.000000	67.710851
1290.000000	67.700543
1289.000000	67.696659
1288.000000	67.687125
1287.000000	67.680303
1286.000000	67.672961
1285.000000	67.676131
1284.000000	67.676314
1283.000000	67.686175
1282.000000	67.659988
1281.000000	67.666679
1280.000000	67.634968
1279.000000	67.636902
1278.000000	67.647020
1277.000000	67.656519
1276.000000	67.655281
1275.000000	67.631761
1274.000000	67.650952
1273.000000	67.673366
1272.000000	67.664092
1271.000000	67.641457
1270.000000	67.656868
1269.000000	67.664831
1268.000000	67.663986
1267.000000	67.722822
1266.000000	67.692602
1265.000000	67.743818
1264.000000	67.742878
1263.000000	67.717299
1262.000000	67.729892
1261.000000	67.734680
1260.000000	67.769360
1259.000000	67.761188
1258.000000	67.767089
1257.000000	67.770426
1256.000000	67.781452
1255.000000	67.787588
1254.000000	67.797884
1253.000000	67.777179
1252.000000	67.766548
1251.000000	67.786214
1250.000000	67.781272
1249.000000	67.773418
1248.000000	67.776673
1247.000000	67.766110
1246.000000	67.758107
1245.000000	67.764955
1244.000000	67.748337
1243.000000	67.739086
1242.000000	67.737990
1241.000000	67.691626
1240.000000	67.677473
1239.000000	67.651250
1238.000000	67.627617
1237.000000	67.620310
1236.000000	67.586365
1235.000000	67.544719
1234.000000	67.535348
1233.000000	67.503893
1232.000000	67.486527
1231.000000	67.448460
1230.000000	67.431405
1229.000000	67.429268
1228.000000	67.410271
1227.000000	67.385876
1226.000000	67.358987
1225.000000	67.319914
1224.000000	67.307497
1223.000000	67.272605
1222.000000	67.242724
1221.000000	67.230823
1220.000000	67.210094
1219.000000	67.173457
1218.000000	67.142600
1217.000000	67.123453
1216.000000	67.081763
1215.000000	67.041347
1214.000000	67.053559
1213.000000	67.010365
1212.000000	66.943844
1211.000000	66.924896
1210.000000	66.907856
1209.000000	66.853764
1208.000000	66.820621
1207.000000	66.796989
1206.000000	66.746304
1205.000000	66.711546
1204.000000	66.677219
1203.000000	66.648278
1202.000000	66.586260
1201.000000	66.553376
1200.000000	66.526793
1199.000000	66.485507
1198.000000	66.438172
1197.000000	66.392703
1196.000000	66.371279
1195.000000	66.360184
1194.000000	66.341052
1193.000000	66.303904
1192.000000	66.285178
1191.000000	66.268894
1190.000000	66.246590
1189.000000	66.219822
1188.000000	66.219514
1187.000000	66.206838
1186.000000	66.187290
1185.000000	66.194614
1184.000000	66.223317
1183.000000	66.248195
1182.000000	66.265285
1181.000000	66.292041
1180.000000	66.320257
1179.000000	66.349075
1178.000000	66.368747
1177.000000	66.415204
1176.000000	66.465025
1175.000000	66.522035
1174.000000	66.569181
1173.000000	66.622053
1172.000000	66.686398
1171.000000	66.767084
1170.000000	66.848562
1169.000000	66.917440
1168.000000	66.996682
1167.000000	67.079535
1166.000000	67.159033
1165.000000	67.248022
1164.000000	67.338472
1163.000000	67.414832
1162.000000	67.496269
1161.000000	67.584983
1160.000000	67.672814
1159.000000	67.753939
1158.000000	67.831797
1157.000000	67.908503
1156.000000	67.982273
1155.000000	68.054216
1154.000000	68.120523
1153.000000	68.187137
1152.000000	68.259008
1151.000000	68.323026
1150.000000	68.395328
1149.000000	68.464457
1148.000000	68.510230
1147.000000	68.575885
1146.000000	68.637092
1145.000000	68.684345
1144.000000	68.742886
1143.000000	68.794971
1142.000000	68.847622
1141.000000	68.892812
1140.000000	68.952810
1139.000000	69.015367
1138.000000	69.049434
1137.000000	69.070770
1136.000000	69.127670
1135.000000	69.176495
1134.000000	69.221542
1133.000000	69.262079
1132.000000	69.294703
1131.000000	69.326898
1130.000000	69.359345
1129.000000	69.386800
1128.000000	69.407437
1127.000000	69.441717
1126.000000	69.471764
1125.000000	69.489294
1124.000000	69.507438
1123.000000	69.520495
1122.000000	69.546520
1121.000000	69.557843
1120.000000	69.575171
1119.000000	69.607502
1118.000000	69.619999
1117.000000	69.623876
1116.000000	69.632974
1115.000000	69.637938
1114.000000	69.659946
1113.000000	69.676706
1112.000000	69.687984
1111.000000	69.688764
1110.000000	69.667595
1109.000000	69.677764
1108.000000	69.691142
1107.000000	69.705362
1106.000000	69.711497
1105.000000	69.702243
1104.000000	69.712018
1103.000000	69.716512
1102.000000	69.704216
1101.000000	69.703635
1100.000000	69.702501
1099.000000	69.718768
1098.000000	69.720403
1097.000000	69.733957
1096.000000	69.740880
1095.000000	69.733449
1094.000000	69.726770
1093.000000	69.719981
1092.000000	69.735863
1091.000000	69.727009
1090.000000	69.717699
1089.000000	69.739865
1088.000000	69.727859
1087.000000	69.745530
1086.000000	69.737632
1085.000000	69.731421
1084.000000	69.729194
1083.000000	69.710519
1082.000000	69.710147
1081.000000	69.710224
1080.000000	69.706798
1079.000000	69.688164
1078.000000	69.704528
1077.000000	69.712182
1076.000000	69.687717
1075.000000	69.675714
1074.000000	69.692447
1073.000000	69.688570
1072.000000	69.682813
1071.000000	69.646822
1070.000000	69.644792
1069.000000	69.657068
1068.000000	69.658712
1067.000000	69.648576
1066.000000	69.642898
1065.000000	69.638195
1064.000000	69.606101
1063.000000	69.623803
1062.000000	69.620607
1061.000000	69.632011
1060.000000	69.576228
1059.000000	69.569484
1058.000000	69.582459
1057.000000	69.570272
1056.000000	69.553390
1055.000000	69.551655
1054.000000	69.533281
1053.000000	69.539781
1052.000000	69.549514
1051.000000	69.534262
1050.000000	69.516346
1049.000000	69.528204
1048.000000	69.526953
1047.000000	69.513174
1046.000000	69.495360
1045.000000	69.483403
1044.000000	69.481061
1043.000000	69.477678
1042.000000	69.465066
1041.000000	69.477739
1040.000000	69.458530
1039.000000	69.461887
1038.000000	69.437032
1037.000000	69.415926
1036.000000	69.433716
1035.000000	69.448019
1034.000000	69.429777
1033.000000	69.411599
1032.000000	69.396448
1031.000000	69.411822
1030.000000	69.416488
1029.000000	69.397426
1028.000000	69.389786
1027.000000	69.382535
1026.000000	69.389609
1025.000000	69.385085
1024.000000	69.357022
1023.000000	69.374175
1022.000000	69.375714
1021.000000	69.380804
1020.000000	69.368804
1019.000000	69.355773
1018.000000	69.370632
1017.000000	69.378093
1016.000000	69.358183
1015.000000	69.366731
1014.000000	69.372142
1013.000000	69.392035
1012.000000	69.380037
1011.000000	69.372316
1010.000000	69.369059
1009.000000	69.368274
1008.000000	69.372356
1007.000000	69.374805
1006.000000	69.389807
1005.000000	69.378922
1004.000000	69.362199
1003.000000	69.394463
1002.000000	69.390810
1001.000000	69.416483
1000.000000	69.418213
999.000000	69.406479
998.000000	69.395266
997.000000	69.406538
996.000000	69.413529
995.000000	69.413503
994.000000	69.419707
993.000000	69.425676
992.000000	69.409248
991.000000	69.432834
990.000000	69.450812
989.000000	69.427688
988.000000	69.450351
987.000000	69.453111
986.000000	69.450395
985.000000	69.458133
984.000000	69.469750
983.000000	69.482900
982.000000	69.490050
981.000000	69.496269
980.000000	69.484680
979.000000	69.496939
978.000000	69.512106
977.000000	69.522748
976.000000	69.545818
975.000000	69.565597
974.000000	69.551796
973.000000	69.547923
972.000000	69.577468
971.000000	69.581648
970.000000	69.569720
969.000000	69.592523
968.000000	69.602067
967.000000	69.610083
966.000000	69.629118
965.000000	69.640555
964.000000	69.651272
963.000000	69.669978
962.000000	69.687079
961.000000	69.691758
960.000000	69.694910
959.000000	69.706453
958.000000	69.721377
957.000000	69.736564
956.000000	69.728749
955.000000	69.726226
954.000000	69.744745
953.000000	69.783591
952.000000	69.785489
951.000000	69.786656
950.000000	69.779307
949.000000	69.763994
948.000000	69.802284
947.000000	69.815072
946.000000	69.834735
945.000000	69.859768
944.000000	69.857962
943.000000	69.852599
942.000000	69.846553
941.000000	69.842576
940.000000	69.866289
939.000000	69.879550
938.000000	69.856214
937.000000	69.857375
936.000000	69.869004
935.000000	69.857303
934.000000	69.870739
933.000000	69.889533
932.000000	69.877518
931.000000	69.889412
930.000000	69.891530
929.000000	69.902739
928.000000	69.898642
927.000000	69.899096
926.000000	69.906061
925.000000	69.894953
924.000000	69.891271
923.000000	69.900952
922.000000	69.887405
921.000000	69.872305
920.000000	69.862073
919.000000	69.843749
918.000000	69.854696
917.000000	69.891951
916.000000	69.885804
915.000000	69.837252
914.000000	69.877909
913.000000	69.865814
912.000000	69.861148
911.000000	69.855986
910.000000	69.881098
909.000000	69.860578
908.000000	69.851147
907.000000	69.865998
906.000000	69.831582
905.000000	69.833448
904.000000	69.929069
903.000000	69.946640
902.000000	69.933857
901.000000	69.881198
900.000000	69.876737
899.000000	69.928714
898.000000	69.914792
897.000000	69.875460
896.000000	69.895372
895.000000	69.903579
894.000000	69.930072
893.000000	69.923616
892.000000	69.917567
891.000000	69.950350
890.000000	69.934826
889.000000	69.958925
888.000000	69.966479
887.000000	70.002021
886.000000	70.059741
885.000000	70.101188
884.000000	70.046673
883.000000	70.032970
882.000000	70.008511
881.000000	70.052279
880.000000	70.121377
879.000000	70.083370
878.000000	70.047846
877.000000	69.985400
876.000000	70.046057
875.000000	70.094514
874.000000	70.089469
873.000000	70.003348
872.000000	69.972319
871.000000	70.107552
870.000000	70.155523
869.000000	70.067794
868.000000	70.115838
867.000000	70.093861
866.000000	70.166414
865.000000	70.029118
864.000000	70.144587
863.000000	70.069238
862.000000	70.142712
861.000000	70.106329
860.000000	70.111081
859.000000	69.475785
858.000000	70.018825
857.000000	69.640068
856.000000	69.646773
855.000000	70.181688
854.000000	69.560746
853.000000	69.779171
852.000000	69.593276
851.000000	69.994176
850.000000	69.723355
849.000000	70.027190
848.000000	69.672233
847.000000	70.008812
846.000000	69.808410
845.000000	69.464580
844.000000	69.537190
843.000000	69.444542
842.000000	69.892176
841.000000	69.618782
840.000000	69.918504
839.000000	69.811294
838.000000	69.991925
837.000000	69.725857
836.000000	69.731112
835.000000	69.456304
834.000000	69.692479
833.000000	69.778766
832.000000	69.568863
831.000000	69.767180
830.000000	69.777052
829.000000	69.805903
828.000000	69.889071
827.000000	69.515652
826.000000	69.726248
825.000000	69.727038
824.000000	69.525734
823.000000	69.502507
822.000000	69.926809
821.000000	69.765886
820.000000	69.663979
819.000000	69.706091
818.000000	69.754209
817.000000	69.692002
816.000000	69.682692
815.000000	69.530220
814.000000	69.895185
813.000000	69.679401
812.000000	69.698873
811.000000	69.726442
810.000000	69.697867
809.000000	69.596837
808.000000	69.664004
807.000000	69.511896
806.000000	69.775053
805.000000	69.746099
804.000000	69.709569
803.000000	69.733889
802.000000	69.617787
801.000000	69.754320
800.000000	69.803775
799.000000	69.777629
798.000000	69.717970
797.000000	69.770217
796.000000	69.756553
795.000000	69.707103
794.000000	69.798400
793.000000	69.632129
792.000000	69.688949
791.000000	69.743102
790.000000	69.601637
789.000000	69.707582
788.000000	69.735406
787.000000	69.724065
786.000000	69.730312
785.000000	69.678491
784.000000	69.641209
783.000000	69.813744
782.000000	69.669858
781.000000	69.900654
780.000000	69.714529
779.000000	69.684009
778.000000	69.741753
777.000000	69.732394
776.000000	69.734458
775.000000	69.779994
774.000000	69.742217
773.000000	69.741283
772.000000	69.754568
771.000000	69.823748
770.000000	69.778256
769.000000	69.841177
768.000000	69.742195
767.000000	69.655092
766.000000	69.624981
765.000000	69.765140
764.000000	69.835239
763.000000	69.852650
762.000000	69.806722
761.000000	69.828869
760.000000	69.863735
759.000000	69.724219
758.000000	69.724307
757.000000	69.745438
756.000000	69.723161
755.000000	69.770572
754.000000	69.761818
753.000000	69.901618
752.000000	69.853740
751.000000	69.723181
750.000000	69.716672
749.000000	69.776184
748.000000	69.723511
747.000000	69.766516
746.000000	69.715294
745.000000	69.717746
744.000000	69.749430
743.000000	69.716738
742.000000	69.810570
741.000000	69.743132
740.000000	69.712125
739.000000	69.719305
738.000000	69.737121
737.000000	69.691090
736.000000	69.704956
735.000000	69.780466
734.000000	69.753759
733.000000	69.693549
732.000000	69.722726
731.000000	69.712298
730.000000	69.751279
729.000000	69.752516
728.000000	69.756672
727.000000	69.816580
726.000000	69.768688
725.000000	69.748813
724.000000	69.731435
723.000000	69.727002
722.000000	69.729900
721.000000	69.798873
720.000000	69.868097
719.000000	69.789595
718.000000	69.750818
717.000000	69.725134
716.000000	69.736684
715.000000	69.747105
714.000000	69.748203
713.000000	69.734811
712.000000	69.667302
711.000000	69.752647
710.000000	69.873553
709.000000	69.851523
708.000000	69.763053
707.000000	69.707321
706.000000	69.734603
705.000000	69.792598
704.000000	69.796157
703.000000	69.755489
702.000000	69.747803
701.000000	69.780390
700.000000	69.801139
699.000000	69.771102
698.000000	69.776173
697.000000	69.738546
696.000000	69.773743
695.000000	69.816511
694.000000	69.808450
693.000000	69.809922
692.000000	69.805475
691.000000	69.842573
690.000000	69.830048
689.000000	69.767340
688.000000	69.732867
687.000000	69.735797
686.000000	69.770128
685.000000	69.765903
684.000000	69.769193
683.000000	69.842779
682.000000	69.860569
681.000000	69.744852
680.000000	69.779006
679.000000	69.806363
678.000000	69.855858
677.000000	69.862472
676.000000	69.748266
675.000000	69.783850
674.000000	69.826368
673.000000	69.801247
672.000000	69.791171
671.000000	69.782706
670.000000	69.826934
669.000000	69.826734
668.000000	69.798848
667.000000	69.822532
666.000000	69.843884
665.000000	69.841305
664.000000	69.800117
663.000000	69.767114
662.000000	69.768608
661.000000	69.825907
660.000000	69.878946
659.000000	69.856407
658.000000	69.797771
657.000000	69.826343
656.000000	69.860247
655.000000	69.818460
654.000000	69.890640
653.000000	69.844811
652.000000	69.814179
651.000000	69.794374
650.000000	69.763991
649.000000	69.793800
648.000000	69.714389
647.000000	69.743236
646.000000	69.779172
645.000000	69.778868
644.000000	69.812102
643.000000	69.788372
642.000000	69.792840
641.000000	69.818868
640.000000	69.804959
639.000000	69.859477
638.000000	69.803095
637.000000	69.813899
636.000000	69.864272
635.000000	69.780276
634.000000	69.840727
633.000000	69.779178
632.000000	69.757223
631.000000	69.812549
630.000000	69.860815
629.000000	69.810027
628.000000	69.745706
627.000000	69.762933
626.000000	69.736406
625.000000	69.761392
624.000000	69.781316
623.000000	69.780248
622.000000	69.796448
621.000000	69.771473
620.000000	69.718193
619.000000	69.724102
618.000000	69.668271
617.000000	69.770626
616.000000	69.716980
615.000000	69.714100
614.000000	69.665984
613.000000	69.748973
612.000000	69.693182
611.000000	69.717082
610.000000	69.694587
609.000000	69.694133
608.000000	69.743040
607.000000	69.623908
606.000000	69.686863
605.000000	69.602398
604.000000	69.609296
603.000000	69.669503
602.000000	69.578783
601.000000	69.530079
600.000000	69.595147
599.000000	69.547378
598.000000	69.593654
597.000000	69.548766
596.000000	69.523383
595.000000	69.524951
594.000000	69.598377
593.000000	69.562845
592.000000	69.442980
591.000000	69.565065
590.000000	69.443679
589.000000	69.417004
588.000000	69.472338
587.000000	69.442569
586.000000	69.422817
585.000000	69.484098
584.000000	69.406015
583.000000	69.406977
582.000000	69.380955
581.000000	69.409503
580.000000	69.345927
579.000000	69.380673
578.000000	69.294011
577.000000	69.338785
576.000000	69.368084
575.000000	69.289315
574.000000	69.269379
573.000000	69.359666
572.000000	69.303111
571.000000	69.226666
570.000000	69.222006
569.000000	69.287198
568.000000	69.211294
567.000000	69.170958
566.000000	69.146027
565.000000	69.137738
564.000000	69.162757
563.000000	69.126592
562.000000	69.077824
561.000000	68.974954
560.000000	68.985316
559.000000	68.909267
558.000000	68.869087
557.000000	68.855353
556.000000	68.909679
555.000000	68.910472
554.000000	68.851759
553.000000	68.853324
552.000000	68.784910
551.000000	68.747721
550.000000	68.754924
549.000000	68.738621
548.000000	68.722654
547.000000	68.730038
546.000000	68.639928
545.000000	68.632953
544.000000	68.628788
543.000000	68.568997
542.000000	68.569693
541.000000	68.571267
540.000000	68.502788
539.000000	68.517901
538.000000	68.497716
537.000000	68.477059
536.000000	68.393703
535.000000	68.390846
534.000000	68.298025
533.000000	68.344983
532.000000	68.257384
531.000000	68.221011
530.000000	68.188010
529.000000	68.183698
528.000000	68.191085
527.000000	68.178726
526.000000	68.167771
525.000000	68.069292
524.000000	68.004064
523.000000	68.016034
522.000000	67.998186
521.000000	67.984675
520.000000	67.900604
519.000000	67.827017
518.000000	67.805975
517.000000	67.807077
516.000000	67.725329
515.000000	67.658651
514.000000	67.613018
513.000000	67.636705
512.000000	67.566136
511.000000	67.524642
510.000000	67.458452
509.000000	67.417067
508.000000	67.388883
507.000000	67.362737
506.000000	67.288973
505.000000	67.254499
504.000000	67.214210
503.000000	67.189077
502.000000	67.131872
501.000000	67.083201
500.000000	67.015724
499.000000	66.964927
498.000000	66.923635
497.000000	66.885681
496.000000	66.807135
495.000000	66.743818
494.000000	66.719424
493.000000	66.690137
492.000000	66.583992
491.000000	66.579681
490.000000	66.523135
489.000000	66.428905
488.000000	66.360270
487.000000	66.346206
486.000000	66.287029
485.000000	66.277741
484.000000	66.239766
483.000000	66.138561
482.000000	66.104808
481.000000	66.016982
480.000000	65.924003
479.000000	65.857994
478.000000	65.832889
477.000000	65.795828
476.000000	65.692733
475.000000	65.598088
474.000000	65.530070
473.000000	65.472771
472.000000	65.390641
471.000000	65.318925
470.000000	65.232431
469.000000	65.145168
468.000000	65.070994
467.000000	65.029385
466.000000	64.940754
465.000000	64.815971
464.000000	64.711521
463.000000	64.629297
462.000000	64.565777
461.000000	64.463625
460.000000	64.345626
459.000000	64.264867
458.000000	64.194075
457.000000	64.079566
456.000000	63.969772
455.000000	63.900817
454.000000	63.810898
453.000000	63.688134
452.000000	63.589977
451.000000	63.456019
450.000000	63.354187
449.000000	63.290568
448.000000	63.141266
447.000000	62.994229
446.000000	62.910866
445.000000	62.780524
444.000000	62.643686
443.000000	62.495283
442.000000	62.373187
441.000000	62.235771
440.000000	62.076730
439.000000	61.960474
438.000000	61.772936
437.000000	61.668674
436.000000	61.536038
435.000000	61.349736
434.000000	61.191869
433.000000	61.073630
432.000000	60.915552
431.000000	60.703617
430.000000	60.525282
429.000000	60.385723
428.000000	60.208388
427.000000	59.977417
426.000000	59.806093
425.000000	59.674004
424.000000	59.425982
423.000000	59.258257
422.000000	59.065214
421.000000	58.845109
420.000000	58.701869
419.000000	58.481126
418.000000	58.213883
417.000000	58.034133
416.000000	57.848598
415.000000	57.525460
414.000000	57.336895
413.000000	57.145567
412.000000	56.908678
411.000000	56.688624
410.000000	56.427686
409.000000	56.158497
408.000000	55.997162
407.000000	55.755485
406.000000	55.492950
405.000000	55.269122
404.000000	55.035228
403.000000	54.772312
402.000000	54.466005
401.000000	54.197168
400.000000	53.992822
399.000000	53.719852
398.000000	53.450231
397.000000	53.154762
396.000000	52.937265
395.000000	52.633143
394.000000	52.278386
393.000000	52.108649
392.000000	51.822312
391.000000	51.522671
390.000000	51.266329
389.000000	51.022219
388.000000	50.676336
387.000000	50.411582
386.000000	50.057194
385.000000	49.753500
384.000000	49.436232
383.000000	49.150498
382.000000	48.797709
381.000000	48.559744
380.000000	48.188365
379.000000	47.810096
378.000000	47.327366
377.000000	47.247012
376.000000	46.879065
375.000000	46.537285
374.000000	46.168757
373.000000	45.999724
372.000000	45.652760
371.000000	45.182249
370.000000	45.012928
369.000000	44.453784
368.000000	43.991950
367.000000	43.808877
366.000000	43.478593
365.000000	42.993700
364.000000	42.744277
363.000000	42.442240
362.000000	41.982855
361.000000	41.616520
360.000000	41.324398
359.000000	40.921381
358.000000	40.554423
357.000000	40.191921
356.000000	39.858429
355.000000	39.770207
354.000000	39.405539
353.000000	39.078762
352.000000	38.636939
351.000000	38.312058
350.000000	38.031572
349.000000	37.513759
348.000000	37.165393
347.000000	36.956382
346.000000	36.565664
345.000000	36.148896
344.000000	35.700005
343.000000	35.261967
342.000000	35.017219
341.000000	34.513874
340.000000	33.967905
339.000000	33.465446
338.000000	32.972294
337.000000	32.501827
336.000000	31.972542
335.000000	31.268486
334.000000	30.875908
333.000000	30.249371
332.000000	29.570980
331.000000	28.933018
330.000000	28.455504
329.000000	27.780136
328.000000	27.196958
327.000000	26.494918
326.000000	26.088487
325.000000	25.533175
324.000000	25.002780
323.000000	24.667643
322.000000	24.140414
321.000000	23.822965
320.000000	23.507393
319.000000	23.054768
318.000000	22.595343
317.000000	22.390584
316.000000	22.191539
315.000000	21.913192
314.000000	21.721183
313.000000	21.371400
312.000000	21.189813
311.000000	21.078403
310.000000	20.919636
309.000000	20.652950
308.000000	20.478597
307.000000	20.287318
306.000000	20.138995
305.000000	19.932152
304.000000	19.792737
303.000000	19.583208
302.000000	19.428030
301.000000	19.221266
300.000000	18.986687
299.000000	18.788949
298.000000	18.531975
297.000000	18.361494
296.000000	18.001643
295.000000	17.559204
294.000000	17.104819
293.000000	16.583640
292.000000	16.119406
291.000000	15.423174
290.000000	14.929129
289.000000	14.515550
288.000000	14.087559
287.000000	13.842999
286.000000	13.704169
285.000000	13.654353
284.000000	13.657990
283.000000	13.598975
282.000000	13.637659
281.000000	13.699797
280.000000	13.749444
279.000000	13.831835
278.000000	13.942799
277.000000	14.023823
276.000000	14.191841
275.000000	14.336276
274.000000	14.503982
273.000000	14.553373
272.000000	14.773286
271.000000	14.848092
270.000000	14.952648
269.000000	14.994419
268.000000	15.184178
267.000000	15.340505
266.000000	15.453189
265.000000	15.637545
264.000000	15.831202
263.000000	16.078715
262.000000	16.307004
261.000000	16.453190
260.000000	16.536692
259.000000	16.739151
258.000000	17.027609
257.000000	17.302201
256.000000	17.505954
255.000000	17.628279
254.000000	17.802584
253.000000	17.911722
252.000000	17.895318
251.000000	17.957355
250.000000	17.898665
249.000000	17.738561
248.000000	17.612946
247.000000	17.393243
246.000000	17.045644
245.000000	16.686228
244.000000	16.374989
243.000000	16.118827
242.000000	15.926301
241.000000	15.665148
240.000000	15.566033
239.000000	15.508437
238.000000	15.405276
237.000000	15.378651
236.000000	15.504338
235.000000	15.642150
234.000000	15.618400
233.000000	15.667709
232.000000	15.804025
231.000000	15.863224
230.000000	15.889908
229.000000	15.980295
228.000000	16.057479
227.000000	16.170493
226.000000	16.310030
225.000000	16.446389
224.000000	16.579933
223.000000	16.804080
222.000000	17.053522
221.000000	17.219676
220.000000	17.548292
219.000000	17.891508
218.000000	18.201610
217.000000	18.534574
216.000000	18.830342
215.000000	19.142902
214.000000	19.611627
213.000000	19.992890
212.000000	20.472844
211.000000	21.134522
210.000000	21.597867
209.000000	22.057842
208.000000	22.495970
207.000000	23.137101
206.000000	23.792237
205.000000	24.196333
204.000000	25.089466
203.000000	25.989648
202.000000	26.643248
201.000000	27.233685
200.000000	27.494017
