PE UV       SUBTECH     SPECTRUM    ASCII       PEDS        4.00        
   -1
RDgAgneauUK 12 .Sample.asc
18/03/12
14:16:28.00
18/03/12
14:16:28.00
Administrator

200.000000
1
Lambda 750
750N8071901
PerkinElmer UV WinLab 6.0.4.0738 / 1.61.00 Lambda 900

0
0
3350/servo 860.8/2
0
0
UV/VIS
1
1
1
CommonBeamDepol,150mm sphere / downward view
0
0
0
0
Program
Program
3350/servo 860.8/2
3350/0.2 860.8/0.2
3350/0.2 860.8/0.2
0
1
 
 
 
0
 
860.8
319.2
860.8
Front
100
on
 
 
0
0
0
 
0
 
 
 
0
 
 
0
0
0
0
0
 
 
 
 
0
0


0
0
#HDR
-1
-1
#GR
nm
%R
1.0
0.0
2350.000000
-1.000000
2151
8
72.765938
15.826444
#DATA
2350.000000	30.713175
2349.000000	30.681470
2348.000000	30.852866
2347.000000	31.403081
2346.000000	30.627305
2345.000000	30.482716
2344.000000	30.679518
2343.000000	30.493137
2342.000000	30.546689
2341.000000	31.046717
2340.000000	31.047161
2339.000000	31.012707
2338.000000	31.099388
2337.000000	31.133538
2336.000000	31.162282
2335.000000	31.460966
2334.000000	31.682467
2333.000000	31.641958
2332.000000	31.466634
2331.000000	31.423760
2330.000000	31.594864
2329.000000	31.378912
2328.000000	31.571097
2327.000000	31.388426
2326.000000	31.594092
2325.000000	31.261199
2324.000000	31.502934
2323.000000	31.141751
2322.000000	30.878142
2321.000000	30.839130
2320.000000	31.027318
2319.000000	31.012558
2318.000000	30.928488
2317.000000	31.260136
2316.000000	30.814382
2315.000000	30.753216
2314.000000	30.572385
2313.000000	30.545506
2312.000000	30.554748
2311.000000	30.305737
2310.000000	30.615035
2309.000000	30.552553
2308.000000	30.117461
2307.000000	30.212119
2306.000000	30.119841
2305.000000	30.178542
2304.000000	30.049374
2303.000000	29.975518
2302.000000	29.932528
2301.000000	29.807135
2300.000000	29.582508
2299.000000	29.452991
2298.000000	29.513941
2297.000000	29.419801
2296.000000	29.379738
2295.000000	29.080019
2294.000000	28.992366
2293.000000	29.061607
2292.000000	28.825293
2291.000000	28.661682
2290.000000	28.878433
2289.000000	28.805231
2288.000000	28.683860
2287.000000	28.590605
2286.000000	28.377173
2285.000000	28.309798
2284.000000	28.236309
2283.000000	28.331776
2282.000000	28.255086
2281.000000	28.213913
2280.000000	28.444458
2279.000000	28.454716
2278.000000	28.519105
2277.000000	28.335730
2276.000000	28.226679
2275.000000	28.662975
2274.000000	28.666691
2273.000000	28.636210
2272.000000	28.708678
2271.000000	28.746596
2270.000000	28.795326
2269.000000	28.852643
2268.000000	28.926905
2267.000000	29.088059
2266.000000	29.178342
2265.000000	29.264860
2264.000000	29.332238
2263.000000	29.257557
2262.000000	29.371666
2261.000000	29.630422
2260.000000	29.946187
2259.000000	30.191347
2258.000000	30.413644
2257.000000	30.541602
2256.000000	30.799485
2255.000000	30.941311
2254.000000	31.048198
2253.000000	31.297597
2252.000000	31.581874
2251.000000	31.975494
2250.000000	32.229379
2249.000000	32.319725
2248.000000	32.441554
2247.000000	32.768870
2246.000000	33.091531
2245.000000	33.331920
2244.000000	33.562662
2243.000000	33.746170
2242.000000	33.946118
2241.000000	34.097133
2240.000000	34.165634
2239.000000	34.288146
2238.000000	34.464582
2237.000000	34.660926
2236.000000	34.824246
2235.000000	34.972009
2234.000000	35.157601
2233.000000	35.198446
2232.000000	35.267233
2231.000000	35.401153
2230.000000	35.434774
2229.000000	35.448720
2228.000000	35.501109
2227.000000	35.464648
2226.000000	35.517908
2225.000000	35.470059
2224.000000	35.383297
2223.000000	35.394571
2222.000000	35.391735
2221.000000	35.331900
2220.000000	35.399973
2219.000000	35.359829
2218.000000	35.255909
2217.000000	35.181108
2216.000000	35.083085
2215.000000	35.036278
2214.000000	35.010578
2213.000000	35.057764
2212.000000	34.903839
2211.000000	34.783904
2210.000000	34.666793
2209.000000	34.578244
2208.000000	34.501390
2207.000000	34.428947
2206.000000	34.311946
2205.000000	34.362901
2204.000000	34.203736
2203.000000	34.048691
2202.000000	33.999237
2201.000000	33.896994
2200.000000	33.757307
2199.000000	33.587031
2198.000000	33.580132
2197.000000	33.693000
2196.000000	33.488703
2195.000000	33.386832
2194.000000	33.139096
2193.000000	33.101662
2192.000000	33.105164
2191.000000	33.066341
2190.000000	32.914112
2189.000000	32.881272
2188.000000	32.791826
2187.000000	32.662364
2186.000000	32.505350
2185.000000	32.445880
2184.000000	32.359269
2183.000000	32.449073
2182.000000	32.481083
2181.000000	32.376021
2180.000000	32.405244
2179.000000	32.243694
2178.000000	32.174196
2177.000000	32.187284
2176.000000	32.249268
2175.000000	32.157478
2174.000000	32.341339
2173.000000	32.231805
2172.000000	32.311392
2171.000000	32.563515
2170.000000	32.513442
2169.000000	32.555462
2168.000000	32.833746
2167.000000	32.721312
2166.000000	32.718139
2165.000000	33.056227
2164.000000	33.144547
2163.000000	33.232291
2162.000000	33.216271
2161.000000	33.409638
2160.000000	33.525935
2159.000000	33.656651
2158.000000	33.889856
2157.000000	33.902464
2156.000000	34.077212
2155.000000	34.454651
2154.000000	34.672419
2153.000000	34.897387
2152.000000	34.837967
2151.000000	35.029477
2150.000000	35.120256
2149.000000	35.314917
2148.000000	35.481413
2147.000000	35.798668
2146.000000	35.941072
2145.000000	36.069545
2144.000000	36.243684
2143.000000	36.298372
2142.000000	36.549228
2141.000000	36.842972
2140.000000	36.826739
2139.000000	36.897499
2138.000000	37.314497
2137.000000	37.289983
2136.000000	37.255306
2135.000000	37.465384
2134.000000	37.577311
2133.000000	37.565141
2132.000000	37.751851
2131.000000	37.845790
2130.000000	38.224290
2129.000000	37.944019
2128.000000	37.946315
2127.000000	38.149333
2126.000000	38.167071
2125.000000	38.137600
2124.000000	38.462838
2123.000000	38.241071
2122.000000	38.339567
2121.000000	38.393917
2120.000000	38.397018
2119.000000	38.627319
2118.000000	38.608247
2117.000000	38.517863
2116.000000	38.701771
2115.000000	38.720727
2114.000000	38.581135
2113.000000	38.676785
2112.000000	38.742998
2111.000000	38.754549
2110.000000	38.740307
2109.000000	38.839709
2108.000000	38.874259
2107.000000	38.912551
2106.000000	38.911850
2105.000000	38.877631
2104.000000	38.915661
2103.000000	38.899295
2102.000000	38.978817
2101.000000	38.994891
2100.000000	38.949498
2099.000000	38.804772
2098.000000	38.865398
2097.000000	38.859001
2096.000000	38.811542
2095.000000	38.896533
2094.000000	38.878594
2093.000000	38.835026
2092.000000	38.949924
2091.000000	38.848813
2090.000000	38.810422
2089.000000	38.843873
2088.000000	38.777152
2087.000000	38.901032
2086.000000	38.663548
2085.000000	38.610401
2084.000000	38.511320
2083.000000	38.444503
2082.000000	38.252529
2081.000000	38.249047
2080.000000	38.130386
2079.000000	37.994758
2078.000000	37.934352
2077.000000	37.856770
2076.000000	37.732681
2075.000000	37.598343
2074.000000	37.501147
2073.000000	37.332043
2072.000000	37.173187
2071.000000	36.982017
2070.000000	36.859496
2069.000000	36.675394
2068.000000	36.516773
2067.000000	36.347904
2066.000000	36.126096
2065.000000	35.976444
2064.000000	35.799686
2063.000000	35.589057
2062.000000	35.369920
2061.000000	35.164842
2060.000000	35.075901
2059.000000	34.960566
2058.000000	34.657180
2057.000000	34.411290
2056.000000	34.251172
2055.000000	34.115479
2054.000000	33.955399
2053.000000	33.797133
2052.000000	33.647820
2051.000000	33.381656
2050.000000	33.254713
2049.000000	33.220626
2048.000000	33.040610
2047.000000	32.983040
2046.000000	32.877974
2045.000000	32.791960
2044.000000	32.782806
2043.000000	32.681586
2042.000000	32.647983
2041.000000	32.769184
2040.000000	32.783011
2039.000000	32.747511
2038.000000	32.838751
2037.000000	32.937458
2036.000000	33.016812
2035.000000	33.091049
2034.000000	33.147437
2033.000000	33.239674
2032.000000	33.406362
2031.000000	33.520631
2030.000000	33.651038
2029.000000	33.798148
2028.000000	33.902181
2027.000000	34.030710
2026.000000	34.150702
2025.000000	34.252737
2024.000000	34.320345
2023.000000	34.358273
2022.000000	34.403653
2021.000000	34.438671
2020.000000	34.540014
2019.000000	34.575935
2018.000000	34.605657
2017.000000	34.630537
2016.000000	34.552767
2015.000000	34.532741
2014.000000	34.551696
2013.000000	34.521873
2012.000000	34.446567
2011.000000	34.437410
2010.000000	34.342965
2009.000000	34.212683
2008.000000	34.138095
2007.000000	34.084879
2006.000000	33.963822
2005.000000	33.850119
2004.000000	33.762276
2003.000000	33.643479
2002.000000	33.525672
2001.000000	33.386891
2000.000000	33.218387
1999.000000	33.121483
1998.000000	32.968832
1997.000000	32.840517
1996.000000	32.731401
1995.000000	32.599188
1994.000000	32.458270
1993.000000	32.324598
1992.000000	32.154195
1991.000000	32.032697
1990.000000	31.913053
1989.000000	31.734455
1988.000000	31.620609
1987.000000	31.478269
1986.000000	31.339854
1985.000000	31.216207
1984.000000	31.065761
1983.000000	30.918973
1982.000000	30.778273
1981.000000	30.669436
1980.000000	30.507013
1979.000000	30.304099
1978.000000	30.193335
1977.000000	30.074254
1976.000000	29.919325
1975.000000	29.768420
1974.000000	29.654183
1973.000000	29.514622
1972.000000	29.392692
1971.000000	29.260612
1970.000000	29.136743
1969.000000	29.005018
1968.000000	28.863771
1967.000000	28.737401
1966.000000	28.605663
1965.000000	28.500887
1964.000000	28.371438
1963.000000	28.219702
1962.000000	28.118639
1961.000000	27.950872
1960.000000	27.865907
1959.000000	27.716684
1958.000000	27.600885
1957.000000	27.517318
1956.000000	27.431888
1955.000000	27.391834
1954.000000	27.274209
1953.000000	27.198854
1952.000000	27.096179
1951.000000	27.096380
1950.000000	26.999571
1949.000000	26.974666
1948.000000	26.850691
1947.000000	26.808297
1946.000000	26.779449
1945.000000	26.805106
1944.000000	26.768555
1943.000000	26.875555
1942.000000	26.897184
1941.000000	26.839837
1940.000000	26.949068
1939.000000	27.022811
1938.000000	27.093052
1937.000000	27.160320
1936.000000	27.241274
1935.000000	27.302005
1934.000000	27.496505
1933.000000	27.598091
1932.000000	27.785471
1931.000000	27.971108
1930.000000	28.094841
1929.000000	28.357723
1928.000000	28.622289
1927.000000	28.845612
1926.000000	29.028334
1925.000000	29.199851
1924.000000	29.581613
1923.000000	29.963922
1922.000000	30.261620
1921.000000	30.562960
1920.000000	30.890935
1919.000000	31.220503
1918.000000	31.522008
1917.000000	32.027621
1916.000000	32.297759
1915.000000	32.767121
1914.000000	33.278841
1913.000000	33.783280
1912.000000	34.179063
1911.000000	34.617048
1910.000000	35.197705
1909.000000	35.776628
1908.000000	36.344096
1907.000000	36.977132
1906.000000	37.478781
1905.000000	38.103255
1904.000000	38.691769
1903.000000	39.315833
1902.000000	39.976435
1901.000000	40.598546
1900.000000	41.311271
1899.000000	41.994407
1898.000000	42.667151
1897.000000	43.282703
1896.000000	43.928821
1895.000000	44.578005
1894.000000	45.217686
1893.000000	45.878197
1892.000000	46.574961
1891.000000	47.116691
1890.000000	47.767006
1889.000000	48.353121
1888.000000	48.879782
1887.000000	49.449686
1886.000000	50.008638
1885.000000	50.505126
1884.000000	51.032635
1883.000000	51.566200
1882.000000	52.006431
1881.000000	52.504128
1880.000000	52.942358
1879.000000	53.364553
1878.000000	53.815033
1877.000000	54.244292
1876.000000	54.605799
1875.000000	54.991444
1874.000000	55.338394
1873.000000	55.622274
1872.000000	55.946803
1871.000000	56.218363
1870.000000	56.423920
1869.000000	56.731495
1868.000000	56.964985
1867.000000	57.082065
1866.000000	57.300247
1865.000000	57.412802
1864.000000	57.530665
1863.000000	57.679204
1862.000000	57.820291
1861.000000	57.861790
1860.000000	58.002627
1859.000000	58.109750
1858.000000	58.163328
1857.000000	58.212328
1856.000000	58.289842
1855.000000	58.353097
1854.000000	58.432893
1853.000000	58.493980
1852.000000	58.495890
1851.000000	58.504734
1850.000000	58.509174
1849.000000	58.511522
1848.000000	58.526162
1847.000000	58.567776
1846.000000	58.537304
1845.000000	58.491946
1844.000000	58.466679
1843.000000	58.472370
1842.000000	58.497898
1841.000000	58.467633
1840.000000	58.396200
1839.000000	58.368907
1838.000000	58.351722
1837.000000	58.291241
1836.000000	58.248370
1835.000000	58.206119
1834.000000	58.137105
1833.000000	58.101012
1832.000000	58.047338
1831.000000	57.981082
1830.000000	57.925611
1829.000000	57.874974
1828.000000	57.849064
1827.000000	57.797863
1826.000000	57.757129
1825.000000	57.738776
1824.000000	57.679299
1823.000000	57.653479
1822.000000	57.615426
1821.000000	57.575472
1820.000000	57.559944
1819.000000	57.510478
1818.000000	57.478252
1817.000000	57.429954
1816.000000	57.362882
1815.000000	57.326028
1814.000000	57.290150
1813.000000	57.223161
1812.000000	57.166863
1811.000000	57.139442
1810.000000	57.104004
1809.000000	57.071324
1808.000000	57.013673
1807.000000	56.931758
1806.000000	56.906033
1805.000000	56.860741
1804.000000	56.794569
1803.000000	56.772247
1802.000000	56.727044
1801.000000	56.690601
1800.000000	56.668524
1799.000000	56.617595
1798.000000	56.583548
1797.000000	56.569166
1796.000000	56.542691
1795.000000	56.487255
1794.000000	56.462827
1793.000000	56.436171
1792.000000	56.378896
1791.000000	56.351891
1790.000000	56.319275
1789.000000	56.274854
1788.000000	56.241751
1787.000000	56.227190
1786.000000	56.207597
1785.000000	56.180883
1784.000000	56.133668
1783.000000	56.106315
1782.000000	56.058803
1781.000000	56.001812
1780.000000	55.972521
1779.000000	55.943108
1778.000000	55.890590
1777.000000	55.791141
1776.000000	55.729680
1775.000000	55.686222
1774.000000	55.619139
1773.000000	55.586058
1772.000000	55.513139
1771.000000	55.463341
1770.000000	55.390011
1769.000000	55.307896
1768.000000	55.255900
1767.000000	55.193423
1766.000000	55.140294
1765.000000	55.094629
1764.000000	55.066168
1763.000000	54.994243
1762.000000	54.917656
1761.000000	54.861172
1760.000000	54.824304
1759.000000	54.762168
1758.000000	54.719703
1757.000000	54.636772
1756.000000	54.587625
1755.000000	54.531458
1754.000000	54.448269
1753.000000	54.402963
1752.000000	54.371505
1751.000000	54.316140
1750.000000	54.245628
1749.000000	54.214721
1748.000000	54.130042
1747.000000	54.066482
1746.000000	54.019886
1745.000000	53.915921
1744.000000	53.819300
1743.000000	53.773762
1742.000000	53.677252
1741.000000	53.663945
1740.000000	53.593880
1739.000000	53.543215
1738.000000	53.496442
1737.000000	53.481316
1736.000000	53.418463
1735.000000	53.423423
1734.000000	53.412878
1733.000000	53.405584
1732.000000	53.409482
1731.000000	53.404788
1730.000000	53.406256
1729.000000	53.477206
1728.000000	53.535230
1727.000000	53.581279
1726.000000	53.667287
1725.000000	53.744438
1724.000000	53.847666
1723.000000	53.948879
1722.000000	54.005600
1721.000000	54.133861
1720.000000	54.274124
1719.000000	54.449942
1718.000000	54.532521
1717.000000	54.665918
1716.000000	54.765965
1715.000000	54.891615
1714.000000	54.999853
1713.000000	55.144104
1712.000000	55.223105
1711.000000	55.298785
1710.000000	55.413430
1709.000000	55.447436
1708.000000	55.522205
1707.000000	55.588581
1706.000000	55.631092
1705.000000	55.703540
1704.000000	55.747388
1703.000000	55.739371
1702.000000	55.735269
1701.000000	55.772927
1700.000000	55.850222
1699.000000	55.809509
1698.000000	55.840249
1697.000000	55.894341
1696.000000	55.901557
1695.000000	55.927510
1694.000000	55.962415
1693.000000	56.006523
1692.000000	56.087135
1691.000000	56.153576
1690.000000	56.234562
1689.000000	56.327542
1688.000000	56.435291
1687.000000	56.507895
1686.000000	56.664398
1685.000000	56.799813
1684.000000	56.981518
1683.000000	57.128720
1682.000000	57.278903
1681.000000	57.502325
1680.000000	57.673409
1679.000000	57.869826
1678.000000	58.045011
1677.000000	58.232814
1676.000000	58.439342
1675.000000	58.652361
1674.000000	58.837578
1673.000000	59.041445
1672.000000	59.236626
1671.000000	59.395899
1670.000000	59.559916
1669.000000	59.770134
1668.000000	59.898200
1667.000000	60.092177
1666.000000	60.191315
1665.000000	60.314148
1664.000000	60.424196
1663.000000	60.481207
1662.000000	60.574784
1661.000000	60.672930
1660.000000	60.768381
1659.000000	60.838890
1658.000000	60.866849
1657.000000	60.937517
1656.000000	60.997768
1655.000000	61.022946
1654.000000	61.012621
1653.000000	61.041959
1652.000000	61.067940
1651.000000	61.070145
1650.000000	61.053732
1649.000000	61.049179
1648.000000	61.033742
1647.000000	61.043057
1646.000000	61.044615
1645.000000	61.001472
1644.000000	60.984927
1643.000000	60.975644
1642.000000	60.923097
1641.000000	60.893421
1640.000000	60.877712
1639.000000	60.843103
1638.000000	60.796765
1637.000000	60.762058
1636.000000	60.701252
1635.000000	60.654128
1634.000000	60.614277
1633.000000	60.548771
1632.000000	60.495663
1631.000000	60.465024
1630.000000	60.413083
1629.000000	60.368847
1628.000000	60.314463
1627.000000	60.252422
1626.000000	60.199842
1625.000000	60.144405
1624.000000	60.082912
1623.000000	60.014374
1622.000000	59.958049
1621.000000	59.884973
1620.000000	59.812766
1619.000000	59.746324
1618.000000	59.688359
1617.000000	59.636016
1616.000000	59.567957
1615.000000	59.490196
1614.000000	59.428518
1613.000000	59.342405
1612.000000	59.262270
1611.000000	59.194748
1610.000000	59.116434
1609.000000	59.044990
1608.000000	58.991229
1607.000000	58.897332
1606.000000	58.800929
1605.000000	58.728838
1604.000000	58.639642
1603.000000	58.556558
1602.000000	58.479384
1601.000000	58.401583
1600.000000	58.335940
1599.000000	58.259108
1598.000000	58.181030
1597.000000	58.103988
1596.000000	58.021872
1595.000000	57.957801
1594.000000	57.891695
1593.000000	57.827694
1592.000000	57.756065
1591.000000	57.676504
1590.000000	57.612779
1589.000000	57.548491
1588.000000	57.476170
1587.000000	57.413535
1586.000000	57.362717
1585.000000	57.292109
1584.000000	57.217031
1583.000000	57.156233
1582.000000	57.079977
1581.000000	57.025110
1580.000000	56.990590
1579.000000	56.932219
1578.000000	56.855346
1577.000000	56.785363
1576.000000	56.732326
1575.000000	56.684987
1574.000000	56.602945
1573.000000	56.537985
1572.000000	56.486121
1571.000000	56.424085
1570.000000	56.341572
1569.000000	56.292627
1568.000000	56.255136
1567.000000	56.196487
1566.000000	56.140921
1565.000000	56.104220
1564.000000	56.065396
1563.000000	56.035624
1562.000000	55.987797
1561.000000	55.953607
1560.000000	55.936999
1559.000000	55.896757
1558.000000	55.857546
1557.000000	55.830024
1556.000000	55.787984
1555.000000	55.753527
1554.000000	55.709069
1553.000000	55.669486
1552.000000	55.625598
1551.000000	55.597248
1550.000000	55.551160
1549.000000	55.500752
1548.000000	55.452881
1547.000000	55.363109
1546.000000	55.295811
1545.000000	55.216027
1544.000000	55.129011
1543.000000	55.056209
1542.000000	54.943997
1541.000000	54.842806
1540.000000	54.738789
1539.000000	54.624875
1538.000000	54.514278
1537.000000	54.415426
1536.000000	54.300145
1535.000000	54.191561
1534.000000	54.087430
1533.000000	53.969405
1532.000000	53.873369
1531.000000	53.767697
1530.000000	53.650578
1529.000000	53.547711
1528.000000	53.463606
1527.000000	53.385313
1526.000000	53.328246
1525.000000	53.232377
1524.000000	53.140670
1523.000000	53.061753
1522.000000	52.993618
1521.000000	52.923146
1520.000000	52.865247
1519.000000	52.832052
1518.000000	52.783595
1517.000000	52.702621
1516.000000	52.689381
1515.000000	52.630945
1514.000000	52.584610
1513.000000	52.540239
1512.000000	52.500544
1511.000000	52.479250
1510.000000	52.413594
1509.000000	52.394579
1508.000000	52.377757
1507.000000	52.321285
1506.000000	52.292836
1505.000000	52.280502
1504.000000	52.272187
1503.000000	52.236610
1502.000000	52.232901
1501.000000	52.199470
1500.000000	52.184713
1499.000000	52.171484
1498.000000	52.151631
1497.000000	52.141255
1496.000000	52.133406
1495.000000	52.142378
1494.000000	52.131841
1493.000000	52.165674
1492.000000	52.158389
1491.000000	52.193630
1490.000000	52.225874
1489.000000	52.222795
1488.000000	52.243889
1487.000000	52.268532
1486.000000	52.308838
1485.000000	52.322738
1484.000000	52.363891
1483.000000	52.408393
1482.000000	52.426874
1481.000000	52.477301
1480.000000	52.532427
1479.000000	52.561333
1478.000000	52.603746
1477.000000	52.640589
1476.000000	52.667516
1475.000000	52.735531
1474.000000	52.763183
1473.000000	52.800658
1472.000000	52.840568
1471.000000	52.887033
1470.000000	52.918920
1469.000000	52.983461
1468.000000	53.027140
1467.000000	53.068088
1466.000000	53.105588
1465.000000	53.160290
1464.000000	53.209407
1463.000000	53.237822
1462.000000	53.313475
1461.000000	53.353315
1460.000000	53.400293
1459.000000	53.471914
1458.000000	53.551152
1457.000000	53.595722
1456.000000	53.669450
1455.000000	53.750556
1454.000000	53.812858
1453.000000	53.877760
1452.000000	53.986360
1451.000000	54.058344
1450.000000	54.153070
1449.000000	54.255231
1448.000000	54.334369
1447.000000	54.418068
1446.000000	54.531338
1445.000000	54.615071
1444.000000	54.717229
1443.000000	54.834690
1442.000000	54.954980
1441.000000	55.071535
1440.000000	55.198798
1439.000000	55.342951
1438.000000	55.467720
1437.000000	55.589780
1436.000000	55.733794
1435.000000	55.887180
1434.000000	56.032876
1433.000000	56.187459
1432.000000	56.344312
1431.000000	56.512490
1430.000000	56.679857
1429.000000	56.865428
1428.000000	57.034633
1427.000000	57.215929
1426.000000	57.398718
1425.000000	57.589206
1424.000000	57.780569
1423.000000	57.993645
1422.000000	58.221292
1421.000000	58.432568
1420.000000	58.668198
1419.000000	58.884972
1418.000000	59.093657
1417.000000	59.323963
1416.000000	59.562219
1415.000000	59.804362
1414.000000	60.038525
1413.000000	60.287959
1412.000000	60.541582
1411.000000	60.802292
1410.000000	61.035258
1409.000000	61.276486
1408.000000	61.541609
1407.000000	61.800377
1406.000000	62.029521
1405.000000	62.285592
1404.000000	62.517779
1403.000000	62.752293
1402.000000	62.999440
1401.000000	63.228882
1400.000000	63.449649
1399.000000	63.661052
1398.000000	63.876088
1397.000000	64.096102
1396.000000	64.303647
1395.000000	64.487300
1394.000000	64.679156
1393.000000	64.868189
1392.000000	65.045596
1391.000000	65.233736
1390.000000	65.401295
1389.000000	65.546227
1388.000000	65.718889
1387.000000	65.882768
1386.000000	66.019352
1385.000000	66.158488
1384.000000	66.292009
1383.000000	66.418315
1382.000000	66.512395
1381.000000	66.625949
1380.000000	66.737782
1379.000000	66.824131
1378.000000	66.920782
1377.000000	67.021767
1376.000000	67.109484
1375.000000	67.171376
1374.000000	67.228563
1373.000000	67.295248
1372.000000	67.353605
1371.000000	67.431057
1370.000000	67.492237
1369.000000	67.542945
1368.000000	67.590269
1367.000000	67.639243
1366.000000	67.698540
1365.000000	67.750033
1364.000000	67.796288
1363.000000	67.849521
1362.000000	67.920704
1361.000000	67.980681
1360.000000	68.042839
1359.000000	68.102501
1358.000000	68.180042
1357.000000	68.225938
1356.000000	68.281945
1355.000000	68.365664
1354.000000	68.434979
1353.000000	68.483552
1352.000000	68.531519
1351.000000	68.592987
1350.000000	68.660979
1349.000000	68.737296
1348.000000	68.788153
1347.000000	68.840190
1346.000000	68.925235
1345.000000	68.984913
1344.000000	69.026259
1343.000000	69.089788
1342.000000	69.140123
1341.000000	69.191350
1340.000000	69.249193
1339.000000	69.298852
1338.000000	69.373937
1337.000000	69.418751
1336.000000	69.456890
1335.000000	69.511832
1334.000000	69.556962
1333.000000	69.608010
1332.000000	69.690243
1331.000000	69.735207
1330.000000	69.763369
1329.000000	69.808816
1328.000000	69.823600
1327.000000	69.850647
1326.000000	69.873274
1325.000000	69.889152
1324.000000	69.949419
1323.000000	69.963007
1322.000000	69.982338
1321.000000	70.044860
1320.000000	70.056438
1319.000000	70.077306
1318.000000	70.099231
1317.000000	70.119314
1316.000000	70.123081
1315.000000	70.178363
1314.000000	70.221582
1313.000000	70.221314
1312.000000	70.210286
1311.000000	70.233765
1310.000000	70.254424
1309.000000	70.288370
1308.000000	70.297120
1307.000000	70.286047
1306.000000	70.332085
1305.000000	70.378266
1304.000000	70.365402
1303.000000	70.361033
1302.000000	70.375592
1301.000000	70.386963
1300.000000	70.380061
1299.000000	70.412617
1298.000000	70.438349
1297.000000	70.426012
1296.000000	70.425966
1295.000000	70.417969
1294.000000	70.433380
1293.000000	70.421020
1292.000000	70.441310
1291.000000	70.427842
1290.000000	70.409057
1289.000000	70.422194
1288.000000	70.416642
1287.000000	70.397781
1286.000000	70.402050
1285.000000	70.393836
1284.000000	70.402343
1283.000000	70.410399
1282.000000	70.396808
1281.000000	70.404180
1280.000000	70.391955
1279.000000	70.386088
1278.000000	70.398833
1277.000000	70.406071
1276.000000	70.382289
1275.000000	70.382201
1274.000000	70.405613
1273.000000	70.398812
1272.000000	70.397848
1271.000000	70.364597
1270.000000	70.391226
1269.000000	70.406676
1268.000000	70.412173
1267.000000	70.416492
1266.000000	70.404598
1265.000000	70.432581
1264.000000	70.443669
1263.000000	70.428582
1262.000000	70.446569
1261.000000	70.478107
1260.000000	70.509953
1259.000000	70.479168
1258.000000	70.473980
1257.000000	70.481110
1256.000000	70.496620
1255.000000	70.510143
1254.000000	70.547330
1253.000000	70.531968
1252.000000	70.513145
1251.000000	70.527553
1250.000000	70.516729
1249.000000	70.531851
1248.000000	70.525447
1247.000000	70.518093
1246.000000	70.507930
1245.000000	70.516485
1244.000000	70.496547
1243.000000	70.450805
1242.000000	70.470430
1241.000000	70.446204
1240.000000	70.435461
1239.000000	70.425321
1238.000000	70.378546
1237.000000	70.370061
1236.000000	70.338813
1235.000000	70.311454
1234.000000	70.298711
1233.000000	70.274236
1232.000000	70.258488
1231.000000	70.247861
1230.000000	70.217467
1229.000000	70.203997
1228.000000	70.175093
1227.000000	70.145787
1226.000000	70.136650
1225.000000	70.132503
1224.000000	70.108364
1223.000000	70.085602
1222.000000	70.065343
1221.000000	70.024296
1220.000000	69.999638
1219.000000	69.972594
1218.000000	69.946150
1217.000000	69.922051
1216.000000	69.898612
1215.000000	69.861092
1214.000000	69.859320
1213.000000	69.835855
1212.000000	69.783375
1211.000000	69.780457
1210.000000	69.782537
1209.000000	69.737286
1208.000000	69.701814
1207.000000	69.705619
1206.000000	69.641363
1205.000000	69.593832
1204.000000	69.590478
1203.000000	69.567502
1202.000000	69.512145
1201.000000	69.495796
1200.000000	69.473183
1199.000000	69.427127
1198.000000	69.403516
1197.000000	69.367460
1196.000000	69.335739
1195.000000	69.344499
1194.000000	69.341221
1193.000000	69.308572
1192.000000	69.296875
1191.000000	69.280422
1190.000000	69.248977
1189.000000	69.213220
1188.000000	69.208515
1187.000000	69.196212
1186.000000	69.188481
1185.000000	69.190327
1184.000000	69.213820
1183.000000	69.226668
1182.000000	69.241104
1181.000000	69.264746
1180.000000	69.293773
1179.000000	69.326562
1178.000000	69.349317
1177.000000	69.381375
1176.000000	69.429938
1175.000000	69.479919
1174.000000	69.520549
1173.000000	69.572590
1172.000000	69.627575
1171.000000	69.676186
1170.000000	69.740197
1169.000000	69.806469
1168.000000	69.866536
1167.000000	69.930569
1166.000000	69.980690
1165.000000	70.046927
1164.000000	70.136814
1163.000000	70.197143
1162.000000	70.265698
1161.000000	70.346546
1160.000000	70.412089
1159.000000	70.479950
1158.000000	70.555676
1157.000000	70.623873
1156.000000	70.674278
1155.000000	70.739689
1154.000000	70.800499
1153.000000	70.848511
1152.000000	70.912665
1151.000000	70.973967
1150.000000	71.033163
1149.000000	71.081326
1148.000000	71.117135
1147.000000	71.155416
1146.000000	71.204924
1145.000000	71.257840
1144.000000	71.302362
1143.000000	71.350796
1142.000000	71.396219
1141.000000	71.428200
1140.000000	71.460968
1139.000000	71.505183
1138.000000	71.549082
1137.000000	71.581637
1136.000000	71.621639
1135.000000	71.640578
1134.000000	71.672345
1133.000000	71.708167
1132.000000	71.744377
1131.000000	71.782128
1130.000000	71.800692
1129.000000	71.818825
1128.000000	71.841498
1127.000000	71.871658
1126.000000	71.887565
1125.000000	71.899026
1124.000000	71.930343
1123.000000	71.950633
1122.000000	71.967153
1121.000000	71.974242
1120.000000	71.966685
1119.000000	71.985764
1118.000000	71.999091
1117.000000	72.010551
1116.000000	72.022428
1115.000000	72.025373
1114.000000	72.041110
1113.000000	72.041119
1112.000000	72.039514
1111.000000	72.059376
1110.000000	72.058052
1109.000000	72.067340
1108.000000	72.067134
1107.000000	72.084195
1106.000000	72.097695
1105.000000	72.075376
1104.000000	72.083081
1103.000000	72.085565
1102.000000	72.098013
1101.000000	72.087707
1100.000000	72.071512
1099.000000	72.079908
1098.000000	72.084329
1097.000000	72.090188
1096.000000	72.110330
1095.000000	72.116603
1094.000000	72.111180
1093.000000	72.075245
1092.000000	72.081452
1091.000000	72.085792
1090.000000	72.094587
1089.000000	72.095314
1088.000000	72.088541
1087.000000	72.084910
1086.000000	72.075944
1085.000000	72.074147
1084.000000	72.073362
1083.000000	72.074095
1082.000000	72.087434
1081.000000	72.070535
1080.000000	72.074922
1079.000000	72.054761
1078.000000	72.065328
1077.000000	72.059318
1076.000000	72.063626
1075.000000	72.064693
1074.000000	72.040124
1073.000000	72.044771
1072.000000	72.029815
1071.000000	72.012093
1070.000000	72.026897
1069.000000	72.027835
1068.000000	71.998722
1067.000000	72.008415
1066.000000	71.984228
1065.000000	71.991407
1064.000000	71.973229
1063.000000	71.977444
1062.000000	71.986848
1061.000000	71.965587
1060.000000	71.954903
1059.000000	71.950206
1058.000000	71.966420
1057.000000	71.951244
1056.000000	71.933795
1055.000000	71.931295
1054.000000	71.907845
1053.000000	71.933649
1052.000000	71.922644
1051.000000	71.902515
1050.000000	71.898802
1049.000000	71.893585
1048.000000	71.902872
1047.000000	71.883173
1046.000000	71.878506
1045.000000	71.869921
1044.000000	71.874484
1043.000000	71.870215
1042.000000	71.856728
1041.000000	71.857067
1040.000000	71.851696
1039.000000	71.855180
1038.000000	71.836943
1037.000000	71.803627
1036.000000	71.847577
1035.000000	71.842257
1034.000000	71.827399
1033.000000	71.798571
1032.000000	71.797263
1031.000000	71.804532
1030.000000	71.801423
1029.000000	71.810562
1028.000000	71.817556
1027.000000	71.804960
1026.000000	71.788140
1025.000000	71.793861
1024.000000	71.775818
1023.000000	71.779006
1022.000000	71.753820
1021.000000	71.771837
1020.000000	71.780562
1019.000000	71.779915
1018.000000	71.780268
1017.000000	71.800531
1016.000000	71.789770
1015.000000	71.769740
1014.000000	71.780215
1013.000000	71.790125
1012.000000	71.791968
1011.000000	71.786574
1010.000000	71.773219
1009.000000	71.785889
1008.000000	71.785757
1007.000000	71.784533
1006.000000	71.795415
1005.000000	71.780790
1004.000000	71.777792
1003.000000	71.794252
1002.000000	71.783004
1001.000000	71.791163
1000.000000	71.806654
999.000000	71.794586
998.000000	71.805071
997.000000	71.821209
996.000000	71.816529
995.000000	71.793884
994.000000	71.798565
993.000000	71.806396
992.000000	71.809744
991.000000	71.842413
990.000000	71.817604
989.000000	71.813955
988.000000	71.834642
987.000000	71.853918
986.000000	71.851322
985.000000	71.853162
984.000000	71.875175
983.000000	71.868788
982.000000	71.862658
981.000000	71.875936
980.000000	71.873668
979.000000	71.886180
978.000000	71.901763
977.000000	71.880223
976.000000	71.900842
975.000000	71.928692
974.000000	71.939730
973.000000	71.941807
972.000000	71.958126
971.000000	71.995141
970.000000	71.971181
969.000000	71.964222
968.000000	71.973144
967.000000	71.974689
966.000000	71.977992
965.000000	72.011114
964.000000	72.022815
963.000000	72.018739
962.000000	72.034252
961.000000	72.055301
960.000000	72.065121
959.000000	72.079131
958.000000	72.086112
957.000000	72.080396
956.000000	72.079697
955.000000	72.099356
954.000000	72.116772
953.000000	72.125937
952.000000	72.130776
951.000000	72.143865
950.000000	72.136587
949.000000	72.139027
948.000000	72.145500
947.000000	72.161921
946.000000	72.180022
945.000000	72.191607
944.000000	72.202613
943.000000	72.182413
942.000000	72.186313
941.000000	72.191401
940.000000	72.205567
939.000000	72.208994
938.000000	72.203972
937.000000	72.216090
936.000000	72.214570
935.000000	72.209082
934.000000	72.235221
933.000000	72.243245
932.000000	72.227242
931.000000	72.227877
930.000000	72.231072
929.000000	72.236139
928.000000	72.235036
927.000000	72.240656
926.000000	72.237119
925.000000	72.224719
924.000000	72.219381
923.000000	72.211794
922.000000	72.214572
921.000000	72.210283
920.000000	72.225494
919.000000	72.217861
918.000000	72.246413
917.000000	72.262043
916.000000	72.240462
915.000000	72.208833
914.000000	72.212235
913.000000	72.246240
912.000000	72.230208
911.000000	72.165446
910.000000	72.229019
909.000000	72.261165
908.000000	72.239990
907.000000	72.248844
906.000000	72.222365
905.000000	72.189501
904.000000	72.245446
903.000000	72.269947
902.000000	72.270641
901.000000	72.249377
900.000000	72.271871
899.000000	72.248494
898.000000	72.291659
897.000000	72.322266
896.000000	72.280177
895.000000	72.303926
894.000000	72.366319
893.000000	72.355759
892.000000	72.356377
891.000000	72.333803
890.000000	72.346672
889.000000	72.379769
888.000000	72.366140
887.000000	72.343620
886.000000	72.361486
885.000000	72.359211
884.000000	72.382682
883.000000	72.401745
882.000000	72.394970
881.000000	72.357620
880.000000	72.392894
879.000000	72.373592
878.000000	72.368027
877.000000	72.384988
876.000000	72.451564
875.000000	72.401530
874.000000	72.458944
873.000000	72.442177
872.000000	72.461877
871.000000	72.422202
870.000000	72.369821
869.000000	72.358117
868.000000	72.356358
867.000000	72.466629
866.000000	72.437276
865.000000	72.354441
864.000000	72.370340
863.000000	72.394752
862.000000	72.473438
861.000000	72.314686
860.000000	72.392078
859.000000	72.026072
858.000000	72.187212
857.000000	72.257423
856.000000	72.745299
855.000000	72.724457
854.000000	72.236380
853.000000	72.189237
852.000000	72.453549
851.000000	72.765938
850.000000	72.761113
849.000000	72.463022
848.000000	72.302540
847.000000	72.001581
846.000000	72.055912
845.000000	71.997573
844.000000	72.243636
843.000000	72.222095
842.000000	72.439159
841.000000	72.244282
840.000000	72.360303
839.000000	72.246569
838.000000	72.227421
837.000000	72.116359
836.000000	72.335782
835.000000	72.188683
834.000000	72.301031
833.000000	72.336674
832.000000	72.220073
831.000000	72.368066
830.000000	72.168422
829.000000	72.335211
828.000000	72.348542
827.000000	72.091946
826.000000	72.185815
825.000000	72.254832
824.000000	72.152074
823.000000	72.197848
822.000000	72.349400
821.000000	72.256369
820.000000	72.154205
819.000000	72.349058
818.000000	72.263988
817.000000	72.369605
816.000000	72.308442
815.000000	72.155550
814.000000	72.424967
813.000000	72.201818
812.000000	72.153192
811.000000	72.317334
810.000000	72.294928
809.000000	72.237414
808.000000	72.289470
807.000000	72.144038
806.000000	72.267721
805.000000	72.182602
804.000000	72.329992
803.000000	72.346133
802.000000	72.405663
801.000000	72.322785
800.000000	72.314661
799.000000	72.375304
798.000000	72.268153
797.000000	72.317239
796.000000	72.226451
795.000000	72.154931
794.000000	72.258164
793.000000	72.155083
792.000000	72.273261
791.000000	72.168451
790.000000	72.175350
789.000000	72.313162
788.000000	72.378177
787.000000	72.253573
786.000000	72.263582
785.000000	72.303429
784.000000	72.305715
783.000000	72.270568
782.000000	72.231100
781.000000	72.404259
780.000000	72.337986
779.000000	72.309386
778.000000	72.314764
777.000000	72.199894
776.000000	72.387316
775.000000	72.389278
774.000000	72.337586
773.000000	72.391362
772.000000	72.318994
771.000000	72.375698
770.000000	72.294022
769.000000	72.329561
768.000000	72.256706
767.000000	72.333419
766.000000	72.352069
765.000000	72.279612
764.000000	72.299671
763.000000	72.300770
762.000000	72.317620
761.000000	72.356819
760.000000	72.441202
759.000000	72.297063
758.000000	72.290956
757.000000	72.390313
756.000000	72.391683
755.000000	72.326728
754.000000	72.263919
753.000000	72.352571
752.000000	72.379489
751.000000	72.317943
750.000000	72.302378
749.000000	72.336705
748.000000	72.239681
747.000000	72.261924
746.000000	72.230378
745.000000	72.321823
744.000000	72.350097
743.000000	72.370238
742.000000	72.384030
741.000000	72.399692
740.000000	72.360893
739.000000	72.299491
738.000000	72.378588
737.000000	72.421738
736.000000	72.341324
735.000000	72.293392
734.000000	72.226711
733.000000	72.268301
732.000000	72.331776
731.000000	72.289528
730.000000	72.273576
729.000000	72.350585
728.000000	72.384611
727.000000	72.376804
726.000000	72.292901
725.000000	72.343506
724.000000	72.360148
723.000000	72.313344
722.000000	72.298957
721.000000	72.367369
720.000000	72.417421
719.000000	72.331499
718.000000	72.362750
717.000000	72.398306
716.000000	72.350369
715.000000	72.362699
714.000000	72.380130
713.000000	72.331385
712.000000	72.295995
711.000000	72.326374
710.000000	72.342295
709.000000	72.335465
708.000000	72.295627
707.000000	72.336756
706.000000	72.349595
705.000000	72.320435
704.000000	72.300520
703.000000	72.306305
702.000000	72.318037
701.000000	72.344663
700.000000	72.424641
699.000000	72.412983
698.000000	72.366766
697.000000	72.321958
696.000000	72.365715
695.000000	72.437075
694.000000	72.416075
693.000000	72.395286
692.000000	72.385407
691.000000	72.408093
690.000000	72.388452
689.000000	72.404226
688.000000	72.376111
687.000000	72.351470
686.000000	72.364547
685.000000	72.389956
684.000000	72.432714
683.000000	72.440196
682.000000	72.413736
681.000000	72.349557
680.000000	72.391912
679.000000	72.435784
678.000000	72.437141
677.000000	72.540920
676.000000	72.476095
675.000000	72.402777
674.000000	72.424899
673.000000	72.496139
672.000000	72.513443
671.000000	72.490569
670.000000	72.441327
669.000000	72.443453
668.000000	72.425784
667.000000	72.481942
666.000000	72.460238
665.000000	72.456597
664.000000	72.412899
663.000000	72.453002
662.000000	72.461031
661.000000	72.497303
660.000000	72.507008
659.000000	72.403060
658.000000	72.434054
657.000000	72.512007
656.000000	72.485040
655.000000	72.446250
654.000000	72.489172
653.000000	72.453828
652.000000	72.449388
651.000000	72.427885
650.000000	72.427293
649.000000	72.541882
648.000000	72.375640
647.000000	72.413340
646.000000	72.420673
645.000000	72.350241
644.000000	72.424376
643.000000	72.431744
642.000000	72.417491
641.000000	72.479041
640.000000	72.401341
639.000000	72.429359
638.000000	72.424935
637.000000	72.443234
636.000000	72.390403
635.000000	72.440640
634.000000	72.477582
633.000000	72.483649
632.000000	72.458802
631.000000	72.446344
630.000000	72.441863
629.000000	72.448782
628.000000	72.420205
627.000000	72.438155
626.000000	72.468719
625.000000	72.431396
624.000000	72.480146
623.000000	72.432262
622.000000	72.460210
621.000000	72.458789
620.000000	72.392519
619.000000	72.395982
618.000000	72.339001
617.000000	72.413583
616.000000	72.335122
615.000000	72.361425
614.000000	72.377363
613.000000	72.415135
612.000000	72.383993
611.000000	72.391430
610.000000	72.327178
609.000000	72.355083
608.000000	72.397620
607.000000	72.353428
606.000000	72.320253
605.000000	72.284540
604.000000	72.322044
603.000000	72.275444
602.000000	72.257115
601.000000	72.259842
600.000000	72.289636
599.000000	72.300165
598.000000	72.255701
597.000000	72.281829
596.000000	72.220856
595.000000	72.237353
594.000000	72.271179
593.000000	72.251985
592.000000	72.256579
591.000000	72.179692
590.000000	72.218809
589.000000	72.187321
588.000000	72.192146
587.000000	72.233981
586.000000	72.110663
585.000000	72.175430
584.000000	72.115094
583.000000	72.130016
582.000000	72.152335
581.000000	72.121118
580.000000	72.098997
579.000000	72.115671
578.000000	72.063070
577.000000	72.054858
576.000000	72.085116
575.000000	72.016381
574.000000	72.025322
573.000000	72.130804
572.000000	72.088555
571.000000	72.002522
570.000000	72.003090
569.000000	72.034534
568.000000	71.917632
567.000000	71.945055
566.000000	71.896336
565.000000	71.892930
564.000000	71.957088
563.000000	71.964397
562.000000	71.875796
561.000000	71.743419
560.000000	71.754184
559.000000	71.758452
558.000000	71.701920
557.000000	71.702007
556.000000	71.785260
555.000000	71.706904
554.000000	71.706694
553.000000	71.651077
552.000000	71.624816
551.000000	71.622217
550.000000	71.617957
549.000000	71.632762
548.000000	71.564946
547.000000	71.545982
546.000000	71.524132
545.000000	71.517437
544.000000	71.553488
543.000000	71.462916
542.000000	71.399688
541.000000	71.460556
540.000000	71.418993
539.000000	71.410947
538.000000	71.386374
537.000000	71.355289
536.000000	71.272561
535.000000	71.316732
534.000000	71.253386
533.000000	71.265558
532.000000	71.214133
531.000000	71.202358
530.000000	71.204750
529.000000	71.205273
528.000000	71.121804
527.000000	71.125109
526.000000	71.131603
525.000000	71.045402
524.000000	71.013116
523.000000	71.016505
522.000000	70.973076
521.000000	70.946370
520.000000	70.907660
519.000000	70.868326
518.000000	70.821218
517.000000	70.809164
516.000000	70.780017
515.000000	70.752727
514.000000	70.663323
513.000000	70.669051
512.000000	70.628439
511.000000	70.648509
510.000000	70.582284
509.000000	70.505827
508.000000	70.479237
507.000000	70.458280
506.000000	70.420477
505.000000	70.380372
504.000000	70.374345
503.000000	70.338843
502.000000	70.302357
501.000000	70.273217
500.000000	70.208804
499.000000	70.178492
498.000000	70.145555
497.000000	70.122672
496.000000	70.109456
495.000000	70.040010
494.000000	69.988143
493.000000	69.937791
492.000000	69.845863
491.000000	69.863871
490.000000	69.809028
489.000000	69.703580
488.000000	69.661588
487.000000	69.622709
486.000000	69.583023
485.000000	69.575595
484.000000	69.571260
483.000000	69.509227
482.000000	69.477908
481.000000	69.415591
480.000000	69.341390
479.000000	69.295897
478.000000	69.246477
477.000000	69.205013
476.000000	69.125552
475.000000	69.003944
474.000000	68.951570
473.000000	68.962958
472.000000	68.905596
471.000000	68.848511
470.000000	68.770073
469.000000	68.682338
468.000000	68.585009
467.000000	68.554664
466.000000	68.506655
465.000000	68.407759
464.000000	68.322753
463.000000	68.247344
462.000000	68.179004
461.000000	68.097992
460.000000	67.975076
459.000000	67.902559
458.000000	67.847807
457.000000	67.744382
456.000000	67.653920
455.000000	67.590716
454.000000	67.517079
453.000000	67.469479
452.000000	67.384950
451.000000	67.221607
450.000000	67.117544
449.000000	67.099348
448.000000	66.999758
447.000000	66.827622
446.000000	66.695793
445.000000	66.609393
444.000000	66.533054
443.000000	66.395257
442.000000	66.282368
441.000000	66.159549
440.000000	66.038840
439.000000	65.923701
438.000000	65.773145
437.000000	65.618406
436.000000	65.507253
435.000000	65.370933
434.000000	65.199697
433.000000	65.091789
432.000000	64.940253
431.000000	64.801346
430.000000	64.692271
429.000000	64.513144
428.000000	64.350027
427.000000	64.206327
426.000000	64.042691
425.000000	63.900860
424.000000	63.644718
423.000000	63.481642
422.000000	63.356465
421.000000	63.174854
420.000000	62.993273
419.000000	62.801920
418.000000	62.586663
417.000000	62.426850
416.000000	62.200522
415.000000	61.964256
414.000000	61.798133
413.000000	61.594732
412.000000	61.395620
411.000000	61.173058
410.000000	60.935815
409.000000	60.713495
408.000000	60.529523
407.000000	60.285822
406.000000	60.099884
405.000000	59.841085
404.000000	59.593325
403.000000	59.388981
402.000000	59.155801
401.000000	58.872015
400.000000	58.649936
399.000000	58.441062
398.000000	58.230877
397.000000	57.926095
396.000000	57.654845
395.000000	57.419648
394.000000	57.166354
393.000000	56.944228
392.000000	56.621221
391.000000	56.397931
390.000000	56.143370
389.000000	55.856573
388.000000	55.533371
387.000000	55.246986
386.000000	54.912536
385.000000	54.652378
384.000000	54.358978
383.000000	54.134467
382.000000	53.729454
381.000000	53.450173
380.000000	53.192159
379.000000	52.795154
378.000000	52.398651
377.000000	52.396764
376.000000	52.066373
375.000000	51.579596
374.000000	51.220071
373.000000	51.037574
372.000000	50.526999
371.000000	50.185135
370.000000	49.957716
369.000000	49.389267
368.000000	49.082508
367.000000	48.727256
366.000000	48.432265
365.000000	48.071581
364.000000	47.756727
363.000000	47.439631
362.000000	47.100102
361.000000	46.903215
360.000000	46.316770
359.000000	45.968005
358.000000	45.717437
357.000000	45.394127
356.000000	44.904292
355.000000	44.730982
354.000000	44.408151
353.000000	44.108066
352.000000	43.549357
351.000000	43.326711
350.000000	43.093097
349.000000	42.613044
348.000000	42.152376
347.000000	41.842367
346.000000	41.549778
345.000000	41.328864
344.000000	40.767279
343.000000	40.318878
342.000000	40.006405
341.000000	39.425747
340.000000	38.856064
339.000000	38.521914
338.000000	38.063911
337.000000	37.375385
336.000000	36.758518
335.000000	36.253105
334.000000	35.772870
333.000000	34.877212
332.000000	34.406649
331.000000	33.655698
330.000000	33.043888
329.000000	32.410159
328.000000	31.710317
327.000000	30.990419
326.000000	30.590578
325.000000	30.169109
324.000000	29.507209
323.000000	29.231103
322.000000	28.717229
321.000000	28.159122
320.000000	27.874573
319.000000	27.555573
318.000000	27.326237
317.000000	27.025774
316.000000	26.888430
315.000000	26.742484
314.000000	26.453114
313.000000	26.137414
312.000000	25.846522
311.000000	25.822182
310.000000	25.651538
309.000000	25.471543
308.000000	25.363915
307.000000	25.143668
306.000000	24.925768
305.000000	24.859953
304.000000	24.834016
303.000000	24.671315
302.000000	24.615502
301.000000	24.369248
300.000000	24.141448
299.000000	24.055941
298.000000	23.880332
297.000000	23.540500
296.000000	23.176158
295.000000	22.797239
294.000000	22.313485
293.000000	21.710503
292.000000	21.072311
291.000000	20.197821
290.000000	19.411817
289.000000	18.620813
288.000000	17.983821
287.000000	17.480837
286.000000	17.282042
285.000000	17.082239
284.000000	16.904986
283.000000	16.899613
282.000000	16.892932
281.000000	16.924775
280.000000	16.928924
279.000000	16.938861
278.000000	17.077379
277.000000	17.248451
276.000000	17.420238
275.000000	17.629000
274.000000	17.879838
273.000000	18.011320
272.000000	18.232436
271.000000	18.280796
270.000000	18.356557
269.000000	18.375967
268.000000	18.630068
267.000000	18.828678
266.000000	18.980667
265.000000	19.143739
264.000000	19.414452
263.000000	19.715714
262.000000	20.059783
261.000000	20.238841
260.000000	20.352615
259.000000	20.585212
258.000000	20.885229
257.000000	21.283393
256.000000	21.583733
255.000000	21.806612
254.000000	21.912888
253.000000	21.985955
252.000000	22.049003
251.000000	22.019803
250.000000	21.860479
249.000000	21.522409
248.000000	21.154104
247.000000	20.590167
246.000000	19.992146
245.000000	19.340547
244.000000	18.714606
243.000000	17.961269
242.000000	17.333828
241.000000	16.817788
240.000000	16.399866
239.000000	16.114145
238.000000	15.921081
237.000000	15.826444
236.000000	15.871284
235.000000	15.980868
234.000000	16.026158
233.000000	15.965023
232.000000	16.085403
231.000000	16.145638
230.000000	16.188377
229.000000	16.268610
228.000000	16.316575
227.000000	16.415845
226.000000	16.537272
225.000000	16.676009
224.000000	16.849418
223.000000	17.095281
222.000000	17.306765
221.000000	17.471884
220.000000	17.772367
219.000000	18.118777
218.000000	18.368911
217.000000	18.622403
216.000000	18.924057
215.000000	19.336910
214.000000	19.786787
213.000000	20.051064
212.000000	20.508104
211.000000	20.961923
210.000000	21.287438
209.000000	21.685943
208.000000	22.093569
207.000000	22.555163
206.000000	23.313605
205.000000	23.968753
204.000000	24.350126
203.000000	24.865894
202.000000	25.421859
201.000000	25.863795
200.000000	26.200376
