PE UV       SUBTECH     SPECTRUM    ASCII       PEDS        4.00        
   -1
RDgAgneauUK 32.Sample.asc
18/03/12
14:38:45.00
18/03/12
14:38:45.00
Administrator

200.000000
1
Lambda 750
750N8071901
PerkinElmer UV WinLab 6.0.4.0738 / 1.61.00 Lambda 900

0
0
3350/servo 860.8/2
0
0
UV/VIS
1
1
1
CommonBeamDepol,150mm sphere / downward view
0
0
0
0
Program
Program
3350/servo 860.8/2
3350/0.2 860.8/0.2
3350/0.2 860.8/0.2
0
1
 
 
 
0
 
860.8
319.2
860.8
Front
100
on
 
 
0
0
0
 
0
 
 
 
0
 
 
0
0
0
0
0
 
 
 
 
0
0


0
0
#HDR
-1
-1
#GR
nm
%R
1.0
0.0
2350.000000
-1.000000
2151
8
73.348761
14.545414
#DATA
2350.000000	25.551448
2349.000000	26.429182
2348.000000	25.804170
2347.000000	26.383578
2346.000000	26.249512
2345.000000	26.440098
2344.000000	26.004549
2343.000000	25.817617
2342.000000	25.569145
2341.000000	26.074256
2340.000000	26.143010
2339.000000	26.461515
2338.000000	26.347986
2337.000000	26.463054
2336.000000	26.601977
2335.000000	27.025156
2334.000000	26.994195
2333.000000	26.883539
2332.000000	26.953154
2331.000000	26.860070
2330.000000	26.707594
2329.000000	26.765804
2328.000000	26.822610
2327.000000	26.507240
2326.000000	26.794514
2325.000000	27.175040
2324.000000	26.891201
2323.000000	26.428072
2322.000000	26.509724
2321.000000	26.570247
2320.000000	26.606175
2319.000000	26.899713
2318.000000	26.673551
2317.000000	26.520761
2316.000000	26.083772
2315.000000	26.216802
2314.000000	26.418528
2313.000000	26.410776
2312.000000	26.005704
2311.000000	25.989234
2310.000000	26.091338
2309.000000	26.084598
2308.000000	25.914459
2307.000000	25.795761
2306.000000	25.642502
2305.000000	25.525293
2304.000000	25.643830
2303.000000	25.443253
2302.000000	25.301674
2301.000000	25.265904
2300.000000	24.930526
2299.000000	25.027336
2298.000000	24.876423
2297.000000	24.484003
2296.000000	24.523091
2295.000000	24.401022
2294.000000	24.502256
2293.000000	24.357221
2292.000000	24.188541
2291.000000	24.450787
2290.000000	24.332667
2289.000000	24.009602
2288.000000	24.068537
2287.000000	24.178992
2286.000000	24.068383
2285.000000	23.946824
2284.000000	23.968455
2283.000000	23.964198
2282.000000	23.998845
2281.000000	23.968807
2280.000000	23.816356
2279.000000	23.885347
2278.000000	23.963987
2277.000000	23.971605
2276.000000	23.960519
2275.000000	24.195262
2274.000000	24.159198
2273.000000	24.109447
2272.000000	24.199183
2271.000000	24.241267
2270.000000	24.224592
2269.000000	24.192200
2268.000000	24.352664
2267.000000	24.553101
2266.000000	24.715749
2265.000000	24.743923
2264.000000	24.850218
2263.000000	24.956543
2262.000000	25.087090
2261.000000	25.305474
2260.000000	25.449410
2259.000000	25.676891
2258.000000	25.890596
2257.000000	26.009958
2256.000000	26.168588
2255.000000	26.342502
2254.000000	26.680941
2253.000000	26.755761
2252.000000	26.856635
2251.000000	27.210166
2250.000000	27.517983
2249.000000	27.852809
2248.000000	27.953647
2247.000000	28.103974
2246.000000	28.441420
2245.000000	28.675484
2244.000000	28.943851
2243.000000	29.123385
2242.000000	29.230513
2241.000000	29.356459
2240.000000	29.626061
2239.000000	29.872103
2238.000000	29.834284
2237.000000	29.994651
2236.000000	30.171935
2235.000000	30.175873
2234.000000	30.323269
2233.000000	30.379424
2232.000000	30.530100
2231.000000	30.705895
2230.000000	30.734158
2229.000000	30.852096
2228.000000	31.007859
2227.000000	30.934691
2226.000000	30.743675
2225.000000	30.613766
2224.000000	30.705229
2223.000000	30.683367
2222.000000	30.507295
2221.000000	30.559888
2220.000000	30.675301
2219.000000	30.681691
2218.000000	30.687569
2217.000000	30.560461
2216.000000	30.407615
2215.000000	30.330216
2214.000000	30.282295
2213.000000	30.259498
2212.000000	30.146079
2211.000000	30.032414
2210.000000	29.970629
2209.000000	30.000192
2208.000000	29.848243
2207.000000	29.706952
2206.000000	29.772555
2205.000000	29.699990
2204.000000	29.519874
2203.000000	29.380990
2202.000000	29.249451
2201.000000	29.145482
2200.000000	29.008038
2199.000000	29.078282
2198.000000	28.922517
2197.000000	28.879253
2196.000000	28.730762
2195.000000	28.715629
2194.000000	28.687093
2193.000000	28.359337
2192.000000	28.329657
2191.000000	28.153013
2190.000000	28.231233
2189.000000	28.174187
2188.000000	28.082215
2187.000000	28.149855
2186.000000	27.964734
2185.000000	27.875662
2184.000000	27.823593
2183.000000	27.720576
2182.000000	27.668985
2181.000000	27.651369
2180.000000	27.546162
2179.000000	27.517389
2178.000000	27.506785
2177.000000	27.596905
2176.000000	27.531601
2175.000000	27.634442
2174.000000	27.738340
2173.000000	27.739023
2172.000000	27.704297
2171.000000	27.754321
2170.000000	27.831525
2169.000000	27.784152
2168.000000	27.899422
2167.000000	28.112463
2166.000000	28.246056
2165.000000	28.298305
2164.000000	28.445825
2163.000000	28.400786
2162.000000	28.535708
2161.000000	28.717144
2160.000000	28.797895
2159.000000	29.084706
2158.000000	29.161002
2157.000000	29.203718
2156.000000	29.361593
2155.000000	29.584240
2154.000000	29.800594
2153.000000	29.946935
2152.000000	30.173861
2151.000000	30.191670
2150.000000	30.440445
2149.000000	30.621059
2148.000000	30.693721
2147.000000	30.952996
2146.000000	31.311983
2145.000000	31.362714
2144.000000	31.474090
2143.000000	31.783457
2142.000000	31.764408
2141.000000	31.913970
2140.000000	31.906759
2139.000000	32.104996
2138.000000	32.295932
2137.000000	32.357045
2136.000000	32.470086
2135.000000	32.620967
2134.000000	32.881617
2133.000000	32.544698
2132.000000	32.980623
2131.000000	33.077157
2130.000000	33.192902
2129.000000	33.217103
2128.000000	33.192819
2127.000000	33.347001
2126.000000	33.402558
2125.000000	33.357651
2124.000000	33.384868
2123.000000	33.524633
2122.000000	33.688936
2121.000000	33.716376
2120.000000	33.734557
2119.000000	33.743719
2118.000000	33.832892
2117.000000	33.834163
2116.000000	33.850837
2115.000000	33.988316
2114.000000	33.920988
2113.000000	33.897552
2112.000000	33.881811
2111.000000	33.901176
2110.000000	33.852792
2109.000000	33.944746
2108.000000	34.006568
2107.000000	34.040407
2106.000000	33.979003
2105.000000	34.088657
2104.000000	34.099707
2103.000000	34.085595
2102.000000	34.086957
2101.000000	34.069632
2100.000000	34.210648
2099.000000	34.175703
2098.000000	34.120924
2097.000000	34.118353
2096.000000	34.022151
2095.000000	34.067796
2094.000000	34.026525
2093.000000	34.003278
2092.000000	34.091773
2091.000000	34.104388
2090.000000	34.082426
2089.000000	33.993265
2088.000000	33.975562
2087.000000	33.920000
2086.000000	33.795836
2085.000000	33.824033
2084.000000	33.784702
2083.000000	33.635436
2082.000000	33.580626
2081.000000	33.578616
2080.000000	33.525256
2079.000000	33.331518
2078.000000	33.173575
2077.000000	33.022770
2076.000000	32.885788
2075.000000	32.786935
2074.000000	32.622058
2073.000000	32.403420
2072.000000	32.225487
2071.000000	32.160296
2070.000000	32.100966
2069.000000	31.871346
2068.000000	31.692826
2067.000000	31.517467
2066.000000	31.335866
2065.000000	31.077772
2064.000000	30.899511
2063.000000	30.733031
2062.000000	30.578258
2061.000000	30.362062
2060.000000	30.146047
2059.000000	30.026687
2058.000000	29.858223
2057.000000	29.698882
2056.000000	29.589698
2055.000000	29.384250
2054.000000	29.086729
2053.000000	28.945877
2052.000000	28.851928
2051.000000	28.689356
2050.000000	28.552822
2049.000000	28.368735
2048.000000	28.180770
2047.000000	28.143904
2046.000000	28.126294
2045.000000	28.064149
2044.000000	27.958477
2043.000000	27.928193
2042.000000	27.946533
2041.000000	27.995209
2040.000000	27.996239
2039.000000	28.021601
2038.000000	28.099819
2037.000000	28.179783
2036.000000	28.220096
2035.000000	28.261623
2034.000000	28.429360
2033.000000	28.566447
2032.000000	28.650006
2031.000000	28.773057
2030.000000	28.892550
2029.000000	29.044425
2028.000000	29.172650
2027.000000	29.278388
2026.000000	29.441850
2025.000000	29.542105
2024.000000	29.569704
2023.000000	29.614958
2022.000000	29.673698
2021.000000	29.710949
2020.000000	29.816632
2019.000000	29.848433
2018.000000	29.822789
2017.000000	29.826508
2016.000000	29.826110
2015.000000	29.793072
2014.000000	29.761565
2013.000000	29.745864
2012.000000	29.721324
2011.000000	29.689680
2010.000000	29.585555
2009.000000	29.438947
2008.000000	29.368220
2007.000000	29.285276
2006.000000	29.190334
2005.000000	29.130919
2004.000000	29.020993
2003.000000	28.909309
2002.000000	28.802843
2001.000000	28.666539
2000.000000	28.540544
1999.000000	28.410867
1998.000000	28.292408
1997.000000	28.177604
1996.000000	28.047200
1995.000000	27.881824
1994.000000	27.750283
1993.000000	27.659540
1992.000000	27.503972
1991.000000	27.317110
1990.000000	27.233644
1989.000000	27.096958
1988.000000	26.926726
1987.000000	26.848152
1986.000000	26.652563
1985.000000	26.504711
1984.000000	26.407032
1983.000000	26.268006
1982.000000	26.131152
1981.000000	26.033986
1980.000000	25.889945
1979.000000	25.727575
1978.000000	25.622383
1977.000000	25.460264
1976.000000	25.262755
1975.000000	25.153235
1974.000000	25.060254
1973.000000	24.946636
1972.000000	24.815620
1971.000000	24.710199
1970.000000	24.549584
1969.000000	24.448833
1968.000000	24.349114
1967.000000	24.208332
1966.000000	24.055886
1965.000000	23.967113
1964.000000	23.876998
1963.000000	23.786939
1962.000000	23.567807
1961.000000	23.447472
1960.000000	23.340372
1959.000000	23.253124
1958.000000	23.152379
1957.000000	23.109783
1956.000000	22.968693
1955.000000	22.838004
1954.000000	22.779139
1953.000000	22.725989
1952.000000	22.718559
1951.000000	22.611766
1950.000000	22.539597
1949.000000	22.497680
1948.000000	22.502522
1947.000000	22.483703
1946.000000	22.417205
1945.000000	22.398547
1944.000000	22.407088
1943.000000	22.403431
1942.000000	22.444360
1941.000000	22.453521
1940.000000	22.484057
1939.000000	22.533585
1938.000000	22.619424
1937.000000	22.681861
1936.000000	22.857810
1935.000000	22.941631
1934.000000	22.974272
1933.000000	23.245984
1932.000000	23.332556
1931.000000	23.474088
1930.000000	23.625164
1929.000000	23.881332
1928.000000	24.108887
1927.000000	24.340278
1926.000000	24.466447
1925.000000	24.797158
1924.000000	25.018608
1923.000000	25.464710
1922.000000	25.667169
1921.000000	26.041932
1920.000000	26.331051
1919.000000	26.629888
1918.000000	26.957792
1917.000000	27.321444
1916.000000	27.745655
1915.000000	28.240891
1914.000000	28.757121
1913.000000	29.213060
1912.000000	29.630527
1911.000000	30.097357
1910.000000	30.606239
1909.000000	31.194099
1908.000000	31.705629
1907.000000	32.337433
1906.000000	32.861595
1905.000000	33.547631
1904.000000	34.172459
1903.000000	34.830398
1902.000000	35.445334
1901.000000	36.132785
1900.000000	36.853989
1899.000000	37.534726
1898.000000	38.226179
1897.000000	38.985504
1896.000000	39.726432
1895.000000	40.410702
1894.000000	41.041697
1893.000000	41.762614
1892.000000	42.462285
1891.000000	43.158837
1890.000000	43.814220
1889.000000	44.414449
1888.000000	45.015931
1887.000000	45.635378
1886.000000	46.203997
1885.000000	46.846788
1884.000000	47.389430
1883.000000	47.950424
1882.000000	48.482137
1881.000000	48.987695
1880.000000	49.539147
1879.000000	50.043113
1878.000000	50.509960
1877.000000	50.920307
1876.000000	51.373295
1875.000000	51.802889
1874.000000	52.169986
1873.000000	52.520364
1872.000000	52.858792
1871.000000	53.256464
1870.000000	53.484728
1869.000000	53.784838
1868.000000	54.070203
1867.000000	54.244718
1866.000000	54.482378
1865.000000	54.636521
1864.000000	54.765353
1863.000000	54.916106
1862.000000	55.068113
1861.000000	55.174893
1860.000000	55.279368
1859.000000	55.383930
1858.000000	55.477750
1857.000000	55.570367
1856.000000	55.634212
1855.000000	55.674759
1854.000000	55.737295
1853.000000	55.802971
1852.000000	55.831810
1851.000000	55.924513
1850.000000	55.891556
1849.000000	55.937345
1848.000000	55.972342
1847.000000	55.931957
1846.000000	55.915800
1845.000000	55.884745
1844.000000	55.935263
1843.000000	55.894832
1842.000000	55.888750
1841.000000	55.875065
1840.000000	55.789270
1839.000000	55.751655
1838.000000	55.704944
1837.000000	55.668813
1836.000000	55.612501
1835.000000	55.545172
1834.000000	55.468624
1833.000000	55.404717
1832.000000	55.369036
1831.000000	55.334888
1830.000000	55.268900
1829.000000	55.182278
1828.000000	55.142602
1827.000000	55.098117
1826.000000	55.046434
1825.000000	55.015556
1824.000000	54.961469
1823.000000	54.897519
1822.000000	54.843568
1821.000000	54.813488
1820.000000	54.772146
1819.000000	54.707931
1818.000000	54.670009
1817.000000	54.622019
1816.000000	54.577832
1815.000000	54.515734
1814.000000	54.435831
1813.000000	54.383971
1812.000000	54.347461
1811.000000	54.285002
1810.000000	54.233190
1809.000000	54.211066
1808.000000	54.145831
1807.000000	54.064275
1806.000000	54.004932
1805.000000	53.928810
1804.000000	53.899418
1803.000000	53.881022
1802.000000	53.812903
1801.000000	53.755817
1800.000000	53.722467
1799.000000	53.670149
1798.000000	53.608725
1797.000000	53.586498
1796.000000	53.561692
1795.000000	53.498992
1794.000000	53.491585
1793.000000	53.445163
1792.000000	53.396629
1791.000000	53.371757
1790.000000	53.335712
1789.000000	53.296294
1788.000000	53.253005
1787.000000	53.203873
1786.000000	53.169291
1785.000000	53.153025
1784.000000	53.116008
1783.000000	53.063852
1782.000000	53.000971
1781.000000	52.941647
1780.000000	52.875193
1779.000000	52.850147
1778.000000	52.785366
1777.000000	52.701391
1776.000000	52.649668
1775.000000	52.593906
1774.000000	52.530156
1773.000000	52.472386
1772.000000	52.381614
1771.000000	52.333048
1770.000000	52.265971
1769.000000	52.189509
1768.000000	52.102674
1767.000000	52.040643
1766.000000	51.987810
1765.000000	51.919748
1764.000000	51.856710
1763.000000	51.757964
1762.000000	51.706192
1761.000000	51.650533
1760.000000	51.573363
1759.000000	51.521872
1758.000000	51.452602
1757.000000	51.358545
1756.000000	51.315485
1755.000000	51.245472
1754.000000	51.178736
1753.000000	51.137839
1752.000000	51.081565
1751.000000	51.002761
1750.000000	50.930004
1749.000000	50.878377
1748.000000	50.804949
1747.000000	50.710972
1746.000000	50.640070
1745.000000	50.545809
1744.000000	50.497711
1743.000000	50.417697
1742.000000	50.315115
1741.000000	50.264863
1740.000000	50.200203
1739.000000	50.154330
1738.000000	50.061110
1737.000000	50.047566
1736.000000	49.989920
1735.000000	49.995642
1734.000000	49.989863
1733.000000	49.951300
1732.000000	49.974257
1731.000000	49.980193
1730.000000	49.998227
1729.000000	50.080630
1728.000000	50.129091
1727.000000	50.173583
1726.000000	50.305286
1725.000000	50.412794
1724.000000	50.488457
1723.000000	50.601195
1722.000000	50.753849
1721.000000	50.845473
1720.000000	51.005819
1719.000000	51.179728
1718.000000	51.291127
1717.000000	51.439857
1716.000000	51.603076
1715.000000	51.676332
1714.000000	51.809236
1713.000000	51.972857
1712.000000	52.054525
1711.000000	52.133365
1710.000000	52.216969
1709.000000	52.313565
1708.000000	52.412042
1707.000000	52.480565
1706.000000	52.491642
1705.000000	52.544444
1704.000000	52.638731
1703.000000	52.635179
1702.000000	52.656303
1701.000000	52.686568
1700.000000	52.707937
1699.000000	52.733085
1698.000000	52.751058
1697.000000	52.792899
1696.000000	52.822594
1695.000000	52.851225
1694.000000	52.891804
1693.000000	52.950335
1692.000000	53.031941
1691.000000	53.136896
1690.000000	53.200968
1689.000000	53.307649
1688.000000	53.480052
1687.000000	53.587829
1686.000000	53.741836
1685.000000	53.910461
1684.000000	54.095838
1683.000000	54.290785
1682.000000	54.503779
1681.000000	54.714940
1680.000000	54.928181
1679.000000	55.172987
1678.000000	55.417233
1677.000000	55.626176
1676.000000	55.867486
1675.000000	56.120269
1674.000000	56.328457
1673.000000	56.572986
1672.000000	56.793204
1671.000000	56.988468
1670.000000	57.190706
1669.000000	57.440286
1668.000000	57.590798
1667.000000	57.830601
1666.000000	57.927141
1665.000000	58.044212
1664.000000	58.188288
1663.000000	58.286163
1662.000000	58.395957
1661.000000	58.525788
1660.000000	58.585533
1659.000000	58.666293
1658.000000	58.741236
1657.000000	58.782582
1656.000000	58.840760
1655.000000	58.870372
1654.000000	58.895580
1653.000000	58.942006
1652.000000	58.948056
1651.000000	58.948122
1650.000000	58.953438
1649.000000	58.921600
1648.000000	58.912638
1647.000000	58.926344
1646.000000	58.910688
1645.000000	58.856357
1644.000000	58.860540
1643.000000	58.836498
1642.000000	58.800343
1641.000000	58.731693
1640.000000	58.705703
1639.000000	58.677024
1638.000000	58.620180
1637.000000	58.563129
1636.000000	58.493225
1635.000000	58.452845
1634.000000	58.396466
1633.000000	58.314327
1632.000000	58.258367
1631.000000	58.208946
1630.000000	58.143971
1629.000000	58.067145
1628.000000	58.008737
1627.000000	57.934137
1626.000000	57.864475
1625.000000	57.791240
1624.000000	57.734764
1623.000000	57.665821
1622.000000	57.609149
1621.000000	57.499694
1620.000000	57.414239
1619.000000	57.338818
1618.000000	57.271342
1617.000000	57.201426
1616.000000	57.113035
1615.000000	57.009607
1614.000000	56.932914
1613.000000	56.847952
1612.000000	56.758699
1611.000000	56.679691
1610.000000	56.585553
1609.000000	56.483916
1608.000000	56.395349
1607.000000	56.302100
1606.000000	56.204207
1605.000000	56.113937
1604.000000	56.009312
1603.000000	55.911874
1602.000000	55.837421
1601.000000	55.753481
1600.000000	55.660669
1599.000000	55.571608
1598.000000	55.477742
1597.000000	55.383628
1596.000000	55.281502
1595.000000	55.190209
1594.000000	55.117120
1593.000000	55.037468
1592.000000	54.955321
1591.000000	54.862636
1590.000000	54.785251
1589.000000	54.711587
1588.000000	54.626442
1587.000000	54.556386
1586.000000	54.478430
1585.000000	54.399886
1584.000000	54.327991
1583.000000	54.263981
1582.000000	54.182342
1581.000000	54.100013
1580.000000	54.038932
1579.000000	53.973565
1578.000000	53.889149
1577.000000	53.810812
1576.000000	53.738978
1575.000000	53.670493
1574.000000	53.593302
1573.000000	53.515058
1572.000000	53.445032
1571.000000	53.379353
1570.000000	53.296306
1569.000000	53.236729
1568.000000	53.186216
1567.000000	53.131106
1566.000000	53.073445
1565.000000	53.013330
1564.000000	52.960749
1563.000000	52.909991
1562.000000	52.859933
1561.000000	52.810869
1560.000000	52.778944
1559.000000	52.740447
1558.000000	52.702837
1557.000000	52.679825
1556.000000	52.637304
1555.000000	52.591055
1554.000000	52.556402
1553.000000	52.518411
1552.000000	52.467004
1551.000000	52.396682
1550.000000	52.336708
1549.000000	52.273229
1548.000000	52.209941
1547.000000	52.129743
1546.000000	52.050961
1545.000000	51.945880
1544.000000	51.830774
1543.000000	51.726849
1542.000000	51.624864
1541.000000	51.523279
1540.000000	51.399136
1539.000000	51.274629
1538.000000	51.142669
1537.000000	51.010548
1536.000000	50.878985
1535.000000	50.779355
1534.000000	50.638749
1533.000000	50.519961
1532.000000	50.395335
1531.000000	50.251571
1530.000000	50.161624
1529.000000	50.053116
1528.000000	49.955784
1527.000000	49.851246
1526.000000	49.758704
1525.000000	49.656597
1524.000000	49.571106
1523.000000	49.483123
1522.000000	49.407751
1521.000000	49.340875
1520.000000	49.272835
1519.000000	49.223510
1518.000000	49.166196
1517.000000	49.094574
1516.000000	49.059243
1515.000000	48.988316
1514.000000	48.935124
1513.000000	48.880202
1512.000000	48.844809
1511.000000	48.814932
1510.000000	48.741147
1509.000000	48.705645
1508.000000	48.682779
1507.000000	48.625379
1506.000000	48.598098
1505.000000	48.580219
1504.000000	48.554578
1503.000000	48.544306
1502.000000	48.509021
1501.000000	48.486195
1500.000000	48.462025
1499.000000	48.453970
1498.000000	48.446353
1497.000000	48.424344
1496.000000	48.415437
1495.000000	48.426596
1494.000000	48.426297
1493.000000	48.451760
1492.000000	48.470941
1491.000000	48.474865
1490.000000	48.493945
1489.000000	48.525386
1488.000000	48.549256
1487.000000	48.580416
1486.000000	48.602032
1485.000000	48.633380
1484.000000	48.672341
1483.000000	48.721245
1482.000000	48.747527
1481.000000	48.799244
1480.000000	48.858171
1479.000000	48.895785
1478.000000	48.931069
1477.000000	48.984918
1476.000000	49.019727
1475.000000	49.080707
1474.000000	49.120295
1473.000000	49.160045
1472.000000	49.203678
1471.000000	49.252701
1470.000000	49.301880
1469.000000	49.351954
1468.000000	49.413991
1467.000000	49.459286
1466.000000	49.508212
1465.000000	49.568925
1464.000000	49.611041
1463.000000	49.661396
1462.000000	49.726810
1461.000000	49.789315
1460.000000	49.846636
1459.000000	49.915114
1458.000000	49.997218
1457.000000	50.067233
1456.000000	50.138909
1455.000000	50.219562
1454.000000	50.306539
1453.000000	50.394710
1452.000000	50.499925
1451.000000	50.606697
1450.000000	50.708538
1449.000000	50.816513
1448.000000	50.920760
1447.000000	51.026832
1446.000000	51.140707
1445.000000	51.255770
1444.000000	51.385631
1443.000000	51.499083
1442.000000	51.641048
1441.000000	51.781202
1440.000000	51.928551
1439.000000	52.078547
1438.000000	52.223880
1437.000000	52.388214
1436.000000	52.543901
1435.000000	52.724607
1434.000000	52.893905
1433.000000	53.076072
1432.000000	53.251244
1431.000000	53.456373
1430.000000	53.657733
1429.000000	53.874563
1428.000000	54.077207
1427.000000	54.302179
1426.000000	54.515139
1425.000000	54.748481
1424.000000	54.967832
1423.000000	55.228783
1422.000000	55.495437
1421.000000	55.758019
1420.000000	56.024743
1419.000000	56.296232
1418.000000	56.563871
1417.000000	56.833013
1416.000000	57.123229
1415.000000	57.418695
1414.000000	57.711283
1413.000000	57.999147
1412.000000	58.297139
1411.000000	58.617797
1410.000000	58.906519
1409.000000	59.207836
1408.000000	59.513574
1407.000000	59.816839
1406.000000	60.126952
1405.000000	60.427476
1404.000000	60.713624
1403.000000	61.000760
1402.000000	61.302442
1401.000000	61.597992
1400.000000	61.864186
1399.000000	62.140355
1398.000000	62.414631
1397.000000	62.678710
1396.000000	62.923424
1395.000000	63.177104
1394.000000	63.430265
1393.000000	63.668991
1392.000000	63.898902
1391.000000	64.119619
1390.000000	64.322167
1389.000000	64.517005
1388.000000	64.730660
1387.000000	64.912145
1386.000000	65.084245
1385.000000	65.260707
1384.000000	65.438817
1383.000000	65.609555
1382.000000	65.726618
1381.000000	65.876119
1380.000000	66.010496
1379.000000	66.110962
1378.000000	66.234801
1377.000000	66.351551
1376.000000	66.450843
1375.000000	66.524275
1374.000000	66.613509
1373.000000	66.698627
1372.000000	66.767833
1371.000000	66.863902
1370.000000	66.950108
1369.000000	67.018466
1368.000000	67.083084
1367.000000	67.154061
1366.000000	67.225950
1365.000000	67.293923
1364.000000	67.360573
1363.000000	67.421275
1362.000000	67.506704
1361.000000	67.594585
1360.000000	67.677765
1359.000000	67.752659
1358.000000	67.837617
1357.000000	67.900174
1356.000000	67.970080
1355.000000	68.088185
1354.000000	68.185406
1353.000000	68.253413
1352.000000	68.300899
1351.000000	68.373833
1350.000000	68.478046
1349.000000	68.577104
1348.000000	68.644618
1347.000000	68.721979
1346.000000	68.819393
1345.000000	68.883397
1344.000000	68.937483
1343.000000	69.031471
1342.000000	69.109245
1341.000000	69.175913
1340.000000	69.239003
1339.000000	69.306317
1338.000000	69.386349
1337.000000	69.451245
1336.000000	69.496337
1335.000000	69.566213
1334.000000	69.624858
1333.000000	69.689021
1332.000000	69.784381
1331.000000	69.841249
1330.000000	69.904712
1329.000000	69.930071
1328.000000	69.965245
1327.000000	70.010866
1326.000000	70.037319
1325.000000	70.060937
1324.000000	70.127204
1323.000000	70.145297
1322.000000	70.161281
1321.000000	70.224258
1320.000000	70.260642
1319.000000	70.281847
1318.000000	70.304048
1317.000000	70.324543
1316.000000	70.356652
1315.000000	70.398050
1314.000000	70.423854
1313.000000	70.419921
1312.000000	70.451853
1311.000000	70.498616
1310.000000	70.510241
1309.000000	70.531623
1308.000000	70.545880
1307.000000	70.541943
1306.000000	70.546594
1305.000000	70.613869
1304.000000	70.631479
1303.000000	70.628783
1302.000000	70.651001
1301.000000	70.648969
1300.000000	70.639295
1299.000000	70.683981
1298.000000	70.685717
1297.000000	70.680317
1296.000000	70.686424
1295.000000	70.693446
1294.000000	70.689177
1293.000000	70.669427
1292.000000	70.705201
1291.000000	70.701015
1290.000000	70.690271
1289.000000	70.698148
1288.000000	70.658295
1287.000000	70.648373
1286.000000	70.641814
1285.000000	70.650758
1284.000000	70.644836
1283.000000	70.659761
1282.000000	70.655080
1281.000000	70.659554
1280.000000	70.643324
1279.000000	70.629680
1278.000000	70.641619
1277.000000	70.643821
1276.000000	70.636248
1275.000000	70.621694
1274.000000	70.632841
1273.000000	70.651831
1272.000000	70.650018
1271.000000	70.634855
1270.000000	70.634929
1269.000000	70.646728
1268.000000	70.664307
1267.000000	70.688107
1266.000000	70.664524
1265.000000	70.697476
1264.000000	70.702855
1263.000000	70.709998
1262.000000	70.724383
1261.000000	70.750182
1260.000000	70.772988
1259.000000	70.768963
1258.000000	70.770917
1257.000000	70.766143
1256.000000	70.781791
1255.000000	70.785209
1254.000000	70.812953
1253.000000	70.810620
1252.000000	70.813140
1251.000000	70.796257
1250.000000	70.794364
1249.000000	70.794175
1248.000000	70.785648
1247.000000	70.768200
1246.000000	70.762575
1245.000000	70.752437
1244.000000	70.704353
1243.000000	70.710675
1242.000000	70.722479
1241.000000	70.685925
1240.000000	70.665075
1239.000000	70.636929
1238.000000	70.596771
1237.000000	70.582548
1236.000000	70.565843
1235.000000	70.510171
1234.000000	70.485015
1233.000000	70.471507
1232.000000	70.458454
1231.000000	70.439351
1230.000000	70.383899
1229.000000	70.375662
1228.000000	70.362821
1227.000000	70.338030
1226.000000	70.314592
1225.000000	70.285573
1224.000000	70.268370
1223.000000	70.240656
1222.000000	70.201056
1221.000000	70.167337
1220.000000	70.148102
1219.000000	70.113093
1218.000000	70.067838
1217.000000	70.042738
1216.000000	70.005326
1215.000000	69.963269
1214.000000	69.958815
1213.000000	69.912928
1212.000000	69.873200
1211.000000	69.877129
1210.000000	69.826956
1209.000000	69.755068
1208.000000	69.711258
1207.000000	69.708835
1206.000000	69.646487
1205.000000	69.596745
1204.000000	69.591684
1203.000000	69.535850
1202.000000	69.478991
1201.000000	69.439134
1200.000000	69.418218
1199.000000	69.351682
1198.000000	69.317629
1197.000000	69.283181
1196.000000	69.234687
1195.000000	69.228049
1194.000000	69.214807
1193.000000	69.181891
1192.000000	69.159455
1191.000000	69.142283
1190.000000	69.113952
1189.000000	69.072677
1188.000000	69.062857
1187.000000	69.055400
1186.000000	69.058527
1185.000000	69.066297
1184.000000	69.073424
1183.000000	69.086485
1182.000000	69.112375
1181.000000	69.145561
1180.000000	69.166869
1179.000000	69.193147
1178.000000	69.238111
1177.000000	69.288745
1176.000000	69.344137
1175.000000	69.412387
1174.000000	69.468378
1173.000000	69.540885
1172.000000	69.615134
1171.000000	69.689428
1170.000000	69.779619
1169.000000	69.848693
1168.000000	69.921193
1167.000000	70.010689
1166.000000	70.093079
1165.000000	70.178156
1164.000000	70.276877
1163.000000	70.367660
1162.000000	70.458926
1161.000000	70.555088
1160.000000	70.647468
1159.000000	70.734026
1158.000000	70.834185
1157.000000	70.920984
1156.000000	70.988758
1155.000000	71.067650
1154.000000	71.144506
1153.000000	71.216566
1152.000000	71.290515
1151.000000	71.366228
1150.000000	71.450364
1149.000000	71.527496
1148.000000	71.576600
1147.000000	71.631162
1146.000000	71.695422
1145.000000	71.761476
1144.000000	71.822559
1143.000000	71.880322
1142.000000	71.934134
1141.000000	71.972083
1140.000000	72.026566
1139.000000	72.100028
1138.000000	72.142343
1137.000000	72.182455
1136.000000	72.237290
1135.000000	72.267335
1134.000000	72.300277
1133.000000	72.344479
1132.000000	72.397783
1131.000000	72.447852
1130.000000	72.484317
1129.000000	72.505635
1128.000000	72.525684
1127.000000	72.565370
1126.000000	72.603705
1125.000000	72.620569
1124.000000	72.663489
1123.000000	72.678627
1122.000000	72.693981
1121.000000	72.699271
1120.000000	72.714999
1119.000000	72.719187
1118.000000	72.730735
1117.000000	72.750817
1116.000000	72.775219
1115.000000	72.775209
1114.000000	72.798191
1113.000000	72.804608
1112.000000	72.805953
1111.000000	72.818163
1110.000000	72.814925
1109.000000	72.828804
1108.000000	72.828622
1107.000000	72.851512
1106.000000	72.847981
1105.000000	72.847171
1104.000000	72.849047
1103.000000	72.846119
1102.000000	72.850832
1101.000000	72.861971
1100.000000	72.850672
1099.000000	72.859030
1098.000000	72.862889
1097.000000	72.865356
1096.000000	72.880889
1095.000000	72.879172
1094.000000	72.865894
1093.000000	72.848245
1092.000000	72.861593
1091.000000	72.871755
1090.000000	72.842026
1089.000000	72.865997
1088.000000	72.885265
1087.000000	72.870759
1086.000000	72.857797
1085.000000	72.845430
1084.000000	72.840829
1083.000000	72.832860
1082.000000	72.859132
1081.000000	72.838332
1080.000000	72.847737
1079.000000	72.826646
1078.000000	72.824248
1077.000000	72.828484
1076.000000	72.824618
1075.000000	72.826150
1074.000000	72.809378
1073.000000	72.808912
1072.000000	72.784099
1071.000000	72.771884
1070.000000	72.780458
1069.000000	72.767537
1068.000000	72.751984
1067.000000	72.762060
1066.000000	72.744567
1065.000000	72.756104
1064.000000	72.731836
1063.000000	72.713969
1062.000000	72.728503
1061.000000	72.724974
1060.000000	72.715739
1059.000000	72.692775
1058.000000	72.681835
1057.000000	72.688709
1056.000000	72.667176
1055.000000	72.644398
1054.000000	72.648485
1053.000000	72.638470
1052.000000	72.637688
1051.000000	72.648672
1050.000000	72.618308
1049.000000	72.619796
1048.000000	72.624402
1047.000000	72.613782
1046.000000	72.613508
1045.000000	72.582099
1044.000000	72.575688
1043.000000	72.596719
1042.000000	72.589682
1041.000000	72.579437
1040.000000	72.573538
1039.000000	72.558783
1038.000000	72.537154
1037.000000	72.524945
1036.000000	72.543381
1035.000000	72.535804
1034.000000	72.536952
1033.000000	72.506414
1032.000000	72.516086
1031.000000	72.509816
1030.000000	72.503163
1029.000000	72.512822
1028.000000	72.503298
1027.000000	72.481218
1026.000000	72.483265
1025.000000	72.470326
1024.000000	72.470285
1023.000000	72.465751
1022.000000	72.456822
1021.000000	72.461635
1020.000000	72.474367
1019.000000	72.470099
1018.000000	72.455860
1017.000000	72.483090
1016.000000	72.468073
1015.000000	72.468354
1014.000000	72.476915
1013.000000	72.480168
1012.000000	72.487648
1011.000000	72.490083
1010.000000	72.465978
1009.000000	72.475316
1008.000000	72.474230
1007.000000	72.485895
1006.000000	72.486719
1005.000000	72.485187
1004.000000	72.498788
1003.000000	72.484748
1002.000000	72.487488
1001.000000	72.519952
1000.000000	72.519926
999.000000	72.514422
998.000000	72.521314
997.000000	72.537256
996.000000	72.521852
995.000000	72.500426
994.000000	72.517410
993.000000	72.527917
992.000000	72.521672
991.000000	72.543213
990.000000	72.554055
989.000000	72.552806
988.000000	72.549707
987.000000	72.562412
986.000000	72.587976
985.000000	72.576975
984.000000	72.578428
983.000000	72.600453
982.000000	72.611305
981.000000	72.618480
980.000000	72.610362
979.000000	72.622855
978.000000	72.631354
977.000000	72.649901
976.000000	72.662823
975.000000	72.686873
974.000000	72.694305
973.000000	72.697331
972.000000	72.709418
971.000000	72.727578
970.000000	72.724721
969.000000	72.745468
968.000000	72.761620
967.000000	72.770960
966.000000	72.765922
965.000000	72.776513
964.000000	72.815336
963.000000	72.817702
962.000000	72.816293
961.000000	72.827600
960.000000	72.851823
959.000000	72.856619
958.000000	72.865086
957.000000	72.885725
956.000000	72.890805
955.000000	72.889511
954.000000	72.900354
953.000000	72.934671
952.000000	72.945157
951.000000	72.940573
950.000000	72.936314
949.000000	72.945390
948.000000	72.970127
947.000000	72.965433
946.000000	72.987102
945.000000	73.032355
944.000000	73.017766
943.000000	73.004517
942.000000	72.999245
941.000000	72.994639
940.000000	73.003478
939.000000	73.027938
938.000000	73.042376
937.000000	73.033480
936.000000	73.025051
935.000000	73.032946
934.000000	73.048815
933.000000	73.071280
932.000000	73.063563
931.000000	73.044388
930.000000	73.050164
929.000000	73.076391
928.000000	73.070216
927.000000	73.045456
926.000000	73.050413
925.000000	73.061854
924.000000	73.060072
923.000000	73.065965
922.000000	73.060291
921.000000	73.034102
920.000000	73.039585
919.000000	73.014242
918.000000	73.033914
917.000000	73.072342
916.000000	73.012910
915.000000	72.963108
914.000000	72.992346
913.000000	73.017519
912.000000	72.971058
911.000000	73.004436
910.000000	73.033218
909.000000	73.011199
908.000000	73.006508
907.000000	72.999427
906.000000	73.048941
905.000000	73.073399
904.000000	73.073726
903.000000	73.064895
902.000000	73.075008
901.000000	73.077637
900.000000	73.079715
899.000000	73.093560
898.000000	73.087959
897.000000	73.101437
896.000000	73.115764
895.000000	73.118616
894.000000	73.181217
893.000000	73.168136
892.000000	73.174812
891.000000	73.120652
890.000000	73.166185
889.000000	73.186356
888.000000	73.164642
887.000000	73.135851
886.000000	73.187600
885.000000	73.278460
884.000000	73.227466
883.000000	73.221059
882.000000	73.242140
881.000000	73.250916
880.000000	73.235073
879.000000	73.196100
878.000000	73.269211
877.000000	73.168858
876.000000	73.267099
875.000000	73.257117
874.000000	73.229043
873.000000	73.197188
872.000000	73.248886
871.000000	73.272788
870.000000	73.254529
869.000000	73.218884
868.000000	73.306637
867.000000	73.199156
866.000000	73.211595
865.000000	73.210674
864.000000	73.167521
863.000000	73.234815
862.000000	73.270007
861.000000	73.096374
860.000000	73.335286
859.000000	72.572297
858.000000	72.589337
857.000000	72.851328
856.000000	72.997066
855.000000	72.904353
854.000000	72.638109
853.000000	73.233831
852.000000	73.151723
851.000000	73.344970
850.000000	73.348761
849.000000	73.109391
848.000000	72.805165
847.000000	73.288426
846.000000	72.664017
845.000000	72.904879
844.000000	73.071846
843.000000	72.909157
842.000000	73.231253
841.000000	73.049772
840.000000	73.132137
839.000000	73.282841
838.000000	73.342401
837.000000	73.076829
836.000000	72.842690
835.000000	72.934084
834.000000	73.129096
833.000000	72.683029
832.000000	72.992905
831.000000	73.013764
830.000000	72.854529
829.000000	73.042337
828.000000	73.036834
827.000000	72.825614
826.000000	72.866637
825.000000	73.008458
824.000000	72.793255
823.000000	72.563286
822.000000	72.902769
821.000000	73.072253
820.000000	72.977100
819.000000	73.137517
818.000000	72.824899
817.000000	73.314107
816.000000	73.060840
815.000000	72.963814
814.000000	73.071301
813.000000	72.809964
812.000000	72.864518
811.000000	72.994156
810.000000	73.008100
809.000000	72.900068
808.000000	73.036391
807.000000	72.880049
806.000000	72.890080
805.000000	73.018559
804.000000	73.108107
803.000000	72.961469
802.000000	72.915438
801.000000	72.895190
800.000000	73.011160
799.000000	73.020580
798.000000	73.058791
797.000000	73.076046
796.000000	72.924256
795.000000	72.897832
794.000000	73.025929
793.000000	73.013037
792.000000	73.237488
791.000000	72.854881
790.000000	72.974343
789.000000	73.066601
788.000000	73.038914
787.000000	72.850955
786.000000	72.907548
785.000000	73.027201
784.000000	73.043964
783.000000	73.119005
782.000000	73.085113
781.000000	73.156727
780.000000	73.061601
779.000000	73.021711
778.000000	72.978522
777.000000	72.975488
776.000000	73.046040
775.000000	73.088800
774.000000	73.019198
773.000000	72.992240
772.000000	73.105538
771.000000	73.086969
770.000000	73.006260
769.000000	73.019417
768.000000	72.878124
767.000000	73.023254
766.000000	73.002125
765.000000	72.932955
764.000000	73.087403
763.000000	73.052429
762.000000	73.023841
761.000000	72.930523
760.000000	73.051554
759.000000	72.989014
758.000000	73.011566
757.000000	73.017147
756.000000	73.100752
755.000000	73.024827
754.000000	72.905071
753.000000	73.038719
752.000000	73.025129
751.000000	72.999476
750.000000	72.894133
749.000000	72.940234
748.000000	72.909549
747.000000	72.931543
746.000000	72.934032
745.000000	73.019813
744.000000	73.151159
743.000000	73.110530
742.000000	73.055817
741.000000	73.040109
740.000000	73.001494
739.000000	73.001070
738.000000	72.999856
737.000000	72.999060
736.000000	73.053654
735.000000	73.052622
734.000000	72.968218
733.000000	72.953028
732.000000	73.017344
731.000000	73.000873
730.000000	73.015582
729.000000	73.056572
728.000000	73.042454
727.000000	73.063253
726.000000	73.025886
725.000000	73.019275
724.000000	73.069857
723.000000	73.004403
722.000000	72.938149
721.000000	73.005106
720.000000	73.024735
719.000000	73.039701
718.000000	73.078554
717.000000	73.090387
716.000000	73.060869
715.000000	73.089465
714.000000	73.079385
713.000000	73.063224
712.000000	73.103135
711.000000	73.064940
710.000000	73.045938
709.000000	72.996464
708.000000	73.012685
707.000000	73.051265
706.000000	72.962183
705.000000	72.985985
704.000000	73.060258
703.000000	73.016426
702.000000	72.979365
701.000000	73.036153
700.000000	73.093855
699.000000	73.052973
698.000000	73.014710
697.000000	72.975251
696.000000	73.024428
695.000000	73.060971
694.000000	73.031725
693.000000	73.017421
692.000000	73.055366
691.000000	73.122476
690.000000	73.152725
689.000000	73.072317
688.000000	72.980591
687.000000	72.995036
686.000000	73.050559
685.000000	73.062897
684.000000	73.100260
683.000000	73.093341
682.000000	73.077770
681.000000	73.032435
680.000000	73.061811
679.000000	73.116040
678.000000	73.097686
677.000000	73.138286
676.000000	73.089719
675.000000	73.052409
674.000000	73.080274
673.000000	73.091362
672.000000	73.121140
671.000000	73.101872
670.000000	73.033963
669.000000	73.076010
668.000000	73.049539
667.000000	73.109125
666.000000	73.095058
665.000000	73.069642
664.000000	73.076518
663.000000	73.049357
662.000000	73.005273
661.000000	73.090366
660.000000	73.145597
659.000000	73.090928
658.000000	73.053001
657.000000	73.085598
656.000000	73.054042
655.000000	73.039207
654.000000	73.064624
653.000000	73.088287
652.000000	73.036062
651.000000	72.987405
650.000000	73.004682
649.000000	73.113124
648.000000	72.959847
647.000000	73.027220
646.000000	73.045582
645.000000	73.013813
644.000000	73.025780
643.000000	73.007933
642.000000	73.036110
641.000000	73.017681
640.000000	72.976740
639.000000	72.982593
638.000000	72.940505
637.000000	72.987870
636.000000	73.037869
635.000000	72.999249
634.000000	72.988129
633.000000	73.019437
632.000000	72.985405
631.000000	72.988016
630.000000	73.019404
629.000000	72.998623
628.000000	72.970593
627.000000	72.952909
626.000000	72.960841
625.000000	72.994915
624.000000	72.964552
623.000000	72.995924
622.000000	72.955639
621.000000	72.902922
620.000000	72.950154
619.000000	72.921076
618.000000	72.845735
617.000000	72.901170
616.000000	72.850627
615.000000	72.869095
614.000000	72.840245
613.000000	72.917004
612.000000	72.864271
611.000000	72.856032
610.000000	72.839340
609.000000	72.848166
608.000000	72.847217
607.000000	72.754774
606.000000	72.780725
605.000000	72.762966
604.000000	72.710068
603.000000	72.782912
602.000000	72.780841
601.000000	72.693595
600.000000	72.713836
599.000000	72.785451
598.000000	72.784688
597.000000	72.765195
596.000000	72.644783
595.000000	72.710683
594.000000	72.699723
593.000000	72.666646
592.000000	72.652111
591.000000	72.673716
590.000000	72.643169
589.000000	72.621122
588.000000	72.673539
587.000000	72.569320
586.000000	72.508280
585.000000	72.579102
584.000000	72.580415
583.000000	72.528961
582.000000	72.572370
581.000000	72.460603
580.000000	72.465049
579.000000	72.471287
578.000000	72.439718
577.000000	72.459974
576.000000	72.449763
575.000000	72.362772
574.000000	72.360462
573.000000	72.440511
572.000000	72.377536
571.000000	72.283757
570.000000	72.338372
569.000000	72.304086
568.000000	72.244079
567.000000	72.279218
566.000000	72.256107
565.000000	72.173377
564.000000	72.221538
563.000000	72.198965
562.000000	72.119803
561.000000	72.024390
560.000000	72.045712
559.000000	71.997465
558.000000	71.947702
557.000000	71.990919
556.000000	71.976724
555.000000	71.934022
554.000000	71.884514
553.000000	71.895712
552.000000	71.825227
551.000000	71.818811
550.000000	71.822923
549.000000	71.795663
548.000000	71.789547
547.000000	71.702948
546.000000	71.630142
545.000000	71.632609
544.000000	71.617131
543.000000	71.612293
542.000000	71.593535
541.000000	71.578063
540.000000	71.498730
539.000000	71.485415
538.000000	71.465686
537.000000	71.422549
536.000000	71.344995
535.000000	71.409898
534.000000	71.305080
533.000000	71.297342
532.000000	71.219321
531.000000	71.174197
530.000000	71.135804
529.000000	71.157142
528.000000	71.095566
527.000000	71.050309
526.000000	71.015178
525.000000	70.951970
524.000000	70.911791
523.000000	70.898834
522.000000	70.889425
521.000000	70.854185
520.000000	70.765186
519.000000	70.715750
518.000000	70.640044
517.000000	70.639058
516.000000	70.608638
515.000000	70.536417
514.000000	70.453277
513.000000	70.421711
512.000000	70.373417
511.000000	70.360693
510.000000	70.298788
509.000000	70.290063
508.000000	70.195969
507.000000	70.115609
506.000000	70.058796
505.000000	70.050215
504.000000	69.977832
503.000000	69.920043
502.000000	69.901768
501.000000	69.873630
500.000000	69.789416
499.000000	69.747431
498.000000	69.678708
497.000000	69.606794
496.000000	69.546129
495.000000	69.485636
494.000000	69.395686
493.000000	69.399654
492.000000	69.300765
491.000000	69.297613
490.000000	69.226525
489.000000	69.128150
488.000000	69.062950
487.000000	68.985714
486.000000	68.899638
485.000000	68.913945
484.000000	68.932350
483.000000	68.819385
482.000000	68.722325
481.000000	68.614481
480.000000	68.524162
479.000000	68.425740
478.000000	68.419360
477.000000	68.322242
476.000000	68.201517
475.000000	68.105680
474.000000	68.009647
473.000000	67.985847
472.000000	67.930600
471.000000	67.819281
470.000000	67.723006
469.000000	67.646826
468.000000	67.555611
467.000000	67.477816
466.000000	67.381590
465.000000	67.282748
464.000000	67.158284
463.000000	67.075983
462.000000	66.992064
461.000000	66.898448
460.000000	66.779960
459.000000	66.664309
458.000000	66.583197
457.000000	66.458774
456.000000	66.281542
455.000000	66.166476
454.000000	66.125445
453.000000	65.989607
452.000000	65.848872
451.000000	65.755157
450.000000	65.659093
449.000000	65.522054
448.000000	65.342406
447.000000	65.202051
446.000000	65.055450
445.000000	64.990985
444.000000	64.883849
443.000000	64.672496
442.000000	64.519896
441.000000	64.370660
440.000000	64.220318
439.000000	64.101661
438.000000	63.920035
437.000000	63.720894
436.000000	63.571148
435.000000	63.382528
434.000000	63.216015
433.000000	63.078512
432.000000	62.952859
431.000000	62.750522
430.000000	62.532550
429.000000	62.348394
428.000000	62.146142
427.000000	61.951008
426.000000	61.804997
425.000000	61.608450
424.000000	61.324353
423.000000	61.115322
422.000000	60.941825
421.000000	60.754895
420.000000	60.565807
419.000000	60.275945
418.000000	60.062634
417.000000	59.900991
416.000000	59.671202
415.000000	59.420772
414.000000	59.183134
413.000000	58.982666
412.000000	58.704800
411.000000	58.474979
410.000000	58.181907
409.000000	57.948541
408.000000	57.674132
407.000000	57.446017
406.000000	57.182636
405.000000	56.939983
404.000000	56.716599
403.000000	56.420822
402.000000	56.128546
401.000000	55.817278
400.000000	55.628041
399.000000	55.342697
398.000000	55.066158
397.000000	54.794747
396.000000	54.502061
395.000000	54.201917
394.000000	53.893170
393.000000	53.595326
392.000000	53.368372
391.000000	53.065258
390.000000	52.768705
389.000000	52.490930
388.000000	52.142298
387.000000	51.896980
386.000000	51.495367
385.000000	51.163071
384.000000	50.933756
383.000000	50.624726
382.000000	50.153204
381.000000	49.925806
380.000000	49.591132
379.000000	49.233463
378.000000	48.636653
377.000000	48.787942
376.000000	48.368226
375.000000	48.019528
374.000000	47.548360
373.000000	47.099823
372.000000	46.759537
371.000000	46.535398
370.000000	46.250317
369.000000	45.708389
368.000000	45.306429
367.000000	44.912887
366.000000	44.729986
365.000000	44.246965
364.000000	43.883516
363.000000	43.546115
362.000000	43.210436
361.000000	42.900718
360.000000	42.343816
359.000000	41.923331
358.000000	41.630314
357.000000	41.369802
356.000000	41.045128
355.000000	40.889925
354.000000	40.506117
353.000000	39.995993
352.000000	39.726457
351.000000	39.448757
350.000000	39.114450
349.000000	38.828590
348.000000	38.326820
347.000000	38.138767
346.000000	37.694309
345.000000	37.345640
344.000000	36.884641
343.000000	36.437298
342.000000	36.118243
341.000000	35.566591
340.000000	35.251063
339.000000	34.711313
338.000000	34.267806
337.000000	33.801678
336.000000	33.293626
335.000000	32.652855
334.000000	32.288715
333.000000	31.680088
332.000000	31.091943
331.000000	30.380369
330.000000	29.957411
329.000000	29.440404
328.000000	28.668734
327.000000	28.175243
326.000000	27.634406
325.000000	27.274395
324.000000	26.782127
323.000000	26.323270
322.000000	25.894669
321.000000	25.664935
320.000000	25.326096
319.000000	24.986531
318.000000	24.434533
317.000000	24.266700
316.000000	24.107828
315.000000	23.810401
314.000000	23.568425
313.000000	23.316951
312.000000	22.898496
311.000000	22.820946
310.000000	22.544732
309.000000	22.199256
308.000000	22.108110
307.000000	21.841963
306.000000	21.748927
305.000000	21.518810
304.000000	21.328292
303.000000	21.061624
302.000000	20.810232
301.000000	20.649089
300.000000	20.469445
299.000000	20.203619
298.000000	19.866761
297.000000	19.599439
296.000000	19.249785
295.000000	18.850157
294.000000	18.408115
293.000000	17.832037
292.000000	17.338163
291.000000	16.709105
290.000000	16.088651
289.000000	15.516243
288.000000	15.163338
287.000000	14.930579
286.000000	14.683525
285.000000	14.590093
284.000000	14.577929
283.000000	14.616339
282.000000	14.545414
281.000000	14.618706
280.000000	14.718027
279.000000	14.845338
278.000000	14.897538
277.000000	14.986891
276.000000	15.127412
275.000000	15.341534
274.000000	15.494718
273.000000	15.563100
272.000000	15.701717
271.000000	15.823221
270.000000	16.009628
269.000000	16.066479
268.000000	16.207524
267.000000	16.403212
266.000000	16.641164
265.000000	16.797645
264.000000	17.000407
263.000000	17.280129
262.000000	17.549940
261.000000	17.717936
260.000000	17.831994
259.000000	18.086212
258.000000	18.369411
257.000000	18.673684
256.000000	18.935535
255.000000	19.143148
254.000000	19.243742
253.000000	19.397498
252.000000	19.365629
251.000000	19.401750
250.000000	19.487587
249.000000	19.355007
248.000000	19.062901
247.000000	18.696834
246.000000	18.296691
245.000000	17.879158
244.000000	17.486360
243.000000	17.084197
242.000000	16.669383
241.000000	16.398720
240.000000	16.234339
239.000000	16.093877
238.000000	16.052539
237.000000	15.994354
236.000000	16.001646
235.000000	16.151735
234.000000	16.224812
233.000000	16.241708
232.000000	16.299891
231.000000	16.382718
230.000000	16.420475
229.000000	16.483198
228.000000	16.548393
227.000000	16.624374
226.000000	16.790954
225.000000	16.980230
224.000000	17.084879
223.000000	17.256735
222.000000	17.553541
221.000000	17.809848
220.000000	18.075773
219.000000	18.444147
218.000000	18.717344
217.000000	19.120477
216.000000	19.458788
215.000000	19.796992
214.000000	20.302679
213.000000	20.664703
212.000000	21.183072
211.000000	21.710691
210.000000	22.189900
209.000000	22.731378
208.000000	23.195819
207.000000	23.844759
206.000000	24.583115
205.000000	25.202701
204.000000	26.058019
203.000000	26.811491
202.000000	27.442472
201.000000	28.186075
200.000000	28.689134
