PE UV       SUBTECH     SPECTRUM    ASCII       PEDS        4.00        
   -1
RDgAgneauUK 52.Sample.asc
18/03/12
15:04:25.00
18/03/12
15:04:25.00
Administrator

200.000000
1
Lambda 750
750N8071901
PerkinElmer UV WinLab 6.0.4.0738 / 1.61.00 Lambda 900

0
0
3350/servo 860.8/2
0
0
UV/VIS
1
1
1
CommonBeamDepol,150mm sphere / downward view
0
0
0
0
Program
Program
3350/servo 860.8/2
3350/0.2 860.8/0.2
3350/0.2 860.8/0.2
0
1
 
 
 
0
 
860.8
319.2
860.8
Front
100
on
 
 
0
0
0
 
0
 
 
 
0
 
 
0
0
0
0
0
 
 
 
 
0
0


0
0
#HDR
-1
-1
#GR
nm
%R
1.0
0.0
2350.000000
-1.000000
2151
8
73.451646
15.137533
#DATA
2350.000000	26.032340
2349.000000	25.973673
2348.000000	26.090870
2347.000000	26.649799
2346.000000	26.342888
2345.000000	25.736348
2344.000000	26.165640
2343.000000	26.052530
2342.000000	25.966375
2341.000000	26.031384
2340.000000	26.134220
2339.000000	26.611427
2338.000000	26.694544
2337.000000	26.750474
2336.000000	26.659576
2335.000000	26.901704
2334.000000	26.955528
2333.000000	26.971981
2332.000000	27.138101
2331.000000	26.919152
2330.000000	26.797976
2329.000000	26.553740
2328.000000	26.810811
2327.000000	26.931695
2326.000000	26.589785
2325.000000	26.780266
2324.000000	26.899498
2323.000000	26.479303
2322.000000	26.262343
2321.000000	26.305928
2320.000000	26.578828
2319.000000	26.407407
2318.000000	26.308862
2317.000000	26.412069
2316.000000	26.343817
2315.000000	26.098344
2314.000000	26.422369
2313.000000	25.982792
2312.000000	25.934005
2311.000000	25.969230
2310.000000	25.739034
2309.000000	25.824760
2308.000000	25.720239
2307.000000	25.710586
2306.000000	25.895170
2305.000000	25.874277
2304.000000	25.711998
2303.000000	25.492843
2302.000000	25.365976
2301.000000	25.230854
2300.000000	25.035608
2299.000000	25.244814
2298.000000	25.110197
2297.000000	24.738265
2296.000000	24.809181
2295.000000	24.534353
2294.000000	24.629473
2293.000000	24.121437
2292.000000	24.059123
2291.000000	24.157725
2290.000000	24.270667
2289.000000	24.199334
2288.000000	24.237105
2287.000000	24.149621
2286.000000	23.910732
2285.000000	23.689709
2284.000000	23.849314
2283.000000	23.879012
2282.000000	23.869602
2281.000000	24.039287
2280.000000	24.034561
2279.000000	23.888780
2278.000000	23.836954
2277.000000	23.839521
2276.000000	23.939739
2275.000000	24.031424
2274.000000	24.049940
2273.000000	24.253408
2272.000000	24.324278
2271.000000	24.280658
2270.000000	24.110054
2269.000000	24.145194
2268.000000	24.310887
2267.000000	24.351269
2266.000000	24.498518
2265.000000	24.694319
2264.000000	24.859401
2263.000000	24.993410
2262.000000	25.249403
2261.000000	25.361809
2260.000000	25.460914
2259.000000	25.678708
2258.000000	25.862419
2257.000000	26.039976
2256.000000	26.129176
2255.000000	26.245660
2254.000000	26.515179
2253.000000	26.742340
2252.000000	27.054004
2251.000000	27.336841
2250.000000	27.515657
2249.000000	27.787500
2248.000000	28.065436
2247.000000	28.253100
2246.000000	28.462408
2245.000000	28.649949
2244.000000	28.907906
2243.000000	29.314243
2242.000000	29.544423
2241.000000	29.621609
2240.000000	29.710478
2239.000000	29.773643
2238.000000	29.850150
2237.000000	30.000516
2236.000000	30.096059
2235.000000	30.166270
2234.000000	30.453471
2233.000000	30.618081
2232.000000	30.691811
2231.000000	30.863818
2230.000000	30.891831
2229.000000	30.918779
2228.000000	31.062055
2227.000000	31.085612
2226.000000	30.941453
2225.000000	30.732045
2224.000000	30.668983
2223.000000	30.607222
2222.000000	30.719442
2221.000000	30.735870
2220.000000	30.805060
2219.000000	30.835341
2218.000000	30.730300
2217.000000	30.656777
2216.000000	30.598001
2215.000000	30.498063
2214.000000	30.391558
2213.000000	30.315975
2212.000000	30.379312
2211.000000	30.275169
2210.000000	30.152428
2209.000000	30.158895
2208.000000	29.963535
2207.000000	29.924709
2206.000000	29.875949
2205.000000	29.795164
2204.000000	29.561868
2203.000000	29.470590
2202.000000	29.346986
2201.000000	29.294348
2200.000000	29.430836
2199.000000	29.291182
2198.000000	29.081959
2197.000000	28.883791
2196.000000	28.797147
2195.000000	28.658194
2194.000000	28.475280
2193.000000	28.424904
2192.000000	28.454168
2191.000000	28.403174
2190.000000	28.280498
2189.000000	28.195885
2188.000000	28.136262
2187.000000	28.022637
2186.000000	27.998066
2185.000000	27.865489
2184.000000	27.715121
2183.000000	27.749025
2182.000000	27.712547
2181.000000	27.691981
2180.000000	27.799121
2179.000000	27.664469
2178.000000	27.509707
2177.000000	27.691244
2176.000000	27.620781
2175.000000	27.480820
2174.000000	27.760798
2173.000000	27.784623
2172.000000	27.845978
2171.000000	27.988174
2170.000000	27.831122
2169.000000	27.898389
2168.000000	28.064868
2167.000000	28.141406
2166.000000	28.260028
2165.000000	28.323368
2164.000000	28.325972
2163.000000	28.550589
2162.000000	28.702103
2161.000000	28.684873
2160.000000	29.071057
2159.000000	29.188108
2158.000000	29.214599
2157.000000	29.347909
2156.000000	29.554447
2155.000000	29.703026
2154.000000	29.927428
2153.000000	30.175176
2152.000000	30.244847
2151.000000	30.366454
2150.000000	30.488316
2149.000000	30.560924
2148.000000	30.806510
2147.000000	31.210101
2146.000000	31.164975
2145.000000	31.440581
2144.000000	31.656770
2143.000000	31.679104
2142.000000	31.892574
2141.000000	31.968206
2140.000000	32.153220
2139.000000	32.311816
2138.000000	32.481786
2137.000000	32.602531
2136.000000	32.593570
2135.000000	32.857731
2134.000000	33.098967
2133.000000	32.933559
2132.000000	33.128987
2131.000000	33.330084
2130.000000	33.343256
2129.000000	33.446949
2128.000000	33.306215
2127.000000	33.376646
2126.000000	33.507500
2125.000000	33.518631
2124.000000	33.710269
2123.000000	33.727392
2122.000000	33.879681
2121.000000	33.747679
2120.000000	33.691094
2119.000000	33.902678
2118.000000	34.059931
2117.000000	34.013720
2116.000000	33.962370
2115.000000	34.189347
2114.000000	34.136541
2113.000000	33.999247
2112.000000	34.045025
2111.000000	34.173494
2110.000000	34.089847
2109.000000	34.155122
2108.000000	34.048763
2107.000000	34.297509
2106.000000	34.268773
2105.000000	34.273576
2104.000000	34.294478
2103.000000	34.328052
2102.000000	34.389112
2101.000000	34.383175
2100.000000	34.382540
2099.000000	34.241893
2098.000000	34.293520
2097.000000	34.348661
2096.000000	34.276706
2095.000000	34.307737
2094.000000	34.365672
2093.000000	34.228072
2092.000000	34.319810
2091.000000	34.188395
2090.000000	34.155703
2089.000000	34.100711
2088.000000	34.018204
2087.000000	34.027623
2086.000000	34.046883
2085.000000	33.992484
2084.000000	33.859096
2083.000000	33.889065
2082.000000	33.719885
2081.000000	33.563389
2080.000000	33.579332
2079.000000	33.433886
2078.000000	33.347215
2077.000000	33.169783
2076.000000	32.995765
2075.000000	32.958212
2074.000000	32.892138
2073.000000	32.658077
2072.000000	32.546024
2071.000000	32.455185
2070.000000	32.288710
2069.000000	31.997962
2068.000000	31.800996
2067.000000	31.715250
2066.000000	31.511279
2065.000000	31.319386
2064.000000	31.078846
2063.000000	30.953342
2062.000000	30.799303
2061.000000	30.574891
2060.000000	30.341719
2059.000000	30.103900
2058.000000	29.969393
2057.000000	29.830110
2056.000000	29.698724
2055.000000	29.598039
2054.000000	29.343464
2053.000000	29.136334
2052.000000	28.963155
2051.000000	28.829378
2050.000000	28.703668
2049.000000	28.613613
2048.000000	28.486624
2047.000000	28.330630
2046.000000	28.241733
2045.000000	28.213439
2044.000000	28.184583
2043.000000	28.121576
2042.000000	28.141568
2041.000000	28.183652
2040.000000	28.147823
2039.000000	28.130799
2038.000000	28.177629
2037.000000	28.257786
2036.000000	28.366890
2035.000000	28.438739
2034.000000	28.543688
2033.000000	28.681365
2032.000000	28.816747
2031.000000	28.920759
2030.000000	29.057500
2029.000000	29.201171
2028.000000	29.261181
2027.000000	29.395134
2026.000000	29.594437
2025.000000	29.718596
2024.000000	29.795819
2023.000000	29.830319
2022.000000	29.855864
2021.000000	29.894852
2020.000000	29.931667
2019.000000	29.994742
2018.000000	30.042647
2017.000000	30.040124
2016.000000	30.027748
2015.000000	30.017701
2014.000000	29.975125
2013.000000	29.952029
2012.000000	29.893973
2011.000000	29.812711
2010.000000	29.800026
2009.000000	29.716125
2008.000000	29.605833
2007.000000	29.478762
2006.000000	29.358395
2005.000000	29.308175
2004.000000	29.172569
2003.000000	29.026524
2002.000000	28.922801
2001.000000	28.845233
2000.000000	28.762406
1999.000000	28.600652
1998.000000	28.429691
1997.000000	28.305659
1996.000000	28.187400
1995.000000	28.055791
1994.000000	27.902764
1993.000000	27.755866
1992.000000	27.656377
1991.000000	27.514377
1990.000000	27.366751
1989.000000	27.251538
1988.000000	27.112622
1987.000000	26.997635
1986.000000	26.830903
1985.000000	26.671029
1984.000000	26.551525
1983.000000	26.404945
1982.000000	26.293490
1981.000000	26.186846
1980.000000	26.037050
1979.000000	25.855730
1978.000000	25.702040
1977.000000	25.596110
1976.000000	25.454568
1975.000000	25.344817
1974.000000	25.203264
1973.000000	25.036091
1972.000000	24.925321
1971.000000	24.801963
1970.000000	24.729052
1969.000000	24.625154
1968.000000	24.444604
1967.000000	24.300880
1966.000000	24.200117
1965.000000	24.106388
1964.000000	23.940907
1963.000000	23.825534
1962.000000	23.685287
1961.000000	23.566769
1960.000000	23.501405
1959.000000	23.403814
1958.000000	23.281273
1957.000000	23.183107
1956.000000	23.106709
1955.000000	22.958694
1954.000000	22.972182
1953.000000	22.871140
1952.000000	22.837443
1951.000000	22.738611
1950.000000	22.664874
1949.000000	22.569336
1948.000000	22.609873
1947.000000	22.543196
1946.000000	22.498314
1945.000000	22.508598
1944.000000	22.507249
1943.000000	22.475087
1942.000000	22.472175
1941.000000	22.520281
1940.000000	22.613423
1939.000000	22.683728
1938.000000	22.757703
1937.000000	22.786568
1936.000000	22.978127
1935.000000	23.045613
1934.000000	23.093558
1933.000000	23.286019
1932.000000	23.393262
1931.000000	23.607839
1930.000000	23.813956
1929.000000	23.928332
1928.000000	24.156976
1927.000000	24.442920
1926.000000	24.620903
1925.000000	24.865622
1924.000000	25.167776
1923.000000	25.432811
1922.000000	25.808545
1921.000000	26.258820
1920.000000	26.459785
1919.000000	26.805191
1918.000000	27.185230
1917.000000	27.503033
1916.000000	27.910022
1915.000000	28.450848
1914.000000	28.939897
1913.000000	29.436534
1912.000000	29.871126
1911.000000	30.301751
1910.000000	30.805639
1909.000000	31.270047
1908.000000	31.854922
1907.000000	32.552774
1906.000000	33.148154
1905.000000	33.737204
1904.000000	34.281308
1903.000000	34.988329
1902.000000	35.769410
1901.000000	36.359568
1900.000000	37.068858
1899.000000	37.790992
1898.000000	38.470294
1897.000000	39.131969
1896.000000	39.836417
1895.000000	40.560199
1894.000000	41.219020
1893.000000	41.922500
1892.000000	42.624951
1891.000000	43.291568
1890.000000	43.942874
1889.000000	44.625341
1888.000000	45.188280
1887.000000	45.820298
1886.000000	46.403433
1885.000000	46.999088
1884.000000	47.594726
1883.000000	48.156806
1882.000000	48.595342
1881.000000	49.163608
1880.000000	49.672824
1879.000000	50.170737
1878.000000	50.658621
1877.000000	51.063609
1876.000000	51.474090
1875.000000	51.947378
1874.000000	52.346003
1873.000000	52.634383
1872.000000	52.965431
1871.000000	53.332741
1870.000000	53.576131
1869.000000	53.879921
1868.000000	54.196248
1867.000000	54.347346
1866.000000	54.548997
1865.000000	54.710805
1864.000000	54.886650
1863.000000	55.007768
1862.000000	55.133953
1861.000000	55.240924
1860.000000	55.382859
1859.000000	55.452194
1858.000000	55.542786
1857.000000	55.681854
1856.000000	55.733785
1855.000000	55.787736
1854.000000	55.875895
1853.000000	55.950491
1852.000000	55.923584
1851.000000	55.970352
1850.000000	56.008649
1849.000000	55.992364
1848.000000	55.984356
1847.000000	56.004955
1846.000000	56.040687
1845.000000	56.031367
1844.000000	56.012263
1843.000000	55.983239
1842.000000	55.961120
1841.000000	55.910190
1840.000000	55.839428
1839.000000	55.822735
1838.000000	55.774224
1837.000000	55.735677
1836.000000	55.735348
1835.000000	55.643879
1834.000000	55.557644
1833.000000	55.504363
1832.000000	55.444430
1831.000000	55.364299
1830.000000	55.298008
1829.000000	55.291037
1828.000000	55.256837
1827.000000	55.177580
1826.000000	55.109929
1825.000000	55.062370
1824.000000	55.046206
1823.000000	54.993699
1822.000000	54.918423
1821.000000	54.879462
1820.000000	54.869736
1819.000000	54.802588
1818.000000	54.751616
1817.000000	54.715586
1816.000000	54.664011
1815.000000	54.639497
1814.000000	54.578942
1813.000000	54.500448
1812.000000	54.471946
1811.000000	54.414547
1810.000000	54.358488
1809.000000	54.309025
1808.000000	54.225038
1807.000000	54.138211
1806.000000	54.079493
1805.000000	54.041460
1804.000000	54.025933
1803.000000	53.974333
1802.000000	53.901462
1801.000000	53.857743
1800.000000	53.823076
1799.000000	53.766907
1798.000000	53.723418
1797.000000	53.689146
1796.000000	53.649253
1795.000000	53.610066
1794.000000	53.574085
1793.000000	53.543181
1792.000000	53.512875
1791.000000	53.487415
1790.000000	53.452910
1789.000000	53.383976
1788.000000	53.346666
1787.000000	53.315998
1786.000000	53.291152
1785.000000	53.257053
1784.000000	53.205231
1783.000000	53.162074
1782.000000	53.100909
1781.000000	53.034982
1780.000000	53.004096
1779.000000	52.977661
1778.000000	52.922716
1777.000000	52.843985
1776.000000	52.762271
1775.000000	52.678224
1774.000000	52.592985
1773.000000	52.581970
1772.000000	52.532853
1771.000000	52.443733
1770.000000	52.373210
1769.000000	52.313373
1768.000000	52.235355
1767.000000	52.135702
1766.000000	52.061793
1765.000000	52.002558
1764.000000	51.980267
1763.000000	51.886486
1762.000000	51.812936
1761.000000	51.774514
1760.000000	51.703531
1759.000000	51.618070
1758.000000	51.568977
1757.000000	51.479773
1756.000000	51.436927
1755.000000	51.371661
1754.000000	51.280887
1753.000000	51.246865
1752.000000	51.199515
1751.000000	51.120441
1750.000000	51.023856
1749.000000	50.978210
1748.000000	50.913694
1747.000000	50.830084
1746.000000	50.745084
1745.000000	50.627995
1744.000000	50.587698
1743.000000	50.529988
1742.000000	50.455774
1741.000000	50.399448
1740.000000	50.340361
1739.000000	50.264885
1738.000000	50.197011
1737.000000	50.159819
1736.000000	50.123338
1735.000000	50.097401
1734.000000	50.133701
1733.000000	50.099072
1732.000000	50.101251
1731.000000	50.096909
1730.000000	50.090815
1729.000000	50.168912
1728.000000	50.236033
1727.000000	50.317213
1726.000000	50.376618
1725.000000	50.454449
1724.000000	50.583311
1723.000000	50.685900
1722.000000	50.830743
1721.000000	50.922362
1720.000000	51.101761
1719.000000	51.266800
1718.000000	51.377661
1717.000000	51.536121
1716.000000	51.624757
1715.000000	51.774505
1714.000000	51.890288
1713.000000	52.032556
1712.000000	52.100733
1711.000000	52.254652
1710.000000	52.353081
1709.000000	52.434060
1708.000000	52.492071
1707.000000	52.546133
1706.000000	52.597212
1705.000000	52.683691
1704.000000	52.741785
1703.000000	52.748164
1702.000000	52.722037
1701.000000	52.789214
1700.000000	52.809785
1699.000000	52.808572
1698.000000	52.884062
1697.000000	52.880215
1696.000000	52.932698
1695.000000	52.957398
1694.000000	53.000810
1693.000000	53.068648
1692.000000	53.123230
1691.000000	53.212176
1690.000000	53.291037
1689.000000	53.414830
1688.000000	53.554728
1687.000000	53.679411
1686.000000	53.807981
1685.000000	53.983394
1684.000000	54.183765
1683.000000	54.374956
1682.000000	54.580252
1681.000000	54.805715
1680.000000	55.015916
1679.000000	55.245436
1678.000000	55.508709
1677.000000	55.687860
1676.000000	55.955818
1675.000000	56.176292
1674.000000	56.398141
1673.000000	56.638422
1672.000000	56.846788
1671.000000	57.035152
1670.000000	57.264722
1669.000000	57.496780
1668.000000	57.657713
1667.000000	57.895414
1666.000000	58.001658
1665.000000	58.114689
1664.000000	58.248031
1663.000000	58.344478
1662.000000	58.454573
1661.000000	58.560418
1660.000000	58.670283
1659.000000	58.738476
1658.000000	58.795199
1657.000000	58.830771
1656.000000	58.895738
1655.000000	58.943869
1654.000000	58.941733
1653.000000	58.979766
1652.000000	59.035220
1651.000000	59.015866
1650.000000	59.020774
1649.000000	58.999259
1648.000000	58.981080
1647.000000	58.995905
1646.000000	58.980964
1645.000000	58.946163
1644.000000	58.908939
1643.000000	58.893716
1642.000000	58.854310
1641.000000	58.803771
1640.000000	58.762193
1639.000000	58.730080
1638.000000	58.695102
1637.000000	58.636018
1636.000000	58.586664
1635.000000	58.536879
1634.000000	58.483231
1633.000000	58.419610
1632.000000	58.359795
1631.000000	58.320712
1630.000000	58.248249
1629.000000	58.177082
1628.000000	58.104311
1627.000000	58.051883
1626.000000	58.004297
1625.000000	57.922140
1624.000000	57.838631
1623.000000	57.763100
1622.000000	57.732147
1621.000000	57.655196
1620.000000	57.564868
1619.000000	57.457953
1618.000000	57.374481
1617.000000	57.322093
1616.000000	57.241405
1615.000000	57.162366
1614.000000	57.065631
1613.000000	56.962947
1612.000000	56.880062
1611.000000	56.791748
1610.000000	56.699825
1609.000000	56.624719
1608.000000	56.547303
1607.000000	56.428921
1606.000000	56.317971
1605.000000	56.244616
1604.000000	56.156279
1603.000000	56.059149
1602.000000	55.958789
1601.000000	55.859057
1600.000000	55.772632
1599.000000	55.698866
1598.000000	55.620884
1597.000000	55.522207
1596.000000	55.428566
1595.000000	55.351640
1594.000000	55.260438
1593.000000	55.172075
1592.000000	55.087399
1591.000000	54.992987
1590.000000	54.927958
1589.000000	54.859987
1588.000000	54.768154
1587.000000	54.683418
1586.000000	54.621065
1585.000000	54.555284
1584.000000	54.480142
1583.000000	54.414191
1582.000000	54.342557
1581.000000	54.261439
1580.000000	54.195407
1579.000000	54.129433
1578.000000	54.053195
1577.000000	53.971820
1576.000000	53.897679
1575.000000	53.828191
1574.000000	53.756259
1573.000000	53.683370
1572.000000	53.604525
1571.000000	53.536214
1570.000000	53.471255
1569.000000	53.398940
1568.000000	53.343589
1567.000000	53.281785
1566.000000	53.227148
1565.000000	53.197492
1564.000000	53.151804
1563.000000	53.107519
1562.000000	53.047323
1561.000000	53.003717
1560.000000	52.970700
1559.000000	52.917517
1558.000000	52.878284
1557.000000	52.843547
1556.000000	52.807704
1555.000000	52.780279
1554.000000	52.720202
1553.000000	52.667624
1552.000000	52.630796
1551.000000	52.589104
1550.000000	52.537832
1549.000000	52.480943
1548.000000	52.415863
1547.000000	52.325417
1546.000000	52.236621
1545.000000	52.151061
1544.000000	52.046981
1543.000000	51.939910
1542.000000	51.834492
1541.000000	51.724616
1540.000000	51.601585
1539.000000	51.476368
1538.000000	51.341856
1537.000000	51.228348
1536.000000	51.102841
1535.000000	50.972676
1534.000000	50.857264
1533.000000	50.724202
1532.000000	50.606382
1531.000000	50.489736
1530.000000	50.363566
1529.000000	50.263352
1528.000000	50.157740
1527.000000	50.049281
1526.000000	49.976113
1525.000000	49.876359
1524.000000	49.784491
1523.000000	49.695600
1522.000000	49.617173
1521.000000	49.544212
1520.000000	49.496975
1519.000000	49.426183
1518.000000	49.378972
1517.000000	49.308157
1516.000000	49.274823
1515.000000	49.204636
1514.000000	49.151651
1513.000000	49.112642
1512.000000	49.054550
1511.000000	49.023139
1510.000000	48.962726
1509.000000	48.946677
1508.000000	48.906018
1507.000000	48.860604
1506.000000	48.828241
1505.000000	48.797449
1504.000000	48.780345
1503.000000	48.755067
1502.000000	48.739663
1501.000000	48.709319
1500.000000	48.676323
1499.000000	48.681142
1498.000000	48.671179
1497.000000	48.639618
1496.000000	48.655309
1495.000000	48.666509
1494.000000	48.660701
1493.000000	48.667554
1492.000000	48.678964
1491.000000	48.728119
1490.000000	48.744136
1489.000000	48.753300
1488.000000	48.786056
1487.000000	48.805980
1486.000000	48.857670
1485.000000	48.881461
1484.000000	48.906312
1483.000000	48.968207
1482.000000	48.980122
1481.000000	49.058113
1480.000000	49.075850
1479.000000	49.120167
1478.000000	49.182339
1477.000000	49.234871
1476.000000	49.273213
1475.000000	49.317824
1474.000000	49.373084
1473.000000	49.419100
1472.000000	49.459007
1471.000000	49.518196
1470.000000	49.557994
1469.000000	49.598612
1468.000000	49.680396
1467.000000	49.712479
1466.000000	49.768389
1465.000000	49.814315
1464.000000	49.868291
1463.000000	49.919520
1462.000000	50.000000
1461.000000	50.036252
1460.000000	50.089066
1459.000000	50.168406
1458.000000	50.266474
1457.000000	50.331415
1456.000000	50.387306
1455.000000	50.463083
1454.000000	50.557936
1453.000000	50.642655
1452.000000	50.754690
1451.000000	50.849517
1450.000000	50.943370
1449.000000	51.047204
1448.000000	51.167138
1447.000000	51.263172
1446.000000	51.390008
1445.000000	51.489266
1444.000000	51.617892
1443.000000	51.732230
1442.000000	51.870062
1441.000000	52.007188
1440.000000	52.151325
1439.000000	52.298485
1438.000000	52.462016
1437.000000	52.613772
1436.000000	52.769657
1435.000000	52.933181
1434.000000	53.105016
1433.000000	53.279779
1432.000000	53.451500
1431.000000	53.654253
1430.000000	53.854378
1429.000000	54.069886
1428.000000	54.274807
1427.000000	54.488980
1426.000000	54.704353
1425.000000	54.925035
1424.000000	55.161111
1423.000000	55.414265
1422.000000	55.677914
1421.000000	55.918256
1420.000000	56.176862
1419.000000	56.449140
1418.000000	56.704235
1417.000000	56.967498
1416.000000	57.248018
1415.000000	57.541650
1414.000000	57.824035
1413.000000	58.120953
1412.000000	58.417820
1411.000000	58.730722
1410.000000	59.017099
1409.000000	59.315778
1408.000000	59.619687
1407.000000	59.909024
1406.000000	60.201096
1405.000000	60.502328
1404.000000	60.775673
1403.000000	61.057365
1402.000000	61.350387
1401.000000	61.640600
1400.000000	61.905174
1399.000000	62.174692
1398.000000	62.447455
1397.000000	62.704987
1396.000000	62.953623
1395.000000	63.199448
1394.000000	63.439625
1393.000000	63.671205
1392.000000	63.883103
1391.000000	64.105129
1390.000000	64.312910
1389.000000	64.498996
1388.000000	64.711340
1387.000000	64.899164
1386.000000	65.056378
1385.000000	65.223686
1384.000000	65.405510
1383.000000	65.573827
1382.000000	65.689895
1381.000000	65.827519
1380.000000	65.964707
1379.000000	66.063471
1378.000000	66.176747
1377.000000	66.297411
1376.000000	66.398614
1375.000000	66.477694
1374.000000	66.566019
1373.000000	66.652447
1372.000000	66.727192
1371.000000	66.818928
1370.000000	66.897887
1369.000000	66.951359
1368.000000	67.015285
1367.000000	67.092810
1366.000000	67.161584
1365.000000	67.228851
1364.000000	67.305957
1363.000000	67.367368
1362.000000	67.439715
1361.000000	67.516823
1360.000000	67.592836
1359.000000	67.657248
1358.000000	67.751835
1357.000000	67.828979
1356.000000	67.880458
1355.000000	67.986825
1354.000000	68.088238
1353.000000	68.154422
1352.000000	68.217843
1351.000000	68.297723
1350.000000	68.385773
1349.000000	68.467451
1348.000000	68.544154
1347.000000	68.627269
1346.000000	68.724952
1345.000000	68.795302
1344.000000	68.843461
1343.000000	68.929063
1342.000000	69.013080
1341.000000	69.074008
1340.000000	69.136905
1339.000000	69.213099
1338.000000	69.290182
1337.000000	69.340242
1336.000000	69.389295
1335.000000	69.457956
1334.000000	69.523368
1333.000000	69.591768
1332.000000	69.680153
1331.000000	69.756698
1330.000000	69.809676
1329.000000	69.842711
1328.000000	69.875658
1327.000000	69.912999
1326.000000	69.939053
1325.000000	69.949877
1324.000000	70.022975
1323.000000	70.046031
1322.000000	70.043162
1321.000000	70.120332
1320.000000	70.136849
1319.000000	70.165702
1318.000000	70.200126
1317.000000	70.229092
1316.000000	70.270287
1315.000000	70.301578
1314.000000	70.328774
1313.000000	70.342214
1312.000000	70.351352
1311.000000	70.400243
1310.000000	70.420024
1309.000000	70.436441
1308.000000	70.440825
1307.000000	70.448505
1306.000000	70.464060
1305.000000	70.527562
1304.000000	70.549516
1303.000000	70.549760
1302.000000	70.567137
1301.000000	70.570852
1300.000000	70.572695
1299.000000	70.601533
1298.000000	70.609922
1297.000000	70.620374
1296.000000	70.605592
1295.000000	70.607170
1294.000000	70.610470
1293.000000	70.617163
1292.000000	70.628708
1291.000000	70.626743
1290.000000	70.608137
1289.000000	70.609661
1288.000000	70.582318
1287.000000	70.567768
1286.000000	70.577864
1285.000000	70.570464
1284.000000	70.576647
1283.000000	70.577549
1282.000000	70.567846
1281.000000	70.579876
1280.000000	70.564576
1279.000000	70.553658
1278.000000	70.582435
1277.000000	70.563966
1276.000000	70.551864
1275.000000	70.552245
1274.000000	70.562072
1273.000000	70.566046
1272.000000	70.554774
1271.000000	70.547187
1270.000000	70.570325
1269.000000	70.569431
1268.000000	70.588223
1267.000000	70.589741
1266.000000	70.564281
1265.000000	70.621878
1264.000000	70.617098
1263.000000	70.627074
1262.000000	70.640646
1261.000000	70.686799
1260.000000	70.710000
1259.000000	70.689864
1258.000000	70.685675
1257.000000	70.691081
1256.000000	70.701883
1255.000000	70.697047
1254.000000	70.744532
1253.000000	70.721464
1252.000000	70.728319
1251.000000	70.739534
1250.000000	70.721631
1249.000000	70.718218
1248.000000	70.711305
1247.000000	70.710483
1246.000000	70.695287
1245.000000	70.694305
1244.000000	70.660032
1243.000000	70.658198
1242.000000	70.644305
1241.000000	70.626095
1240.000000	70.601428
1239.000000	70.585966
1238.000000	70.545412
1237.000000	70.523334
1236.000000	70.502617
1235.000000	70.444335
1234.000000	70.414962
1233.000000	70.415949
1232.000000	70.384184
1231.000000	70.365291
1230.000000	70.315173
1229.000000	70.323036
1228.000000	70.283142
1227.000000	70.270126
1226.000000	70.235428
1225.000000	70.222012
1224.000000	70.188015
1223.000000	70.160313
1222.000000	70.095200
1221.000000	70.078477
1220.000000	70.056430
1219.000000	70.027567
1218.000000	69.984234
1217.000000	69.960639
1216.000000	69.962017
1215.000000	69.919163
1214.000000	69.902334
1213.000000	69.847913
1212.000000	69.799050
1211.000000	69.794123
1210.000000	69.752087
1209.000000	69.687657
1208.000000	69.653688
1207.000000	69.661095
1206.000000	69.588919
1205.000000	69.549521
1204.000000	69.536811
1203.000000	69.468627
1202.000000	69.420620
1201.000000	69.383175
1200.000000	69.376919
1199.000000	69.313408
1198.000000	69.273029
1197.000000	69.239686
1196.000000	69.212086
1195.000000	69.204035
1194.000000	69.201844
1193.000000	69.149543
1192.000000	69.112242
1191.000000	69.106116
1190.000000	69.078086
1189.000000	69.029378
1188.000000	69.028301
1187.000000	69.016230
1186.000000	69.016046
1185.000000	69.025623
1184.000000	69.036266
1183.000000	69.048025
1182.000000	69.069198
1181.000000	69.096862
1180.000000	69.134139
1179.000000	69.167850
1178.000000	69.195355
1177.000000	69.240072
1176.000000	69.298978
1175.000000	69.364321
1174.000000	69.422428
1173.000000	69.495636
1172.000000	69.564668
1171.000000	69.627432
1170.000000	69.707195
1169.000000	69.782498
1168.000000	69.870147
1167.000000	69.948218
1166.000000	70.016182
1165.000000	70.115399
1164.000000	70.229755
1163.000000	70.314029
1162.000000	70.388670
1161.000000	70.484940
1160.000000	70.579129
1159.000000	70.651572
1158.000000	70.746224
1157.000000	70.843050
1156.000000	70.925461
1155.000000	71.004261
1154.000000	71.069718
1153.000000	71.134587
1152.000000	71.208339
1151.000000	71.293862
1150.000000	71.378395
1149.000000	71.443126
1148.000000	71.484046
1147.000000	71.543116
1146.000000	71.602584
1145.000000	71.668350
1144.000000	71.737143
1143.000000	71.785117
1142.000000	71.838550
1141.000000	71.886517
1140.000000	71.943210
1139.000000	71.996890
1138.000000	72.046713
1137.000000	72.096638
1136.000000	72.150381
1135.000000	72.173846
1134.000000	72.211585
1133.000000	72.264191
1132.000000	72.305224
1131.000000	72.346516
1130.000000	72.380610
1129.000000	72.394476
1128.000000	72.427915
1127.000000	72.469889
1126.000000	72.489569
1125.000000	72.514826
1124.000000	72.544474
1123.000000	72.561235
1122.000000	72.589764
1121.000000	72.599356
1120.000000	72.619080
1119.000000	72.626848
1118.000000	72.635416
1117.000000	72.647443
1116.000000	72.665570
1115.000000	72.668175
1114.000000	72.685780
1113.000000	72.696578
1112.000000	72.699437
1111.000000	72.702691
1110.000000	72.705149
1109.000000	72.716552
1108.000000	72.729328
1107.000000	72.733999
1106.000000	72.739730
1105.000000	72.741537
1104.000000	72.737064
1103.000000	72.746981
1102.000000	72.766445
1101.000000	72.746274
1100.000000	72.736180
1099.000000	72.745240
1098.000000	72.758060
1097.000000	72.755171
1096.000000	72.769616
1095.000000	72.781340
1094.000000	72.772362
1093.000000	72.733785
1092.000000	72.733324
1091.000000	72.753543
1090.000000	72.749664
1089.000000	72.756751
1088.000000	72.759759
1087.000000	72.746254
1086.000000	72.737794
1085.000000	72.733290
1084.000000	72.724657
1083.000000	72.738039
1082.000000	72.736434
1081.000000	72.707837
1080.000000	72.727264
1079.000000	72.699089
1078.000000	72.707308
1077.000000	72.719480
1076.000000	72.723166
1075.000000	72.712531
1074.000000	72.676564
1073.000000	72.672345
1072.000000	72.681436
1071.000000	72.653928
1070.000000	72.670021
1069.000000	72.661682
1068.000000	72.652868
1067.000000	72.641892
1066.000000	72.638574
1065.000000	72.640139
1064.000000	72.610194
1063.000000	72.601030
1062.000000	72.602243
1061.000000	72.615432
1060.000000	72.572774
1059.000000	72.571646
1058.000000	72.582820
1057.000000	72.570963
1056.000000	72.558348
1055.000000	72.530594
1054.000000	72.513098
1053.000000	72.537218
1052.000000	72.536060
1051.000000	72.520568
1050.000000	72.520672
1049.000000	72.503078
1048.000000	72.497467
1047.000000	72.483056
1046.000000	72.476704
1045.000000	72.469158
1044.000000	72.461575
1043.000000	72.456867
1042.000000	72.456069
1041.000000	72.457944
1040.000000	72.445663
1039.000000	72.437439
1038.000000	72.428621
1037.000000	72.399865
1036.000000	72.432143
1035.000000	72.447466
1034.000000	72.432938
1033.000000	72.403823
1032.000000	72.401364
1031.000000	72.410700
1030.000000	72.390160
1029.000000	72.397803
1028.000000	72.387620
1027.000000	72.396025
1026.000000	72.369516
1025.000000	72.385291
1024.000000	72.361224
1023.000000	72.364836
1022.000000	72.336788
1021.000000	72.375239
1020.000000	72.364839
1019.000000	72.353570
1018.000000	72.357924
1017.000000	72.375220
1016.000000	72.367269
1015.000000	72.353642
1014.000000	72.363707
1013.000000	72.380922
1012.000000	72.377922
1011.000000	72.371436
1010.000000	72.358973
1009.000000	72.355107
1008.000000	72.369426
1007.000000	72.360409
1006.000000	72.376056
1005.000000	72.381671
1004.000000	72.371708
1003.000000	72.393932
1002.000000	72.389233
1001.000000	72.395220
1000.000000	72.395612
999.000000	72.416174
998.000000	72.412733
997.000000	72.408158
996.000000	72.403765
995.000000	72.404277
994.000000	72.413266
993.000000	72.432998
992.000000	72.429888
991.000000	72.432697
990.000000	72.441944
989.000000	72.440563
988.000000	72.441168
987.000000	72.459985
986.000000	72.472663
985.000000	72.475406
984.000000	72.472771
983.000000	72.485399
982.000000	72.483673
981.000000	72.512086
980.000000	72.505464
979.000000	72.512902
978.000000	72.542403
977.000000	72.539563
976.000000	72.546763
975.000000	72.570754
974.000000	72.572302
973.000000	72.571938
972.000000	72.604022
971.000000	72.635640
970.000000	72.629390
969.000000	72.645107
968.000000	72.659674
967.000000	72.672801
966.000000	72.681869
965.000000	72.678927
964.000000	72.696673
963.000000	72.698435
962.000000	72.698042
961.000000	72.724194
960.000000	72.732750
959.000000	72.765329
958.000000	72.782597
957.000000	72.786534
956.000000	72.787122
955.000000	72.785501
954.000000	72.811611
953.000000	72.848156
952.000000	72.858784
951.000000	72.871516
950.000000	72.869196
949.000000	72.873764
948.000000	72.859533
947.000000	72.875439
946.000000	72.900180
945.000000	72.906143
944.000000	72.928862
943.000000	72.910969
942.000000	72.896154
941.000000	72.914711
940.000000	72.934795
939.000000	72.930395
938.000000	72.923087
937.000000	72.938052
936.000000	72.924140
935.000000	72.952194
934.000000	72.988844
933.000000	72.976910
932.000000	72.964776
931.000000	72.978554
930.000000	72.947216
929.000000	72.946373
928.000000	72.950224
927.000000	72.958980
926.000000	72.956335
925.000000	72.969730
924.000000	72.988989
923.000000	72.950232
922.000000	72.946784
921.000000	72.924699
920.000000	72.951350
919.000000	72.937221
918.000000	72.943209
917.000000	72.967973
916.000000	72.934490
915.000000	72.899943
914.000000	72.934022
913.000000	72.959519
912.000000	72.901955
911.000000	72.935573
910.000000	72.965319
909.000000	72.925786
908.000000	72.928440
907.000000	72.973979
906.000000	72.942005
905.000000	72.993411
904.000000	73.001960
903.000000	72.960319
902.000000	73.011501
901.000000	72.955554
900.000000	73.017349
899.000000	73.021116
898.000000	72.994256
897.000000	73.020742
896.000000	73.008643
895.000000	73.016268
894.000000	73.085031
893.000000	73.047468
892.000000	73.017850
891.000000	73.034914
890.000000	73.115146
889.000000	73.105977
888.000000	73.085515
887.000000	73.055464
886.000000	73.069777
885.000000	73.171505
884.000000	73.117535
883.000000	73.076702
882.000000	73.136558
881.000000	73.127981
880.000000	73.200012
879.000000	73.140788
878.000000	73.159012
877.000000	73.195841
876.000000	73.258344
875.000000	73.211358
874.000000	73.208189
873.000000	73.219179
872.000000	73.212329
871.000000	73.133794
870.000000	73.201981
869.000000	73.203367
868.000000	73.105353
867.000000	73.199864
866.000000	73.154460
865.000000	73.166488
864.000000	73.184550
863.000000	73.090484
862.000000	73.139524
861.000000	73.048575
860.000000	73.298952
859.000000	72.880472
858.000000	73.016633
857.000000	73.407919
856.000000	73.451646
855.000000	73.249145
854.000000	73.056345
853.000000	73.048238
852.000000	73.075316
851.000000	73.329545
850.000000	73.198377
849.000000	73.114868
848.000000	73.262185
847.000000	72.987886
846.000000	73.199701
845.000000	73.002238
844.000000	73.135913
843.000000	73.111415
842.000000	73.046319
841.000000	73.246777
840.000000	73.274418
839.000000	73.028333
838.000000	73.301984
837.000000	72.934832
836.000000	73.057188
835.000000	73.115649
834.000000	73.258096
833.000000	72.984037
832.000000	73.049364
831.000000	72.876199
830.000000	73.079242
829.000000	73.220298
828.000000	73.133800
827.000000	73.002012
826.000000	72.965020
825.000000	73.210891
824.000000	73.008522
823.000000	72.849420
822.000000	73.150234
821.000000	72.779676
820.000000	73.227474
819.000000	73.122046
818.000000	73.049909
817.000000	73.040730
816.000000	73.240315
815.000000	73.101985
814.000000	73.265865
813.000000	72.947813
812.000000	73.022551
811.000000	73.077373
810.000000	73.166961
809.000000	72.941975
808.000000	73.238585
807.000000	73.122446
806.000000	73.049733
805.000000	73.050745
804.000000	73.168790
803.000000	73.172624
802.000000	73.033846
801.000000	72.943883
800.000000	73.074741
799.000000	73.341246
798.000000	73.075706
797.000000	73.251445
796.000000	72.970736
795.000000	73.007483
794.000000	73.126641
793.000000	73.227898
792.000000	73.292340
791.000000	73.112359
790.000000	73.034425
789.000000	72.976414
788.000000	73.048067
787.000000	73.035076
786.000000	73.134965
785.000000	73.161702
784.000000	73.093075
783.000000	73.149354
782.000000	73.130822
781.000000	73.245507
780.000000	73.255489
779.000000	73.134820
778.000000	73.028635
777.000000	73.168480
776.000000	73.112408
775.000000	73.233947
774.000000	73.167813
773.000000	73.220382
772.000000	73.167330
771.000000	73.227413
770.000000	73.143314
769.000000	73.138508
768.000000	73.105820
767.000000	73.038444
766.000000	73.037040
765.000000	73.212934
764.000000	73.135975
763.000000	73.174368
762.000000	73.230375
761.000000	73.123035
760.000000	73.162989
759.000000	73.192451
758.000000	73.176598
757.000000	73.182000
756.000000	73.137287
755.000000	73.073237
754.000000	73.104918
753.000000	73.160667
752.000000	73.098218
751.000000	73.185429
750.000000	73.055130
749.000000	73.100966
748.000000	73.095504
747.000000	73.216013
746.000000	73.203537
745.000000	73.181598
744.000000	73.135719
743.000000	73.224525
742.000000	73.239694
741.000000	73.116937
740.000000	73.111586
739.000000	73.085824
738.000000	73.111915
737.000000	73.211629
736.000000	73.262554
735.000000	73.169655
734.000000	73.139003
733.000000	73.152409
732.000000	73.125506
731.000000	73.118680
730.000000	73.200656
729.000000	73.231353
728.000000	73.196576
727.000000	73.215938
726.000000	73.190277
725.000000	73.201449
724.000000	73.169268
723.000000	73.132310
722.000000	73.147176
721.000000	73.197874
720.000000	73.223672
719.000000	73.200952
718.000000	73.203833
717.000000	73.255410
716.000000	73.220147
715.000000	73.244896
714.000000	73.248918
713.000000	73.212747
712.000000	73.167086
711.000000	73.167584
710.000000	73.225345
709.000000	73.204904
708.000000	73.181965
707.000000	73.260614
706.000000	73.315724
705.000000	73.296624
704.000000	73.263219
703.000000	73.211202
702.000000	73.160966
701.000000	73.234657
700.000000	73.345334
699.000000	73.285995
698.000000	73.207755
697.000000	73.200782
696.000000	73.209615
695.000000	73.246254
694.000000	73.278842
693.000000	73.245982
692.000000	73.236574
691.000000	73.295347
690.000000	73.274706
689.000000	73.226183
688.000000	73.206644
687.000000	73.174990
686.000000	73.213509
685.000000	73.288854
684.000000	73.280268
683.000000	73.281886
682.000000	73.284161
681.000000	73.195760
680.000000	73.226157
679.000000	73.289921
678.000000	73.296746
677.000000	73.301446
676.000000	73.289504
675.000000	73.293379
674.000000	73.282717
673.000000	73.292669
672.000000	73.333687
671.000000	73.311958
670.000000	73.280376
669.000000	73.296361
668.000000	73.260328
667.000000	73.347332
666.000000	73.329026
665.000000	73.258320
664.000000	73.230189
663.000000	73.270355
662.000000	73.289173
661.000000	73.321078
660.000000	73.353411
659.000000	73.318321
658.000000	73.276996
657.000000	73.351271
656.000000	73.311361
655.000000	73.239735
654.000000	73.278788
653.000000	73.324418
652.000000	73.301337
651.000000	73.232160
650.000000	73.269120
649.000000	73.368909
648.000000	73.244604
647.000000	73.290968
646.000000	73.287842
645.000000	73.208500
644.000000	73.271804
643.000000	73.234657
642.000000	73.255528
641.000000	73.266716
640.000000	73.274192
639.000000	73.294241
638.000000	73.240165
637.000000	73.268384
636.000000	73.312512
635.000000	73.288359
634.000000	73.238196
633.000000	73.281478
632.000000	73.317826
631.000000	73.293185
630.000000	73.264288
629.000000	73.260636
628.000000	73.246433
627.000000	73.253957
626.000000	73.230144
625.000000	73.234103
624.000000	73.301421
623.000000	73.284768
622.000000	73.222643
621.000000	73.262049
620.000000	73.194373
619.000000	73.163647
618.000000	73.162374
617.000000	73.220382
616.000000	73.177802
615.000000	73.230845
614.000000	73.199823
613.000000	73.219363
612.000000	73.179282
611.000000	73.193235
610.000000	73.170250
609.000000	73.138694
608.000000	73.177617
607.000000	73.121388
606.000000	73.138089
605.000000	73.092877
604.000000	73.068706
603.000000	73.110931
602.000000	73.073987
601.000000	73.052962
600.000000	73.099766
599.000000	73.069189
598.000000	73.050522
597.000000	73.040268
596.000000	73.036819
595.000000	73.000135
594.000000	73.109308
593.000000	73.011934
592.000000	73.039409
591.000000	73.041921
590.000000	72.975848
589.000000	72.975008
588.000000	73.023592
587.000000	72.943698
586.000000	72.927452
585.000000	73.002870
584.000000	72.940861
583.000000	72.896542
582.000000	72.856683
581.000000	72.925403
580.000000	72.818239
579.000000	72.896822
578.000000	72.877259
577.000000	72.782735
576.000000	72.830703
575.000000	72.809044
574.000000	72.775150
573.000000	72.863252
572.000000	72.848449
571.000000	72.773810
570.000000	72.745898
569.000000	72.825207
568.000000	72.680854
567.000000	72.694351
566.000000	72.630796
565.000000	72.656008
564.000000	72.687800
563.000000	72.693866
562.000000	72.633117
561.000000	72.500876
560.000000	72.424698
559.000000	72.501492
558.000000	72.417991
557.000000	72.427571
556.000000	72.404742
555.000000	72.385666
554.000000	72.331888
553.000000	72.354797
552.000000	72.337130
551.000000	72.305113
550.000000	72.314876
549.000000	72.307793
548.000000	72.268295
547.000000	72.224131
546.000000	72.160098
545.000000	72.174306
544.000000	72.178245
543.000000	72.142384
542.000000	72.141826
541.000000	72.105267
540.000000	72.049206
539.000000	72.057077
538.000000	71.991680
537.000000	71.923022
536.000000	71.901037
535.000000	71.958328
534.000000	71.835176
533.000000	71.853249
532.000000	71.826030
531.000000	71.749457
530.000000	71.775868
529.000000	71.787015
528.000000	71.718981
527.000000	71.649726
526.000000	71.600176
525.000000	71.577538
524.000000	71.562011
523.000000	71.555065
522.000000	71.500577
521.000000	71.505600
520.000000	71.423235
519.000000	71.369154
518.000000	71.318381
517.000000	71.340352
516.000000	71.281542
515.000000	71.248673
514.000000	71.165822
513.000000	71.170686
512.000000	71.127447
511.000000	71.062935
510.000000	71.014344
509.000000	70.966842
508.000000	70.950083
507.000000	70.888961
506.000000	70.850691
505.000000	70.784186
504.000000	70.744145
503.000000	70.707461
502.000000	70.677532
501.000000	70.684493
500.000000	70.636353
499.000000	70.582275
498.000000	70.500351
497.000000	70.417340
496.000000	70.404245
495.000000	70.368034
494.000000	70.245036
493.000000	70.189559
492.000000	70.104272
491.000000	70.099782
490.000000	70.034945
489.000000	69.918288
488.000000	69.855570
487.000000	69.847127
486.000000	69.818577
485.000000	69.853457
484.000000	69.843938
483.000000	69.740413
482.000000	69.686307
481.000000	69.600198
480.000000	69.506395
479.000000	69.435490
478.000000	69.395375
477.000000	69.332492
476.000000	69.240289
475.000000	69.149782
474.000000	69.064768
473.000000	69.033257
472.000000	68.981226
471.000000	68.896432
470.000000	68.792217
469.000000	68.685501
468.000000	68.568824
467.000000	68.545543
466.000000	68.484690
465.000000	68.372951
464.000000	68.308421
463.000000	68.214860
462.000000	68.126783
461.000000	68.013215
460.000000	67.901760
459.000000	67.838343
458.000000	67.697562
457.000000	67.580854
456.000000	67.500751
455.000000	67.412267
454.000000	67.332180
453.000000	67.254714
452.000000	67.130195
451.000000	67.024168
450.000000	66.887277
449.000000	66.731487
448.000000	66.620373
447.000000	66.479538
446.000000	66.380281
445.000000	66.299390
444.000000	66.129140
443.000000	65.977053
442.000000	65.855077
441.000000	65.719432
440.000000	65.589172
439.000000	65.457472
438.000000	65.284219
437.000000	65.139462
436.000000	64.960114
435.000000	64.770980
434.000000	64.619398
433.000000	64.503961
432.000000	64.329350
431.000000	64.182796
430.000000	64.014070
429.000000	63.792711
428.000000	63.632165
427.000000	63.483389
426.000000	63.308400
425.000000	63.112293
424.000000	62.883205
423.000000	62.708705
422.000000	62.528463
421.000000	62.353946
420.000000	62.111348
419.000000	61.875128
418.000000	61.680594
417.000000	61.490572
416.000000	61.253534
415.000000	60.950074
414.000000	60.752133
413.000000	60.606143
412.000000	60.375911
411.000000	60.035598
410.000000	59.840420
409.000000	59.660006
408.000000	59.392788
407.000000	59.099337
406.000000	58.900737
405.000000	58.593361
404.000000	58.352520
403.000000	58.084289
402.000000	57.840538
401.000000	57.583346
400.000000	57.357457
399.000000	57.137472
398.000000	56.808596
397.000000	56.458755
396.000000	56.215649
395.000000	55.903954
394.000000	55.563526
393.000000	55.301836
392.000000	55.047298
391.000000	54.789332
390.000000	54.517129
389.000000	54.199598
388.000000	53.842695
387.000000	53.650529
386.000000	53.213531
385.000000	52.881654
384.000000	52.603798
383.000000	52.341215
382.000000	51.937221
381.000000	51.666157
380.000000	51.308751
379.000000	50.954737
378.000000	50.422196
377.000000	50.456202
376.000000	50.029977
375.000000	49.556390
374.000000	49.161838
373.000000	48.689311
372.000000	48.421801
371.000000	48.090513
370.000000	47.830552
369.000000	47.389233
368.000000	46.894657
367.000000	46.593432
366.000000	46.280949
365.000000	45.866050
364.000000	45.470713
363.000000	45.070803
362.000000	44.710252
361.000000	44.422954
360.000000	43.988954
359.000000	43.522902
358.000000	43.204050
357.000000	42.996979
356.000000	42.617948
355.000000	42.218927
354.000000	41.804967
353.000000	41.573474
352.000000	41.251466
351.000000	40.853997
350.000000	40.603987
349.000000	40.222417
348.000000	39.768476
347.000000	39.502648
346.000000	38.908602
345.000000	38.606286
344.000000	38.227141
343.000000	37.808981
342.000000	37.485124
341.000000	36.939906
340.000000	36.597427
339.000000	36.065518
338.000000	35.497002
337.000000	34.830595
336.000000	34.384534
335.000000	33.789854
334.000000	33.200907
333.000000	32.527834
332.000000	31.918533
331.000000	31.251077
330.000000	30.612432
329.000000	30.125554
328.000000	29.308717
327.000000	28.686143
326.000000	28.199154
325.000000	27.607962
324.000000	27.275566
323.000000	26.831689
322.000000	26.363555
321.000000	26.032200
320.000000	25.670455
319.000000	25.257015
318.000000	25.143157
317.000000	24.838015
316.000000	24.671101
315.000000	24.432799
314.000000	24.159974
313.000000	23.944007
312.000000	23.656576
311.000000	23.557364
310.000000	23.276568
309.000000	23.141469
308.000000	22.929167
307.000000	22.719211
306.000000	22.412646
305.000000	22.250689
304.000000	22.068268
303.000000	21.938731
302.000000	21.712722
301.000000	21.639909
300.000000	21.386571
299.000000	21.082081
298.000000	20.870108
297.000000	20.565246
296.000000	20.221363
295.000000	19.879526
294.000000	19.377794
293.000000	18.798313
292.000000	18.274165
291.000000	17.583950
290.000000	16.863808
289.000000	16.256899
288.000000	15.813373
287.000000	15.458674
286.000000	15.263151
285.000000	15.206153
284.000000	15.163462
283.000000	15.145358
282.000000	15.137533
281.000000	15.218323
280.000000	15.208640
279.000000	15.279696
278.000000	15.410218
277.000000	15.557334
276.000000	15.676802
275.000000	15.884427
274.000000	16.055240
273.000000	16.161896
272.000000	16.429416
271.000000	16.470524
270.000000	16.528375
269.000000	16.617264
268.000000	16.830126
267.000000	17.065186
266.000000	17.212408
265.000000	17.346565
264.000000	17.574647
263.000000	17.856554
262.000000	18.088375
261.000000	18.289610
260.000000	18.433360
259.000000	18.655884
258.000000	18.995618
257.000000	19.274701
256.000000	19.538483
255.000000	19.686522
254.000000	19.801390
253.000000	19.930980
252.000000	19.969381
251.000000	19.976979
250.000000	19.914998
249.000000	19.737696
248.000000	19.438103
247.000000	19.122216
246.000000	18.659121
245.000000	18.155111
244.000000	17.712798
243.000000	17.315418
242.000000	16.896535
241.000000	16.514157
240.000000	16.302724
239.000000	16.165322
238.000000	16.120192
237.000000	16.070888
236.000000	16.092678
235.000000	16.172352
234.000000	16.261488
233.000000	16.290677
232.000000	16.348156
231.000000	16.430454
230.000000	16.476850
229.000000	16.545037
228.000000	16.597454
227.000000	16.711828
226.000000	16.815591
225.000000	16.964387
224.000000	17.153129
223.000000	17.397554
222.000000	17.646512
221.000000	17.746139
220.000000	18.069679
219.000000	18.439140
218.000000	18.813135
217.000000	19.199255
216.000000	19.519682
215.000000	20.044919
214.000000	20.459708
213.000000	20.728193
212.000000	21.237166
211.000000	21.710796
210.000000	22.087480
209.000000	22.675020
208.000000	23.204574
207.000000	23.746286
206.000000	24.489981
205.000000	25.133244
204.000000	25.617410
203.000000	26.575540
202.000000	27.399811
201.000000	27.853846
200.000000	28.595261
