PE UV       SUBTECH     SPECTRUM    ASCII       PEDS        4.00        
   -1
RDgAgneauUK 22.Sample.asc
18/03/12
14:26:03.00
18/03/12
14:26:03.00
Administrator

200.000000
1
Lambda 750
750N8071901
PerkinElmer UV WinLab 6.0.4.0738 / 1.61.00 Lambda 900

0
0
3350/servo 860.8/2
0
0
UV/VIS
1
1
1
CommonBeamDepol,150mm sphere / downward view
0
0
0
0
Program
Program
3350/servo 860.8/2
3350/0.2 860.8/0.2
3350/0.2 860.8/0.2
0
1
 
 
 
0
 
860.8
319.2
860.8
Front
100
on
 
 
0
0
0
 
0
 
 
 
0
 
 
0
0
0
0
0
 
 
 
 
0
0


0
0
#HDR
-1
-1
#GR
nm
%R
1.0
0.0
2350.000000
-1.000000
2151
8
70.365600
16.515952
#DATA
2350.000000	29.954384
2349.000000	30.009892
2348.000000	29.780237
2347.000000	30.198436
2346.000000	30.174037
2345.000000	29.982192
2344.000000	29.747369
2343.000000	29.579451
2342.000000	29.579459
2341.000000	30.062781
2340.000000	30.132268
2339.000000	30.292283
2338.000000	30.400732
2337.000000	30.743827
2336.000000	30.650421
2335.000000	30.875602
2334.000000	30.670379
2333.000000	30.771064
2332.000000	30.916023
2331.000000	30.580612
2330.000000	30.569496
2329.000000	30.525825
2328.000000	30.569685
2327.000000	30.504639
2326.000000	30.460858
2325.000000	30.444512
2324.000000	30.542017
2323.000000	30.477459
2322.000000	30.597046
2321.000000	30.551946
2320.000000	30.168680
2319.000000	30.253712
2318.000000	30.367374
2317.000000	30.531180
2316.000000	30.231252
2315.000000	30.120461
2314.000000	29.866546
2313.000000	29.889169
2312.000000	29.828771
2311.000000	30.077914
2310.000000	29.903142
2309.000000	29.934995
2308.000000	30.091896
2307.000000	29.659393
2306.000000	29.396575
2305.000000	29.614108
2304.000000	29.420616
2303.000000	29.431137
2302.000000	29.229244
2301.000000	28.937050
2300.000000	28.880748
2299.000000	28.787419
2298.000000	28.875530
2297.000000	28.665497
2296.000000	28.530270
2295.000000	28.443870
2294.000000	28.358906
2293.000000	28.220456
2292.000000	28.164687
2291.000000	28.067094
2290.000000	28.068803
2289.000000	28.075740
2288.000000	28.085394
2287.000000	28.018236
2286.000000	27.625307
2285.000000	27.683876
2284.000000	27.869792
2283.000000	27.856493
2282.000000	27.699239
2281.000000	27.748054
2280.000000	27.625634
2279.000000	27.674981
2278.000000	27.746213
2277.000000	27.752501
2276.000000	27.852042
2275.000000	27.963637
2274.000000	27.998847
2273.000000	28.031714
2272.000000	28.030051
2271.000000	27.964936
2270.000000	28.017090
2269.000000	28.198494
2268.000000	28.213775
2267.000000	28.412356
2266.000000	28.579010
2265.000000	28.503322
2264.000000	28.617460
2263.000000	28.849908
2262.000000	28.871496
2261.000000	29.051023
2260.000000	29.320973
2259.000000	29.437323
2258.000000	29.742938
2257.000000	29.964281
2256.000000	29.921308
2255.000000	30.094983
2254.000000	30.258960
2253.000000	30.505677
2252.000000	30.879884
2251.000000	31.177734
2250.000000	31.276399
2249.000000	31.460290
2248.000000	31.666515
2247.000000	31.957211
2246.000000	32.300637
2245.000000	32.569725
2244.000000	32.865287
2243.000000	33.105669
2242.000000	33.202967
2241.000000	33.194513
2240.000000	33.447438
2239.000000	33.612472
2238.000000	33.661672
2237.000000	33.840934
2236.000000	34.025828
2235.000000	34.072626
2234.000000	34.077173
2233.000000	34.180946
2232.000000	34.346186
2231.000000	34.439873
2230.000000	34.529943
2229.000000	34.705097
2228.000000	34.874527
2227.000000	34.698021
2226.000000	34.473365
2225.000000	34.418480
2224.000000	34.388318
2223.000000	34.337426
2222.000000	34.491119
2221.000000	34.443910
2220.000000	34.443053
2219.000000	34.444095
2218.000000	34.292399
2217.000000	34.165246
2216.000000	34.307911
2215.000000	34.223876
2214.000000	34.198682
2213.000000	34.046747
2212.000000	33.916181
2211.000000	33.878118
2210.000000	33.940305
2209.000000	33.893930
2208.000000	33.544936
2207.000000	33.487355
2206.000000	33.471258
2205.000000	33.557258
2204.000000	33.441078
2203.000000	33.208586
2202.000000	33.080669
2201.000000	33.019128
2200.000000	33.057584
2199.000000	32.782449
2198.000000	32.658296
2197.000000	32.526975
2196.000000	32.673719
2195.000000	32.538430
2194.000000	32.445386
2193.000000	32.527596
2192.000000	32.351742
2191.000000	32.062062
2190.000000	32.083375
2189.000000	31.953903
2188.000000	31.865674
2187.000000	31.862766
2186.000000	31.770215
2185.000000	31.630543
2184.000000	31.627360
2183.000000	31.708373
2182.000000	31.709167
2181.000000	31.715251
2180.000000	31.640818
2179.000000	31.381681
2178.000000	31.436743
2177.000000	31.354557
2176.000000	31.599615
2175.000000	31.589429
2174.000000	31.672748
2173.000000	31.566540
2172.000000	31.647395
2171.000000	31.996893
2170.000000	31.876531
2169.000000	31.942443
2168.000000	31.852631
2167.000000	32.048089
2166.000000	32.090915
2165.000000	32.192193
2164.000000	32.262103
2163.000000	32.315770
2162.000000	32.381583
2161.000000	32.561740
2160.000000	32.819394
2159.000000	33.010083
2158.000000	33.173781
2157.000000	33.289755
2156.000000	33.446995
2155.000000	33.614516
2154.000000	33.770516
2153.000000	33.889749
2152.000000	34.098083
2151.000000	34.164295
2150.000000	34.361558
2149.000000	34.520811
2148.000000	34.625143
2147.000000	34.922280
2146.000000	35.091324
2145.000000	35.112203
2144.000000	35.261212
2143.000000	35.367843
2142.000000	35.570609
2141.000000	35.789096
2140.000000	35.894928
2139.000000	36.313282
2138.000000	36.138292
2137.000000	36.293873
2136.000000	36.370624
2135.000000	36.542729
2134.000000	36.675854
2133.000000	36.690706
2132.000000	36.760821
2131.000000	36.950246
2130.000000	37.012505
2129.000000	37.152530
2128.000000	37.082235
2127.000000	37.170416
2126.000000	37.208117
2125.000000	37.181369
2124.000000	37.357882
2123.000000	37.365799
2122.000000	37.493586
2121.000000	37.445485
2120.000000	37.357439
2119.000000	37.568897
2118.000000	37.695768
2117.000000	37.624503
2116.000000	37.839175
2115.000000	37.890056
2114.000000	37.736132
2113.000000	37.702835
2112.000000	37.632517
2111.000000	37.742044
2110.000000	37.785342
2109.000000	37.829745
2108.000000	37.723423
2107.000000	37.848867
2106.000000	37.768788
2105.000000	37.776876
2104.000000	37.825306
2103.000000	37.993681
2102.000000	37.964219
2101.000000	37.970591
2100.000000	37.949466
2099.000000	37.961731
2098.000000	37.928205
2097.000000	37.860699
2096.000000	37.859003
2095.000000	37.958930
2094.000000	37.978370
2093.000000	37.880107
2092.000000	37.855834
2091.000000	37.835284
2090.000000	37.757438
2089.000000	37.777977
2088.000000	37.753626
2087.000000	37.735735
2086.000000	37.645055
2085.000000	37.604740
2084.000000	37.501058
2083.000000	37.282449
2082.000000	37.244939
2081.000000	37.306773
2080.000000	37.113334
2079.000000	36.990039
2078.000000	36.951099
2077.000000	36.866597
2076.000000	36.692332
2075.000000	36.636082
2074.000000	36.606020
2073.000000	36.372994
2072.000000	36.208148
2071.000000	36.049379
2070.000000	35.902123
2069.000000	35.775461
2068.000000	35.555152
2067.000000	35.401574
2066.000000	35.195164
2065.000000	35.039461
2064.000000	34.885854
2063.000000	34.641508
2062.000000	34.491087
2061.000000	34.302732
2060.000000	34.146007
2059.000000	33.927724
2058.000000	33.730598
2057.000000	33.585662
2056.000000	33.435697
2055.000000	33.276774
2054.000000	33.074849
2053.000000	32.884251
2052.000000	32.759014
2051.000000	32.632584
2050.000000	32.525722
2049.000000	32.369010
2048.000000	32.280720
2047.000000	32.190487
2046.000000	32.034755
2045.000000	31.953657
2044.000000	31.910583
2043.000000	31.936126
2042.000000	31.993725
2041.000000	32.053184
2040.000000	32.004488
2039.000000	31.967671
2038.000000	32.028416
2037.000000	32.143283
2036.000000	32.207779
2035.000000	32.267604
2034.000000	32.399907
2033.000000	32.474060
2032.000000	32.528902
2031.000000	32.700034
2030.000000	32.828814
2029.000000	32.986727
2028.000000	33.119855
2027.000000	33.214700
2026.000000	33.357029
2025.000000	33.437239
2024.000000	33.479189
2023.000000	33.549807
2022.000000	33.588858
2021.000000	33.598578
2020.000000	33.660780
2019.000000	33.717492
2018.000000	33.724810
2017.000000	33.726311
2016.000000	33.719924
2015.000000	33.699528
2014.000000	33.700996
2013.000000	33.659173
2012.000000	33.633691
2011.000000	33.604117
2010.000000	33.476887
2009.000000	33.398345
2008.000000	33.316872
2007.000000	33.230485
2006.000000	33.135458
2005.000000	33.026198
2004.000000	32.883195
2003.000000	32.760314
2002.000000	32.652555
2001.000000	32.520656
2000.000000	32.372940
1999.000000	32.250091
1998.000000	32.147160
1997.000000	32.041921
1996.000000	31.926541
1995.000000	31.793654
1994.000000	31.674196
1993.000000	31.547511
1992.000000	31.411816
1991.000000	31.257905
1990.000000	31.137203
1989.000000	30.992857
1988.000000	30.861634
1987.000000	30.721031
1986.000000	30.558639
1985.000000	30.438605
1984.000000	30.318371
1983.000000	30.187650
1982.000000	30.036805
1981.000000	29.908679
1980.000000	29.772404
1979.000000	29.608816
1978.000000	29.527196
1977.000000	29.339108
1976.000000	29.206256
1975.000000	29.096516
1974.000000	28.926975
1973.000000	28.784190
1972.000000	28.668338
1971.000000	28.527920
1970.000000	28.433052
1969.000000	28.285759
1968.000000	28.164052
1967.000000	28.059089
1966.000000	27.971105
1965.000000	27.833381
1964.000000	27.743482
1963.000000	27.551835
1962.000000	27.427633
1961.000000	27.333020
1960.000000	27.249323
1959.000000	27.135498
1958.000000	27.019800
1957.000000	26.928904
1956.000000	26.855015
1955.000000	26.751427
1954.000000	26.645577
1953.000000	26.563387
1952.000000	26.514319
1951.000000	26.503155
1950.000000	26.353151
1949.000000	26.284218
1948.000000	26.301491
1947.000000	26.288136
1946.000000	26.204613
1945.000000	26.166147
1944.000000	26.178109
1943.000000	26.237635
1942.000000	26.180569
1941.000000	26.276223
1940.000000	26.390436
1939.000000	26.363091
1938.000000	26.411364
1937.000000	26.522981
1936.000000	26.663654
1935.000000	26.761985
1934.000000	26.805035
1933.000000	26.978860
1932.000000	27.150524
1931.000000	27.291545
1930.000000	27.523410
1929.000000	27.706990
1928.000000	27.936817
1927.000000	28.224305
1926.000000	28.400821
1925.000000	28.663348
1924.000000	28.927677
1923.000000	29.175626
1922.000000	29.529515
1921.000000	29.867363
1920.000000	30.189112
1919.000000	30.539600
1918.000000	30.875546
1917.000000	31.262706
1916.000000	31.593544
1915.000000	32.113823
1914.000000	32.503481
1913.000000	33.046278
1912.000000	33.406361
1911.000000	33.899196
1910.000000	34.403333
1909.000000	34.900904
1908.000000	35.398140
1907.000000	36.008347
1906.000000	36.597378
1905.000000	37.091220
1904.000000	37.765490
1903.000000	38.348743
1902.000000	39.005521
1901.000000	39.586052
1900.000000	40.288871
1899.000000	40.975814
1898.000000	41.595976
1897.000000	42.121196
1896.000000	42.794496
1895.000000	43.465375
1894.000000	44.075195
1893.000000	44.728350
1892.000000	45.340501
1891.000000	45.855038
1890.000000	46.482687
1889.000000	47.066427
1888.000000	47.545266
1887.000000	48.100374
1886.000000	48.630468
1885.000000	49.173710
1884.000000	49.644849
1883.000000	50.142033
1882.000000	50.643934
1881.000000	51.125204
1880.000000	51.494931
1879.000000	51.879416
1878.000000	52.340041
1877.000000	52.686446
1876.000000	53.021128
1875.000000	53.463307
1874.000000	53.765544
1873.000000	54.087161
1872.000000	54.374851
1871.000000	54.626731
1870.000000	54.858281
1869.000000	55.113272
1868.000000	55.302895
1867.000000	55.420244
1866.000000	55.590368
1865.000000	55.755632
1864.000000	55.928776
1863.000000	56.073092
1862.000000	56.161249
1861.000000	56.244624
1860.000000	56.324772
1859.000000	56.415870
1858.000000	56.443601
1857.000000	56.519118
1856.000000	56.626198
1855.000000	56.655510
1854.000000	56.690642
1853.000000	56.787954
1852.000000	56.811241
1851.000000	56.831301
1850.000000	56.833039
1849.000000	56.882761
1848.000000	56.860162
1847.000000	56.912640
1846.000000	56.869965
1845.000000	56.836323
1844.000000	56.816677
1843.000000	56.804640
1842.000000	56.803214
1841.000000	56.784573
1840.000000	56.732088
1839.000000	56.721236
1838.000000	56.679307
1837.000000	56.628639
1836.000000	56.610234
1835.000000	56.532242
1834.000000	56.485231
1833.000000	56.475352
1832.000000	56.439003
1831.000000	56.368725
1830.000000	56.267264
1829.000000	56.223777
1828.000000	56.214592
1827.000000	56.181897
1826.000000	56.138295
1825.000000	56.116856
1824.000000	56.050300
1823.000000	56.012949
1822.000000	55.969730
1821.000000	55.927753
1820.000000	55.909112
1819.000000	55.833688
1818.000000	55.795594
1817.000000	55.766195
1816.000000	55.705543
1815.000000	55.655732
1814.000000	55.610698
1813.000000	55.571626
1812.000000	55.541060
1811.000000	55.509245
1810.000000	55.463886
1809.000000	55.436819
1808.000000	55.386395
1807.000000	55.323306
1806.000000	55.278652
1805.000000	55.213239
1804.000000	55.164160
1803.000000	55.140772
1802.000000	55.109777
1801.000000	55.082174
1800.000000	55.037387
1799.000000	54.980800
1798.000000	54.938940
1797.000000	54.933487
1796.000000	54.911578
1795.000000	54.856612
1794.000000	54.846056
1793.000000	54.812545
1792.000000	54.757226
1791.000000	54.746369
1790.000000	54.730218
1789.000000	54.686336
1788.000000	54.669682
1787.000000	54.642741
1786.000000	54.624726
1785.000000	54.602824
1784.000000	54.541141
1783.000000	54.497352
1782.000000	54.458785
1781.000000	54.427697
1780.000000	54.391124
1779.000000	54.337331
1778.000000	54.298142
1777.000000	54.222196
1776.000000	54.182427
1775.000000	54.127750
1774.000000	54.064919
1773.000000	54.043870
1772.000000	53.983412
1771.000000	53.906252
1770.000000	53.857537
1769.000000	53.800448
1768.000000	53.759210
1767.000000	53.691723
1766.000000	53.651514
1765.000000	53.584374
1764.000000	53.522457
1763.000000	53.460890
1762.000000	53.399914
1761.000000	53.345620
1760.000000	53.293013
1759.000000	53.243590
1758.000000	53.198117
1757.000000	53.121826
1756.000000	53.074365
1755.000000	53.013134
1754.000000	52.954112
1753.000000	52.905164
1752.000000	52.853858
1751.000000	52.819955
1750.000000	52.764473
1749.000000	52.697464
1748.000000	52.633350
1747.000000	52.576721
1746.000000	52.514006
1745.000000	52.417328
1744.000000	52.341822
1743.000000	52.322186
1742.000000	52.246543
1741.000000	52.202968
1740.000000	52.150754
1739.000000	52.081687
1738.000000	52.031729
1737.000000	52.011590
1736.000000	51.991794
1735.000000	52.002850
1734.000000	51.988590
1733.000000	51.956147
1732.000000	51.973932
1731.000000	51.989702
1730.000000	51.976207
1729.000000	52.043308
1728.000000	52.090140
1727.000000	52.159167
1726.000000	52.205905
1725.000000	52.309135
1724.000000	52.396481
1723.000000	52.487915
1722.000000	52.599112
1721.000000	52.692728
1720.000000	52.807541
1719.000000	52.956441
1718.000000	53.049783
1717.000000	53.167138
1716.000000	53.290801
1715.000000	53.381032
1714.000000	53.482760
1713.000000	53.632572
1712.000000	53.684668
1711.000000	53.788118
1710.000000	53.864911
1709.000000	53.936745
1708.000000	53.988498
1707.000000	54.061378
1706.000000	54.083605
1705.000000	54.143754
1704.000000	54.209475
1703.000000	54.211189
1702.000000	54.207485
1701.000000	54.276308
1700.000000	54.268591
1699.000000	54.246473
1698.000000	54.268505
1697.000000	54.327919
1696.000000	54.313607
1695.000000	54.325390
1694.000000	54.362476
1693.000000	54.438265
1692.000000	54.498746
1691.000000	54.556987
1690.000000	54.664777
1689.000000	54.705958
1688.000000	54.844289
1687.000000	54.926902
1686.000000	55.066774
1685.000000	55.195293
1684.000000	55.375943
1683.000000	55.535433
1682.000000	55.673164
1681.000000	55.870702
1680.000000	56.028318
1679.000000	56.229126
1678.000000	56.416477
1677.000000	56.582230
1676.000000	56.773394
1675.000000	56.986756
1674.000000	57.143494
1673.000000	57.327836
1672.000000	57.500846
1671.000000	57.702201
1670.000000	57.830319
1669.000000	58.035606
1668.000000	58.159322
1667.000000	58.319231
1666.000000	58.417073
1665.000000	58.557800
1664.000000	58.649828
1663.000000	58.716951
1662.000000	58.808397
1661.000000	58.914714
1660.000000	58.996020
1659.000000	59.039967
1658.000000	59.086680
1657.000000	59.118588
1656.000000	59.175894
1655.000000	59.220546
1654.000000	59.237877
1653.000000	59.265543
1652.000000	59.252776
1651.000000	59.267499
1650.000000	59.272704
1649.000000	59.252993
1648.000000	59.237941
1647.000000	59.217550
1646.000000	59.222174
1645.000000	59.194623
1644.000000	59.174627
1643.000000	59.164616
1642.000000	59.134981
1641.000000	59.098966
1640.000000	59.072378
1639.000000	59.034544
1638.000000	59.008762
1637.000000	58.964121
1636.000000	58.912741
1635.000000	58.857524
1634.000000	58.814495
1633.000000	58.770792
1632.000000	58.737874
1631.000000	58.698227
1630.000000	58.641367
1629.000000	58.567836
1628.000000	58.545026
1627.000000	58.477311
1626.000000	58.428016
1625.000000	58.375786
1624.000000	58.322029
1623.000000	58.247164
1622.000000	58.191338
1621.000000	58.133750
1620.000000	58.053907
1619.000000	57.980651
1618.000000	57.922155
1617.000000	57.887970
1616.000000	57.835369
1615.000000	57.733618
1614.000000	57.650152
1613.000000	57.597644
1612.000000	57.533435
1611.000000	57.453360
1610.000000	57.386366
1609.000000	57.317801
1608.000000	57.246031
1607.000000	57.169910
1606.000000	57.090530
1605.000000	57.001564
1604.000000	56.908626
1603.000000	56.850186
1602.000000	56.793893
1601.000000	56.704878
1600.000000	56.628755
1599.000000	56.548163
1598.000000	56.485098
1597.000000	56.434966
1596.000000	56.351638
1595.000000	56.277004
1594.000000	56.206788
1593.000000	56.135482
1592.000000	56.050195
1591.000000	55.974359
1590.000000	55.925594
1589.000000	55.857787
1588.000000	55.792226
1587.000000	55.744208
1586.000000	55.690171
1585.000000	55.621607
1584.000000	55.575262
1583.000000	55.521534
1582.000000	55.449488
1581.000000	55.396784
1580.000000	55.350747
1579.000000	55.289636
1578.000000	55.220952
1577.000000	55.158382
1576.000000	55.096637
1575.000000	55.047775
1574.000000	54.983497
1573.000000	54.920657
1572.000000	54.861036
1571.000000	54.810537
1570.000000	54.734045
1569.000000	54.671935
1568.000000	54.639915
1567.000000	54.594782
1566.000000	54.545914
1565.000000	54.502615
1564.000000	54.462273
1563.000000	54.442146
1562.000000	54.389615
1561.000000	54.341716
1560.000000	54.303784
1559.000000	54.275801
1558.000000	54.244424
1557.000000	54.214145
1556.000000	54.170398
1555.000000	54.144818
1554.000000	54.114676
1553.000000	54.068203
1552.000000	54.033503
1551.000000	53.998179
1550.000000	53.970390
1549.000000	53.920783
1548.000000	53.851244
1547.000000	53.757454
1546.000000	53.697517
1545.000000	53.616870
1544.000000	53.537156
1543.000000	53.444491
1542.000000	53.342553
1541.000000	53.258215
1540.000000	53.156225
1539.000000	53.068125
1538.000000	52.954268
1537.000000	52.849150
1536.000000	52.737706
1535.000000	52.644182
1534.000000	52.527987
1533.000000	52.429755
1532.000000	52.329465
1531.000000	52.231257
1530.000000	52.139052
1529.000000	52.041760
1528.000000	51.954906
1527.000000	51.872274
1526.000000	51.810834
1525.000000	51.718936
1524.000000	51.642222
1523.000000	51.564696
1522.000000	51.480015
1521.000000	51.433020
1520.000000	51.394424
1519.000000	51.339986
1518.000000	51.272004
1517.000000	51.226965
1516.000000	51.205728
1515.000000	51.146656
1514.000000	51.094522
1513.000000	51.068898
1512.000000	51.029326
1511.000000	51.001862
1510.000000	50.953600
1509.000000	50.917022
1508.000000	50.889869
1507.000000	50.843975
1506.000000	50.805047
1505.000000	50.805731
1504.000000	50.783403
1503.000000	50.760275
1502.000000	50.741568
1501.000000	50.720474
1500.000000	50.724696
1499.000000	50.703219
1498.000000	50.677918
1497.000000	50.672983
1496.000000	50.676771
1495.000000	50.692674
1494.000000	50.670889
1493.000000	50.686179
1492.000000	50.700003
1491.000000	50.729760
1490.000000	50.754267
1489.000000	50.777215
1488.000000	50.785660
1487.000000	50.808236
1486.000000	50.842382
1485.000000	50.875616
1484.000000	50.911305
1483.000000	50.946033
1482.000000	50.973359
1481.000000	51.015301
1480.000000	51.059327
1479.000000	51.107350
1478.000000	51.132633
1477.000000	51.166551
1476.000000	51.219401
1475.000000	51.253581
1474.000000	51.285987
1473.000000	51.318730
1472.000000	51.377156
1471.000000	51.410026
1470.000000	51.453014
1469.000000	51.502299
1468.000000	51.575569
1467.000000	51.587660
1466.000000	51.622389
1465.000000	51.681784
1464.000000	51.719096
1463.000000	51.759549
1462.000000	51.816242
1461.000000	51.853088
1460.000000	51.911540
1459.000000	51.974410
1458.000000	52.037170
1457.000000	52.086358
1456.000000	52.167843
1455.000000	52.230702
1454.000000	52.295680
1453.000000	52.365531
1452.000000	52.472835
1451.000000	52.544205
1450.000000	52.642183
1449.000000	52.726732
1448.000000	52.816063
1447.000000	52.908145
1446.000000	52.999847
1445.000000	53.083908
1444.000000	53.190655
1443.000000	53.299074
1442.000000	53.413128
1441.000000	53.518542
1440.000000	53.651207
1439.000000	53.778418
1438.000000	53.911247
1437.000000	54.024720
1436.000000	54.166839
1435.000000	54.307207
1434.000000	54.466069
1433.000000	54.586699
1432.000000	54.745592
1431.000000	54.914395
1430.000000	55.086287
1429.000000	55.258996
1428.000000	55.414641
1427.000000	55.597864
1426.000000	55.785392
1425.000000	55.967392
1424.000000	56.155273
1423.000000	56.360758
1422.000000	56.582830
1421.000000	56.788603
1420.000000	56.999636
1419.000000	57.214286
1418.000000	57.430174
1417.000000	57.637905
1416.000000	57.858749
1415.000000	58.106697
1414.000000	58.340595
1413.000000	58.567140
1412.000000	58.808193
1411.000000	59.065363
1410.000000	59.289365
1409.000000	59.519972
1408.000000	59.757240
1407.000000	60.005944
1406.000000	60.251567
1405.000000	60.480467
1404.000000	60.695190
1403.000000	60.925220
1402.000000	61.156896
1401.000000	61.376188
1400.000000	61.600126
1399.000000	61.812391
1398.000000	62.014303
1397.000000	62.215172
1396.000000	62.403084
1395.000000	62.600363
1394.000000	62.792332
1393.000000	62.984397
1392.000000	63.147789
1391.000000	63.317740
1390.000000	63.480397
1389.000000	63.631452
1388.000000	63.798478
1387.000000	63.935182
1386.000000	64.051754
1385.000000	64.182546
1384.000000	64.319977
1383.000000	64.450861
1382.000000	64.544531
1381.000000	64.652364
1380.000000	64.754175
1379.000000	64.839471
1378.000000	64.933168
1377.000000	65.025209
1376.000000	65.096426
1375.000000	65.158943
1374.000000	65.237812
1373.000000	65.292696
1372.000000	65.330916
1371.000000	65.413565
1370.000000	65.474847
1369.000000	65.514549
1368.000000	65.561429
1367.000000	65.602867
1366.000000	65.672307
1365.000000	65.730274
1364.000000	65.773108
1363.000000	65.828682
1362.000000	65.893450
1361.000000	65.946484
1360.000000	65.997398
1359.000000	66.053269
1358.000000	66.129217
1357.000000	66.182434
1356.000000	66.230607
1355.000000	66.319835
1354.000000	66.389711
1353.000000	66.433369
1352.000000	66.472568
1351.000000	66.530577
1350.000000	66.601319
1349.000000	66.666801
1348.000000	66.717538
1347.000000	66.772707
1346.000000	66.842498
1345.000000	66.905757
1344.000000	66.944865
1343.000000	67.003487
1342.000000	67.065152
1341.000000	67.109969
1340.000000	67.158293
1339.000000	67.207584
1338.000000	67.277136
1337.000000	67.325953
1336.000000	67.360237
1335.000000	67.400255
1334.000000	67.448460
1333.000000	67.498298
1332.000000	67.594289
1331.000000	67.651587
1330.000000	67.705167
1329.000000	67.713882
1328.000000	67.739391
1327.000000	67.763755
1326.000000	67.777819
1325.000000	67.784360
1324.000000	67.836087
1323.000000	67.855432
1322.000000	67.902091
1321.000000	67.938799
1320.000000	67.941358
1319.000000	67.977703
1318.000000	68.005146
1317.000000	68.015962
1316.000000	68.015292
1315.000000	68.059195
1314.000000	68.087018
1313.000000	68.106267
1312.000000	68.117514
1311.000000	68.124945
1310.000000	68.127059
1309.000000	68.165916
1308.000000	68.174332
1307.000000	68.180956
1306.000000	68.177007
1305.000000	68.249767
1304.000000	68.261616
1303.000000	68.243258
1302.000000	68.242861
1301.000000	68.275474
1300.000000	68.264214
1299.000000	68.285702
1298.000000	68.313264
1297.000000	68.292068
1296.000000	68.298405
1295.000000	68.297399
1294.000000	68.293470
1293.000000	68.286659
1292.000000	68.310902
1291.000000	68.307047
1290.000000	68.296571
1289.000000	68.266021
1288.000000	68.269210
1287.000000	68.256242
1286.000000	68.255777
1285.000000	68.267647
1284.000000	68.292634
1283.000000	68.282748
1282.000000	68.265985
1281.000000	68.282622
1280.000000	68.269389
1279.000000	68.264536
1278.000000	68.272336
1277.000000	68.281142
1276.000000	68.255649
1275.000000	68.253576
1274.000000	68.266806
1273.000000	68.257728
1272.000000	68.269723
1271.000000	68.250395
1270.000000	68.257862
1269.000000	68.267781
1268.000000	68.290392
1267.000000	68.293868
1266.000000	68.279350
1265.000000	68.312011
1264.000000	68.305891
1263.000000	68.316000
1262.000000	68.329052
1261.000000	68.371840
1260.000000	68.377664
1259.000000	68.363247
1258.000000	68.364389
1257.000000	68.364673
1256.000000	68.372653
1255.000000	68.368754
1254.000000	68.386871
1253.000000	68.402384
1252.000000	68.396356
1251.000000	68.414499
1250.000000	68.390237
1249.000000	68.389134
1248.000000	68.387635
1247.000000	68.372793
1246.000000	68.360975
1245.000000	68.356044
1244.000000	68.328238
1243.000000	68.323694
1242.000000	68.330536
1241.000000	68.322556
1240.000000	68.304783
1239.000000	68.289298
1238.000000	68.250974
1237.000000	68.251831
1236.000000	68.215202
1235.000000	68.187176
1234.000000	68.169850
1233.000000	68.172700
1232.000000	68.149729
1231.000000	68.126172
1230.000000	68.088879
1229.000000	68.095304
1228.000000	68.076979
1227.000000	68.051534
1226.000000	68.047317
1225.000000	68.033269
1224.000000	68.016312
1223.000000	67.963109
1222.000000	67.943805
1221.000000	67.929342
1220.000000	67.906777
1219.000000	67.884798
1218.000000	67.865092
1217.000000	67.836317
1216.000000	67.825440
1215.000000	67.818470
1214.000000	67.799671
1213.000000	67.774668
1212.000000	67.728657
1211.000000	67.729630
1210.000000	67.694135
1209.000000	67.646025
1208.000000	67.622275
1207.000000	67.638019
1206.000000	67.579979
1205.000000	67.538573
1204.000000	67.538494
1203.000000	67.491027
1202.000000	67.430580
1201.000000	67.416973
1200.000000	67.418487
1199.000000	67.356480
1198.000000	67.319940
1197.000000	67.305703
1196.000000	67.288682
1195.000000	67.282446
1194.000000	67.265843
1193.000000	67.242103
1192.000000	67.219295
1191.000000	67.229235
1190.000000	67.191862
1189.000000	67.134106
1188.000000	67.141779
1187.000000	67.138280
1186.000000	67.131314
1185.000000	67.134936
1184.000000	67.140915
1183.000000	67.153958
1182.000000	67.173213
1181.000000	67.201746
1180.000000	67.234189
1179.000000	67.248545
1178.000000	67.270536
1177.000000	67.309792
1176.000000	67.344313
1175.000000	67.389823
1174.000000	67.438930
1173.000000	67.497642
1172.000000	67.549036
1171.000000	67.590188
1170.000000	67.665286
1169.000000	67.722417
1168.000000	67.770107
1167.000000	67.811847
1166.000000	67.865350
1165.000000	67.944264
1164.000000	68.024748
1163.000000	68.086776
1162.000000	68.151419
1161.000000	68.232357
1160.000000	68.297686
1159.000000	68.357570
1158.000000	68.429689
1157.000000	68.496013
1156.000000	68.543329
1155.000000	68.610297
1154.000000	68.669373
1153.000000	68.708241
1152.000000	68.760272
1151.000000	68.824087
1150.000000	68.886500
1149.000000	68.915331
1148.000000	68.943981
1147.000000	69.004907
1146.000000	69.054860
1145.000000	69.102458
1144.000000	69.154063
1143.000000	69.188990
1142.000000	69.219163
1141.000000	69.258166
1140.000000	69.306821
1139.000000	69.349768
1138.000000	69.390781
1137.000000	69.415636
1136.000000	69.443237
1135.000000	69.469548
1134.000000	69.502598
1133.000000	69.520918
1132.000000	69.554907
1131.000000	69.587677
1130.000000	69.606184
1129.000000	69.622988
1128.000000	69.643979
1127.000000	69.680172
1126.000000	69.710711
1125.000000	69.731803
1124.000000	69.757141
1123.000000	69.759869
1122.000000	69.737801
1121.000000	69.744809
1120.000000	69.770799
1119.000000	69.795469
1118.000000	69.812632
1117.000000	69.813179
1116.000000	69.828549
1115.000000	69.830081
1114.000000	69.828762
1113.000000	69.845030
1112.000000	69.847310
1111.000000	69.860527
1110.000000	69.859852
1109.000000	69.866313
1108.000000	69.868218
1107.000000	69.865498
1106.000000	69.877807
1105.000000	69.885834
1104.000000	69.895273
1103.000000	69.892193
1102.000000	69.886624
1101.000000	69.860219
1100.000000	69.859168
1099.000000	69.868664
1098.000000	69.876353
1097.000000	69.887897
1096.000000	69.906646
1095.000000	69.913602
1094.000000	69.909560
1093.000000	69.871700
1092.000000	69.883009
1091.000000	69.891115
1090.000000	69.869451
1089.000000	69.894299
1088.000000	69.895663
1087.000000	69.881552
1086.000000	69.869943
1085.000000	69.882561
1084.000000	69.862925
1083.000000	69.849576
1082.000000	69.863098
1081.000000	69.844685
1080.000000	69.852060
1079.000000	69.839706
1078.000000	69.844163
1077.000000	69.868354
1076.000000	69.858521
1075.000000	69.814792
1074.000000	69.823280
1073.000000	69.835337
1072.000000	69.814780
1071.000000	69.819008
1070.000000	69.828160
1069.000000	69.788151
1068.000000	69.802243
1067.000000	69.798810
1066.000000	69.793186
1065.000000	69.802602
1064.000000	69.787230
1063.000000	69.743362
1062.000000	69.765243
1061.000000	69.761407
1060.000000	69.721958
1059.000000	69.730792
1058.000000	69.748603
1057.000000	69.730359
1056.000000	69.701389
1055.000000	69.692678
1054.000000	69.700520
1053.000000	69.715666
1052.000000	69.710976
1051.000000	69.714889
1050.000000	69.702159
1049.000000	69.684320
1048.000000	69.688748
1047.000000	69.672545
1046.000000	69.663856
1045.000000	69.657242
1044.000000	69.653313
1043.000000	69.648904
1042.000000	69.642037
1041.000000	69.651426
1040.000000	69.651080
1039.000000	69.624008
1038.000000	69.626695
1037.000000	69.610222
1036.000000	69.625167
1035.000000	69.619393
1034.000000	69.619750
1033.000000	69.588241
1032.000000	69.603535
1031.000000	69.619466
1030.000000	69.589374
1029.000000	69.583082
1028.000000	69.608115
1027.000000	69.591797
1026.000000	69.591754
1025.000000	69.576879
1024.000000	69.588152
1023.000000	69.567790
1022.000000	69.557232
1021.000000	69.565128
1020.000000	69.561968
1019.000000	69.567829
1018.000000	69.570605
1017.000000	69.577628
1016.000000	69.578039
1015.000000	69.574989
1014.000000	69.557701
1013.000000	69.580290
1012.000000	69.562459
1011.000000	69.564023
1010.000000	69.558728
1009.000000	69.554185
1008.000000	69.558025
1007.000000	69.559047
1006.000000	69.569708
1005.000000	69.561655
1004.000000	69.565547
1003.000000	69.570851
1002.000000	69.565960
1001.000000	69.588488
1000.000000	69.566593
999.000000	69.578340
998.000000	69.592455
997.000000	69.583320
996.000000	69.584798
995.000000	69.593891
994.000000	69.597120
993.000000	69.613386
992.000000	69.591655
991.000000	69.610644
990.000000	69.611730
989.000000	69.598467
988.000000	69.608332
987.000000	69.632190
986.000000	69.644642
985.000000	69.634553
984.000000	69.625921
983.000000	69.640739
982.000000	69.647639
981.000000	69.658316
980.000000	69.647513
979.000000	69.660088
978.000000	69.660774
977.000000	69.665765
976.000000	69.681190
975.000000	69.699100
974.000000	69.694916
973.000000	69.685980
972.000000	69.717867
971.000000	69.738394
970.000000	69.729818
969.000000	69.728891
968.000000	69.731868
967.000000	69.748615
966.000000	69.764520
965.000000	69.764521
964.000000	69.779967
963.000000	69.788290
962.000000	69.799603
961.000000	69.813002
960.000000	69.820847
959.000000	69.841672
958.000000	69.847968
957.000000	69.860029
956.000000	69.859067
955.000000	69.865889
954.000000	69.867313
953.000000	69.863837
952.000000	69.876229
951.000000	69.891948
950.000000	69.887947
949.000000	69.883655
948.000000	69.893278
947.000000	69.913015
946.000000	69.921657
945.000000	69.938331
944.000000	69.942236
943.000000	69.923114
942.000000	69.934647
941.000000	69.944371
940.000000	69.957207
939.000000	69.952989
938.000000	69.929688
937.000000	69.956752
936.000000	69.971512
935.000000	69.956272
934.000000	69.948635
933.000000	69.964954
932.000000	69.985866
931.000000	69.972477
930.000000	69.956762
929.000000	69.967000
928.000000	69.962002
927.000000	69.944762
926.000000	69.935928
925.000000	69.939336
924.000000	69.955646
923.000000	69.966872
922.000000	69.963138
921.000000	69.943226
920.000000	69.926625
919.000000	69.933390
918.000000	69.963022
917.000000	69.978246
916.000000	69.948948
915.000000	69.892926
914.000000	69.939467
913.000000	69.946626
912.000000	69.927945
911.000000	69.902356
910.000000	69.928821
909.000000	69.959705
908.000000	69.959467
907.000000	69.951805
906.000000	69.926494
905.000000	69.992689
904.000000	69.997993
903.000000	69.968435
902.000000	70.016765
901.000000	70.003555
900.000000	70.002566
899.000000	70.011378
898.000000	70.022442
897.000000	70.014627
896.000000	69.992664
895.000000	70.016107
894.000000	70.076576
893.000000	70.069234
892.000000	70.038643
891.000000	70.025585
890.000000	70.090657
889.000000	70.094275
888.000000	70.014173
887.000000	70.047312
886.000000	70.108241
885.000000	70.159035
884.000000	70.091060
883.000000	70.085464
882.000000	70.025570
881.000000	70.091941
880.000000	70.118866
879.000000	70.120333
878.000000	70.149547
877.000000	70.046158
876.000000	70.134865
875.000000	70.118241
874.000000	70.166559
873.000000	70.093718
872.000000	70.055041
871.000000	70.102397
870.000000	70.081671
869.000000	70.169671
868.000000	70.165606
867.000000	70.077396
866.000000	70.130949
865.000000	70.147625
864.000000	70.161174
863.000000	70.095159
862.000000	70.179653
861.000000	70.114251
860.000000	70.224660
859.000000	69.639644
858.000000	69.425965
857.000000	70.266133
856.000000	69.905989
855.000000	69.982712
854.000000	69.742588
853.000000	69.805078
852.000000	69.759605
851.000000	70.365600
850.000000	70.061366
849.000000	69.851928
848.000000	69.507156
847.000000	70.103358
846.000000	69.696000
845.000000	69.874206
844.000000	69.825886
843.000000	69.704011
842.000000	69.939881
841.000000	69.726766
840.000000	70.044625
839.000000	69.833044
838.000000	70.013276
837.000000	69.871792
836.000000	69.674187
835.000000	69.817684
834.000000	69.962045
833.000000	69.644733
832.000000	69.733689
831.000000	69.844352
830.000000	69.845812
829.000000	69.905722
828.000000	69.746726
827.000000	69.544427
826.000000	69.695607
825.000000	69.599733
824.000000	69.682347
823.000000	69.753038
822.000000	69.871341
821.000000	69.716861
820.000000	69.829412
819.000000	69.805818
818.000000	69.932680
817.000000	69.885811
816.000000	69.857451
815.000000	69.857154
814.000000	70.059830
813.000000	69.653210
812.000000	69.629275
811.000000	69.853319
810.000000	69.683369
809.000000	69.613251
808.000000	69.887196
807.000000	69.785466
806.000000	69.738088
805.000000	69.815281
804.000000	69.826119
803.000000	69.962735
802.000000	69.845064
801.000000	69.867382
800.000000	69.997325
799.000000	69.934543
798.000000	69.771345
797.000000	69.819178
796.000000	69.901165
795.000000	69.695173
794.000000	69.866625
793.000000	69.770104
792.000000	69.861770
791.000000	69.915457
790.000000	69.790317
789.000000	69.807800
788.000000	69.807667
787.000000	69.748245
786.000000	69.877288
785.000000	69.862671
784.000000	69.922560
783.000000	69.885646
782.000000	69.915172
781.000000	69.932280
780.000000	69.823442
779.000000	69.968374
778.000000	69.752006
777.000000	69.792804
776.000000	69.801799
775.000000	69.868996
774.000000	69.926525
773.000000	69.881446
772.000000	69.896770
771.000000	69.915751
770.000000	69.767079
769.000000	69.880430
768.000000	69.854446
767.000000	69.895814
766.000000	69.821766
765.000000	69.890010
764.000000	69.907741
763.000000	69.834938
762.000000	69.920137
761.000000	69.862810
760.000000	69.902456
759.000000	69.916680
758.000000	69.906199
757.000000	69.940994
756.000000	69.917802
755.000000	69.919552
754.000000	69.817807
753.000000	70.000125
752.000000	69.930766
751.000000	69.881036
750.000000	69.878027
749.000000	69.806898
748.000000	69.792181
747.000000	69.858949
746.000000	69.864432
745.000000	69.878545
744.000000	69.923484
743.000000	69.911580
742.000000	69.901519
741.000000	69.869383
740.000000	69.903640
739.000000	69.823653
738.000000	69.831193
737.000000	69.881341
736.000000	69.842812
735.000000	69.936600
734.000000	69.941387
733.000000	69.941312
732.000000	69.928865
731.000000	69.847050
730.000000	69.879711
729.000000	69.898499
728.000000	69.902669
727.000000	69.975137
726.000000	69.929194
725.000000	69.840306
724.000000	69.865098
723.000000	69.865937
722.000000	69.812680
721.000000	69.888066
720.000000	69.924871
719.000000	69.871080
718.000000	69.860426
717.000000	69.955949
716.000000	69.952679
715.000000	69.983832
714.000000	69.949648
713.000000	69.891861
712.000000	69.895438
711.000000	69.932796
710.000000	69.940740
709.000000	69.914799
708.000000	69.904922
707.000000	69.894054
706.000000	69.871622
705.000000	69.897327
704.000000	69.948014
703.000000	69.871373
702.000000	69.878960
701.000000	69.954331
700.000000	69.955741
699.000000	69.900083
698.000000	69.941185
697.000000	69.992382
696.000000	69.965485
695.000000	69.963991
694.000000	69.942810
693.000000	69.880943
692.000000	69.889425
691.000000	69.986709
690.000000	70.009689
689.000000	69.975657
688.000000	69.948981
687.000000	69.888936
686.000000	69.909265
685.000000	69.928161
684.000000	69.925377
683.000000	69.926546
682.000000	69.906982
681.000000	69.867186
680.000000	69.887351
679.000000	69.956932
678.000000	69.959731
677.000000	69.993970
676.000000	69.910454
675.000000	69.915862
674.000000	69.995040
673.000000	70.017751
672.000000	70.086045
671.000000	70.083091
670.000000	69.980313
669.000000	69.961693
668.000000	69.990125
667.000000	70.036359
666.000000	70.055399
665.000000	69.991679
664.000000	69.934637
663.000000	70.019460
662.000000	69.955705
661.000000	70.032768
660.000000	70.054450
659.000000	69.979830
658.000000	70.011122
657.000000	70.058681
656.000000	70.041527
655.000000	69.945293
654.000000	70.036845
653.000000	70.042460
652.000000	69.993846
651.000000	69.994203
650.000000	69.963468
649.000000	70.026047
648.000000	69.912645
647.000000	69.974820
646.000000	69.994861
645.000000	69.915737
644.000000	69.934148
643.000000	69.956347
642.000000	69.966094
641.000000	70.023744
640.000000	70.018226
639.000000	69.996382
638.000000	69.959091
637.000000	70.014293
636.000000	70.035486
635.000000	70.000608
634.000000	70.025836
633.000000	70.020112
632.000000	70.002737
631.000000	69.982414
630.000000	69.995519
629.000000	70.005292
628.000000	69.984207
627.000000	69.987521
626.000000	69.958212
625.000000	69.947725
624.000000	69.972218
623.000000	70.018152
622.000000	70.000323
621.000000	69.974157
620.000000	69.968686
619.000000	69.925614
618.000000	69.897196
617.000000	69.936047
616.000000	69.942790
615.000000	69.930578
614.000000	69.971834
613.000000	69.945341
612.000000	69.982420
611.000000	69.972155
610.000000	69.940599
609.000000	69.954813
608.000000	70.002700
607.000000	69.925495
606.000000	69.907305
605.000000	69.870151
604.000000	69.832001
603.000000	69.900818
602.000000	69.896789
601.000000	69.900349
600.000000	69.887715
599.000000	69.883352
598.000000	69.904997
597.000000	69.868883
596.000000	69.803474
595.000000	69.825589
594.000000	69.857223
593.000000	69.849305
592.000000	69.871820
591.000000	69.788023
590.000000	69.787552
589.000000	69.823612
588.000000	69.804805
587.000000	69.806770
586.000000	69.736896
585.000000	69.868415
584.000000	69.797654
583.000000	69.704150
582.000000	69.772383
581.000000	69.745655
580.000000	69.715773
579.000000	69.779444
578.000000	69.636141
577.000000	69.653588
576.000000	69.694591
575.000000	69.621173
574.000000	69.711200
573.000000	69.792607
572.000000	69.703957
571.000000	69.630784
570.000000	69.656669
569.000000	69.630627
568.000000	69.605921
567.000000	69.613883
566.000000	69.570656
565.000000	69.570819
564.000000	69.564621
563.000000	69.527888
562.000000	69.486047
561.000000	69.371255
560.000000	69.453704
559.000000	69.405429
558.000000	69.400428
557.000000	69.355097
556.000000	69.392692
555.000000	69.393411
554.000000	69.318294
553.000000	69.323336
552.000000	69.293758
551.000000	69.264845
550.000000	69.269466
549.000000	69.297982
548.000000	69.280776
547.000000	69.226217
546.000000	69.203770
545.000000	69.175298
544.000000	69.190457
543.000000	69.151504
542.000000	69.083437
541.000000	69.160375
540.000000	69.089752
539.000000	69.094380
538.000000	69.107654
537.000000	69.051927
536.000000	68.996244
535.000000	69.003519
534.000000	68.964674
533.000000	68.986978
532.000000	68.955253
531.000000	68.888350
530.000000	68.865697
529.000000	68.896850
528.000000	68.845189
527.000000	68.859616
526.000000	68.817749
525.000000	68.757983
524.000000	68.718342
523.000000	68.751362
522.000000	68.728971
521.000000	68.689324
520.000000	68.634848
519.000000	68.587669
518.000000	68.573230
517.000000	68.570978
516.000000	68.556630
515.000000	68.506924
514.000000	68.436981
513.000000	68.485097
512.000000	68.406039
511.000000	68.413227
510.000000	68.370516
509.000000	68.306736
508.000000	68.262980
507.000000	68.226232
506.000000	68.207642
505.000000	68.202206
504.000000	68.121968
503.000000	68.103851
502.000000	68.085902
501.000000	68.042135
500.000000	67.996212
499.000000	67.995075
498.000000	67.956207
497.000000	67.922724
496.000000	67.883049
495.000000	67.827428
494.000000	67.773991
493.000000	67.744054
492.000000	67.692360
491.000000	67.681028
490.000000	67.619422
489.000000	67.566508
488.000000	67.523515
487.000000	67.511603
486.000000	67.443006
485.000000	67.450831
484.000000	67.504766
483.000000	67.407575
482.000000	67.334953
481.000000	67.276916
480.000000	67.208297
479.000000	67.169405
478.000000	67.143691
477.000000	67.066427
476.000000	67.017232
475.000000	66.964632
474.000000	66.892815
473.000000	66.853168
472.000000	66.813088
471.000000	66.743992
470.000000	66.633700
469.000000	66.579684
468.000000	66.530958
467.000000	66.492171
466.000000	66.405908
465.000000	66.338384
464.000000	66.278603
463.000000	66.186922
462.000000	66.131949
461.000000	66.035875
460.000000	65.957847
459.000000	65.904328
458.000000	65.848448
457.000000	65.779532
456.000000	65.677800
455.000000	65.618097
454.000000	65.559476
453.000000	65.471005
452.000000	65.399254
451.000000	65.288009
450.000000	65.164466
449.000000	65.108537
448.000000	65.000373
447.000000	64.895696
446.000000	64.813436
445.000000	64.676416
444.000000	64.589814
443.000000	64.519769
442.000000	64.417290
441.000000	64.265733
440.000000	64.150608
439.000000	64.048532
438.000000	63.865896
437.000000	63.778770
436.000000	63.646847
435.000000	63.517829
434.000000	63.382068
433.000000	63.267583
432.000000	63.144116
431.000000	63.035074
430.000000	62.897822
429.000000	62.742756
428.000000	62.624376
427.000000	62.463419
426.000000	62.335039
425.000000	62.180222
424.000000	61.960191
423.000000	61.855684
422.000000	61.702328
421.000000	61.529678
420.000000	61.387454
419.000000	61.194515
418.000000	60.975241
417.000000	60.816997
416.000000	60.660043
415.000000	60.453721
414.000000	60.293026
413.000000	60.137500
412.000000	59.940802
411.000000	59.753055
410.000000	59.596947
409.000000	59.412494
408.000000	59.167815
407.000000	58.961802
406.000000	58.765203
405.000000	58.552506
404.000000	58.386093
403.000000	58.130561
402.000000	57.906255
401.000000	57.645579
400.000000	57.531914
399.000000	57.311552
398.000000	57.063860
397.000000	56.793201
396.000000	56.569158
395.000000	56.306264
394.000000	56.094782
393.000000	55.818425
392.000000	55.634679
391.000000	55.377456
390.000000	55.155809
389.000000	54.922737
388.000000	54.678639
387.000000	54.428314
386.000000	54.097518
385.000000	53.957544
384.000000	53.622552
383.000000	53.357475
382.000000	53.000405
381.000000	52.704402
380.000000	52.514701
379.000000	52.149349
378.000000	51.775066
377.000000	51.614957
376.000000	51.418437
375.000000	50.980845
374.000000	50.663872
373.000000	50.370116
372.000000	50.098238
371.000000	49.754816
370.000000	49.564597
369.000000	49.209332
368.000000	48.823745
367.000000	48.465753
366.000000	48.225966
365.000000	47.683131
364.000000	47.361881
363.000000	47.213993
362.000000	46.793580
361.000000	46.640394
360.000000	46.101197
359.000000	45.737836
358.000000	45.395144
357.000000	45.108051
356.000000	44.877163
355.000000	44.635607
354.000000	44.375431
353.000000	43.934012
352.000000	43.694738
351.000000	43.439052
350.000000	43.038088
349.000000	42.648401
348.000000	42.261085
347.000000	42.102087
346.000000	41.634962
345.000000	41.391928
344.000000	40.890692
343.000000	40.529335
342.000000	39.969924
341.000000	39.701209
340.000000	39.127081
339.000000	38.658447
338.000000	38.315260
337.000000	37.729148
336.000000	37.134051
335.000000	36.640403
334.000000	36.221771
333.000000	35.273636
332.000000	34.811275
331.000000	34.425573
330.000000	33.569458
329.000000	32.864207
328.000000	32.343734
327.000000	31.836497
326.000000	31.255227
325.000000	30.725888
324.000000	30.342859
323.000000	29.959056
322.000000	29.355199
321.000000	29.146790
320.000000	28.847914
319.000000	28.548115
318.000000	28.067643
317.000000	27.820796
316.000000	27.575861
315.000000	27.264064
314.000000	27.107018
313.000000	26.892682
312.000000	26.524896
311.000000	26.406930
310.000000	26.223332
309.000000	25.955332
308.000000	25.872132
307.000000	25.540614
306.000000	25.391475
305.000000	25.252038
304.000000	25.186605
303.000000	24.924560
302.000000	24.737296
301.000000	24.581665
300.000000	24.370684
299.000000	24.145217
298.000000	23.750261
297.000000	23.533768
296.000000	23.140341
295.000000	22.767365
294.000000	22.181772
293.000000	21.706816
292.000000	20.994802
291.000000	20.196626
290.000000	19.438452
289.000000	18.615675
288.000000	18.064697
287.000000	17.617403
286.000000	17.376637
285.000000	17.220943
284.000000	17.201980
283.000000	17.125245
282.000000	17.023635
281.000000	17.146326
280.000000	17.099199
279.000000	17.213354
278.000000	17.240837
277.000000	17.376019
276.000000	17.614676
275.000000	17.856123
274.000000	18.048406
273.000000	18.173788
272.000000	18.424444
271.000000	18.427727
270.000000	18.545004
269.000000	18.629203
268.000000	18.887608
267.000000	19.121803
266.000000	19.313346
265.000000	19.501403
264.000000	19.748415
263.000000	19.992625
262.000000	20.339446
261.000000	20.547066
260.000000	20.684186
259.000000	20.910739
258.000000	21.287819
257.000000	21.641506
256.000000	21.999397
255.000000	22.136563
254.000000	22.207523
253.000000	22.342434
252.000000	22.359070
251.000000	22.356357
250.000000	22.261007
249.000000	22.016775
248.000000	21.567571
247.000000	21.062466
246.000000	20.412873
245.000000	19.735591
244.000000	19.130724
243.000000	18.509770
242.000000	17.939600
241.000000	17.457364
240.000000	17.074065
239.000000	16.762923
238.000000	16.576344
237.000000	16.523023
236.000000	16.515952
235.000000	16.540938
234.000000	16.587051
233.000000	16.569565
232.000000	16.630735
231.000000	16.680844
230.000000	16.740734
229.000000	16.800085
228.000000	16.833869
227.000000	16.926561
226.000000	17.089402
225.000000	17.237223
224.000000	17.381163
223.000000	17.610846
222.000000	17.884193
221.000000	18.238219
220.000000	18.511431
219.000000	18.841255
218.000000	19.146713
217.000000	19.480020
216.000000	19.886903
215.000000	20.245771
214.000000	20.766159
213.000000	21.193062
212.000000	21.602220
211.000000	22.152547
210.000000	22.592403
209.000000	23.112299
208.000000	23.857019
207.000000	24.453515
206.000000	25.054832
205.000000	25.752279
204.000000	26.514368
203.000000	27.427818
202.000000	28.208923
201.000000	28.860499
200.000000	29.327542
