PE UV       SUBTECH     SPECTRUM    ASCII       PEDS        4.00        
   -1
RDgChevreUK 32.Sample.asc
18/03/12
09:31:17.00
18/03/12
09:31:17.00
Administrator

200.000000
1
Lambda 750
750N8071901
PerkinElmer UV WinLab 6.0.4.0738 / 1.61.00 Lambda 900

0
0
3350/servo 860.8/2
0
0
UV/VIS
1
1
1
CommonBeamDepol,150mm sphere / downward view
0
0
0
0
Program
Program
3350/servo 860.8/2
3350/0.2 860.8/0.2
3350/0.2 860.8/0.2
0
1
 
 
 
0
 
860.8
319.2
860.8
Front
100
on
 
 
0
0
0
 
0
 
 
 
0
 
 
0
0
0
0
0
 
 
 
 
0
0


0
0
#HDR
-1
-1
#GR
nm
%R
1.0
0.0
2350.000000
-1.000000
2151
8
60.123139
8.805163
#DATA
2350.000000	28.325201
2349.000000	28.217975
2348.000000	28.391237
2347.000000	28.674468
2346.000000	28.771780
2345.000000	28.379009
2344.000000	28.504032
2343.000000	28.034700
2342.000000	28.219122
2341.000000	28.443347
2340.000000	28.627317
2339.000000	28.931885
2338.000000	28.844293
2337.000000	28.989070
2336.000000	28.620771
2335.000000	29.199093
2334.000000	29.156627
2333.000000	29.242001
2332.000000	29.207779
2331.000000	29.176841
2330.000000	29.215888
2329.000000	29.111794
2328.000000	29.219242
2327.000000	28.626996
2326.000000	28.820599
2325.000000	28.550343
2324.000000	29.175769
2323.000000	28.836849
2322.000000	28.729812
2321.000000	28.484843
2320.000000	28.843740
2319.000000	28.977430
2318.000000	29.003702
2317.000000	28.890499
2316.000000	28.849600
2315.000000	28.744889
2314.000000	28.603678
2313.000000	28.436623
2312.000000	28.358539
2311.000000	28.404859
2310.000000	28.448092
2309.000000	28.672246
2308.000000	28.389191
2307.000000	28.149564
2306.000000	28.160298
2305.000000	28.339687
2304.000000	28.112910
2303.000000	28.103832
2302.000000	27.943911
2301.000000	28.017268
2300.000000	27.852740
2299.000000	28.086882
2298.000000	27.854496
2297.000000	27.796986
2296.000000	27.913477
2295.000000	27.716006
2294.000000	27.540422
2293.000000	27.663964
2292.000000	27.450921
2291.000000	27.592834
2290.000000	27.558991
2289.000000	27.592941
2288.000000	27.538912
2287.000000	27.377538
2286.000000	27.262427
2285.000000	27.338801
2284.000000	27.375443
2283.000000	27.228703
2282.000000	27.103812
2281.000000	27.196648
2280.000000	27.147061
2279.000000	27.233269
2278.000000	27.302860
2277.000000	27.273103
2276.000000	27.509583
2275.000000	27.391414
2274.000000	27.407605
2273.000000	27.738343
2272.000000	27.680027
2271.000000	27.581933
2270.000000	27.493182
2269.000000	27.493204
2268.000000	27.581071
2267.000000	27.567550
2266.000000	27.584841
2265.000000	27.749967
2264.000000	27.926902
2263.000000	27.883208
2262.000000	28.003976
2261.000000	28.261328
2260.000000	28.335424
2259.000000	28.532009
2258.000000	28.622503
2257.000000	28.699775
2256.000000	28.787155
2255.000000	28.781716
2254.000000	28.909846
2253.000000	28.982683
2252.000000	29.172889
2251.000000	29.405901
2250.000000	29.528830
2249.000000	29.623541
2248.000000	29.719013
2247.000000	29.882275
2246.000000	30.081632
2245.000000	30.189378
2244.000000	30.166150
2243.000000	30.311429
2242.000000	30.455073
2241.000000	30.463219
2240.000000	30.465169
2239.000000	30.592559
2238.000000	30.719860
2237.000000	30.833147
2236.000000	30.808282
2235.000000	30.782808
2234.000000	30.982161
2233.000000	31.003611
2232.000000	31.167445
2231.000000	31.287271
2230.000000	31.174452
2229.000000	31.172783
2228.000000	31.170546
2227.000000	31.195621
2226.000000	31.129634
2225.000000	31.068397
2224.000000	31.088682
2223.000000	31.089542
2222.000000	31.202734
2221.000000	31.210374
2220.000000	31.220308
2219.000000	31.120301
2218.000000	31.020929
2217.000000	31.086665
2216.000000	31.069122
2215.000000	30.911325
2214.000000	30.989574
2213.000000	31.095934
2212.000000	31.012374
2211.000000	30.834899
2210.000000	30.913761
2209.000000	30.892911
2208.000000	30.750181
2207.000000	30.580401
2206.000000	30.600306
2205.000000	30.660619
2204.000000	30.610813
2203.000000	30.527230
2202.000000	30.469905
2201.000000	30.418005
2200.000000	30.363229
2199.000000	30.335909
2198.000000	30.267378
2197.000000	30.196035
2196.000000	30.211414
2195.000000	30.074585
2194.000000	30.005252
2193.000000	30.017380
2192.000000	29.923275
2191.000000	29.896664
2190.000000	29.987906
2189.000000	29.947178
2188.000000	29.831064
2187.000000	29.935141
2186.000000	30.043756
2185.000000	29.835291
2184.000000	29.861897
2183.000000	29.929764
2182.000000	29.919188
2181.000000	29.755212
2180.000000	29.821083
2179.000000	29.765217
2178.000000	29.833388
2177.000000	29.863369
2176.000000	29.847457
2175.000000	29.804996
2174.000000	29.871609
2173.000000	29.854807
2172.000000	29.957395
2171.000000	29.951881
2170.000000	30.008173
2169.000000	30.058637
2168.000000	30.162491
2167.000000	30.142081
2166.000000	30.090334
2165.000000	30.520393
2164.000000	30.375751
2163.000000	30.413310
2162.000000	30.517864
2161.000000	30.485526
2160.000000	30.727128
2159.000000	30.779483
2158.000000	30.837812
2157.000000	30.895548
2156.000000	31.157273
2155.000000	31.138595
2154.000000	31.515859
2153.000000	31.558392
2152.000000	31.344682
2151.000000	31.598181
2150.000000	31.879095
2149.000000	31.798564
2148.000000	31.919721
2147.000000	31.855326
2146.000000	32.070870
2145.000000	32.087863
2144.000000	32.234571
2143.000000	32.348249
2142.000000	32.430649
2141.000000	32.623752
2140.000000	32.667935
2139.000000	32.645540
2138.000000	32.861230
2137.000000	32.751290
2136.000000	32.883842
2135.000000	32.903919
2134.000000	33.013454
2133.000000	32.879528
2132.000000	33.229536
2131.000000	33.366260
2130.000000	33.387307
2129.000000	33.321871
2128.000000	33.123013
2127.000000	33.334740
2126.000000	33.243838
2125.000000	33.269625
2124.000000	33.297859
2123.000000	33.433054
2122.000000	33.511570
2121.000000	33.482665
2120.000000	33.479214
2119.000000	33.348080
2118.000000	33.619830
2117.000000	33.535537
2116.000000	33.726532
2115.000000	33.639957
2114.000000	33.704832
2113.000000	33.725478
2112.000000	33.705004
2111.000000	33.734339
2110.000000	33.544037
2109.000000	33.685807
2108.000000	33.627118
2107.000000	33.768993
2106.000000	33.750390
2105.000000	33.708746
2104.000000	33.696886
2103.000000	33.656139
2102.000000	33.715532
2101.000000	33.820127
2100.000000	33.868879
2099.000000	33.817148
2098.000000	33.765562
2097.000000	33.708213
2096.000000	33.747853
2095.000000	33.703352
2094.000000	33.705636
2093.000000	33.701974
2092.000000	33.749971
2091.000000	33.783488
2090.000000	33.580276
2089.000000	33.598556
2088.000000	33.685127
2087.000000	33.689018
2086.000000	33.601204
2085.000000	33.611429
2084.000000	33.517469
2083.000000	33.383521
2082.000000	33.478879
2081.000000	33.345367
2080.000000	33.239138
2079.000000	33.138078
2078.000000	33.067193
2077.000000	33.125115
2076.000000	33.085564
2075.000000	32.979912
2074.000000	32.916031
2073.000000	32.887128
2072.000000	32.724492
2071.000000	32.692023
2070.000000	32.583232
2069.000000	32.453881
2068.000000	32.394618
2067.000000	32.319395
2066.000000	32.206780
2065.000000	32.066630
2064.000000	32.001155
2063.000000	31.902809
2062.000000	31.859128
2061.000000	31.697742
2060.000000	31.606314
2059.000000	31.601636
2058.000000	31.460297
2057.000000	31.361746
2056.000000	31.239526
2055.000000	31.180364
2054.000000	31.088512
2053.000000	31.033431
2052.000000	30.878562
2051.000000	30.821486
2050.000000	30.806838
2049.000000	30.735078
2048.000000	30.660739
2047.000000	30.614572
2046.000000	30.527585
2045.000000	30.450161
2044.000000	30.468453
2043.000000	30.478530
2042.000000	30.468166
2041.000000	30.512420
2040.000000	30.511569
2039.000000	30.494663
2038.000000	30.486060
2037.000000	30.534522
2036.000000	30.582640
2035.000000	30.681842
2034.000000	30.766968
2033.000000	30.811642
2032.000000	30.917175
2031.000000	30.944804
2030.000000	30.961603
2029.000000	31.077880
2028.000000	31.104261
2027.000000	31.142888
2026.000000	31.239218
2025.000000	31.270905
2024.000000	31.280837
2023.000000	31.322887
2022.000000	31.359393
2021.000000	31.327376
2020.000000	31.332801
2019.000000	31.328615
2018.000000	31.335601
2017.000000	31.372694
2016.000000	31.344259
2015.000000	31.329997
2014.000000	31.369028
2013.000000	31.331156
2012.000000	31.294281
2011.000000	31.278867
2010.000000	31.206227
2009.000000	31.170096
2008.000000	31.136152
2007.000000	31.066823
2006.000000	30.983655
2005.000000	30.937290
2004.000000	30.833729
2003.000000	30.747001
2002.000000	30.695963
2001.000000	30.664063
2000.000000	30.589131
1999.000000	30.553767
1998.000000	30.498146
1997.000000	30.400796
1996.000000	30.350328
1995.000000	30.280909
1994.000000	30.187149
1993.000000	30.128151
1992.000000	30.025084
1991.000000	29.933336
1990.000000	29.846451
1989.000000	29.790051
1988.000000	29.707983
1987.000000	29.668880
1986.000000	29.602425
1985.000000	29.514032
1984.000000	29.460432
1983.000000	29.404330
1982.000000	29.340836
1981.000000	29.281029
1980.000000	29.205971
1979.000000	29.125979
1978.000000	29.104285
1977.000000	28.999949
1976.000000	28.890687
1975.000000	28.867246
1974.000000	28.804541
1973.000000	28.741641
1972.000000	28.697207
1971.000000	28.576941
1970.000000	28.538180
1969.000000	28.496615
1968.000000	28.460851
1967.000000	28.330151
1966.000000	28.349916
1965.000000	28.307624
1964.000000	28.212930
1963.000000	28.159125
1962.000000	28.113068
1961.000000	28.091739
1960.000000	28.025421
1959.000000	27.911932
1958.000000	27.913551
1957.000000	27.868645
1956.000000	27.829330
1955.000000	27.808378
1954.000000	27.826615
1953.000000	27.764276
1952.000000	27.733430
1951.000000	27.722505
1950.000000	27.639616
1949.000000	27.621899
1948.000000	27.625115
1947.000000	27.668015
1946.000000	27.625321
1945.000000	27.727080
1944.000000	27.638845
1943.000000	27.689883
1942.000000	27.681161
1941.000000	27.719548
1940.000000	27.763499
1939.000000	27.832976
1938.000000	27.888051
1937.000000	27.990601
1936.000000	28.080052
1935.000000	28.095158
1934.000000	28.128788
1933.000000	28.248865
1932.000000	28.333551
1931.000000	28.398525
1930.000000	28.583600
1929.000000	28.620523
1928.000000	28.710890
1927.000000	28.912188
1926.000000	28.999563
1925.000000	29.189248
1924.000000	29.376090
1923.000000	29.547212
1922.000000	29.656057
1921.000000	29.899068
1920.000000	30.037358
1919.000000	30.186872
1918.000000	30.466117
1917.000000	30.723591
1916.000000	30.811891
1915.000000	31.071716
1914.000000	31.407227
1913.000000	31.625718
1912.000000	31.931259
1911.000000	32.151698
1910.000000	32.437898
1909.000000	32.729621
1908.000000	33.039563
1907.000000	33.381400
1906.000000	33.579004
1905.000000	34.028739
1904.000000	34.377119
1903.000000	34.706720
1902.000000	35.128231
1901.000000	35.502742
1900.000000	35.867064
1899.000000	36.236101
1898.000000	36.607136
1897.000000	36.973817
1896.000000	37.369936
1895.000000	37.780142
1894.000000	38.161562
1893.000000	38.573785
1892.000000	38.977309
1891.000000	39.300329
1890.000000	39.635580
1889.000000	39.967006
1888.000000	40.375043
1887.000000	40.755000
1886.000000	41.094635
1885.000000	41.445883
1884.000000	41.784865
1883.000000	42.093338
1882.000000	42.358173
1881.000000	42.706750
1880.000000	42.975444
1879.000000	43.213040
1878.000000	43.548161
1877.000000	43.769269
1876.000000	43.990940
1875.000000	44.250491
1874.000000	44.459752
1873.000000	44.634217
1872.000000	44.856778
1871.000000	45.056860
1870.000000	45.205781
1869.000000	45.381926
1868.000000	45.507664
1867.000000	45.608758
1866.000000	45.724039
1865.000000	45.829069
1864.000000	45.913487
1863.000000	45.992948
1862.000000	46.066830
1861.000000	46.067086
1860.000000	46.167981
1859.000000	46.290056
1858.000000	46.348217
1857.000000	46.414488
1856.000000	46.446302
1855.000000	46.436169
1854.000000	46.460330
1853.000000	46.521610
1852.000000	46.543823
1851.000000	46.566150
1850.000000	46.541640
1849.000000	46.563945
1848.000000	46.618833
1847.000000	46.594718
1846.000000	46.569409
1845.000000	46.575935
1844.000000	46.539336
1843.000000	46.507809
1842.000000	46.534376
1841.000000	46.499084
1840.000000	46.439907
1839.000000	46.428211
1838.000000	46.409105
1837.000000	46.388203
1836.000000	46.355991
1835.000000	46.277826
1834.000000	46.195173
1833.000000	46.174050
1832.000000	46.147129
1831.000000	46.114142
1830.000000	46.062083
1829.000000	46.033681
1828.000000	46.010971
1827.000000	45.966556
1826.000000	45.917527
1825.000000	45.889083
1824.000000	45.873355
1823.000000	45.838146
1822.000000	45.797958
1821.000000	45.798588
1820.000000	45.786668
1819.000000	45.736905
1818.000000	45.711092
1817.000000	45.674177
1816.000000	45.661057
1815.000000	45.661910
1814.000000	45.598402
1813.000000	45.550802
1812.000000	45.522281
1811.000000	45.481432
1810.000000	45.458174
1809.000000	45.430730
1808.000000	45.392097
1807.000000	45.350723
1806.000000	45.322802
1805.000000	45.296014
1804.000000	45.282035
1803.000000	45.278267
1802.000000	45.237873
1801.000000	45.198477
1800.000000	45.179436
1799.000000	45.153345
1798.000000	45.132794
1797.000000	45.129237
1796.000000	45.118014
1795.000000	45.095857
1794.000000	45.077018
1793.000000	45.075855
1792.000000	45.053253
1791.000000	45.056577
1790.000000	45.065194
1789.000000	45.032980
1788.000000	45.013755
1787.000000	45.005981
1786.000000	44.985563
1785.000000	44.969405
1784.000000	44.965700
1783.000000	44.954670
1782.000000	44.914120
1781.000000	44.857247
1780.000000	44.838597
1779.000000	44.854409
1778.000000	44.804877
1777.000000	44.749948
1776.000000	44.724280
1775.000000	44.689866
1774.000000	44.640590
1773.000000	44.608072
1772.000000	44.566738
1771.000000	44.514766
1770.000000	44.504979
1769.000000	44.448229
1768.000000	44.402211
1767.000000	44.354384
1766.000000	44.311624
1765.000000	44.284443
1764.000000	44.257661
1763.000000	44.198943
1762.000000	44.166651
1761.000000	44.144544
1760.000000	44.100902
1759.000000	44.019199
1758.000000	43.979296
1757.000000	43.949441
1756.000000	43.914930
1755.000000	43.873491
1754.000000	43.845570
1753.000000	43.796072
1752.000000	43.761558
1751.000000	43.764393
1750.000000	43.714261
1749.000000	43.677336
1748.000000	43.615494
1747.000000	43.572770
1746.000000	43.540763
1745.000000	43.498934
1744.000000	43.419094
1743.000000	43.387239
1742.000000	43.329688
1741.000000	43.311237
1740.000000	43.240669
1739.000000	43.203080
1738.000000	43.176765
1737.000000	43.160310
1736.000000	43.153603
1735.000000	43.122342
1734.000000	43.173128
1733.000000	43.137497
1732.000000	43.134818
1731.000000	43.126644
1730.000000	43.109437
1729.000000	43.188653
1728.000000	43.257514
1727.000000	43.266357
1726.000000	43.283597
1725.000000	43.371069
1724.000000	43.438558
1723.000000	43.517358
1722.000000	43.569136
1721.000000	43.653990
1720.000000	43.723254
1719.000000	43.863661
1718.000000	43.939851
1717.000000	43.988513
1716.000000	44.064441
1715.000000	44.109739
1714.000000	44.227011
1713.000000	44.320226
1712.000000	44.366902
1711.000000	44.435640
1710.000000	44.484714
1709.000000	44.561887
1708.000000	44.565826
1707.000000	44.651799
1706.000000	44.642560
1705.000000	44.688357
1704.000000	44.749746
1703.000000	44.741447
1702.000000	44.722641
1701.000000	44.767355
1700.000000	44.823899
1699.000000	44.774426
1698.000000	44.821938
1697.000000	44.827384
1696.000000	44.866437
1695.000000	44.871321
1694.000000	44.943268
1693.000000	44.950720
1692.000000	45.021100
1691.000000	45.063066
1690.000000	45.135226
1689.000000	45.198106
1688.000000	45.290169
1687.000000	45.386237
1686.000000	45.488221
1685.000000	45.591672
1684.000000	45.732056
1683.000000	45.850109
1682.000000	45.992235
1681.000000	46.162925
1680.000000	46.269621
1679.000000	46.451500
1678.000000	46.577102
1677.000000	46.709316
1676.000000	46.888428
1675.000000	47.050266
1674.000000	47.173454
1673.000000	47.331939
1672.000000	47.447281
1671.000000	47.600366
1670.000000	47.734625
1669.000000	47.879020
1668.000000	48.012342
1667.000000	48.168672
1666.000000	48.219024
1665.000000	48.295042
1664.000000	48.377572
1663.000000	48.442026
1662.000000	48.522595
1661.000000	48.615420
1660.000000	48.666932
1659.000000	48.709704
1658.000000	48.776722
1657.000000	48.809906
1656.000000	48.839686
1655.000000	48.868792
1654.000000	48.893758
1653.000000	48.894144
1652.000000	48.884986
1651.000000	48.919242
1650.000000	48.920691
1649.000000	48.908012
1648.000000	48.897076
1647.000000	48.892687
1646.000000	48.881341
1645.000000	48.848723
1644.000000	48.834073
1643.000000	48.820092
1642.000000	48.793478
1641.000000	48.756809
1640.000000	48.731366
1639.000000	48.707268
1638.000000	48.676918
1637.000000	48.658988
1636.000000	48.609796
1635.000000	48.572386
1634.000000	48.552794
1633.000000	48.501074
1632.000000	48.435806
1631.000000	48.391133
1630.000000	48.359037
1629.000000	48.313178
1628.000000	48.268276
1627.000000	48.232736
1626.000000	48.183525
1625.000000	48.152213
1624.000000	48.119356
1623.000000	48.061971
1622.000000	48.023028
1621.000000	47.959893
1620.000000	47.893721
1619.000000	47.843620
1618.000000	47.801355
1617.000000	47.771515
1616.000000	47.707414
1615.000000	47.641497
1614.000000	47.587964
1613.000000	47.530854
1612.000000	47.473807
1611.000000	47.420664
1610.000000	47.370941
1609.000000	47.318267
1608.000000	47.276057
1607.000000	47.209829
1606.000000	47.126815
1605.000000	47.079050
1604.000000	47.018497
1603.000000	46.949220
1602.000000	46.894226
1601.000000	46.840062
1600.000000	46.800496
1599.000000	46.759328
1598.000000	46.708860
1597.000000	46.644343
1596.000000	46.576181
1595.000000	46.527935
1594.000000	46.474671
1593.000000	46.431984
1592.000000	46.383060
1591.000000	46.315780
1590.000000	46.273820
1589.000000	46.235295
1588.000000	46.180608
1587.000000	46.147298
1586.000000	46.116710
1585.000000	46.062360
1584.000000	46.016904
1583.000000	45.966294
1582.000000	45.920791
1581.000000	45.878227
1580.000000	45.838499
1579.000000	45.808220
1578.000000	45.768084
1577.000000	45.719016
1576.000000	45.663263
1575.000000	45.627353
1574.000000	45.580577
1573.000000	45.540353
1572.000000	45.499037
1571.000000	45.451270
1570.000000	45.403971
1569.000000	45.372184
1568.000000	45.334683
1567.000000	45.304732
1566.000000	45.261224
1565.000000	45.244718
1564.000000	45.223316
1563.000000	45.198519
1562.000000	45.162145
1561.000000	45.130026
1560.000000	45.104960
1559.000000	45.070150
1558.000000	45.042860
1557.000000	45.027650
1556.000000	44.979423
1555.000000	44.955001
1554.000000	44.936316
1553.000000	44.907033
1552.000000	44.883281
1551.000000	44.861753
1550.000000	44.818614
1549.000000	44.775156
1548.000000	44.749195
1547.000000	44.676249
1546.000000	44.624562
1545.000000	44.571508
1544.000000	44.508892
1543.000000	44.444422
1542.000000	44.368645
1541.000000	44.321293
1540.000000	44.239455
1539.000000	44.147895
1538.000000	44.072597
1537.000000	43.987242
1536.000000	43.927217
1535.000000	43.862379
1534.000000	43.789239
1533.000000	43.729515
1532.000000	43.629572
1531.000000	43.579097
1530.000000	43.508683
1529.000000	43.446559
1528.000000	43.386952
1527.000000	43.330669
1526.000000	43.291080
1525.000000	43.243850
1524.000000	43.169162
1523.000000	43.138842
1522.000000	43.080179
1521.000000	43.039655
1520.000000	43.026972
1519.000000	42.997226
1518.000000	42.969175
1517.000000	42.920797
1516.000000	42.912693
1515.000000	42.866610
1514.000000	42.849612
1513.000000	42.825542
1512.000000	42.798258
1511.000000	42.797482
1510.000000	42.762050
1509.000000	42.748871
1508.000000	42.734666
1507.000000	42.702682
1506.000000	42.682147
1505.000000	42.671727
1504.000000	42.683232
1503.000000	42.667298
1502.000000	42.669280
1501.000000	42.667657
1500.000000	42.656663
1499.000000	42.640206
1498.000000	42.640946
1497.000000	42.641797
1496.000000	42.656380
1495.000000	42.671089
1494.000000	42.651181
1493.000000	42.685430
1492.000000	42.714293
1491.000000	42.720666
1490.000000	42.734280
1489.000000	42.734970
1488.000000	42.778951
1487.000000	42.796381
1486.000000	42.811273
1485.000000	42.825575
1484.000000	42.852389
1483.000000	42.896584
1482.000000	42.913543
1481.000000	42.946086
1480.000000	42.987511
1479.000000	42.998145
1478.000000	43.023563
1477.000000	43.037501
1476.000000	43.083589
1475.000000	43.106393
1474.000000	43.137088
1473.000000	43.166610
1472.000000	43.213115
1471.000000	43.222137
1470.000000	43.251100
1469.000000	43.286429
1468.000000	43.325323
1467.000000	43.338581
1466.000000	43.365290
1465.000000	43.416185
1464.000000	43.447657
1463.000000	43.481184
1462.000000	43.535385
1461.000000	43.541268
1460.000000	43.594905
1459.000000	43.625395
1458.000000	43.698029
1457.000000	43.720807
1456.000000	43.765089
1455.000000	43.817173
1454.000000	43.870790
1453.000000	43.939559
1452.000000	44.012322
1451.000000	44.059648
1450.000000	44.117284
1449.000000	44.192312
1448.000000	44.270262
1447.000000	44.329981
1446.000000	44.411914
1445.000000	44.469243
1444.000000	44.556779
1443.000000	44.645252
1442.000000	44.709887
1441.000000	44.807690
1440.000000	44.902986
1439.000000	44.990696
1438.000000	45.106898
1437.000000	45.196742
1436.000000	45.299491
1435.000000	45.408428
1434.000000	45.511597
1433.000000	45.631963
1432.000000	45.752120
1431.000000	45.872171
1430.000000	46.001322
1429.000000	46.142817
1428.000000	46.271926
1427.000000	46.413504
1426.000000	46.557414
1425.000000	46.706072
1424.000000	46.851954
1423.000000	47.014367
1422.000000	47.185481
1421.000000	47.358569
1420.000000	47.518505
1419.000000	47.682205
1418.000000	47.870368
1417.000000	48.045376
1416.000000	48.229294
1415.000000	48.429376
1414.000000	48.619448
1413.000000	48.808706
1412.000000	48.995637
1411.000000	49.208617
1410.000000	49.391508
1409.000000	49.594182
1408.000000	49.795534
1407.000000	49.987608
1406.000000	50.181432
1405.000000	50.370535
1404.000000	50.555520
1403.000000	50.738836
1402.000000	50.931093
1401.000000	51.126796
1400.000000	51.311585
1399.000000	51.489734
1398.000000	51.656335
1397.000000	51.828878
1396.000000	52.003443
1395.000000	52.167406
1394.000000	52.336991
1393.000000	52.498085
1392.000000	52.640164
1391.000000	52.784640
1390.000000	52.912992
1389.000000	53.055923
1388.000000	53.214939
1387.000000	53.344959
1386.000000	53.463065
1385.000000	53.572359
1384.000000	53.700907
1383.000000	53.822844
1382.000000	53.902326
1381.000000	54.009354
1380.000000	54.101711
1379.000000	54.178451
1378.000000	54.272692
1377.000000	54.365962
1376.000000	54.451692
1375.000000	54.508431
1374.000000	54.570901
1373.000000	54.636736
1372.000000	54.702019
1371.000000	54.772428
1370.000000	54.834493
1369.000000	54.888534
1368.000000	54.933182
1367.000000	54.993131
1366.000000	55.056884
1365.000000	55.111101
1364.000000	55.163056
1363.000000	55.210753
1362.000000	55.267944
1361.000000	55.335078
1360.000000	55.407735
1359.000000	55.458780
1358.000000	55.525216
1357.000000	55.593732
1356.000000	55.644529
1355.000000	55.722428
1354.000000	55.799596
1353.000000	55.860985
1352.000000	55.907478
1351.000000	55.971653
1350.000000	56.050302
1349.000000	56.123772
1348.000000	56.179771
1347.000000	56.235079
1346.000000	56.331046
1345.000000	56.394031
1344.000000	56.429551
1343.000000	56.503574
1342.000000	56.570522
1341.000000	56.621038
1340.000000	56.691384
1339.000000	56.742570
1338.000000	56.810086
1337.000000	56.864486
1336.000000	56.895639
1335.000000	56.941649
1334.000000	56.995738
1333.000000	57.044970
1332.000000	57.117849
1331.000000	57.192527
1330.000000	57.244364
1329.000000	57.286118
1328.000000	57.323789
1327.000000	57.353409
1326.000000	57.365619
1325.000000	57.361677
1324.000000	57.385765
1323.000000	57.413892
1322.000000	57.449820
1321.000000	57.508990
1320.000000	57.523952
1319.000000	57.543968
1318.000000	57.553588
1317.000000	57.585374
1316.000000	57.614972
1315.000000	57.642274
1314.000000	57.668250
1313.000000	57.670703
1312.000000	57.676861
1311.000000	57.718164
1310.000000	57.748066
1309.000000	57.767729
1308.000000	57.776861
1307.000000	57.791017
1306.000000	57.800567
1305.000000	57.843782
1304.000000	57.868152
1303.000000	57.867328
1302.000000	57.860467
1301.000000	57.877893
1300.000000	57.856323
1299.000000	57.894944
1298.000000	57.907050
1297.000000	57.907431
1296.000000	57.901078
1295.000000	57.888088
1294.000000	57.910260
1293.000000	57.895645
1292.000000	57.933249
1291.000000	57.933960
1290.000000	57.929691
1289.000000	57.939801
1288.000000	57.907700
1287.000000	57.907491
1286.000000	57.913966
1285.000000	57.902700
1284.000000	57.906995
1283.000000	57.906767
1282.000000	57.861473
1281.000000	57.887841
1280.000000	57.886548
1279.000000	57.863768
1278.000000	57.883243
1277.000000	57.888501
1276.000000	57.884369
1275.000000	57.871920
1274.000000	57.901820
1273.000000	57.891617
1272.000000	57.892254
1271.000000	57.895129
1270.000000	57.904391
1269.000000	57.888738
1268.000000	57.896439
1267.000000	57.908316
1266.000000	57.936409
1265.000000	57.969926
1264.000000	57.969807
1263.000000	57.950774
1262.000000	57.966483
1261.000000	57.971305
1260.000000	57.983688
1259.000000	58.018012
1258.000000	58.011098
1257.000000	57.992760
1256.000000	58.016421
1255.000000	58.008820
1254.000000	58.026042
1253.000000	58.002388
1252.000000	58.011168
1251.000000	58.020803
1250.000000	58.014664
1249.000000	58.026222
1248.000000	58.017300
1247.000000	57.993705
1246.000000	58.008471
1245.000000	57.987658
1244.000000	57.988728
1243.000000	57.985782
1242.000000	57.981738
1241.000000	57.946959
1240.000000	57.902756
1239.000000	57.893809
1238.000000	57.879377
1237.000000	57.865819
1236.000000	57.822969
1235.000000	57.807490
1234.000000	57.782003
1233.000000	57.753188
1232.000000	57.710798
1231.000000	57.701573
1230.000000	57.691154
1229.000000	57.688991
1228.000000	57.666390
1227.000000	57.646365
1226.000000	57.588078
1225.000000	57.565761
1224.000000	57.551328
1223.000000	57.521184
1222.000000	57.490827
1221.000000	57.460804
1220.000000	57.460060
1219.000000	57.413864
1218.000000	57.376501
1217.000000	57.359811
1216.000000	57.331665
1215.000000	57.305960
1214.000000	57.309974
1213.000000	57.271882
1212.000000	57.229395
1211.000000	57.207387
1210.000000	57.182582
1209.000000	57.133356
1208.000000	57.107334
1207.000000	57.100516
1206.000000	57.059972
1205.000000	57.025457
1204.000000	57.011046
1203.000000	56.979530
1202.000000	56.931835
1201.000000	56.890345
1200.000000	56.876819
1199.000000	56.841511
1198.000000	56.822803
1197.000000	56.801840
1196.000000	56.772945
1195.000000	56.763793
1194.000000	56.761032
1193.000000	56.728731
1192.000000	56.703717
1191.000000	56.700038
1190.000000	56.671707
1189.000000	56.642396
1188.000000	56.646372
1187.000000	56.641022
1186.000000	56.641406
1185.000000	56.646075
1184.000000	56.656979
1183.000000	56.678041
1182.000000	56.705834
1181.000000	56.736732
1180.000000	56.764683
1179.000000	56.803046
1178.000000	56.830160
1177.000000	56.865669
1176.000000	56.919501
1175.000000	56.977072
1174.000000	57.005851
1173.000000	57.055684
1172.000000	57.137382
1171.000000	57.196011
1170.000000	57.261338
1169.000000	57.330038
1168.000000	57.397876
1167.000000	57.471532
1166.000000	57.541497
1165.000000	57.622730
1164.000000	57.709252
1163.000000	57.779043
1162.000000	57.846815
1161.000000	57.924474
1160.000000	58.008547
1159.000000	58.085310
1158.000000	58.159816
1157.000000	58.230557
1156.000000	58.288790
1155.000000	58.350983
1154.000000	58.411017
1153.000000	58.470541
1152.000000	58.514685
1151.000000	58.564338
1150.000000	58.640453
1149.000000	58.709270
1148.000000	58.765308
1147.000000	58.812847
1146.000000	58.861963
1145.000000	58.921309
1144.000000	58.972369
1143.000000	59.018692
1142.000000	59.062668
1141.000000	59.104617
1140.000000	59.155652
1139.000000	59.198018
1138.000000	59.220318
1137.000000	59.246990
1136.000000	59.302536
1135.000000	59.349031
1134.000000	59.397457
1133.000000	59.423604
1132.000000	59.456467
1131.000000	59.489605
1130.000000	59.525685
1129.000000	59.554626
1128.000000	59.578015
1127.000000	59.604625
1126.000000	59.623293
1125.000000	59.632096
1124.000000	59.660492
1123.000000	59.664199
1122.000000	59.683379
1121.000000	59.703886
1120.000000	59.726140
1119.000000	59.758105
1118.000000	59.763736
1117.000000	59.752899
1116.000000	59.768541
1115.000000	59.787626
1114.000000	59.794471
1113.000000	59.804269
1112.000000	59.808968
1111.000000	59.813671
1110.000000	59.824260
1109.000000	59.836293
1108.000000	59.842683
1107.000000	59.840980
1106.000000	59.856595
1105.000000	59.859062
1104.000000	59.862454
1103.000000	59.858779
1102.000000	59.835564
1101.000000	59.842441
1100.000000	59.855030
1099.000000	59.867292
1098.000000	59.876214
1097.000000	59.874163
1096.000000	59.876754
1095.000000	59.862897
1094.000000	59.857744
1093.000000	59.849831
1092.000000	59.855736
1091.000000	59.869192
1090.000000	59.863840
1089.000000	59.861217
1088.000000	59.853901
1087.000000	59.868347
1086.000000	59.864771
1085.000000	59.863527
1084.000000	59.856189
1083.000000	59.838844
1082.000000	59.832409
1081.000000	59.837040
1080.000000	59.838873
1079.000000	59.822847
1078.000000	59.834401
1077.000000	59.843630
1076.000000	59.814334
1075.000000	59.815495
1074.000000	59.815050
1073.000000	59.814253
1072.000000	59.801880
1071.000000	59.787341
1070.000000	59.779721
1069.000000	59.784312
1068.000000	59.785783
1067.000000	59.794023
1066.000000	59.756217
1065.000000	59.748732
1064.000000	59.715648
1063.000000	59.748886
1062.000000	59.749199
1061.000000	59.739035
1060.000000	59.711423
1059.000000	59.711640
1058.000000	59.721633
1057.000000	59.718121
1056.000000	59.704793
1055.000000	59.687639
1054.000000	59.697394
1053.000000	59.681850
1052.000000	59.692178
1051.000000	59.683248
1050.000000	59.659922
1049.000000	59.678509
1048.000000	59.664139
1047.000000	59.647591
1046.000000	59.628444
1045.000000	59.627334
1044.000000	59.625631
1043.000000	59.630286
1042.000000	59.614086
1041.000000	59.619343
1040.000000	59.612914
1039.000000	59.611539
1038.000000	59.600873
1037.000000	59.588161
1036.000000	59.595360
1035.000000	59.581320
1034.000000	59.585926
1033.000000	59.577314
1032.000000	59.569040
1031.000000	59.576869
1030.000000	59.571057
1029.000000	59.560010
1028.000000	59.577623
1027.000000	59.549377
1026.000000	59.549681
1025.000000	59.539205
1024.000000	59.525533
1023.000000	59.533565
1022.000000	59.528601
1021.000000	59.527775
1020.000000	59.531444
1019.000000	59.537208
1018.000000	59.540218
1017.000000	59.529901
1016.000000	59.550452
1015.000000	59.526636
1014.000000	59.539954
1013.000000	59.538788
1012.000000	59.539169
1011.000000	59.549392
1010.000000	59.532858
1009.000000	59.546067
1008.000000	59.545053
1007.000000	59.540272
1006.000000	59.544201
1005.000000	59.543518
1004.000000	59.543308
1003.000000	59.540731
1002.000000	59.535037
1001.000000	59.562008
1000.000000	59.562352
999.000000	59.572114
998.000000	59.564282
997.000000	59.581440
996.000000	59.572621
995.000000	59.574002
994.000000	59.562615
993.000000	59.557276
992.000000	59.566150
991.000000	59.590601
990.000000	59.597059
989.000000	59.576801
988.000000	59.591433
987.000000	59.606511
986.000000	59.603033
985.000000	59.598391
984.000000	59.606082
983.000000	59.620975
982.000000	59.632227
981.000000	59.633966
980.000000	59.637321
979.000000	59.649459
978.000000	59.653062
977.000000	59.653606
976.000000	59.665904
975.000000	59.687546
974.000000	59.690587
973.000000	59.691478
972.000000	59.699905
971.000000	59.721080
970.000000	59.721578
969.000000	59.743352
968.000000	59.747979
967.000000	59.749074
966.000000	59.757233
965.000000	59.761281
964.000000	59.773470
963.000000	59.769984
962.000000	59.784629
961.000000	59.796871
960.000000	59.795545
959.000000	59.795980
958.000000	59.808276
957.000000	59.835774
956.000000	59.823757
955.000000	59.838014
954.000000	59.860899
953.000000	59.849250
952.000000	59.856771
951.000000	59.866460
950.000000	59.862731
949.000000	59.871054
948.000000	59.875127
947.000000	59.894430
946.000000	59.892516
945.000000	59.897008
944.000000	59.915046
943.000000	59.922406
942.000000	59.910756
941.000000	59.895792
940.000000	59.916751
939.000000	59.931419
938.000000	59.930365
937.000000	59.908145
936.000000	59.890013
935.000000	59.903792
934.000000	59.924319
933.000000	59.927694
932.000000	59.922357
931.000000	59.917946
930.000000	59.924754
929.000000	59.934767
928.000000	59.902268
927.000000	59.896248
926.000000	59.914321
925.000000	59.896146
924.000000	59.886455
923.000000	59.892330
922.000000	59.891741
921.000000	59.859887
920.000000	59.885201
919.000000	59.910136
918.000000	59.919441
917.000000	59.928017
916.000000	59.931838
915.000000	59.894442
914.000000	59.891561
913.000000	59.921200
912.000000	59.878770
911.000000	59.843781
910.000000	59.890108
909.000000	59.889975
908.000000	59.884930
907.000000	59.872410
906.000000	59.872558
905.000000	59.888861
904.000000	59.907778
903.000000	59.877969
902.000000	59.935266
901.000000	59.904801
900.000000	59.881823
899.000000	59.939471
898.000000	59.951836
897.000000	59.948978
896.000000	59.961793
895.000000	59.890163
894.000000	59.955658
893.000000	59.977481
892.000000	59.989324
891.000000	59.954623
890.000000	60.023384
889.000000	60.016510
888.000000	59.979514
887.000000	60.057489
886.000000	60.002127
885.000000	60.008290
884.000000	60.032430
883.000000	59.978373
882.000000	59.980913
881.000000	60.041259
880.000000	60.063379
879.000000	60.000000
878.000000	60.074349
877.000000	60.040011
876.000000	60.006611
875.000000	60.089804
874.000000	60.083079
873.000000	60.023487
872.000000	60.123139
871.000000	60.046711
870.000000	59.993414
869.000000	59.995372
868.000000	59.977401
867.000000	60.055716
866.000000	60.039339
865.000000	59.973754
864.000000	59.989906
863.000000	60.040328
862.000000	60.088130
861.000000	59.970792
860.000000	60.016786
859.000000	59.552568
858.000000	59.531419
857.000000	59.482659
856.000000	59.601129
855.000000	59.711262
854.000000	59.429246
853.000000	59.621562
852.000000	59.456671
851.000000	59.732592
850.000000	59.762535
849.000000	59.508346
848.000000	59.407204
847.000000	59.625408
846.000000	59.508243
845.000000	59.655672
844.000000	59.791137
843.000000	59.312184
842.000000	59.509211
841.000000	59.575053
840.000000	59.819759
839.000000	59.745615
838.000000	59.842181
837.000000	59.418609
836.000000	59.569955
835.000000	59.493701
834.000000	59.718095
833.000000	59.658887
832.000000	59.448172
831.000000	59.707286
830.000000	59.634152
829.000000	59.449176
828.000000	59.726275
827.000000	59.554463
826.000000	59.531901
825.000000	59.409332
824.000000	59.334120
823.000000	59.379853
822.000000	59.588909
821.000000	59.556912
820.000000	59.302004
819.000000	59.491614
818.000000	59.488335
817.000000	59.617430
816.000000	59.561959
815.000000	59.328616
814.000000	59.649993
813.000000	59.481740
812.000000	59.456336
811.000000	59.555241
810.000000	59.502718
809.000000	59.469318
808.000000	59.614212
807.000000	59.537280
806.000000	59.418310
805.000000	59.368353
804.000000	59.500644
803.000000	59.595907
802.000000	59.399893
801.000000	59.424407
800.000000	59.466883
799.000000	59.455219
798.000000	59.501901
797.000000	59.468502
796.000000	59.458208
795.000000	59.381398
794.000000	59.481864
793.000000	59.432443
792.000000	59.389502
791.000000	59.382159
790.000000	59.464720
789.000000	59.505667
788.000000	59.415168
787.000000	59.346555
786.000000	59.436791
785.000000	59.430566
784.000000	59.422185
783.000000	59.379742
782.000000	59.405209
781.000000	59.508767
780.000000	59.427486
779.000000	59.319293
778.000000	59.358320
777.000000	59.332684
776.000000	59.322569
775.000000	59.394048
774.000000	59.329122
773.000000	59.423151
772.000000	59.364683
771.000000	59.425643
770.000000	59.433456
769.000000	59.489073
768.000000	59.186167
767.000000	59.264579
766.000000	59.293388
765.000000	59.356476
764.000000	59.322061
763.000000	59.337793
762.000000	59.259167
761.000000	59.289997
760.000000	59.321895
759.000000	59.301232
758.000000	59.249328
757.000000	59.363723
756.000000	59.317764
755.000000	59.224320
754.000000	59.159323
753.000000	59.211426
752.000000	59.231960
751.000000	59.268695
750.000000	59.081904
749.000000	59.099273
748.000000	59.104371
747.000000	59.175513
746.000000	59.094975
745.000000	59.143507
744.000000	59.204217
743.000000	59.200743
742.000000	59.167308
741.000000	59.196059
740.000000	59.153631
739.000000	59.090644
738.000000	59.122329
737.000000	59.152691
736.000000	59.131121
735.000000	59.110890
734.000000	59.139088
733.000000	59.145695
732.000000	59.109952
731.000000	58.997861
730.000000	58.971672
729.000000	58.994519
728.000000	59.011972
727.000000	59.053843
726.000000	58.999546
725.000000	58.984197
724.000000	58.999413
723.000000	59.007406
722.000000	58.965220
721.000000	58.959974
720.000000	59.041300
719.000000	59.011107
718.000000	58.971007
717.000000	58.956957
716.000000	58.942911
715.000000	58.952294
714.000000	58.961209
713.000000	58.926515
712.000000	58.889743
711.000000	58.933082
710.000000	58.940123
709.000000	58.905053
708.000000	58.881754
707.000000	58.875785
706.000000	58.866213
705.000000	58.886610
704.000000	58.853018
703.000000	58.786842
702.000000	58.776180
701.000000	58.810338
700.000000	58.873189
699.000000	58.848582
698.000000	58.808999
697.000000	58.767717
696.000000	58.799129
695.000000	58.816574
694.000000	58.767679
693.000000	58.737568
692.000000	58.736212
691.000000	58.804351
690.000000	58.869109
689.000000	58.795411
688.000000	58.751374
687.000000	58.719289
686.000000	58.676514
685.000000	58.683539
684.000000	58.733370
683.000000	58.769913
682.000000	58.717907
681.000000	58.631560
680.000000	58.666707
679.000000	58.718950
678.000000	58.726713
677.000000	58.694799
676.000000	58.622712
675.000000	58.625665
674.000000	58.664667
673.000000	58.669783
672.000000	58.615631
671.000000	58.637496
670.000000	58.588735
669.000000	58.590691
668.000000	58.587285
667.000000	58.652478
666.000000	58.619745
665.000000	58.575115
664.000000	58.515480
663.000000	58.504383
662.000000	58.515267
661.000000	58.590465
660.000000	58.601531
659.000000	58.576234
658.000000	58.540827
657.000000	58.555279
656.000000	58.553398
655.000000	58.487202
654.000000	58.490987
653.000000	58.458708
652.000000	58.448304
651.000000	58.471766
650.000000	58.463653
649.000000	58.447764
648.000000	58.387932
647.000000	58.379834
646.000000	58.378452
645.000000	58.397593
644.000000	58.386815
643.000000	58.344029
642.000000	58.366171
641.000000	58.356831
640.000000	58.335242
639.000000	58.398632
638.000000	58.325273
637.000000	58.300763
636.000000	58.279324
635.000000	58.255470
634.000000	58.314783
633.000000	58.319969
632.000000	58.235836
631.000000	58.242409
630.000000	58.221664
629.000000	58.234610
628.000000	58.198341
627.000000	58.190810
626.000000	58.197445
625.000000	58.184029
624.000000	58.167859
623.000000	58.185689
622.000000	58.133096
621.000000	58.139387
620.000000	58.105368
619.000000	58.074600
618.000000	58.053418
617.000000	58.077678
616.000000	58.089698
615.000000	58.028927
614.000000	57.974563
613.000000	58.055177
612.000000	58.015758
611.000000	58.007801
610.000000	57.952830
609.000000	57.941266
608.000000	58.012842
607.000000	57.966780
606.000000	57.910472
605.000000	57.866091
604.000000	57.875988
603.000000	57.846759
602.000000	57.815784
601.000000	57.777342
600.000000	57.791220
599.000000	57.811028
598.000000	57.808316
597.000000	57.756056
596.000000	57.747992
595.000000	57.754382
594.000000	57.711333
593.000000	57.689206
592.000000	57.680358
591.000000	57.682583
590.000000	57.621734
589.000000	57.637864
588.000000	57.666879
587.000000	57.614103
586.000000	57.535201
585.000000	57.563317
584.000000	57.543528
583.000000	57.490810
582.000000	57.480642
581.000000	57.496555
580.000000	57.390483
579.000000	57.441254
578.000000	57.385728
577.000000	57.358621
576.000000	57.394631
575.000000	57.371686
574.000000	57.304361
573.000000	57.415262
572.000000	57.286142
571.000000	57.331489
570.000000	57.314110
569.000000	57.270999
568.000000	57.224760
567.000000	57.214470
566.000000	57.185835
565.000000	57.112346
564.000000	57.132784
563.000000	57.071760
562.000000	57.100810
561.000000	56.928793
560.000000	56.971127
559.000000	56.950851
558.000000	56.897260
557.000000	56.869263
556.000000	56.891477
555.000000	56.870900
554.000000	56.792758
553.000000	56.812479
552.000000	56.761105
551.000000	56.712619
550.000000	56.684377
549.000000	56.694746
548.000000	56.672551
547.000000	56.652168
546.000000	56.629262
545.000000	56.563876
544.000000	56.576013
543.000000	56.530464
542.000000	56.490531
541.000000	56.493857
540.000000	56.411315
539.000000	56.407770
538.000000	56.405785
537.000000	56.340915
536.000000	56.295648
535.000000	56.320755
534.000000	56.261557
533.000000	56.212974
532.000000	56.166918
531.000000	56.160284
530.000000	56.136620
529.000000	56.160369
528.000000	56.119510
527.000000	56.059235
526.000000	56.016466
525.000000	55.950551
524.000000	55.888504
523.000000	55.906405
522.000000	55.885326
521.000000	55.857542
520.000000	55.795350
519.000000	55.753273
518.000000	55.738883
517.000000	55.720169
516.000000	55.649581
515.000000	55.605561
514.000000	55.592273
513.000000	55.551650
512.000000	55.502954
511.000000	55.480332
510.000000	55.433947
509.000000	55.403986
508.000000	55.331043
507.000000	55.313125
506.000000	55.285542
505.000000	55.267257
504.000000	55.231090
503.000000	55.159357
502.000000	55.118846
501.000000	55.069800
500.000000	55.000844
499.000000	54.992364
498.000000	54.960745
497.000000	54.912805
496.000000	54.846298
495.000000	54.767336
494.000000	54.766654
493.000000	54.712712
492.000000	54.614649
491.000000	54.625716
490.000000	54.558295
489.000000	54.456220
488.000000	54.410134
487.000000	54.388623
486.000000	54.343421
485.000000	54.379175
484.000000	54.350480
483.000000	54.206973
482.000000	54.151436
481.000000	54.102771
480.000000	54.038130
479.000000	53.968736
478.000000	53.931106
477.000000	53.871910
476.000000	53.843651
475.000000	53.793409
474.000000	53.693436
473.000000	53.652776
472.000000	53.605097
471.000000	53.542566
470.000000	53.461163
469.000000	53.406510
468.000000	53.329055
467.000000	53.316489
466.000000	53.258341
465.000000	53.155715
464.000000	53.081255
463.000000	53.016497
462.000000	52.973121
461.000000	52.864063
460.000000	52.777610
459.000000	52.742578
458.000000	52.677511
457.000000	52.600488
456.000000	52.504906
455.000000	52.452812
454.000000	52.402851
453.000000	52.314098
452.000000	52.214092
451.000000	52.153108
450.000000	52.074826
449.000000	51.978372
448.000000	51.897763
447.000000	51.808136
446.000000	51.704759
445.000000	51.671846
444.000000	51.603725
443.000000	51.512681
442.000000	51.435643
441.000000	51.340479
440.000000	51.257486
439.000000	51.175779
438.000000	51.018432
437.000000	50.922847
436.000000	50.859212
435.000000	50.797218
434.000000	50.692508
433.000000	50.593284
432.000000	50.541491
431.000000	50.475341
430.000000	50.330704
429.000000	50.238838
428.000000	50.177623
427.000000	50.090146
426.000000	49.995192
425.000000	49.915317
424.000000	49.787743
423.000000	49.660994
422.000000	49.588426
421.000000	49.469286
420.000000	49.391521
419.000000	49.304299
418.000000	49.223243
417.000000	49.102305
416.000000	49.028069
415.000000	48.917425
414.000000	48.835044
413.000000	48.746906
412.000000	48.634036
411.000000	48.549912
410.000000	48.521591
409.000000	48.382298
408.000000	48.351818
407.000000	48.257904
406.000000	48.165060
405.000000	48.098217
404.000000	48.004781
403.000000	47.893721
402.000000	47.858748
401.000000	47.745133
400.000000	47.699552
399.000000	47.552495
398.000000	47.418977
397.000000	47.365976
396.000000	47.296538
395.000000	47.210325
394.000000	47.022612
393.000000	46.935003
392.000000	46.919896
391.000000	46.775696
390.000000	46.657493
389.000000	46.523260
388.000000	46.503441
387.000000	46.424415
386.000000	46.259852
385.000000	46.176358
384.000000	46.074467
383.000000	45.963522
382.000000	45.851733
381.000000	45.661091
380.000000	45.472548
379.000000	45.404798
378.000000	45.049269
377.000000	45.187428
376.000000	45.124258
375.000000	44.991849
374.000000	44.928622
373.000000	44.782869
372.000000	44.418231
371.000000	44.394715
370.000000	44.533839
369.000000	44.162706
368.000000	43.937219
367.000000	43.956432
366.000000	43.804253
365.000000	43.670670
364.000000	43.499553
363.000000	43.563723
362.000000	43.384660
361.000000	43.285772
360.000000	43.104826
359.000000	42.922494
358.000000	42.819306
357.000000	42.728387
356.000000	42.716336
355.000000	42.722251
354.000000	42.455926
353.000000	42.583975
352.000000	42.303941
351.000000	42.101551
350.000000	42.133735
349.000000	41.947859
348.000000	41.893795
347.000000	41.728291
346.000000	41.535117
345.000000	41.534336
344.000000	41.324820
343.000000	41.232529
342.000000	41.047741
341.000000	41.071273
340.000000	40.918862
339.000000	40.724907
338.000000	40.588619
337.000000	40.630948
336.000000	40.274766
335.000000	40.217053
334.000000	40.153805
333.000000	39.853614
332.000000	39.851854
331.000000	39.713125
330.000000	39.514393
329.000000	39.351578
328.000000	39.347291
327.000000	39.341292
326.000000	39.048680
325.000000	39.188950
324.000000	38.980596
323.000000	38.939958
322.000000	38.882032
321.000000	38.669335
320.000000	38.591772
319.000000	38.279901
318.000000	38.471569
317.000000	38.379234
316.000000	38.241917
315.000000	38.183372
314.000000	38.206333
313.000000	38.055720
312.000000	37.835002
311.000000	37.977135
310.000000	37.759506
309.000000	37.509662
308.000000	37.305302
307.000000	37.143859
306.000000	37.236282
305.000000	37.152300
304.000000	36.962326
303.000000	36.939772
302.000000	36.589610
301.000000	36.456837
300.000000	36.208628
299.000000	35.959129
298.000000	35.688355
297.000000	35.407210
296.000000	34.900073
295.000000	34.448913
294.000000	33.900186
293.000000	33.192165
292.000000	32.222683
291.000000	31.175346
290.000000	30.308750
289.000000	29.316829
288.000000	28.389870
287.000000	27.763093
286.000000	27.404657
285.000000	27.031759
284.000000	26.893238
283.000000	26.799690
282.000000	26.708200
281.000000	26.666310
280.000000	26.639484
279.000000	26.697166
278.000000	26.745280
277.000000	26.927156
276.000000	27.198651
275.000000	27.458275
274.000000	27.790193
273.000000	27.933149
272.000000	28.303630
271.000000	28.398200
270.000000	28.509451
269.000000	28.593113
268.000000	28.841287
267.000000	29.119924
266.000000	29.359841
265.000000	29.515806
264.000000	29.773990
263.000000	30.113120
262.000000	30.458628
261.000000	30.674979
260.000000	30.692536
259.000000	30.935609
258.000000	31.140313
257.000000	31.512104
256.000000	31.790215
255.000000	31.891372
254.000000	31.874214
253.000000	31.780378
252.000000	31.578670
251.000000	31.328413
250.000000	30.854581
249.000000	30.196331
248.000000	29.383877
247.000000	28.308188
246.000000	27.097534
245.000000	25.712188
244.000000	24.329344
243.000000	22.835013
242.000000	21.304402
241.000000	19.878080
240.000000	18.583520
239.000000	17.258474
238.000000	16.181363
237.000000	15.244868
236.000000	14.495642
235.000000	13.852419
234.000000	13.244299
233.000000	12.693169
232.000000	12.203990
231.000000	11.705173
230.000000	11.182680
229.000000	10.769149
228.000000	10.348966
227.000000	10.013588
226.000000	9.775903
225.000000	9.485100
224.000000	9.231359
223.000000	9.064665
222.000000	8.931334
221.000000	8.805163
220.000000	8.820820
219.000000	8.856440
218.000000	8.852107
217.000000	8.842952
216.000000	8.878634
215.000000	8.894083
214.000000	9.053179
213.000000	9.161944
212.000000	9.234119
211.000000	9.391835
210.000000	9.547713
209.000000	9.656322
208.000000	9.819779
207.000000	10.096221
206.000000	10.402743
205.000000	10.650910
204.000000	11.007684
203.000000	11.406861
202.000000	11.566975
201.000000	11.783382
200.000000	12.159625
