PE UV       SUBTECH     SPECTRUM    ASCII       PEDS        4.00        
   -1
RDgChevreUK 12.Sample.asc
18/03/12
09:08:52.00
18/03/12
09:08:52.00
Administrator

200.000000
1
Lambda 750
750N8071901
PerkinElmer UV WinLab 6.0.4.0738 / 1.61.00 Lambda 900

0
0
3350/servo 860.8/2
0
0
UV/VIS
1
1
1
CommonBeamDepol,150mm sphere / downward view
0
0
0
0
Program
Program
3350/servo 860.8/2
3350/0.2 860.8/0.2
3350/0.2 860.8/0.2
0
1
 
 
 
0
 
860.8
319.2
860.8
Front
100
on
 
 
0
0
0
 
0
 
 
 
0
 
 
0
0
0
0
0
 
 
 
 
0
0


0
0
#HDR
-1
-1
#GR
nm
%R
1.0
0.0
2350.000000
-1.000000
2151
8
64.014198
8.290699
#DATA
2350.000000	31.839044
2349.000000	31.569924
2348.000000	31.655144
2347.000000	32.601780
2346.000000	32.192315
2345.000000	32.130569
2344.000000	31.766806
2343.000000	31.898691
2342.000000	31.845581
2341.000000	32.081514
2340.000000	31.972158
2339.000000	32.264829
2338.000000	32.757449
2337.000000	32.586060
2336.000000	32.261294
2335.000000	32.425237
2334.000000	32.491957
2333.000000	33.032300
2332.000000	32.709388
2331.000000	32.543798
2330.000000	32.734924
2329.000000	32.646773
2328.000000	32.549516
2327.000000	32.335613
2326.000000	32.776615
2325.000000	32.398305
2324.000000	32.569686
2323.000000	32.474168
2322.000000	32.196669
2321.000000	32.188121
2320.000000	32.228140
2319.000000	32.217890
2318.000000	32.413183
2317.000000	32.458478
2316.000000	32.368791
2315.000000	32.416993
2314.000000	32.145915
2313.000000	32.015890
2312.000000	32.051134
2311.000000	32.080226
2310.000000	31.953223
2309.000000	31.917637
2308.000000	31.844115
2307.000000	31.648782
2306.000000	31.905485
2305.000000	31.918107
2304.000000	31.798604
2303.000000	31.806824
2302.000000	31.666360
2301.000000	31.673161
2300.000000	31.514062
2299.000000	31.383006
2298.000000	31.325768
2297.000000	31.173888
2296.000000	31.280494
2295.000000	31.122200
2294.000000	30.866112
2293.000000	30.982319
2292.000000	30.908689
2291.000000	30.594397
2290.000000	30.848222
2289.000000	31.049556
2288.000000	31.078631
2287.000000	30.991407
2286.000000	30.745868
2285.000000	30.807932
2284.000000	30.672282
2283.000000	30.539132
2282.000000	30.724438
2281.000000	30.793881
2280.000000	30.796882
2279.000000	30.665294
2278.000000	30.618021
2277.000000	30.782061
2276.000000	30.611181
2275.000000	30.793071
2274.000000	30.854066
2273.000000	30.813690
2272.000000	30.881276
2271.000000	30.849777
2270.000000	30.967820
2269.000000	30.999783
2268.000000	31.002519
2267.000000	31.083953
2266.000000	31.117857
2265.000000	31.030703
2264.000000	31.212075
2263.000000	31.296506
2262.000000	31.389821
2261.000000	31.571445
2260.000000	31.733737
2259.000000	31.848666
2258.000000	31.859181
2257.000000	32.007241
2256.000000	32.253077
2255.000000	32.317289
2254.000000	32.319277
2253.000000	32.461663
2252.000000	32.636120
2251.000000	32.734736
2250.000000	32.779502
2249.000000	32.903667
2248.000000	33.112182
2247.000000	33.383749
2246.000000	33.397576
2245.000000	33.358969
2244.000000	33.529343
2243.000000	33.778265
2242.000000	33.903738
2241.000000	33.950366
2240.000000	34.119432
2239.000000	34.253776
2238.000000	34.342200
2237.000000	34.497231
2236.000000	34.613007
2235.000000	34.627196
2234.000000	34.635077
2233.000000	34.676555
2232.000000	34.677593
2231.000000	34.660036
2230.000000	34.677920
2229.000000	34.840586
2228.000000	34.868561
2227.000000	34.855206
2226.000000	34.805687
2225.000000	34.653421
2224.000000	34.658088
2223.000000	34.692905
2222.000000	34.710944
2221.000000	34.708590
2220.000000	34.750371
2219.000000	34.718644
2218.000000	34.813652
2217.000000	34.800891
2216.000000	34.710690
2215.000000	34.462230
2214.000000	34.396102
2213.000000	34.473300
2212.000000	34.454032
2211.000000	34.343229
2210.000000	34.334102
2209.000000	34.160625
2208.000000	34.173890
2207.000000	34.289127
2206.000000	34.265555
2205.000000	34.192962
2204.000000	34.120858
2203.000000	34.081585
2202.000000	34.081240
2201.000000	34.055038
2200.000000	33.857412
2199.000000	33.961979
2198.000000	33.857540
2197.000000	33.732731
2196.000000	33.818308
2195.000000	33.745875
2194.000000	33.639644
2193.000000	33.548427
2192.000000	33.447922
2191.000000	33.424766
2190.000000	33.425537
2189.000000	33.363778
2188.000000	33.345400
2187.000000	33.358031
2186.000000	33.424470
2185.000000	33.216497
2184.000000	33.435225
2183.000000	33.455001
2182.000000	33.332157
2181.000000	33.211230
2180.000000	33.291308
2179.000000	33.141596
2178.000000	33.111124
2177.000000	33.268962
2176.000000	33.314087
2175.000000	33.454653
2174.000000	33.496646
2173.000000	33.434296
2172.000000	33.674831
2171.000000	33.668081
2170.000000	33.616863
2169.000000	33.665151
2168.000000	33.817776
2167.000000	33.751598
2166.000000	33.802612
2165.000000	33.852418
2164.000000	34.068452
2163.000000	33.898706
2162.000000	34.039295
2161.000000	34.061295
2160.000000	34.206024
2159.000000	34.353512
2158.000000	34.380078
2157.000000	34.415265
2156.000000	34.651954
2155.000000	34.692523
2154.000000	34.927493
2153.000000	35.228342
2152.000000	35.125827
2151.000000	35.043339
2150.000000	35.312847
2149.000000	35.229884
2148.000000	35.412755
2147.000000	35.690779
2146.000000	35.826062
2145.000000	35.933227
2144.000000	35.930905
2143.000000	36.113594
2142.000000	36.165233
2141.000000	36.248993
2140.000000	36.475728
2139.000000	36.349325
2138.000000	36.460372
2137.000000	36.541268
2136.000000	36.506466
2135.000000	36.608898
2134.000000	36.857231
2133.000000	36.677249
2132.000000	36.807228
2131.000000	37.121577
2130.000000	37.067417
2129.000000	37.067971
2128.000000	37.099711
2127.000000	36.995555
2126.000000	37.124485
2125.000000	37.171421
2124.000000	37.142524
2123.000000	37.120417
2122.000000	37.322358
2121.000000	37.250625
2120.000000	37.176647
2119.000000	37.425522
2118.000000	37.415036
2117.000000	37.393312
2116.000000	37.402295
2115.000000	37.469290
2114.000000	37.390664
2113.000000	37.389898
2112.000000	37.415838
2111.000000	37.516875
2110.000000	37.578800
2109.000000	37.464509
2108.000000	37.519901
2107.000000	37.523836
2106.000000	37.588135
2105.000000	37.511583
2104.000000	37.448742
2103.000000	37.564325
2102.000000	37.485262
2101.000000	37.581834
2100.000000	37.549795
2099.000000	37.565699
2098.000000	37.579589
2097.000000	37.488339
2096.000000	37.497973
2095.000000	37.518031
2094.000000	37.533605
2093.000000	37.556022
2092.000000	37.537632
2091.000000	37.475960
2090.000000	37.472194
2089.000000	37.455537
2088.000000	37.393733
2087.000000	37.324507
2086.000000	37.407003
2085.000000	37.369050
2084.000000	37.253180
2083.000000	37.327225
2082.000000	37.156805
2081.000000	37.121827
2080.000000	37.115756
2079.000000	37.030683
2078.000000	36.959871
2077.000000	36.943028
2076.000000	36.816334
2075.000000	36.802111
2074.000000	36.735163
2073.000000	36.595794
2072.000000	36.485429
2071.000000	36.358780
2070.000000	36.368458
2069.000000	36.265077
2068.000000	36.186815
2067.000000	36.079585
2066.000000	35.960568
2065.000000	35.830306
2064.000000	35.703408
2063.000000	35.581589
2062.000000	35.466268
2061.000000	35.342065
2060.000000	35.316502
2059.000000	35.314132
2058.000000	35.208488
2057.000000	35.112856
2056.000000	35.003150
2055.000000	34.880700
2054.000000	34.767500
2053.000000	34.666063
2052.000000	34.567134
2051.000000	34.438534
2050.000000	34.376571
2049.000000	34.395918
2048.000000	34.299079
2047.000000	34.257709
2046.000000	34.242335
2045.000000	34.198151
2044.000000	34.223019
2043.000000	34.189067
2042.000000	34.169100
2041.000000	34.198458
2040.000000	34.157369
2039.000000	34.180921
2038.000000	34.224679
2037.000000	34.220668
2036.000000	34.220563
2035.000000	34.301563
2034.000000	34.369665
2033.000000	34.423318
2032.000000	34.491895
2031.000000	34.558786
2030.000000	34.630126
2029.000000	34.762577
2028.000000	34.828118
2027.000000	34.897562
2026.000000	34.922736
2025.000000	34.940089
2024.000000	34.984735
2023.000000	34.976148
2022.000000	34.972999
2021.000000	34.982499
2020.000000	35.043012
2019.000000	35.117391
2018.000000	35.139120
2017.000000	35.096911
2016.000000	35.080423
2015.000000	35.072883
2014.000000	35.032408
2013.000000	34.997431
2012.000000	34.981405
2011.000000	34.987914
2010.000000	34.888854
2009.000000	34.825509
2008.000000	34.781311
2007.000000	34.721601
2006.000000	34.633332
2005.000000	34.596700
2004.000000	34.528256
2003.000000	34.475122
2002.000000	34.416910
2001.000000	34.329260
2000.000000	34.250069
1999.000000	34.181141
1998.000000	34.113868
1997.000000	34.032893
1996.000000	33.980346
1995.000000	33.871335
1994.000000	33.777041
1993.000000	33.736767
1992.000000	33.601789
1991.000000	33.533571
1990.000000	33.512363
1989.000000	33.445773
1988.000000	33.326077
1987.000000	33.278037
1986.000000	33.173897
1985.000000	33.050768
1984.000000	33.017124
1983.000000	32.997793
1982.000000	32.889689
1981.000000	32.858510
1980.000000	32.747821
1979.000000	32.634708
1978.000000	32.584666
1977.000000	32.532138
1976.000000	32.444689
1975.000000	32.412775
1974.000000	32.336289
1973.000000	32.240319
1972.000000	32.127630
1971.000000	32.113192
1970.000000	32.038507
1969.000000	31.985963
1968.000000	31.916107
1967.000000	31.875723
1966.000000	31.823021
1965.000000	31.763766
1964.000000	31.653113
1963.000000	31.626404
1962.000000	31.573057
1961.000000	31.504252
1960.000000	31.431624
1959.000000	31.339402
1958.000000	31.339614
1957.000000	31.285193
1956.000000	31.261202
1955.000000	31.200362
1954.000000	31.138218
1953.000000	31.139802
1952.000000	31.138110
1951.000000	31.159561
1950.000000	31.023606
1949.000000	31.066147
1948.000000	31.073702
1947.000000	31.109418
1946.000000	30.966937
1945.000000	30.993587
1944.000000	31.065372
1943.000000	31.153054
1942.000000	31.123442
1941.000000	31.149683
1940.000000	31.168394
1939.000000	31.203257
1938.000000	31.186616
1937.000000	31.342345
1936.000000	31.456194
1935.000000	31.428748
1934.000000	31.458976
1933.000000	31.675108
1932.000000	31.614046
1931.000000	31.799475
1930.000000	31.925979
1929.000000	32.011551
1928.000000	32.215431
1927.000000	32.343620
1926.000000	32.570815
1925.000000	32.696559
1924.000000	32.849876
1923.000000	32.984157
1922.000000	33.206489
1921.000000	33.347368
1920.000000	33.548293
1919.000000	33.849138
1918.000000	34.064630
1917.000000	34.235559
1916.000000	34.482894
1915.000000	34.763978
1914.000000	35.127317
1913.000000	35.351341
1912.000000	35.588511
1911.000000	35.836740
1910.000000	36.205814
1909.000000	36.464805
1908.000000	36.747124
1907.000000	37.153771
1906.000000	37.386831
1905.000000	37.822735
1904.000000	38.137012
1903.000000	38.565785
1902.000000	38.985108
1901.000000	39.274112
1900.000000	39.793943
1899.000000	40.145022
1898.000000	40.558968
1897.000000	40.926536
1896.000000	41.368832
1895.000000	41.705095
1894.000000	42.131011
1893.000000	42.539494
1892.000000	42.934299
1891.000000	43.289039
1890.000000	43.689611
1889.000000	44.003791
1888.000000	44.367373
1887.000000	44.671671
1886.000000	45.064968
1885.000000	45.456290
1884.000000	45.816141
1883.000000	46.130161
1882.000000	46.381638
1881.000000	46.651250
1880.000000	46.989592
1879.000000	47.297292
1878.000000	47.543010
1877.000000	47.758798
1876.000000	47.947171
1875.000000	48.177536
1874.000000	48.440826
1873.000000	48.669464
1872.000000	48.858541
1871.000000	49.089062
1870.000000	49.215163
1869.000000	49.423144
1868.000000	49.551074
1867.000000	49.641106
1866.000000	49.809985
1865.000000	49.863543
1864.000000	49.907413
1863.000000	50.016303
1862.000000	50.113403
1861.000000	50.191936
1860.000000	50.241965
1859.000000	50.294515
1858.000000	50.361184
1857.000000	50.432164
1856.000000	50.455750
1855.000000	50.508801
1854.000000	50.541431
1853.000000	50.596745
1852.000000	50.569980
1851.000000	50.542750
1850.000000	50.544277
1849.000000	50.587793
1848.000000	50.630177
1847.000000	50.623768
1846.000000	50.593841
1845.000000	50.608384
1844.000000	50.574725
1843.000000	50.539527
1842.000000	50.530863
1841.000000	50.526013
1840.000000	50.478120
1839.000000	50.475653
1838.000000	50.454814
1837.000000	50.414767
1836.000000	50.388344
1835.000000	50.337241
1834.000000	50.291412
1833.000000	50.245072
1832.000000	50.197176
1831.000000	50.166916
1830.000000	50.154485
1829.000000	50.108709
1828.000000	50.041954
1827.000000	50.004347
1826.000000	49.999646
1825.000000	49.978109
1824.000000	49.937863
1823.000000	49.881772
1822.000000	49.829300
1821.000000	49.832992
1820.000000	49.823396
1819.000000	49.755209
1818.000000	49.715490
1817.000000	49.703450
1816.000000	49.675287
1815.000000	49.656562
1814.000000	49.618877
1813.000000	49.590408
1812.000000	49.587447
1811.000000	49.551607
1810.000000	49.508633
1809.000000	49.468013
1808.000000	49.428083
1807.000000	49.379904
1806.000000	49.342423
1805.000000	49.332561
1804.000000	49.314400
1803.000000	49.295709
1802.000000	49.250794
1801.000000	49.209262
1800.000000	49.216094
1799.000000	49.192494
1798.000000	49.152721
1797.000000	49.153382
1796.000000	49.139296
1795.000000	49.124733
1794.000000	49.138607
1793.000000	49.112621
1792.000000	49.070081
1791.000000	49.076007
1790.000000	49.061154
1789.000000	49.050954
1788.000000	49.026592
1787.000000	48.993917
1786.000000	48.967935
1785.000000	49.000228
1784.000000	48.979310
1783.000000	48.912153
1782.000000	48.908084
1781.000000	48.898383
1780.000000	48.859428
1779.000000	48.845639
1778.000000	48.809414
1777.000000	48.759215
1776.000000	48.727920
1775.000000	48.656378
1774.000000	48.630265
1773.000000	48.628322
1772.000000	48.579344
1771.000000	48.527395
1770.000000	48.485822
1769.000000	48.467820
1768.000000	48.411122
1767.000000	48.370911
1766.000000	48.333864
1765.000000	48.291891
1764.000000	48.272727
1763.000000	48.223386
1762.000000	48.186658
1761.000000	48.160707
1760.000000	48.117337
1759.000000	48.063435
1758.000000	48.018441
1757.000000	47.966794
1756.000000	47.955559
1755.000000	47.898672
1754.000000	47.852149
1753.000000	47.806447
1752.000000	47.782911
1751.000000	47.764795
1750.000000	47.707726
1749.000000	47.660009
1748.000000	47.613126
1747.000000	47.582636
1746.000000	47.559585
1745.000000	47.494102
1744.000000	47.442332
1743.000000	47.388370
1742.000000	47.334014
1741.000000	47.335916
1740.000000	47.275239
1739.000000	47.242725
1738.000000	47.192185
1737.000000	47.175993
1736.000000	47.153197
1735.000000	47.162705
1734.000000	47.165311
1733.000000	47.133914
1732.000000	47.128190
1731.000000	47.129960
1730.000000	47.126075
1729.000000	47.200467
1728.000000	47.249352
1727.000000	47.268745
1726.000000	47.323146
1725.000000	47.421480
1724.000000	47.451813
1723.000000	47.534781
1722.000000	47.606953
1721.000000	47.679762
1720.000000	47.758992
1719.000000	47.888633
1718.000000	47.965325
1717.000000	48.075074
1716.000000	48.119419
1715.000000	48.184058
1714.000000	48.241726
1713.000000	48.356248
1712.000000	48.380294
1711.000000	48.475198
1710.000000	48.569807
1709.000000	48.601950
1708.000000	48.611813
1707.000000	48.677555
1706.000000	48.700432
1705.000000	48.746982
1704.000000	48.800079
1703.000000	48.768162
1702.000000	48.782553
1701.000000	48.805694
1700.000000	48.818666
1699.000000	48.851534
1698.000000	48.849961
1697.000000	48.894773
1696.000000	48.920433
1695.000000	48.901240
1694.000000	48.944079
1693.000000	49.008114
1692.000000	49.050381
1691.000000	49.090913
1690.000000	49.195655
1689.000000	49.239151
1688.000000	49.322188
1687.000000	49.402037
1686.000000	49.526953
1685.000000	49.621509
1684.000000	49.774662
1683.000000	49.884682
1682.000000	50.001975
1681.000000	50.147408
1680.000000	50.278504
1679.000000	50.456380
1678.000000	50.623211
1677.000000	50.757277
1676.000000	50.896791
1675.000000	51.072294
1674.000000	51.202044
1673.000000	51.356695
1672.000000	51.502600
1671.000000	51.642660
1670.000000	51.786855
1669.000000	51.938739
1668.000000	52.036756
1667.000000	52.167445
1666.000000	52.248734
1665.000000	52.320009
1664.000000	52.409011
1663.000000	52.480194
1662.000000	52.557303
1661.000000	52.650589
1660.000000	52.701423
1659.000000	52.716556
1658.000000	52.786887
1657.000000	52.823354
1656.000000	52.879117
1655.000000	52.891696
1654.000000	52.896268
1653.000000	52.905858
1652.000000	52.940605
1651.000000	52.961375
1650.000000	52.935875
1649.000000	52.910551
1648.000000	52.896092
1647.000000	52.903153
1646.000000	52.880341
1645.000000	52.866296
1644.000000	52.865356
1643.000000	52.843081
1642.000000	52.803980
1641.000000	52.761685
1640.000000	52.729868
1639.000000	52.708232
1638.000000	52.692534
1637.000000	52.652918
1636.000000	52.620001
1635.000000	52.601354
1634.000000	52.560161
1633.000000	52.506411
1632.000000	52.460145
1631.000000	52.418969
1630.000000	52.387413
1629.000000	52.344928
1628.000000	52.308611
1627.000000	52.270447
1626.000000	52.218933
1625.000000	52.169723
1624.000000	52.128569
1623.000000	52.080758
1622.000000	52.050264
1621.000000	51.992423
1620.000000	51.929330
1619.000000	51.861528
1618.000000	51.806639
1617.000000	51.778415
1616.000000	51.737093
1615.000000	51.687841
1614.000000	51.617557
1613.000000	51.563360
1612.000000	51.522093
1611.000000	51.454109
1610.000000	51.382293
1609.000000	51.336666
1608.000000	51.286298
1607.000000	51.218619
1606.000000	51.158130
1605.000000	51.106016
1604.000000	51.037425
1603.000000	50.967160
1602.000000	50.916184
1601.000000	50.867433
1600.000000	50.820236
1599.000000	50.760510
1598.000000	50.698498
1597.000000	50.657466
1596.000000	50.596910
1595.000000	50.547901
1594.000000	50.502274
1593.000000	50.451088
1592.000000	50.397395
1591.000000	50.342271
1590.000000	50.300090
1589.000000	50.249779
1588.000000	50.205938
1587.000000	50.172125
1586.000000	50.122338
1585.000000	50.072030
1584.000000	50.033457
1583.000000	49.983096
1582.000000	49.931026
1581.000000	49.896161
1580.000000	49.856228
1579.000000	49.822625
1578.000000	49.788895
1577.000000	49.736224
1576.000000	49.691809
1575.000000	49.648265
1574.000000	49.597415
1573.000000	49.542786
1572.000000	49.498397
1571.000000	49.471377
1570.000000	49.426584
1569.000000	49.394973
1568.000000	49.347637
1567.000000	49.304036
1566.000000	49.271557
1565.000000	49.257533
1564.000000	49.229303
1563.000000	49.200883
1562.000000	49.141464
1561.000000	49.114780
1560.000000	49.133354
1559.000000	49.093398
1558.000000	49.058110
1557.000000	49.054748
1556.000000	49.014179
1555.000000	48.990940
1554.000000	48.955940
1553.000000	48.945494
1552.000000	48.898068
1551.000000	48.864080
1550.000000	48.833113
1549.000000	48.777791
1548.000000	48.757234
1547.000000	48.693926
1546.000000	48.637650
1545.000000	48.569500
1544.000000	48.532335
1543.000000	48.471240
1542.000000	48.409838
1541.000000	48.331030
1540.000000	48.262033
1539.000000	48.178227
1538.000000	48.108534
1537.000000	48.033683
1536.000000	47.959352
1535.000000	47.895924
1534.000000	47.813543
1533.000000	47.762246
1532.000000	47.683384
1531.000000	47.606964
1530.000000	47.550751
1529.000000	47.474737
1528.000000	47.410086
1527.000000	47.359974
1526.000000	47.317403
1525.000000	47.258849
1524.000000	47.202830
1523.000000	47.165193
1522.000000	47.114229
1521.000000	47.077259
1520.000000	47.037609
1519.000000	47.012731
1518.000000	47.003224
1517.000000	46.964307
1516.000000	46.931685
1515.000000	46.888760
1514.000000	46.852117
1513.000000	46.842688
1512.000000	46.814082
1511.000000	46.826491
1510.000000	46.773241
1509.000000	46.755841
1508.000000	46.762783
1507.000000	46.736603
1506.000000	46.716384
1505.000000	46.707010
1504.000000	46.701997
1503.000000	46.680852
1502.000000	46.687461
1501.000000	46.692396
1500.000000	46.656987
1499.000000	46.661189
1498.000000	46.667173
1497.000000	46.667860
1496.000000	46.678564
1495.000000	46.680718
1494.000000	46.676109
1493.000000	46.697085
1492.000000	46.698801
1491.000000	46.759867
1490.000000	46.764052
1489.000000	46.784518
1488.000000	46.812955
1487.000000	46.809591
1486.000000	46.844936
1485.000000	46.863338
1484.000000	46.897779
1483.000000	46.936276
1482.000000	46.939254
1481.000000	46.967750
1480.000000	47.005624
1479.000000	47.042282
1478.000000	47.074710
1477.000000	47.077202
1476.000000	47.104175
1475.000000	47.139996
1474.000000	47.159969
1473.000000	47.202275
1472.000000	47.227385
1471.000000	47.250466
1470.000000	47.297862
1469.000000	47.331764
1468.000000	47.375703
1467.000000	47.397042
1466.000000	47.440045
1465.000000	47.450101
1464.000000	47.488728
1463.000000	47.512588
1462.000000	47.581547
1461.000000	47.607939
1460.000000	47.629985
1459.000000	47.695249
1458.000000	47.753151
1457.000000	47.781400
1456.000000	47.832359
1455.000000	47.886155
1454.000000	47.924987
1453.000000	47.993297
1452.000000	48.056004
1451.000000	48.121378
1450.000000	48.191100
1449.000000	48.245462
1448.000000	48.329793
1447.000000	48.403143
1446.000000	48.480287
1445.000000	48.550560
1444.000000	48.626599
1443.000000	48.692629
1442.000000	48.780798
1441.000000	48.866131
1440.000000	48.981446
1439.000000	49.072692
1438.000000	49.167637
1437.000000	49.270424
1436.000000	49.371793
1435.000000	49.484020
1434.000000	49.595464
1433.000000	49.693479
1432.000000	49.815960
1431.000000	49.964780
1430.000000	50.087409
1429.000000	50.198404
1428.000000	50.354234
1427.000000	50.495745
1426.000000	50.632147
1425.000000	50.785404
1424.000000	50.937966
1423.000000	51.092950
1422.000000	51.262903
1421.000000	51.423653
1420.000000	51.591797
1419.000000	51.767426
1418.000000	51.938712
1417.000000	52.109489
1416.000000	52.282877
1415.000000	52.467115
1414.000000	52.674573
1413.000000	52.859377
1412.000000	53.051200
1411.000000	53.259199
1410.000000	53.439317
1409.000000	53.638758
1408.000000	53.830844
1407.000000	54.020371
1406.000000	54.227740
1405.000000	54.417006
1404.000000	54.597165
1403.000000	54.793548
1402.000000	54.986745
1401.000000	55.176068
1400.000000	55.346092
1399.000000	55.510690
1398.000000	55.691224
1397.000000	55.873149
1396.000000	56.035394
1395.000000	56.200158
1394.000000	56.362171
1393.000000	56.522216
1392.000000	56.670149
1391.000000	56.812247
1390.000000	56.947371
1389.000000	57.070994
1388.000000	57.219073
1387.000000	57.334719
1386.000000	57.439507
1385.000000	57.569715
1384.000000	57.700114
1383.000000	57.819043
1382.000000	57.897718
1381.000000	57.992244
1380.000000	58.083617
1379.000000	58.159845
1378.000000	58.254763
1377.000000	58.354852
1376.000000	58.432926
1375.000000	58.481686
1374.000000	58.547373
1373.000000	58.605720
1372.000000	58.654043
1371.000000	58.731250
1370.000000	58.794315
1369.000000	58.837875
1368.000000	58.883228
1367.000000	58.926082
1366.000000	58.977198
1365.000000	59.036365
1364.000000	59.103404
1363.000000	59.158495
1362.000000	59.211810
1361.000000	59.278228
1360.000000	59.354117
1359.000000	59.407785
1358.000000	59.480573
1357.000000	59.524354
1356.000000	59.569170
1355.000000	59.657816
1354.000000	59.736215
1353.000000	59.798449
1352.000000	59.848081
1351.000000	59.904838
1350.000000	59.974486
1349.000000	60.054030
1348.000000	60.113618
1347.000000	60.162066
1346.000000	60.244375
1345.000000	60.317323
1344.000000	60.350625
1343.000000	60.410823
1342.000000	60.482623
1341.000000	60.532165
1340.000000	60.588680
1339.000000	60.649081
1338.000000	60.710242
1337.000000	60.751284
1336.000000	60.799597
1335.000000	60.850624
1334.000000	60.888396
1333.000000	60.956493
1332.000000	61.063263
1331.000000	61.130831
1330.000000	61.171806
1329.000000	61.203314
1328.000000	61.227887
1327.000000	61.262648
1326.000000	61.273233
1325.000000	61.282969
1324.000000	61.340404
1323.000000	61.380779
1322.000000	61.421987
1321.000000	61.450703
1320.000000	61.458905
1319.000000	61.495544
1318.000000	61.534822
1317.000000	61.549514
1316.000000	61.555513
1315.000000	61.599265
1314.000000	61.643861
1313.000000	61.667474
1312.000000	61.665641
1311.000000	61.670146
1310.000000	61.701468
1309.000000	61.737893
1308.000000	61.748749
1307.000000	61.751256
1306.000000	61.762121
1305.000000	61.829847
1304.000000	61.840939
1303.000000	61.838056
1302.000000	61.850318
1301.000000	61.850271
1300.000000	61.854716
1299.000000	61.887702
1298.000000	61.899254
1297.000000	61.915968
1296.000000	61.895944
1295.000000	61.915304
1294.000000	61.891803
1293.000000	61.905165
1292.000000	61.900706
1291.000000	61.908030
1290.000000	61.900793
1289.000000	61.870957
1288.000000	61.872926
1287.000000	61.851904
1286.000000	61.874252
1285.000000	61.880202
1284.000000	61.883315
1283.000000	61.884765
1282.000000	61.860811
1281.000000	61.878913
1280.000000	61.867709
1279.000000	61.878504
1278.000000	61.867438
1277.000000	61.824384
1276.000000	61.843364
1275.000000	61.818917
1274.000000	61.842120
1273.000000	61.857864
1272.000000	61.853096
1271.000000	61.838562
1270.000000	61.868555
1269.000000	61.891104
1268.000000	61.911043
1267.000000	61.929824
1266.000000	61.903203
1265.000000	61.932462
1264.000000	61.941131
1263.000000	61.934826
1262.000000	61.956954
1261.000000	62.000238
1260.000000	62.024233
1259.000000	62.000266
1258.000000	62.002565
1257.000000	62.001255
1256.000000	62.007602
1255.000000	62.002626
1254.000000	62.036393
1253.000000	62.038917
1252.000000	62.047703
1251.000000	62.038660
1250.000000	62.052066
1249.000000	62.040165
1248.000000	62.019025
1247.000000	62.004382
1246.000000	62.005732
1245.000000	62.008815
1244.000000	61.966346
1243.000000	61.951124
1242.000000	61.951351
1241.000000	61.945972
1240.000000	61.923925
1239.000000	61.889587
1238.000000	61.872992
1237.000000	61.849408
1236.000000	61.836617
1235.000000	61.811928
1234.000000	61.747335
1233.000000	61.753353
1232.000000	61.718889
1231.000000	61.704556
1230.000000	61.665681
1229.000000	61.647771
1228.000000	61.645714
1227.000000	61.623916
1226.000000	61.601879
1225.000000	61.589134
1224.000000	61.566776
1223.000000	61.536605
1222.000000	61.487208
1221.000000	61.464146
1220.000000	61.445251
1219.000000	61.412171
1218.000000	61.383868
1217.000000	61.361857
1216.000000	61.358434
1215.000000	61.351822
1214.000000	61.334098
1213.000000	61.284323
1212.000000	61.260964
1211.000000	61.265025
1210.000000	61.237284
1209.000000	61.186482
1208.000000	61.165739
1207.000000	61.161342
1206.000000	61.107589
1205.000000	61.095180
1204.000000	61.081447
1203.000000	61.042448
1202.000000	61.007156
1201.000000	60.979072
1200.000000	60.970936
1199.000000	60.923332
1198.000000	60.889402
1197.000000	60.853231
1196.000000	60.840238
1195.000000	60.844494
1194.000000	60.856519
1193.000000	60.834544
1192.000000	60.808651
1191.000000	60.813161
1190.000000	60.779304
1189.000000	60.717443
1188.000000	60.725598
1187.000000	60.721431
1186.000000	60.714967
1185.000000	60.725121
1184.000000	60.743739
1183.000000	60.748148
1182.000000	60.763495
1181.000000	60.800580
1180.000000	60.840681
1179.000000	60.870840
1178.000000	60.893980
1177.000000	60.934872
1176.000000	60.989897
1175.000000	61.041265
1174.000000	61.082306
1173.000000	61.133942
1172.000000	61.200349
1171.000000	61.265182
1170.000000	61.324894
1169.000000	61.394035
1168.000000	61.464472
1167.000000	61.520759
1166.000000	61.562840
1165.000000	61.624947
1164.000000	61.714517
1163.000000	61.786654
1162.000000	61.855987
1161.000000	61.924065
1160.000000	61.995962
1159.000000	62.069781
1158.000000	62.147606
1157.000000	62.221020
1156.000000	62.278375
1155.000000	62.347298
1154.000000	62.407253
1153.000000	62.463302
1152.000000	62.525699
1151.000000	62.584440
1150.000000	62.644201
1149.000000	62.701179
1148.000000	62.735799
1147.000000	62.772291
1146.000000	62.828857
1145.000000	62.883779
1144.000000	62.934806
1143.000000	62.979286
1142.000000	63.009245
1141.000000	63.053242
1140.000000	63.109337
1139.000000	63.157858
1138.000000	63.195172
1137.000000	63.228631
1136.000000	63.276343
1135.000000	63.289965
1134.000000	63.315365
1133.000000	63.361211
1132.000000	63.392780
1131.000000	63.428836
1130.000000	63.462942
1129.000000	63.475023
1128.000000	63.490090
1127.000000	63.536030
1126.000000	63.564557
1125.000000	63.576691
1124.000000	63.598173
1123.000000	63.612263
1122.000000	63.631169
1121.000000	63.645229
1120.000000	63.654964
1119.000000	63.655265
1118.000000	63.657764
1117.000000	63.664067
1116.000000	63.691587
1115.000000	63.695462
1114.000000	63.702154
1113.000000	63.715692
1112.000000	63.718785
1111.000000	63.732743
1110.000000	63.729259
1109.000000	63.738837
1108.000000	63.739162
1107.000000	63.749168
1106.000000	63.766270
1105.000000	63.762543
1104.000000	63.764056
1103.000000	63.771434
1102.000000	63.773909
1101.000000	63.763998
1100.000000	63.752420
1099.000000	63.755344
1098.000000	63.758272
1097.000000	63.773868
1096.000000	63.787223
1095.000000	63.784114
1094.000000	63.767386
1093.000000	63.735197
1092.000000	63.739152
1091.000000	63.743875
1090.000000	63.764605
1089.000000	63.756146
1088.000000	63.753421
1087.000000	63.748349
1086.000000	63.728574
1085.000000	63.735918
1084.000000	63.732712
1083.000000	63.725801
1082.000000	63.743372
1081.000000	63.723625
1080.000000	63.714949
1079.000000	63.702489
1078.000000	63.704221
1077.000000	63.713837
1076.000000	63.714110
1075.000000	63.721643
1074.000000	63.679843
1073.000000	63.668036
1072.000000	63.663490
1071.000000	63.648149
1070.000000	63.668948
1069.000000	63.651698
1068.000000	63.623909
1067.000000	63.631877
1066.000000	63.627420
1065.000000	63.620860
1064.000000	63.596038
1063.000000	63.591190
1062.000000	63.595885
1061.000000	63.592768
1060.000000	63.572869
1059.000000	63.551339
1058.000000	63.564658
1057.000000	63.548164
1056.000000	63.551269
1055.000000	63.527113
1054.000000	63.536277
1053.000000	63.537021
1052.000000	63.528911
1051.000000	63.522629
1050.000000	63.521487
1049.000000	63.512071
1048.000000	63.508131
1047.000000	63.500170
1046.000000	63.502754
1045.000000	63.498613
1044.000000	63.484028
1043.000000	63.487928
1042.000000	63.458285
1041.000000	63.475356
1040.000000	63.463132
1039.000000	63.475904
1038.000000	63.449138
1037.000000	63.416140
1036.000000	63.443341
1035.000000	63.447848
1034.000000	63.441511
1033.000000	63.433133
1032.000000	63.426130
1031.000000	63.413969
1030.000000	63.410339
1029.000000	63.427533
1028.000000	63.420662
1027.000000	63.432131
1026.000000	63.414231
1025.000000	63.395340
1024.000000	63.383733
1023.000000	63.388940
1022.000000	63.387978
1021.000000	63.405617
1020.000000	63.398034
1019.000000	63.391923
1018.000000	63.396534
1017.000000	63.412832
1016.000000	63.395048
1015.000000	63.404616
1014.000000	63.405295
1013.000000	63.421963
1012.000000	63.403561
1011.000000	63.398528
1010.000000	63.392736
1009.000000	63.389450
1008.000000	63.406144
1007.000000	63.405739
1006.000000	63.417990
1005.000000	63.405791
1004.000000	63.408568
1003.000000	63.409998
1002.000000	63.416491
1001.000000	63.432414
1000.000000	63.440026
999.000000	63.418805
998.000000	63.427611
997.000000	63.444779
996.000000	63.432669
995.000000	63.436408
994.000000	63.425524
993.000000	63.444608
992.000000	63.452884
991.000000	63.450220
990.000000	63.462364
989.000000	63.443473
988.000000	63.455488
987.000000	63.464175
986.000000	63.487110
985.000000	63.491205
984.000000	63.485687
983.000000	63.491972
982.000000	63.502514
981.000000	63.516437
980.000000	63.507205
979.000000	63.518592
978.000000	63.536520
977.000000	63.522469
976.000000	63.530767
975.000000	63.567098
974.000000	63.566169
973.000000	63.559377
972.000000	63.575763
971.000000	63.576629
970.000000	63.582406
969.000000	63.609741
968.000000	63.610623
967.000000	63.615142
966.000000	63.625167
965.000000	63.637693
964.000000	63.646934
963.000000	63.639515
962.000000	63.653031
961.000000	63.682594
960.000000	63.672903
959.000000	63.692283
958.000000	63.704478
957.000000	63.693453
956.000000	63.687436
955.000000	63.699899
954.000000	63.718948
953.000000	63.734136
952.000000	63.744922
951.000000	63.747554
950.000000	63.740402
949.000000	63.743605
948.000000	63.746304
947.000000	63.757741
946.000000	63.780930
945.000000	63.793868
944.000000	63.782392
943.000000	63.773806
942.000000	63.763385
941.000000	63.782852
940.000000	63.810774
939.000000	63.801962
938.000000	63.778444
937.000000	63.790322
936.000000	63.791053
935.000000	63.793439
934.000000	63.831053
933.000000	63.834194
932.000000	63.814163
931.000000	63.820415
930.000000	63.816285
929.000000	63.813414
928.000000	63.795385
927.000000	63.792963
926.000000	63.800848
925.000000	63.793978
924.000000	63.784525
923.000000	63.799878
922.000000	63.772741
921.000000	63.753295
920.000000	63.782067
919.000000	63.782915
918.000000	63.774681
917.000000	63.793946
916.000000	63.758712
915.000000	63.703362
914.000000	63.753758
913.000000	63.783229
912.000000	63.758961
911.000000	63.748898
910.000000	63.770052
909.000000	63.779126
908.000000	63.803409
907.000000	63.769100
906.000000	63.766231
905.000000	63.780636
904.000000	63.770454
903.000000	63.771484
902.000000	63.848116
901.000000	63.798462
900.000000	63.790375
899.000000	63.762433
898.000000	63.745654
897.000000	63.858403
896.000000	63.816908
895.000000	63.806180
894.000000	63.840773
893.000000	63.855645
892.000000	63.861822
891.000000	63.842786
890.000000	63.914081
889.000000	63.913188
888.000000	63.874198
887.000000	63.920757
886.000000	63.921214
885.000000	63.946316
884.000000	63.902429
883.000000	63.882767
882.000000	63.905224
881.000000	63.866326
880.000000	63.919631
879.000000	63.933090
878.000000	63.956375
877.000000	63.965254
876.000000	63.965370
875.000000	63.900430
874.000000	63.924931
873.000000	63.869949
872.000000	63.911867
871.000000	63.980505
870.000000	63.946859
869.000000	63.972205
868.000000	63.910907
867.000000	63.963915
866.000000	63.956479
865.000000	63.956309
864.000000	63.929312
863.000000	63.985925
862.000000	64.014198
861.000000	63.868493
860.000000	63.934432
859.000000	63.604111
858.000000	63.450913
857.000000	63.600722
856.000000	63.800900
855.000000	63.822682
854.000000	63.712944
853.000000	63.807545
852.000000	63.793675
851.000000	63.993153
850.000000	63.713301
849.000000	63.515180
848.000000	63.542128
847.000000	63.749332
846.000000	63.604580
845.000000	63.695662
844.000000	63.851773
843.000000	63.765711
842.000000	63.531354
841.000000	63.587136
840.000000	63.519169
839.000000	63.733456
838.000000	63.915416
837.000000	63.662857
836.000000	63.555876
835.000000	63.635497
834.000000	63.775871
833.000000	63.589983
832.000000	63.985638
831.000000	63.631819
830.000000	63.758219
829.000000	63.719814
828.000000	63.684564
827.000000	63.563127
826.000000	63.750571
825.000000	63.700996
824.000000	63.699240
823.000000	63.416728
822.000000	63.751445
821.000000	63.697307
820.000000	63.620809
819.000000	63.822062
818.000000	63.752969
817.000000	63.738862
816.000000	63.811369
815.000000	63.569951
814.000000	63.761840
813.000000	63.732563
812.000000	63.593819
811.000000	63.786365
810.000000	63.622454
809.000000	63.609203
808.000000	63.725645
807.000000	63.500773
806.000000	63.637539
805.000000	63.638574
804.000000	63.614775
803.000000	63.800878
802.000000	63.613650
801.000000	63.652199
800.000000	63.834426
799.000000	63.781053
798.000000	63.752731
797.000000	63.779170
796.000000	63.668102
795.000000	63.587488
794.000000	63.731265
793.000000	63.639882
792.000000	63.676352
791.000000	63.621270
790.000000	63.630886
789.000000	63.613199
788.000000	63.668898
787.000000	63.522337
786.000000	63.587942
785.000000	63.620989
784.000000	63.633286
783.000000	63.651482
782.000000	63.649768
781.000000	63.632059
780.000000	63.674306
779.000000	63.648116
778.000000	63.620069
777.000000	63.686320
776.000000	63.638697
775.000000	63.654148
774.000000	63.578658
773.000000	63.585435
772.000000	63.593777
771.000000	63.602061
770.000000	63.573469
769.000000	63.608139
768.000000	63.487199
767.000000	63.508226
766.000000	63.585869
765.000000	63.524940
764.000000	63.495218
763.000000	63.569690
762.000000	63.514119
761.000000	63.538703
760.000000	63.606937
759.000000	63.574019
758.000000	63.515538
757.000000	63.560733
756.000000	63.497860
755.000000	63.505986
754.000000	63.492815
753.000000	63.549577
752.000000	63.467754
751.000000	63.530777
750.000000	63.445915
749.000000	63.435906
748.000000	63.365582
747.000000	63.386435
746.000000	63.408494
745.000000	63.494308
744.000000	63.465982
743.000000	63.481071
742.000000	63.525520
741.000000	63.428277
740.000000	63.397699
739.000000	63.403117
738.000000	63.405551
737.000000	63.405345
736.000000	63.415726
735.000000	63.460580
734.000000	63.374651
733.000000	63.335772
732.000000	63.393351
731.000000	63.349849
730.000000	63.369233
729.000000	63.376785
728.000000	63.335711
727.000000	63.404815
726.000000	63.355002
725.000000	63.307150
724.000000	63.304386
723.000000	63.312220
722.000000	63.299848
721.000000	63.335390
720.000000	63.399800
719.000000	63.329129
718.000000	63.293367
717.000000	63.323404
716.000000	63.317354
715.000000	63.251258
714.000000	63.196444
713.000000	63.237212
712.000000	63.277670
711.000000	63.268277
710.000000	63.267209
709.000000	63.248072
708.000000	63.211691
707.000000	63.216156
706.000000	63.210025
705.000000	63.191823
704.000000	63.167203
703.000000	63.146816
702.000000	63.186698
701.000000	63.204909
700.000000	63.270154
699.000000	63.251506
698.000000	63.178412
697.000000	63.174670
696.000000	63.175773
695.000000	63.184849
694.000000	63.218425
693.000000	63.199367
692.000000	63.173342
691.000000	63.196104
690.000000	63.200477
689.000000	63.154102
688.000000	63.099818
687.000000	63.094735
686.000000	63.076242
685.000000	63.089326
684.000000	63.133076
683.000000	63.174213
682.000000	63.109775
681.000000	63.020055
680.000000	62.983548
679.000000	63.022179
678.000000	63.094413
677.000000	63.124990
676.000000	63.051089
675.000000	63.047844
674.000000	63.062025
673.000000	63.049646
672.000000	63.049821
671.000000	63.058472
670.000000	63.009789
669.000000	63.038565
668.000000	63.031255
667.000000	63.054766
666.000000	63.032419
665.000000	62.961273
664.000000	62.896355
663.000000	62.920123
662.000000	62.926767
661.000000	62.994173
660.000000	62.989314
659.000000	62.939002
658.000000	62.947601
657.000000	62.943715
656.000000	62.911737
655.000000	62.878170
654.000000	62.940405
653.000000	62.913333
652.000000	62.856762
651.000000	62.876539
650.000000	62.891189
649.000000	62.911686
648.000000	62.860113
647.000000	62.877242
646.000000	62.809731
645.000000	62.823088
644.000000	62.825557
643.000000	62.793841
642.000000	62.808609
641.000000	62.845804
640.000000	62.778166
639.000000	62.770552
638.000000	62.767069
637.000000	62.759333
636.000000	62.753380
635.000000	62.761626
634.000000	62.733528
633.000000	62.765451
632.000000	62.765594
631.000000	62.726388
630.000000	62.731630
629.000000	62.722117
628.000000	62.709496
627.000000	62.683025
626.000000	62.636599
625.000000	62.684615
624.000000	62.701155
623.000000	62.627800
622.000000	62.599896
621.000000	62.599819
620.000000	62.582598
619.000000	62.565164
618.000000	62.589029
617.000000	62.562979
616.000000	62.549494
615.000000	62.572740
614.000000	62.550486
613.000000	62.591865
612.000000	62.576778
611.000000	62.531780
610.000000	62.470369
609.000000	62.473456
608.000000	62.498174
607.000000	62.468040
606.000000	62.471117
605.000000	62.412708
604.000000	62.367509
603.000000	62.400106
602.000000	62.368144
601.000000	62.318723
600.000000	62.330133
599.000000	62.372842
598.000000	62.328893
597.000000	62.299291
596.000000	62.232873
595.000000	62.258135
594.000000	62.236842
593.000000	62.205423
592.000000	62.241886
591.000000	62.226402
590.000000	62.173866
589.000000	62.192685
588.000000	62.216554
587.000000	62.182584
586.000000	62.159324
585.000000	62.189201
584.000000	62.143141
583.000000	62.079787
582.000000	62.112877
581.000000	62.098286
580.000000	62.024334
579.000000	62.070738
578.000000	61.984075
577.000000	61.977943
576.000000	61.955078
575.000000	62.003255
574.000000	61.956405
573.000000	62.004028
572.000000	61.960154
571.000000	61.907170
570.000000	61.900810
569.000000	61.928001
568.000000	61.857540
567.000000	61.819747
566.000000	61.764649
565.000000	61.777964
564.000000	61.790125
563.000000	61.802979
562.000000	61.749826
561.000000	61.628173
560.000000	61.631686
559.000000	61.610445
558.000000	61.572674
557.000000	61.557441
556.000000	61.570788
555.000000	61.562050
554.000000	61.545397
553.000000	61.531667
552.000000	61.482187
551.000000	61.447170
550.000000	61.445144
549.000000	61.427280
548.000000	61.372410
547.000000	61.336425
546.000000	61.311094
545.000000	61.244727
544.000000	61.313748
543.000000	61.254695
542.000000	61.185364
541.000000	61.249072
540.000000	61.175650
539.000000	61.151402
538.000000	61.124443
537.000000	61.092350
536.000000	61.048263
535.000000	61.043407
534.000000	60.981742
533.000000	61.002171
532.000000	60.925360
531.000000	60.891310
530.000000	60.860504
529.000000	60.915301
528.000000	60.857984
527.000000	60.796269
526.000000	60.769221
525.000000	60.725786
524.000000	60.666424
523.000000	60.686683
522.000000	60.628939
521.000000	60.597829
520.000000	60.541011
519.000000	60.507484
518.000000	60.506806
517.000000	60.479154
516.000000	60.423069
515.000000	60.380513
514.000000	60.345659
513.000000	60.357479
512.000000	60.308122
511.000000	60.273959
510.000000	60.214055
509.000000	60.196793
508.000000	60.158648
507.000000	60.161626
506.000000	60.104053
505.000000	60.057274
504.000000	60.016324
503.000000	59.998238
502.000000	59.932867
501.000000	59.893790
500.000000	59.809801
499.000000	59.826165
498.000000	59.808327
497.000000	59.759109
496.000000	59.682578
495.000000	59.634999
494.000000	59.588230
493.000000	59.549731
492.000000	59.463136
491.000000	59.475468
490.000000	59.434968
489.000000	59.369855
488.000000	59.314589
487.000000	59.295587
486.000000	59.245355
485.000000	59.213762
484.000000	59.211475
483.000000	59.120641
482.000000	59.047868
481.000000	58.983250
480.000000	58.924317
479.000000	58.870181
478.000000	58.845289
477.000000	58.831756
476.000000	58.725654
475.000000	58.645187
474.000000	58.600545
473.000000	58.555627
472.000000	58.518128
471.000000	58.462604
470.000000	58.373650
469.000000	58.325263
468.000000	58.240993
467.000000	58.232707
466.000000	58.176032
465.000000	58.089642
464.000000	58.031087
463.000000	57.979397
462.000000	57.911056
461.000000	57.807319
460.000000	57.728247
459.000000	57.703490
458.000000	57.646121
457.000000	57.543653
456.000000	57.442043
455.000000	57.389712
454.000000	57.395315
453.000000	57.344710
452.000000	57.216243
451.000000	57.136950
450.000000	57.058077
449.000000	56.978600
448.000000	56.901395
447.000000	56.791686
446.000000	56.731610
445.000000	56.664415
444.000000	56.569978
443.000000	56.495344
442.000000	56.421208
441.000000	56.314461
440.000000	56.221074
439.000000	56.161225
438.000000	56.101881
437.000000	55.992447
436.000000	55.916970
435.000000	55.813177
434.000000	55.692084
433.000000	55.645971
432.000000	55.573510
431.000000	55.509664
430.000000	55.400469
429.000000	55.263580
428.000000	55.172243
427.000000	55.098264
426.000000	55.018731
425.000000	54.906653
424.000000	54.798407
423.000000	54.717613
422.000000	54.600596
421.000000	54.574747
420.000000	54.544010
419.000000	54.368020
418.000000	54.268126
417.000000	54.228294
416.000000	54.110249
415.000000	53.927644
414.000000	53.840298
413.000000	53.791896
412.000000	53.721085
411.000000	53.599899
410.000000	53.525451
409.000000	53.456145
408.000000	53.382821
407.000000	53.308930
406.000000	53.177566
405.000000	53.114821
404.000000	53.050203
403.000000	52.923943
402.000000	52.834593
401.000000	52.742545
400.000000	52.692579
399.000000	52.613914
398.000000	52.457318
397.000000	52.403613
396.000000	52.320119
395.000000	52.173080
394.000000	52.049278
393.000000	51.965645
392.000000	51.871120
391.000000	51.807570
390.000000	51.677938
389.000000	51.608039
388.000000	51.480124
387.000000	51.417566
386.000000	51.190332
385.000000	51.057575
384.000000	51.008988
383.000000	50.869885
382.000000	50.652773
381.000000	50.627912
380.000000	50.445129
379.000000	50.260434
378.000000	50.137503
377.000000	50.248405
376.000000	50.048905
375.000000	49.872076
374.000000	49.703978
373.000000	49.374287
372.000000	49.446425
371.000000	49.174469
370.000000	49.213714
369.000000	48.907084
368.000000	48.872054
367.000000	48.683129
366.000000	48.640426
365.000000	48.422499
364.000000	48.309418
363.000000	48.222564
362.000000	48.235446
361.000000	47.987665
360.000000	47.712418
359.000000	47.612997
358.000000	47.660584
357.000000	47.531054
356.000000	47.339287
355.000000	47.370823
354.000000	47.206725
353.000000	47.080309
352.000000	46.954171
351.000000	46.857142
350.000000	46.824621
349.000000	46.629926
348.000000	46.446218
347.000000	46.489304
346.000000	46.077070
345.000000	46.190530
344.000000	45.893891
343.000000	45.764967
342.000000	45.730504
341.000000	45.552214
340.000000	45.470197
339.000000	45.386802
338.000000	45.174200
337.000000	45.005862
336.000000	44.909176
335.000000	44.664823
334.000000	44.590818
333.000000	44.449423
332.000000	44.378305
331.000000	44.273248
330.000000	43.898429
329.000000	43.884080
328.000000	43.839657
327.000000	43.581574
326.000000	43.464085
325.000000	43.590739
324.000000	43.410894
323.000000	43.358512
322.000000	43.078987
321.000000	42.951757
320.000000	42.926958
319.000000	42.899711
318.000000	42.744616
317.000000	42.577405
316.000000	42.408902
315.000000	42.288620
314.000000	42.339612
313.000000	42.124033
312.000000	41.900840
311.000000	41.877055
310.000000	41.748161
309.000000	41.660379
308.000000	41.431193
307.000000	41.301973
306.000000	41.179434
305.000000	41.081524
304.000000	40.880661
303.000000	40.619609
302.000000	40.528651
301.000000	40.351152
300.000000	40.062823
299.000000	39.809238
298.000000	39.496226
297.000000	39.024953
296.000000	38.659731
295.000000	37.964848
294.000000	37.399993
293.000000	36.556893
292.000000	35.705965
291.000000	34.572873
290.000000	33.381184
289.000000	32.343774
288.000000	31.323689
287.000000	30.543808
286.000000	29.967011
285.000000	29.694659
284.000000	29.464895
283.000000	29.433649
282.000000	29.329901
281.000000	29.230411
280.000000	29.205513
279.000000	29.146687
278.000000	29.244724
277.000000	29.449045
276.000000	29.717516
275.000000	30.018961
274.000000	30.274003
273.000000	30.454107
272.000000	30.839508
271.000000	31.030853
270.000000	31.115989
269.000000	31.179879
268.000000	31.520424
267.000000	31.750169
266.000000	31.974166
265.000000	32.110942
264.000000	32.406253
263.000000	32.753491
262.000000	33.090060
261.000000	33.272023
260.000000	33.301865
259.000000	33.475880
258.000000	33.737738
257.000000	34.146006
256.000000	34.427943
255.000000	34.369785
254.000000	34.289902
253.000000	34.196581
252.000000	33.979778
251.000000	33.635303
250.000000	33.107953
249.000000	32.434873
248.000000	31.505088
247.000000	30.332789
246.000000	29.029111
245.000000	27.455708
244.000000	25.775701
243.000000	24.081754
242.000000	22.453200
241.000000	20.760114
240.000000	19.293589
239.000000	17.831855
238.000000	16.602373
237.000000	15.514957
236.000000	14.556196
235.000000	13.764622
234.000000	13.122313
233.000000	12.504606
232.000000	11.938333
231.000000	11.331489
230.000000	10.802247
229.000000	10.357257
228.000000	9.883532
227.000000	9.547500
226.000000	9.277353
225.000000	8.986655
224.000000	8.756121
223.000000	8.561682
222.000000	8.441521
221.000000	8.365466
220.000000	8.291510
219.000000	8.334560
218.000000	8.391593
217.000000	8.370074
216.000000	8.293331
215.000000	8.290699
214.000000	8.412977
213.000000	8.528080
212.000000	8.629253
211.000000	8.700179
210.000000	8.819787
209.000000	8.951688
208.000000	9.107118
207.000000	9.349839
206.000000	9.595658
205.000000	9.864201
204.000000	10.100342
203.000000	10.408166
202.000000	10.789970
201.000000	11.094783
200.000000	11.385942
