PE UV       SUBTECH     SPECTRUM    ASCII       PEDS        4.00        
   -1
RDgVeauAl 42.Sample.asc
18/03/12
13:50:03.00
18/03/12
13:50:03.00
Administrator

200.000000
1
Lambda 750
750N8071901
PerkinElmer UV WinLab 6.0.4.0738 / 1.61.00 Lambda 900

0
0
3350/servo 860.8/2
0
0
UV/VIS
1
1
1
CommonBeamDepol,150mm sphere / downward view
0
0
0
0
Program
Program
3350/servo 860.8/2
3350/0.2 860.8/0.2
3350/0.2 860.8/0.2
0
1
 
 
 
0
 
860.8
319.2
860.8
Front
100
on
 
 
0
0
0
 
0
 
 
 
0
 
 
0
0
0
0
0
 
 
 
 
0
0


0
0
#HDR
-1
-1
#GR
nm
%R
1.0
0.0
2350.000000
-1.000000
2151
8
63.273046
9.972051
#DATA
2350.000000	20.967938
2349.000000	21.089293
2348.000000	20.898571
2347.000000	21.759980
2346.000000	21.257514
2345.000000	20.911103
2344.000000	21.034432
2343.000000	20.986596
2342.000000	21.040823
2341.000000	21.182280
2340.000000	21.063762
2339.000000	21.583884
2338.000000	21.356280
2337.000000	21.744901
2336.000000	21.702108
2335.000000	21.830828
2334.000000	21.910593
2333.000000	22.373687
2332.000000	22.078039
2331.000000	21.956684
2330.000000	21.898702
2329.000000	21.730479
2328.000000	21.946551
2327.000000	21.634319
2326.000000	21.663147
2325.000000	21.815779
2324.000000	21.838116
2323.000000	21.809291
2322.000000	21.791268
2321.000000	21.403245
2320.000000	21.680585
2319.000000	21.504834
2318.000000	21.503006
2317.000000	21.449758
2316.000000	21.389431
2315.000000	21.488993
2314.000000	21.271522
2313.000000	20.874491
2312.000000	20.943962
2311.000000	20.948954
2310.000000	21.093215
2309.000000	21.240399
2308.000000	20.888802
2307.000000	20.766126
2306.000000	20.881996
2305.000000	20.763966
2304.000000	20.729908
2303.000000	20.682669
2302.000000	20.667186
2301.000000	20.430740
2300.000000	20.525754
2299.000000	20.418766
2298.000000	20.194270
2297.000000	20.225463
2296.000000	20.273728
2295.000000	20.239288
2294.000000	20.022033
2293.000000	20.072301
2292.000000	19.925113
2291.000000	19.865603
2290.000000	19.978446
2289.000000	19.803231
2288.000000	19.708186
2287.000000	19.814411
2286.000000	19.721792
2285.000000	19.667972
2284.000000	19.523355
2283.000000	19.574718
2282.000000	19.731699
2281.000000	19.776081
2280.000000	19.657829
2279.000000	19.817157
2278.000000	19.588874
2277.000000	19.746931
2276.000000	19.981137
2275.000000	19.901677
2274.000000	19.954281
2273.000000	19.974920
2272.000000	19.973829
2271.000000	19.964508
2270.000000	19.884451
2269.000000	20.064557
2268.000000	20.125653
2267.000000	20.065318
2266.000000	20.246890
2265.000000	20.467571
2264.000000	20.375665
2263.000000	20.538064
2262.000000	20.815948
2261.000000	20.857761
2260.000000	20.928820
2259.000000	21.221073
2258.000000	21.364317
2257.000000	21.491250
2256.000000	21.659160
2255.000000	21.741269
2254.000000	21.942486
2253.000000	22.236428
2252.000000	22.456006
2251.000000	22.526829
2250.000000	22.725369
2249.000000	22.983625
2248.000000	23.140787
2247.000000	23.290962
2246.000000	23.461348
2245.000000	23.646124
2244.000000	23.866753
2243.000000	24.126049
2242.000000	24.185763
2241.000000	24.222758
2240.000000	24.398016
2239.000000	24.531304
2238.000000	24.622799
2237.000000	24.705242
2236.000000	24.754491
2235.000000	24.912306
2234.000000	25.128255
2233.000000	25.152231
2232.000000	25.168357
2231.000000	25.204451
2230.000000	25.279111
2229.000000	25.367669
2228.000000	25.390666
2227.000000	25.343639
2226.000000	25.311969
2225.000000	25.247693
2224.000000	25.252783
2223.000000	25.225355
2222.000000	25.347366
2221.000000	25.231241
2220.000000	25.111745
2219.000000	25.024033
2218.000000	24.992575
2217.000000	25.061157
2216.000000	25.108594
2215.000000	25.021359
2214.000000	24.864305
2213.000000	24.959007
2212.000000	25.040589
2211.000000	24.821771
2210.000000	24.780882
2209.000000	24.753484
2208.000000	24.599559
2207.000000	24.493820
2206.000000	24.469997
2205.000000	24.372883
2204.000000	24.329961
2203.000000	24.186078
2202.000000	24.099839
2201.000000	24.167747
2200.000000	24.151606
2199.000000	24.050701
2198.000000	23.977908
2197.000000	23.934716
2196.000000	23.800098
2195.000000	23.630874
2194.000000	23.515873
2193.000000	23.417485
2192.000000	23.520349
2191.000000	23.435310
2190.000000	23.459416
2189.000000	23.328334
2188.000000	23.096423
2187.000000	23.120107
2186.000000	23.060880
2185.000000	23.169772
2184.000000	23.169172
2183.000000	23.104364
2182.000000	23.047370
2181.000000	22.889028
2180.000000	22.779367
2179.000000	22.796831
2178.000000	22.890956
2177.000000	22.997958
2176.000000	22.783602
2175.000000	22.915273
2174.000000	23.062127
2173.000000	22.987947
2172.000000	22.976265
2171.000000	23.049073
2170.000000	23.138838
2169.000000	23.213864
2168.000000	23.362630
2167.000000	23.159716
2166.000000	23.263652
2165.000000	23.520856
2164.000000	23.627451
2163.000000	23.537792
2162.000000	23.794419
2161.000000	23.847310
2160.000000	24.033648
2159.000000	24.088890
2158.000000	24.193522
2157.000000	24.383676
2156.000000	24.594017
2155.000000	24.715135
2154.000000	24.791283
2153.000000	24.978392
2152.000000	24.956223
2151.000000	24.981291
2150.000000	25.260300
2149.000000	25.310188
2148.000000	25.418987
2147.000000	25.719807
2146.000000	25.539733
2145.000000	25.822181
2144.000000	26.080347
2143.000000	26.269449
2142.000000	26.229879
2141.000000	26.406859
2140.000000	26.623514
2139.000000	26.569548
2138.000000	26.900736
2137.000000	26.919372
2136.000000	26.832437
2135.000000	27.029912
2134.000000	27.149916
2133.000000	27.024220
2132.000000	27.231224
2131.000000	27.392883
2130.000000	27.685911
2129.000000	27.601875
2128.000000	27.421569
2127.000000	27.568062
2126.000000	27.629434
2125.000000	27.520180
2124.000000	27.734352
2123.000000	27.757103
2122.000000	27.834675
2121.000000	28.124424
2120.000000	27.823957
2119.000000	27.923052
2118.000000	27.948789
2117.000000	28.078148
2116.000000	28.064695
2115.000000	28.282834
2114.000000	28.204813
2113.000000	28.160077
2112.000000	28.269899
2111.000000	28.169492
2110.000000	28.133874
2109.000000	28.285861
2108.000000	28.230635
2107.000000	28.411670
2106.000000	28.472056
2105.000000	28.340941
2104.000000	28.366137
2103.000000	28.328038
2102.000000	28.376733
2101.000000	28.426567
2100.000000	28.501875
2099.000000	28.411430
2098.000000	28.458992
2097.000000	28.412450
2096.000000	28.452778
2095.000000	28.379723
2094.000000	28.398612
2093.000000	28.472050
2092.000000	28.459247
2091.000000	28.438006
2090.000000	28.311224
2089.000000	28.339027
2088.000000	28.416887
2087.000000	28.379064
2086.000000	28.288418
2085.000000	28.289569
2084.000000	28.197617
2083.000000	28.166227
2082.000000	28.053804
2081.000000	27.969541
2080.000000	27.914173
2079.000000	27.826340
2078.000000	27.773901
2077.000000	27.709514
2076.000000	27.545003
2075.000000	27.441004
2074.000000	27.353223
2073.000000	27.238789
2072.000000	27.104865
2071.000000	26.978077
2070.000000	26.919560
2069.000000	26.780066
2068.000000	26.574238
2067.000000	26.384201
2066.000000	26.239797
2065.000000	26.087259
2064.000000	25.893874
2063.000000	25.742982
2062.000000	25.697109
2061.000000	25.485649
2060.000000	25.339270
2059.000000	25.290534
2058.000000	25.123326
2057.000000	24.944985
2056.000000	24.836259
2055.000000	24.724183
2054.000000	24.575348
2053.000000	24.414407
2052.000000	24.232322
2051.000000	24.034914
2050.000000	24.033986
2049.000000	23.981545
2048.000000	23.897690
2047.000000	23.794154
2046.000000	23.705983
2045.000000	23.643396
2044.000000	23.628553
2043.000000	23.611452
2042.000000	23.548438
2041.000000	23.602562
2040.000000	23.639983
2039.000000	23.603587
2038.000000	23.651209
2037.000000	23.710375
2036.000000	23.785768
2035.000000	23.933639
2034.000000	24.052043
2033.000000	24.116891
2032.000000	24.242795
2031.000000	24.363246
2030.000000	24.371077
2029.000000	24.461798
2028.000000	24.623011
2027.000000	24.759458
2026.000000	24.815814
2025.000000	24.873245
2024.000000	24.974694
2023.000000	25.074669
2022.000000	25.146127
2021.000000	25.154297
2020.000000	25.169569
2019.000000	25.169666
2018.000000	25.160671
2017.000000	25.203324
2016.000000	25.216654
2015.000000	25.168447
2014.000000	25.182264
2013.000000	25.151033
2012.000000	25.101673
2011.000000	25.098875
2010.000000	25.049495
2009.000000	24.945323
2008.000000	24.862168
2007.000000	24.772158
2006.000000	24.690945
2005.000000	24.605881
2004.000000	24.503783
2003.000000	24.427183
2002.000000	24.361435
2001.000000	24.267937
2000.000000	24.136081
1999.000000	24.055124
1998.000000	23.922239
1997.000000	23.828907
1996.000000	23.757078
1995.000000	23.631680
1994.000000	23.473010
1993.000000	23.409968
1992.000000	23.275116
1991.000000	23.182895
1990.000000	23.105708
1989.000000	22.956426
1988.000000	22.853914
1987.000000	22.762797
1986.000000	22.619289
1985.000000	22.504371
1984.000000	22.442294
1983.000000	22.312986
1982.000000	22.191450
1981.000000	22.119888
1980.000000	22.022481
1979.000000	21.920086
1978.000000	21.826111
1977.000000	21.650306
1976.000000	21.513193
1975.000000	21.461208
1974.000000	21.381442
1973.000000	21.298021
1972.000000	21.201246
1971.000000	21.092314
1970.000000	21.002162
1969.000000	20.918063
1968.000000	20.812140
1967.000000	20.718653
1966.000000	20.647300
1965.000000	20.566175
1964.000000	20.436308
1963.000000	20.341237
1962.000000	20.271986
1961.000000	20.178661
1960.000000	20.104013
1959.000000	19.979584
1958.000000	19.983192
1957.000000	19.911383
1956.000000	19.780551
1955.000000	19.830264
1954.000000	19.768388
1953.000000	19.637932
1952.000000	19.647745
1951.000000	19.620640
1950.000000	19.530829
1949.000000	19.466972
1948.000000	19.411401
1947.000000	19.399057
1946.000000	19.366143
1945.000000	19.269400
1944.000000	19.308665
1943.000000	19.347829
1942.000000	19.412022
1941.000000	19.428597
1940.000000	19.546257
1939.000000	19.504639
1938.000000	19.565272
1937.000000	19.631907
1936.000000	19.762643
1935.000000	19.768410
1934.000000	19.820335
1933.000000	19.961785
1932.000000	20.055899
1931.000000	20.192242
1930.000000	20.375059
1929.000000	20.464428
1928.000000	20.662538
1927.000000	20.875810
1926.000000	21.045310
1925.000000	21.218758
1924.000000	21.477864
1923.000000	21.708166
1922.000000	21.862847
1921.000000	22.211149
1920.000000	22.463904
1919.000000	22.738869
1918.000000	23.072456
1917.000000	23.395020
1916.000000	23.627286
1915.000000	24.078222
1914.000000	24.373519
1913.000000	24.834490
1912.000000	25.188756
1911.000000	25.559682
1910.000000	25.867368
1909.000000	26.401805
1908.000000	26.849892
1907.000000	27.306460
1906.000000	27.769807
1905.000000	28.352853
1904.000000	28.767903
1903.000000	29.371407
1902.000000	29.988591
1901.000000	30.445627
1900.000000	31.001266
1899.000000	31.636353
1898.000000	32.254510
1897.000000	32.761223
1896.000000	33.320091
1895.000000	33.913452
1894.000000	34.501974
1893.000000	35.032114
1892.000000	35.569720
1891.000000	36.153632
1890.000000	36.756735
1889.000000	37.340820
1888.000000	37.781015
1887.000000	38.327392
1886.000000	38.834461
1885.000000	39.275907
1884.000000	39.824111
1883.000000	40.317018
1882.000000	40.719683
1881.000000	41.161103
1880.000000	41.573956
1879.000000	41.969621
1878.000000	42.441488
1877.000000	42.781095
1876.000000	43.091553
1875.000000	43.486574
1874.000000	43.764767
1873.000000	44.096111
1872.000000	44.443335
1871.000000	44.741863
1870.000000	45.012686
1869.000000	45.201450
1868.000000	45.361033
1867.000000	45.494626
1866.000000	45.666505
1865.000000	45.863082
1864.000000	45.947394
1863.000000	46.121659
1862.000000	46.242338
1861.000000	46.296076
1860.000000	46.406060
1859.000000	46.510198
1858.000000	46.573320
1857.000000	46.647560
1856.000000	46.704220
1855.000000	46.736634
1854.000000	46.802037
1853.000000	46.896520
1852.000000	46.896988
1851.000000	46.855624
1850.000000	46.895441
1849.000000	46.954225
1848.000000	46.995606
1847.000000	46.983538
1846.000000	46.957395
1845.000000	46.897433
1844.000000	46.918887
1843.000000	46.914624
1842.000000	46.906621
1841.000000	46.847101
1840.000000	46.831083
1839.000000	46.845303
1838.000000	46.820241
1837.000000	46.742520
1836.000000	46.705036
1835.000000	46.622745
1834.000000	46.540846
1833.000000	46.512098
1832.000000	46.479529
1831.000000	46.400875
1830.000000	46.337396
1829.000000	46.293045
1828.000000	46.235700
1827.000000	46.199792
1826.000000	46.171711
1825.000000	46.126188
1824.000000	46.105014
1823.000000	46.078951
1822.000000	46.023737
1821.000000	45.969492
1820.000000	45.950972
1819.000000	45.873575
1818.000000	45.848386
1817.000000	45.826274
1816.000000	45.779438
1815.000000	45.728653
1814.000000	45.662007
1813.000000	45.614003
1812.000000	45.595716
1811.000000	45.552434
1810.000000	45.492005
1809.000000	45.457474
1808.000000	45.410734
1807.000000	45.364497
1806.000000	45.333439
1805.000000	45.286391
1804.000000	45.240403
1803.000000	45.214742
1802.000000	45.168161
1801.000000	45.121982
1800.000000	45.104055
1799.000000	45.045239
1798.000000	44.998039
1797.000000	44.974809
1796.000000	44.940056
1795.000000	44.928942
1794.000000	44.915665
1793.000000	44.850526
1792.000000	44.799681
1791.000000	44.788264
1790.000000	44.761758
1789.000000	44.741145
1788.000000	44.736015
1787.000000	44.687449
1786.000000	44.631032
1785.000000	44.608857
1784.000000	44.567948
1783.000000	44.512111
1782.000000	44.481023
1781.000000	44.444692
1780.000000	44.404663
1779.000000	44.363715
1778.000000	44.296834
1777.000000	44.234500
1776.000000	44.179103
1775.000000	44.098827
1774.000000	44.029724
1773.000000	43.974592
1772.000000	43.908056
1771.000000	43.850454
1770.000000	43.782885
1769.000000	43.701296
1768.000000	43.668360
1767.000000	43.604851
1766.000000	43.530750
1765.000000	43.474987
1764.000000	43.452357
1763.000000	43.367903
1762.000000	43.301644
1761.000000	43.260151
1760.000000	43.183242
1759.000000	43.116526
1758.000000	43.072224
1757.000000	43.022289
1756.000000	42.973400
1755.000000	42.883640
1754.000000	42.824164
1753.000000	42.782408
1752.000000	42.745707
1751.000000	42.718047
1750.000000	42.641350
1749.000000	42.584040
1748.000000	42.525811
1747.000000	42.457477
1746.000000	42.383174
1745.000000	42.276792
1744.000000	42.202151
1743.000000	42.147071
1742.000000	42.072168
1741.000000	41.996398
1740.000000	41.981075
1739.000000	41.904192
1738.000000	41.832042
1737.000000	41.770418
1736.000000	41.752767
1735.000000	41.710891
1734.000000	41.725830
1733.000000	41.670121
1732.000000	41.676565
1731.000000	41.676705
1730.000000	41.666321
1729.000000	41.740159
1728.000000	41.791948
1727.000000	41.825594
1726.000000	41.888074
1725.000000	42.003061
1724.000000	42.061756
1723.000000	42.172610
1722.000000	42.279458
1721.000000	42.416678
1720.000000	42.529097
1719.000000	42.690978
1718.000000	42.785822
1717.000000	42.903871
1716.000000	43.046720
1715.000000	43.137535
1714.000000	43.274547
1713.000000	43.407611
1712.000000	43.462506
1711.000000	43.582375
1710.000000	43.687702
1709.000000	43.804363
1708.000000	43.851447
1707.000000	43.915052
1706.000000	43.961521
1705.000000	44.047356
1704.000000	44.127569
1703.000000	44.093837
1702.000000	44.126882
1701.000000	44.143578
1700.000000	44.226392
1699.000000	44.225752
1698.000000	44.263683
1697.000000	44.297713
1696.000000	44.372336
1695.000000	44.425150
1694.000000	44.462365
1693.000000	44.498638
1692.000000	44.596672
1691.000000	44.696088
1690.000000	44.764309
1689.000000	44.859343
1688.000000	45.019429
1687.000000	45.137022
1686.000000	45.276008
1685.000000	45.410353
1684.000000	45.591049
1683.000000	45.773534
1682.000000	45.957088
1681.000000	46.166269
1680.000000	46.363841
1679.000000	46.562758
1678.000000	46.796421
1677.000000	46.974689
1676.000000	47.167302
1675.000000	47.417305
1674.000000	47.616877
1673.000000	47.816433
1672.000000	48.012808
1671.000000	48.184983
1670.000000	48.391856
1669.000000	48.602314
1668.000000	48.740612
1667.000000	48.915442
1666.000000	49.061901
1665.000000	49.185316
1664.000000	49.301057
1663.000000	49.387431
1662.000000	49.478983
1661.000000	49.592848
1660.000000	49.670872
1659.000000	49.770187
1658.000000	49.834618
1657.000000	49.894055
1656.000000	49.944921
1655.000000	49.972565
1654.000000	49.987652
1653.000000	50.043226
1652.000000	50.047480
1651.000000	50.040099
1650.000000	50.041313
1649.000000	50.027945
1648.000000	50.022831
1647.000000	50.012353
1646.000000	49.989165
1645.000000	49.962539
1644.000000	49.959701
1643.000000	49.929212
1642.000000	49.900672
1641.000000	49.868043
1640.000000	49.845666
1639.000000	49.823974
1638.000000	49.760452
1637.000000	49.726918
1636.000000	49.688451
1635.000000	49.634858
1634.000000	49.582427
1633.000000	49.518479
1632.000000	49.463249
1631.000000	49.412620
1630.000000	49.369016
1629.000000	49.291986
1628.000000	49.245379
1627.000000	49.182910
1626.000000	49.128363
1625.000000	49.083294
1624.000000	49.031282
1623.000000	48.951042
1622.000000	48.894540
1621.000000	48.826899
1620.000000	48.745161
1619.000000	48.655198
1618.000000	48.576562
1617.000000	48.530844
1616.000000	48.471154
1615.000000	48.388285
1614.000000	48.318059
1613.000000	48.236512
1612.000000	48.149145
1611.000000	48.064157
1610.000000	47.985316
1609.000000	47.928852
1608.000000	47.854213
1607.000000	47.764078
1606.000000	47.668608
1605.000000	47.588811
1604.000000	47.500291
1603.000000	47.405420
1602.000000	47.319673
1601.000000	47.235137
1600.000000	47.168173
1599.000000	47.095139
1598.000000	47.009619
1597.000000	46.924335
1596.000000	46.855836
1595.000000	46.789866
1594.000000	46.705337
1593.000000	46.636223
1592.000000	46.567664
1591.000000	46.479325
1590.000000	46.413390
1589.000000	46.360514
1588.000000	46.289827
1587.000000	46.219873
1586.000000	46.173197
1585.000000	46.115914
1584.000000	46.045046
1583.000000	45.983501
1582.000000	45.915326
1581.000000	45.853634
1580.000000	45.803379
1579.000000	45.728667
1578.000000	45.666782
1577.000000	45.625305
1576.000000	45.572274
1575.000000	45.491923
1574.000000	45.409017
1573.000000	45.348459
1572.000000	45.297748
1571.000000	45.246136
1570.000000	45.167401
1569.000000	45.112222
1568.000000	45.079547
1567.000000	45.025030
1566.000000	44.972336
1565.000000	44.939839
1564.000000	44.909512
1563.000000	44.867114
1562.000000	44.816910
1561.000000	44.771243
1560.000000	44.749174
1559.000000	44.698302
1558.000000	44.669099
1557.000000	44.643134
1556.000000	44.612922
1555.000000	44.577666
1554.000000	44.542751
1553.000000	44.519281
1552.000000	44.461609
1551.000000	44.411149
1550.000000	44.361935
1549.000000	44.327754
1548.000000	44.283620
1547.000000	44.204366
1546.000000	44.095406
1545.000000	44.012015
1544.000000	43.946471
1543.000000	43.851573
1542.000000	43.746946
1541.000000	43.651216
1540.000000	43.555114
1539.000000	43.431185
1538.000000	43.320563
1537.000000	43.213967
1536.000000	43.108773
1535.000000	42.997339
1534.000000	42.885035
1533.000000	42.785392
1532.000000	42.673889
1531.000000	42.570992
1530.000000	42.475301
1529.000000	42.368769
1528.000000	42.298353
1527.000000	42.196598
1526.000000	42.130753
1525.000000	42.024133
1524.000000	41.962815
1523.000000	41.907787
1522.000000	41.827695
1521.000000	41.767939
1520.000000	41.730805
1519.000000	41.657138
1518.000000	41.628675
1517.000000	41.575760
1516.000000	41.530858
1515.000000	41.490279
1514.000000	41.451396
1513.000000	41.433839
1512.000000	41.392299
1511.000000	41.363416
1510.000000	41.327249
1509.000000	41.301671
1508.000000	41.278250
1507.000000	41.245607
1506.000000	41.232699
1505.000000	41.208086
1504.000000	41.181090
1503.000000	41.167186
1502.000000	41.157504
1501.000000	41.144744
1500.000000	41.131690
1499.000000	41.121649
1498.000000	41.132326
1497.000000	41.101700
1496.000000	41.106771
1495.000000	41.129812
1494.000000	41.127202
1493.000000	41.147358
1492.000000	41.137225
1491.000000	41.165430
1490.000000	41.170305
1489.000000	41.196119
1488.000000	41.243036
1487.000000	41.230484
1486.000000	41.288065
1485.000000	41.322323
1484.000000	41.346191
1483.000000	41.372332
1482.000000	41.400261
1481.000000	41.447075
1480.000000	41.487315
1479.000000	41.525758
1478.000000	41.577829
1477.000000	41.610683
1476.000000	41.642552
1475.000000	41.682685
1474.000000	41.716921
1473.000000	41.752732
1472.000000	41.800364
1471.000000	41.821059
1470.000000	41.884080
1469.000000	41.920050
1468.000000	41.958306
1467.000000	42.006388
1466.000000	42.050957
1465.000000	42.095812
1464.000000	42.139665
1463.000000	42.175702
1462.000000	42.237405
1461.000000	42.291416
1460.000000	42.337360
1459.000000	42.411720
1458.000000	42.478893
1457.000000	42.519806
1456.000000	42.582142
1455.000000	42.653047
1454.000000	42.714484
1453.000000	42.802229
1452.000000	42.895300
1451.000000	42.975246
1450.000000	43.064232
1449.000000	43.152791
1448.000000	43.244814
1447.000000	43.335598
1446.000000	43.425023
1445.000000	43.530713
1444.000000	43.628645
1443.000000	43.747732
1442.000000	43.851135
1441.000000	43.973383
1440.000000	44.105488
1439.000000	44.229605
1438.000000	44.360450
1437.000000	44.480858
1436.000000	44.623132
1435.000000	44.770780
1434.000000	44.917173
1433.000000	45.069949
1432.000000	45.224299
1431.000000	45.399604
1430.000000	45.586407
1429.000000	45.752273
1428.000000	45.930369
1427.000000	46.116481
1426.000000	46.296676
1425.000000	46.499923
1424.000000	46.703713
1423.000000	46.935711
1422.000000	47.158518
1421.000000	47.383912
1420.000000	47.608848
1419.000000	47.835820
1418.000000	48.077333
1417.000000	48.326453
1416.000000	48.557862
1415.000000	48.820229
1414.000000	49.093348
1413.000000	49.345643
1412.000000	49.599747
1411.000000	49.870035
1410.000000	50.129178
1409.000000	50.392615
1408.000000	50.679807
1407.000000	50.935249
1406.000000	51.203335
1405.000000	51.471563
1404.000000	51.724075
1403.000000	51.986765
1402.000000	52.231037
1401.000000	52.486727
1400.000000	52.747495
1399.000000	52.986667
1398.000000	53.216766
1397.000000	53.446425
1396.000000	53.678515
1395.000000	53.901451
1394.000000	54.116018
1393.000000	54.330246
1392.000000	54.527405
1391.000000	54.720057
1390.000000	54.907442
1389.000000	55.071910
1388.000000	55.261834
1387.000000	55.433420
1386.000000	55.581869
1385.000000	55.740050
1384.000000	55.893004
1383.000000	56.046332
1382.000000	56.167096
1381.000000	56.292248
1380.000000	56.422947
1379.000000	56.531267
1378.000000	56.629155
1377.000000	56.728623
1376.000000	56.829846
1375.000000	56.910312
1374.000000	56.999223
1373.000000	57.082074
1372.000000	57.148922
1371.000000	57.243485
1370.000000	57.320563
1369.000000	57.380038
1368.000000	57.434401
1367.000000	57.492361
1366.000000	57.563351
1365.000000	57.631928
1364.000000	57.702517
1363.000000	57.775498
1362.000000	57.843979
1361.000000	57.920654
1360.000000	57.996561
1359.000000	58.064779
1358.000000	58.145407
1357.000000	58.214147
1356.000000	58.282136
1355.000000	58.379840
1354.000000	58.462446
1353.000000	58.521445
1352.000000	58.576645
1351.000000	58.639912
1350.000000	58.725318
1349.000000	58.820812
1348.000000	58.895638
1347.000000	58.962002
1346.000000	59.049137
1345.000000	59.117903
1344.000000	59.167079
1343.000000	59.244379
1342.000000	59.318447
1341.000000	59.373982
1340.000000	59.439165
1339.000000	59.502511
1338.000000	59.585706
1337.000000	59.653471
1336.000000	59.693664
1335.000000	59.749081
1334.000000	59.790865
1333.000000	59.853414
1332.000000	59.915447
1331.000000	59.973646
1330.000000	60.052562
1329.000000	60.116353
1328.000000	60.171708
1327.000000	60.192566
1326.000000	60.217637
1325.000000	60.231884
1324.000000	60.272488
1323.000000	60.273323
1322.000000	60.321393
1321.000000	60.356960
1320.000000	60.365347
1319.000000	60.411283
1318.000000	60.459276
1317.000000	60.479777
1316.000000	60.481691
1315.000000	60.502848
1314.000000	60.530653
1313.000000	60.559996
1312.000000	60.587066
1311.000000	60.604082
1310.000000	60.624314
1309.000000	60.640935
1308.000000	60.651479
1307.000000	60.672878
1306.000000	60.669296
1305.000000	60.713712
1304.000000	60.725050
1303.000000	60.745662
1302.000000	60.745553
1301.000000	60.751481
1300.000000	60.755319
1299.000000	60.764704
1298.000000	60.783221
1297.000000	60.771090
1296.000000	60.777822
1295.000000	60.784132
1294.000000	60.782242
1293.000000	60.784308
1292.000000	60.800233
1291.000000	60.799294
1290.000000	60.804089
1289.000000	60.798218
1288.000000	60.786749
1287.000000	60.792938
1286.000000	60.768434
1285.000000	60.776556
1284.000000	60.758809
1283.000000	60.750024
1282.000000	60.738068
1281.000000	60.728219
1280.000000	60.741340
1279.000000	60.733640
1278.000000	60.751105
1277.000000	60.745636
1276.000000	60.725703
1275.000000	60.723458
1274.000000	60.759208
1273.000000	60.754561
1272.000000	60.745746
1271.000000	60.739190
1270.000000	60.747902
1269.000000	60.764113
1268.000000	60.762027
1267.000000	60.776747
1266.000000	60.764868
1265.000000	60.815832
1264.000000	60.814802
1263.000000	60.826191
1262.000000	60.831388
1261.000000	60.848855
1260.000000	60.862147
1259.000000	60.858319
1258.000000	60.859051
1257.000000	60.865456
1256.000000	60.884755
1255.000000	60.867699
1254.000000	60.883914
1253.000000	60.878974
1252.000000	60.885499
1251.000000	60.892212
1250.000000	60.882793
1249.000000	60.870787
1248.000000	60.868422
1247.000000	60.863841
1246.000000	60.864362
1245.000000	60.860791
1244.000000	60.829812
1243.000000	60.814946
1242.000000	60.806857
1241.000000	60.763381
1240.000000	60.723990
1239.000000	60.718340
1238.000000	60.709157
1237.000000	60.656053
1236.000000	60.622837
1235.000000	60.599996
1234.000000	60.569924
1233.000000	60.567717
1232.000000	60.522208
1231.000000	60.495339
1230.000000	60.469670
1229.000000	60.445808
1228.000000	60.398315
1227.000000	60.371368
1226.000000	60.349547
1225.000000	60.327361
1224.000000	60.312571
1223.000000	60.282697
1222.000000	60.242071
1221.000000	60.208943
1220.000000	60.184971
1219.000000	60.169182
1218.000000	60.135033
1217.000000	60.090982
1216.000000	60.057677
1215.000000	60.013483
1214.000000	60.017145
1213.000000	59.993066
1212.000000	59.940519
1211.000000	59.905880
1210.000000	59.886420
1209.000000	59.838554
1208.000000	59.791905
1207.000000	59.776074
1206.000000	59.715015
1205.000000	59.697042
1204.000000	59.655470
1203.000000	59.611775
1202.000000	59.578624
1201.000000	59.538102
1200.000000	59.502464
1199.000000	59.446796
1198.000000	59.422803
1197.000000	59.411056
1196.000000	59.371870
1195.000000	59.355853
1194.000000	59.343271
1193.000000	59.313173
1192.000000	59.281757
1191.000000	59.269823
1190.000000	59.239684
1189.000000	59.209442
1188.000000	59.218590
1187.000000	59.214893
1186.000000	59.217987
1185.000000	59.222997
1184.000000	59.232520
1183.000000	59.250225
1182.000000	59.283619
1181.000000	59.318846
1180.000000	59.347346
1179.000000	59.380289
1178.000000	59.425525
1177.000000	59.463026
1176.000000	59.518429
1175.000000	59.587359
1174.000000	59.646502
1173.000000	59.711949
1172.000000	59.778772
1171.000000	59.843485
1170.000000	59.914135
1169.000000	59.988386
1168.000000	60.064546
1167.000000	60.142772
1166.000000	60.227305
1165.000000	60.316773
1164.000000	60.420869
1163.000000	60.501107
1162.000000	60.573549
1161.000000	60.656373
1160.000000	60.739104
1159.000000	60.828453
1158.000000	60.914251
1157.000000	60.994310
1156.000000	61.053907
1155.000000	61.103450
1154.000000	61.170187
1153.000000	61.247626
1152.000000	61.325387
1151.000000	61.398248
1150.000000	61.479382
1149.000000	61.544420
1148.000000	61.600443
1147.000000	61.658416
1146.000000	61.718111
1145.000000	61.789483
1144.000000	61.852505
1143.000000	61.901333
1142.000000	61.950212
1141.000000	61.979770
1140.000000	62.021918
1139.000000	62.072505
1138.000000	62.119769
1137.000000	62.175252
1136.000000	62.241735
1135.000000	62.278962
1134.000000	62.326375
1133.000000	62.358809
1132.000000	62.394798
1131.000000	62.433245
1130.000000	62.466300
1129.000000	62.467408
1128.000000	62.475184
1127.000000	62.524245
1126.000000	62.565373
1125.000000	62.581514
1124.000000	62.619015
1123.000000	62.637814
1122.000000	62.652025
1121.000000	62.664231
1120.000000	62.688886
1119.000000	62.706951
1118.000000	62.714244
1117.000000	62.725825
1116.000000	62.750100
1115.000000	62.744115
1114.000000	62.748054
1113.000000	62.763150
1112.000000	62.772892
1111.000000	62.782565
1110.000000	62.772957
1109.000000	62.787529
1108.000000	62.783068
1107.000000	62.795923
1106.000000	62.796893
1105.000000	62.775995
1104.000000	62.787661
1103.000000	62.799068
1102.000000	62.803852
1101.000000	62.799526
1100.000000	62.807640
1099.000000	62.819661
1098.000000	62.832514
1097.000000	62.819203
1096.000000	62.817486
1095.000000	62.818723
1094.000000	62.816067
1093.000000	62.799550
1092.000000	62.823589
1091.000000	62.823408
1090.000000	62.798576
1089.000000	62.820203
1088.000000	62.806963
1087.000000	62.818535
1086.000000	62.808853
1085.000000	62.807144
1084.000000	62.781711
1083.000000	62.771643
1082.000000	62.806522
1081.000000	62.776843
1080.000000	62.784377
1079.000000	62.774801
1078.000000	62.761368
1077.000000	62.760158
1076.000000	62.779737
1075.000000	62.760683
1074.000000	62.751726
1073.000000	62.764951
1072.000000	62.751003
1071.000000	62.719437
1070.000000	62.727466
1069.000000	62.725314
1068.000000	62.715147
1067.000000	62.737591
1066.000000	62.696326
1065.000000	62.704311
1064.000000	62.675373
1063.000000	62.677499
1062.000000	62.679560
1061.000000	62.663486
1060.000000	62.645767
1059.000000	62.635419
1058.000000	62.636503
1057.000000	62.643308
1056.000000	62.643053
1055.000000	62.617367
1054.000000	62.622187
1053.000000	62.620526
1052.000000	62.618693
1051.000000	62.595844
1050.000000	62.586909
1049.000000	62.583549
1048.000000	62.589354
1047.000000	62.577016
1046.000000	62.550440
1045.000000	62.560455
1044.000000	62.548203
1043.000000	62.557251
1042.000000	62.538725
1041.000000	62.535165
1040.000000	62.516107
1039.000000	62.521653
1038.000000	62.513689
1037.000000	62.485114
1036.000000	62.510333
1035.000000	62.508625
1034.000000	62.499791
1033.000000	62.480188
1032.000000	62.479924
1031.000000	62.479375
1030.000000	62.462304
1029.000000	62.464375
1028.000000	62.469085
1027.000000	62.460243
1026.000000	62.456659
1025.000000	62.452516
1024.000000	62.458332
1023.000000	62.433579
1022.000000	62.424184
1021.000000	62.464743
1020.000000	62.441010
1019.000000	62.443482
1018.000000	62.451154
1017.000000	62.455864
1016.000000	62.435217
1015.000000	62.428683
1014.000000	62.442787
1013.000000	62.443443
1012.000000	62.451106
1011.000000	62.436974
1010.000000	62.430274
1009.000000	62.438095
1008.000000	62.452208
1007.000000	62.456420
1006.000000	62.457225
1005.000000	62.458691
1004.000000	62.440407
1003.000000	62.456182
1002.000000	62.455885
1001.000000	62.458139
1000.000000	62.462699
999.000000	62.459799
998.000000	62.474139
997.000000	62.467144
996.000000	62.467633
995.000000	62.458268
994.000000	62.460353
993.000000	62.465518
992.000000	62.474406
991.000000	62.486331
990.000000	62.489707
989.000000	62.484968
988.000000	62.496113
987.000000	62.521287
986.000000	62.522918
985.000000	62.514191
984.000000	62.528897
983.000000	62.538002
982.000000	62.542721
981.000000	62.541848
980.000000	62.533382
979.000000	62.540944
978.000000	62.564117
977.000000	62.564889
976.000000	62.585760
975.000000	62.590703
974.000000	62.580835
973.000000	62.598638
972.000000	62.620584
971.000000	62.641814
970.000000	62.625462
969.000000	62.639457
968.000000	62.663532
967.000000	62.663885
966.000000	62.667124
965.000000	62.676834
964.000000	62.691418
963.000000	62.701519
962.000000	62.711222
961.000000	62.744408
960.000000	62.754353
959.000000	62.761279
958.000000	62.771576
957.000000	62.796358
956.000000	62.789005
955.000000	62.789950
954.000000	62.793511
953.000000	62.796438
952.000000	62.826512
951.000000	62.851720
950.000000	62.848814
949.000000	62.866089
948.000000	62.872723
947.000000	62.873603
946.000000	62.876051
945.000000	62.875503
944.000000	62.880792
943.000000	62.875618
942.000000	62.876319
941.000000	62.881119
940.000000	62.901500
939.000000	62.928409
938.000000	62.922354
937.000000	62.915299
936.000000	62.899298
935.000000	62.895207
934.000000	62.915818
933.000000	62.925204
932.000000	62.927885
931.000000	62.927582
930.000000	62.908283
929.000000	62.914420
928.000000	62.914039
927.000000	62.927836
926.000000	62.927822
925.000000	62.906213
924.000000	62.924177
923.000000	62.922616
922.000000	62.895855
921.000000	62.873614
920.000000	62.900266
919.000000	62.872579
918.000000	62.872918
917.000000	62.912831
916.000000	62.894881
915.000000	62.896928
914.000000	62.907837
913.000000	62.897057
912.000000	62.875938
911.000000	62.893960
910.000000	62.906614
909.000000	62.891308
908.000000	62.896754
907.000000	62.877588
906.000000	62.866314
905.000000	62.935906
904.000000	62.895247
903.000000	62.887069
902.000000	62.947206
901.000000	62.913639
900.000000	62.915964
899.000000	62.904045
898.000000	62.919548
897.000000	62.963472
896.000000	62.981321
895.000000	62.966676
894.000000	63.002079
893.000000	63.000081
892.000000	62.979134
891.000000	62.981516
890.000000	63.051674
889.000000	63.038429
888.000000	62.966760
887.000000	63.066002
886.000000	63.085093
885.000000	63.083473
884.000000	63.114366
883.000000	63.071722
882.000000	63.057246
881.000000	63.027318
880.000000	63.002129
879.000000	63.029674
878.000000	63.113510
877.000000	63.104097
876.000000	63.076305
875.000000	63.105766
874.000000	63.148148
873.000000	63.132033
872.000000	63.152254
871.000000	63.188307
870.000000	63.154466
869.000000	63.098405
868.000000	63.043426
867.000000	63.112501
866.000000	63.044278
865.000000	62.990937
864.000000	63.121719
863.000000	63.117737
862.000000	63.123204
861.000000	63.067439
860.000000	63.103747
859.000000	62.459489
858.000000	62.788033
857.000000	62.749889
856.000000	62.840126
855.000000	62.968288
854.000000	62.600885
853.000000	62.954026
852.000000	62.631228
851.000000	63.259879
850.000000	62.984646
849.000000	63.273046
848.000000	62.859900
847.000000	62.825706
846.000000	62.748276
845.000000	62.675283
844.000000	62.904130
843.000000	62.751001
842.000000	62.801988
841.000000	62.882783
840.000000	62.804511
839.000000	62.954323
838.000000	63.159883
837.000000	62.744733
836.000000	62.990294
835.000000	62.911513
834.000000	62.869372
833.000000	62.834101
832.000000	62.969113
831.000000	62.798738
830.000000	62.709357
829.000000	62.861298
828.000000	62.810822
827.000000	62.565866
826.000000	62.591279
825.000000	62.744675
824.000000	62.732458
823.000000	62.598367
822.000000	62.873305
821.000000	62.668489
820.000000	62.830704
819.000000	63.022154
818.000000	62.898418
817.000000	62.814885
816.000000	62.977399
815.000000	62.795357
814.000000	63.014112
813.000000	62.671668
812.000000	62.784724
811.000000	62.818939
810.000000	62.962905
809.000000	62.781803
808.000000	62.952827
807.000000	62.738828
806.000000	62.673067
805.000000	62.841275
804.000000	62.915119
803.000000	62.963878
802.000000	62.732287
801.000000	62.950005
800.000000	62.887900
799.000000	62.950547
798.000000	62.878831
797.000000	62.988249
796.000000	62.809373
795.000000	62.769498
794.000000	62.820466
793.000000	62.830466
792.000000	62.855937
791.000000	62.790683
790.000000	62.796581
789.000000	62.751887
788.000000	62.870240
787.000000	62.751298
786.000000	62.867407
785.000000	62.943637
784.000000	62.914698
783.000000	62.920293
782.000000	62.870145
781.000000	62.856976
780.000000	62.948041
779.000000	62.859089
778.000000	62.874645
777.000000	62.762047
776.000000	62.915109
775.000000	62.951791
774.000000	62.881547
773.000000	62.919704
772.000000	62.886047
771.000000	62.815201
770.000000	62.880569
769.000000	62.859848
768.000000	62.842798
767.000000	62.897270
766.000000	62.883486
765.000000	62.918378
764.000000	62.892699
763.000000	62.891550
762.000000	62.821340
761.000000	62.809012
760.000000	62.866949
759.000000	62.867524
758.000000	62.848541
757.000000	62.854373
756.000000	62.846317
755.000000	62.854241
754.000000	62.831124
753.000000	62.911653
752.000000	62.815853
751.000000	62.847992
750.000000	62.823213
749.000000	62.819125
748.000000	62.775754
747.000000	62.799386
746.000000	62.820099
745.000000	62.846002
744.000000	62.781256
743.000000	62.817315
742.000000	62.824794
741.000000	62.770427
740.000000	62.753504
739.000000	62.775417
738.000000	62.814951
737.000000	62.829643
736.000000	62.788576
735.000000	62.831808
734.000000	62.797533
733.000000	62.790153
732.000000	62.814233
731.000000	62.775509
730.000000	62.760981
729.000000	62.791592
728.000000	62.821518
727.000000	62.856234
726.000000	62.793634
725.000000	62.800188
724.000000	62.786181
723.000000	62.771395
722.000000	62.774343
721.000000	62.787208
720.000000	62.794115
719.000000	62.768054
718.000000	62.790891
717.000000	62.805589
716.000000	62.791410
715.000000	62.774905
714.000000	62.825104
713.000000	62.818836
712.000000	62.783300
711.000000	62.803338
710.000000	62.750962
709.000000	62.726699
708.000000	62.719009
707.000000	62.737606
706.000000	62.765713
705.000000	62.763275
704.000000	62.752371
703.000000	62.695731
702.000000	62.750418
701.000000	62.791070
700.000000	62.746710
699.000000	62.715647
698.000000	62.739350
697.000000	62.786953
696.000000	62.806675
695.000000	62.734394
694.000000	62.754181
693.000000	62.766862
692.000000	62.745207
691.000000	62.822811
690.000000	62.839918
689.000000	62.818825
688.000000	62.745921
687.000000	62.751883
686.000000	62.752168
685.000000	62.763076
684.000000	62.754985
683.000000	62.822610
682.000000	62.828648
681.000000	62.717508
680.000000	62.757082
679.000000	62.798383
678.000000	62.758471
677.000000	62.821091
676.000000	62.821849
675.000000	62.803671
674.000000	62.792773
673.000000	62.830671
672.000000	62.810442
671.000000	62.790231
670.000000	62.778576
669.000000	62.835531
668.000000	62.818084
667.000000	62.827466
666.000000	62.818338
665.000000	62.745287
664.000000	62.723898
663.000000	62.747064
662.000000	62.724728
661.000000	62.780248
660.000000	62.849975
659.000000	62.779882
658.000000	62.746638
657.000000	62.794394
656.000000	62.756721
655.000000	62.747941
654.000000	62.752414
653.000000	62.763168
652.000000	62.728350
651.000000	62.710521
650.000000	62.716980
649.000000	62.788482
648.000000	62.669846
647.000000	62.698408
646.000000	62.703082
645.000000	62.703775
644.000000	62.713719
643.000000	62.714221
642.000000	62.703222
641.000000	62.665306
640.000000	62.666288
639.000000	62.727925
638.000000	62.664544
637.000000	62.689895
636.000000	62.733855
635.000000	62.648284
634.000000	62.664976
633.000000	62.639178
632.000000	62.656845
631.000000	62.649520
630.000000	62.608082
629.000000	62.623285
628.000000	62.593610
627.000000	62.605365
626.000000	62.561896
625.000000	62.603532
624.000000	62.639982
623.000000	62.614788
622.000000	62.547473
621.000000	62.594466
620.000000	62.507220
619.000000	62.507497
618.000000	62.474566
617.000000	62.495223
616.000000	62.526507
615.000000	62.538015
614.000000	62.453829
613.000000	62.474414
612.000000	62.461767
611.000000	62.458796
610.000000	62.369026
609.000000	62.399993
608.000000	62.456192
607.000000	62.318956
606.000000	62.362743
605.000000	62.320994
604.000000	62.330453
603.000000	62.339088
602.000000	62.264268
601.000000	62.239161
600.000000	62.280308
599.000000	62.231020
598.000000	62.257393
597.000000	62.236026
596.000000	62.157350
595.000000	62.185934
594.000000	62.166836
593.000000	62.158435
592.000000	62.128454
591.000000	62.093829
590.000000	62.095970
589.000000	62.035907
588.000000	62.045414
587.000000	62.028744
586.000000	61.956445
585.000000	62.047605
584.000000	61.970694
583.000000	61.912326
582.000000	61.851524
581.000000	61.930210
580.000000	61.876284
579.000000	61.844959
578.000000	61.754662
577.000000	61.742258
576.000000	61.737067
575.000000	61.747396
574.000000	61.725910
573.000000	61.773324
572.000000	61.697588
571.000000	61.629084
570.000000	61.637400
569.000000	61.639725
568.000000	61.497652
567.000000	61.541911
566.000000	61.522639
565.000000	61.437964
564.000000	61.424490
563.000000	61.409468
562.000000	61.329556
561.000000	61.229375
560.000000	61.265935
559.000000	61.237167
558.000000	61.180921
557.000000	61.153260
556.000000	61.138881
555.000000	61.124665
554.000000	61.010363
553.000000	61.034432
552.000000	61.006663
551.000000	60.952908
550.000000	60.923658
549.000000	60.878198
548.000000	60.850594
547.000000	60.782460
546.000000	60.749289
545.000000	60.687291
544.000000	60.722620
543.000000	60.633756
542.000000	60.595118
541.000000	60.578877
540.000000	60.470238
539.000000	60.443307
538.000000	60.421851
537.000000	60.345995
536.000000	60.290942
535.000000	60.311797
534.000000	60.213928
533.000000	60.198010
532.000000	60.125214
531.000000	60.046577
530.000000	59.983950
529.000000	59.994881
528.000000	59.947616
527.000000	59.891443
526.000000	59.848295
525.000000	59.771444
524.000000	59.719276
523.000000	59.670948
522.000000	59.615763
521.000000	59.600396
520.000000	59.502816
519.000000	59.422309
518.000000	59.339558
517.000000	59.318833
516.000000	59.225084
515.000000	59.159701
514.000000	59.119122
513.000000	59.076728
512.000000	58.982101
511.000000	58.940432
510.000000	58.858246
509.000000	58.801603
508.000000	58.730163
507.000000	58.672512
506.000000	58.620699
505.000000	58.557048
504.000000	58.427955
503.000000	58.388988
502.000000	58.324483
501.000000	58.262878
500.000000	58.171943
499.000000	58.099602
498.000000	57.992420
497.000000	57.896958
496.000000	57.860509
495.000000	57.765190
494.000000	57.635052
493.000000	57.587817
492.000000	57.468183
491.000000	57.419347
490.000000	57.323728
489.000000	57.240663
488.000000	57.202016
487.000000	57.055024
486.000000	56.937668
485.000000	56.902953
484.000000	56.846383
483.000000	56.683258
482.000000	56.579407
481.000000	56.475733
480.000000	56.365385
479.000000	56.320174
478.000000	56.230563
477.000000	56.110823
476.000000	55.984234
475.000000	55.829746
474.000000	55.688900
473.000000	55.603930
472.000000	55.493973
471.000000	55.379845
470.000000	55.253942
469.000000	55.093788
468.000000	54.934308
467.000000	54.861450
466.000000	54.749648
465.000000	54.596507
464.000000	54.429999
463.000000	54.291450
462.000000	54.153452
461.000000	53.976968
460.000000	53.818463
459.000000	53.680037
458.000000	53.514472
457.000000	53.331850
456.000000	53.128934
455.000000	52.971030
454.000000	52.887408
453.000000	52.714837
452.000000	52.484123
451.000000	52.293830
450.000000	52.143943
449.000000	51.965420
448.000000	51.704577
447.000000	51.507835
446.000000	51.308576
445.000000	51.108585
444.000000	50.902794
443.000000	50.724915
442.000000	50.511911
441.000000	50.269866
440.000000	50.053681
439.000000	49.835906
438.000000	49.582125
437.000000	49.410336
436.000000	49.230005
435.000000	49.000062
434.000000	48.739314
433.000000	48.501282
432.000000	48.245380
431.000000	48.037994
430.000000	47.786584
429.000000	47.566278
428.000000	47.345923
427.000000	47.116835
426.000000	46.867407
425.000000	46.595976
424.000000	46.308035
423.000000	46.071845
422.000000	45.807944
421.000000	45.544299
420.000000	45.296557
419.000000	45.016111
418.000000	44.741465
417.000000	44.454451
416.000000	44.180183
415.000000	43.872005
414.000000	43.602617
413.000000	43.339990
412.000000	43.031432
411.000000	42.676496
410.000000	42.420000
409.000000	42.145642
408.000000	41.863023
407.000000	41.598811
406.000000	41.248257
405.000000	40.985277
404.000000	40.686857
403.000000	40.371525
402.000000	40.052143
401.000000	39.723540
400.000000	39.488378
399.000000	39.172142
398.000000	38.806559
397.000000	38.504730
396.000000	38.201981
395.000000	37.867861
394.000000	37.520898
393.000000	37.224029
392.000000	36.940401
391.000000	36.629665
390.000000	36.327645
389.000000	35.961659
388.000000	35.633370
387.000000	35.363827
386.000000	35.015766
385.000000	34.638249
384.000000	34.394640
383.000000	34.060489
382.000000	33.660218
381.000000	33.378027
380.000000	33.060911
379.000000	32.689335
378.000000	32.390661
377.000000	32.011340
376.000000	31.795376
375.000000	31.430393
374.000000	31.113412
373.000000	30.769324
372.000000	30.402660
371.000000	30.031861
370.000000	29.886362
369.000000	29.398147
368.000000	29.205970
367.000000	28.796053
366.000000	28.460293
365.000000	28.210346
364.000000	27.781245
363.000000	27.474846
362.000000	27.086053
361.000000	26.725734
360.000000	26.389563
359.000000	26.092768
358.000000	25.764332
357.000000	25.474779
356.000000	25.236285
355.000000	24.996205
354.000000	24.643753
353.000000	24.249229
352.000000	24.028220
351.000000	23.763364
350.000000	23.514930
349.000000	23.177906
348.000000	22.879931
347.000000	22.693643
346.000000	22.408561
345.000000	21.966842
344.000000	21.882194
343.000000	21.548568
342.000000	21.167674
341.000000	20.953844
340.000000	20.734811
339.000000	20.463602
338.000000	20.210187
337.000000	19.922476
336.000000	19.619647
335.000000	19.278543
334.000000	19.051488
333.000000	18.824376
332.000000	18.562632
331.000000	18.089427
330.000000	17.937350
329.000000	17.629146
328.000000	17.256138
327.000000	16.957058
326.000000	16.764734
325.000000	16.514724
324.000000	16.280255
323.000000	16.025070
322.000000	15.692517
321.000000	15.454841
320.000000	15.170376
319.000000	14.948191
318.000000	14.666689
317.000000	14.468974
316.000000	14.324243
315.000000	14.088380
314.000000	13.923400
313.000000	13.765580
312.000000	13.415210
311.000000	13.356425
310.000000	13.119949
309.000000	12.930794
308.000000	12.756465
307.000000	12.580739
306.000000	12.503011
305.000000	12.315638
304.000000	12.159701
303.000000	12.012358
302.000000	11.935230
301.000000	11.757715
300.000000	11.639089
299.000000	11.463910
298.000000	11.262962
297.000000	11.126655
296.000000	11.022810
295.000000	10.898826
294.000000	10.720696
293.000000	10.529857
292.000000	10.383304
291.000000	10.259778
290.000000	10.147583
289.000000	10.110612
288.000000	9.972051
287.000000	9.984526
286.000000	10.047160
285.000000	10.072934
284.000000	10.059491
283.000000	10.063318
282.000000	10.044322
281.000000	10.074554
280.000000	10.127526
279.000000	10.174437
278.000000	10.259904
277.000000	10.337964
276.000000	10.367397
275.000000	10.412386
274.000000	10.510822
273.000000	10.537339
272.000000	10.651346
271.000000	10.709819
270.000000	10.763700
269.000000	10.810640
268.000000	10.869503
267.000000	10.990228
266.000000	11.124941
265.000000	11.170410
264.000000	11.314154
263.000000	11.445949
262.000000	11.587485
261.000000	11.682742
260.000000	11.771616
259.000000	11.895777
258.000000	12.033616
257.000000	12.232427
256.000000	12.377468
255.000000	12.484734
254.000000	12.636974
253.000000	12.789324
252.000000	12.940800
251.000000	13.085783
250.000000	13.238424
249.000000	13.387603
248.000000	13.532045
247.000000	13.723718
246.000000	13.880126
245.000000	14.020466
244.000000	14.143310
243.000000	14.264076
242.000000	14.427710
241.000000	14.630079
240.000000	14.774776
239.000000	14.882360
238.000000	15.152589
237.000000	15.273139
236.000000	15.371763
235.000000	15.591162
234.000000	15.724107
233.000000	15.880706
232.000000	16.057565
231.000000	16.191173
230.000000	16.295030
229.000000	16.424356
228.000000	16.608246
227.000000	16.813991
226.000000	16.912536
225.000000	17.101156
224.000000	17.306992
223.000000	17.587292
222.000000	17.911680
221.000000	18.196252
220.000000	18.575017
219.000000	18.997094
218.000000	19.275083
217.000000	19.554068
216.000000	20.032016
215.000000	20.536938
214.000000	20.997587
213.000000	21.359764
212.000000	21.873211
211.000000	22.401505
210.000000	23.021619
209.000000	23.704429
208.000000	24.253013
207.000000	24.931079
206.000000	25.753981
205.000000	26.392586
204.000000	27.182113
203.000000	28.100697
202.000000	28.801175
201.000000	29.377226
200.000000	29.969380
