PE UV       SUBTECH     SPECTRUM    ASCII       PEDS        4.00        
   -1
RDVeauUK 62.Sample.asc
18/03/12
11:13:43.00
18/03/12
11:13:43.00
Administrator

200.000000
1
Lambda 750
750N8071901
PerkinElmer UV WinLab 6.0.4.0738 / 1.61.00 Lambda 900

0
0
3350/servo 860.8/2
0
0
UV/VIS
1
1
1
CommonBeamDepol,150mm sphere / downward view
0
0
0
0
Program
Program
3350/servo 860.8/2
3350/0.2 860.8/0.2
3350/0.2 860.8/0.2
0
1
 
 
 
0
 
860.8
319.2
860.8
Front
100
on
 
 
0
0
0
 
0
 
 
 
0
 
 
0
0
0
0
0
 
 
 
 
0
0


0
0
#HDR
-1
-1
#GR
nm
%R
1.0
0.0
2350.000000
-1.000000
2151
8
49.933649
11.739240
#DATA
2350.000000	18.429353
2349.000000	18.892032
2348.000000	18.918913
2347.000000	19.426567
2346.000000	19.161691
2345.000000	19.160731
2344.000000	18.564101
2343.000000	18.525441
2342.000000	18.705613
2341.000000	19.108542
2340.000000	18.877718
2339.000000	19.008061
2338.000000	18.885958
2337.000000	19.096943
2336.000000	19.278208
2335.000000	19.646729
2334.000000	19.895780
2333.000000	20.061768
2332.000000	19.776069
2331.000000	19.862451
2330.000000	19.477259
2329.000000	19.415273
2328.000000	19.356696
2327.000000	19.382821
2326.000000	19.765334
2325.000000	19.588680
2324.000000	19.654730
2323.000000	19.372578
2322.000000	19.019957
2321.000000	19.163892
2320.000000	19.746455
2319.000000	19.713841
2318.000000	19.197887
2317.000000	19.397115
2316.000000	19.514765
2315.000000	19.231508
2314.000000	19.296850
2313.000000	19.264435
2312.000000	19.180269
2311.000000	19.056260
2310.000000	19.102728
2309.000000	19.087096
2308.000000	18.990968
2307.000000	18.755443
2306.000000	18.974462
2305.000000	19.092279
2304.000000	19.033596
2303.000000	19.124516
2302.000000	19.041264
2301.000000	18.839556
2300.000000	18.340630
2299.000000	18.645089
2298.000000	18.648835
2297.000000	18.463400
2296.000000	18.576815
2295.000000	18.412153
2294.000000	18.370740
2293.000000	18.328503
2292.000000	18.282020
2291.000000	18.211538
2290.000000	18.226213
2289.000000	18.374392
2288.000000	18.441001
2287.000000	18.312888
2286.000000	17.983398
2285.000000	17.944111
2284.000000	18.089723
2283.000000	18.050562
2282.000000	18.096470
2281.000000	18.013766
2280.000000	17.895407
2279.000000	18.141883
2278.000000	18.187074
2277.000000	18.139622
2276.000000	18.201763
2275.000000	18.234746
2274.000000	18.248487
2273.000000	18.259691
2272.000000	18.207034
2271.000000	18.285943
2270.000000	18.285154
2269.000000	18.249484
2268.000000	18.294544
2267.000000	18.432074
2266.000000	18.382076
2265.000000	18.512202
2264.000000	18.728839
2263.000000	18.643044
2262.000000	18.591746
2261.000000	18.936325
2260.000000	19.068617
2259.000000	18.780461
2258.000000	18.910045
2257.000000	19.138001
2256.000000	19.161658
2255.000000	19.269538
2254.000000	19.452924
2253.000000	19.505776
2252.000000	19.431910
2251.000000	19.507757
2250.000000	19.697822
2249.000000	19.936430
2248.000000	19.919949
2247.000000	19.998586
2246.000000	20.180317
2245.000000	20.290426
2244.000000	20.346557
2243.000000	20.478145
2242.000000	20.554059
2241.000000	20.501370
2240.000000	20.715951
2239.000000	20.827327
2238.000000	20.743063
2237.000000	20.888888
2236.000000	21.048404
2235.000000	20.937311
2234.000000	20.937753
2233.000000	20.981757
2232.000000	21.070893
2231.000000	21.183726
2230.000000	21.118686
2229.000000	21.065766
2228.000000	21.255449
2227.000000	21.290083
2226.000000	21.175513
2225.000000	21.190463
2224.000000	21.254593
2223.000000	21.260859
2222.000000	21.265348
2221.000000	21.173864
2220.000000	21.257790
2219.000000	21.175605
2218.000000	21.014989
2217.000000	20.978426
2216.000000	21.052637
2215.000000	21.043373
2214.000000	20.988917
2213.000000	21.136902
2212.000000	21.065120
2211.000000	20.861557
2210.000000	20.837668
2209.000000	20.783172
2208.000000	20.777076
2207.000000	20.796199
2206.000000	20.865490
2205.000000	20.958851
2204.000000	20.821329
2203.000000	20.619414
2202.000000	20.529960
2201.000000	20.524965
2200.000000	20.422233
2199.000000	20.512818
2198.000000	20.496631
2197.000000	20.479600
2196.000000	20.398412
2195.000000	20.390900
2194.000000	20.270528
2193.000000	20.210541
2192.000000	20.205271
2191.000000	20.229174
2190.000000	20.242871
2189.000000	20.250528
2188.000000	19.993587
2187.000000	19.943488
2186.000000	19.926789
2185.000000	20.070585
2184.000000	20.014221
2183.000000	20.305501
2182.000000	20.303362
2181.000000	20.065059
2180.000000	20.072156
2179.000000	20.175306
2178.000000	19.947995
2177.000000	20.006612
2176.000000	19.929442
2175.000000	19.997059
2174.000000	20.033576
2173.000000	19.912365
2172.000000	20.012245
2171.000000	20.168568
2170.000000	20.270929
2169.000000	20.187184
2168.000000	20.316860
2167.000000	20.298493
2166.000000	20.236395
2165.000000	20.290796
2164.000000	20.406413
2163.000000	20.580175
2162.000000	20.729240
2161.000000	20.685336
2160.000000	20.799553
2159.000000	20.890450
2158.000000	20.927188
2157.000000	21.020199
2156.000000	21.152298
2155.000000	21.132289
2154.000000	21.299549
2153.000000	21.483719
2152.000000	21.452095
2151.000000	21.443417
2150.000000	21.438047
2149.000000	21.394574
2148.000000	21.619856
2147.000000	21.729508
2146.000000	21.705151
2145.000000	21.901767
2144.000000	21.947169
2143.000000	21.869845
2142.000000	21.991973
2141.000000	22.129988
2140.000000	22.246772
2139.000000	22.206951
2138.000000	22.411805
2137.000000	22.473992
2136.000000	22.018180
2135.000000	22.317332
2134.000000	22.561439
2133.000000	22.392338
2132.000000	22.590781
2131.000000	22.738203
2130.000000	22.775410
2129.000000	22.726656
2128.000000	22.687759
2127.000000	22.691766
2126.000000	22.583667
2125.000000	22.788465
2124.000000	22.831504
2123.000000	22.875502
2122.000000	22.811607
2121.000000	22.832210
2120.000000	22.829792
2119.000000	23.016728
2118.000000	23.030555
2117.000000	23.122796
2116.000000	23.070247
2115.000000	23.104014
2114.000000	22.959997
2113.000000	22.984438
2112.000000	23.151052
2111.000000	23.091756
2110.000000	22.981712
2109.000000	23.043294
2108.000000	22.947341
2107.000000	23.113306
2106.000000	23.072715
2105.000000	23.134488
2104.000000	23.092432
2103.000000	23.049857
2102.000000	23.077605
2101.000000	23.182932
2100.000000	23.262053
2099.000000	23.085905
2098.000000	22.972073
2097.000000	23.051504
2096.000000	23.042162
2095.000000	23.043403
2094.000000	23.106115
2093.000000	23.108459
2092.000000	22.990714
2091.000000	23.119349
2090.000000	23.061525
2089.000000	23.129592
2088.000000	23.074550
2087.000000	23.132655
2086.000000	23.073351
2085.000000	23.084445
2084.000000	22.980686
2083.000000	22.896191
2082.000000	22.833535
2081.000000	22.900580
2080.000000	22.863825
2079.000000	22.749493
2078.000000	22.653644
2077.000000	22.722552
2076.000000	22.625665
2075.000000	22.610117
2074.000000	22.526960
2073.000000	22.354827
2072.000000	22.323836
2071.000000	22.342702
2070.000000	22.286865
2069.000000	22.262443
2068.000000	22.074094
2067.000000	21.970117
2066.000000	21.892690
2065.000000	21.888600
2064.000000	21.794400
2063.000000	21.721272
2062.000000	21.600967
2061.000000	21.533581
2060.000000	21.508832
2059.000000	21.441274
2058.000000	21.391678
2057.000000	21.267262
2056.000000	21.192968
2055.000000	21.196252
2054.000000	21.019427
2053.000000	20.933130
2052.000000	20.906323
2051.000000	20.811481
2050.000000	20.687796
2049.000000	20.692466
2048.000000	20.689244
2047.000000	20.682718
2046.000000	20.560045
2045.000000	20.494382
2044.000000	20.522022
2043.000000	20.495304
2042.000000	20.461887
2041.000000	20.533254
2040.000000	20.531949
2039.000000	20.499481
2038.000000	20.515062
2037.000000	20.551154
2036.000000	20.617727
2035.000000	20.689875
2034.000000	20.709946
2033.000000	20.731108
2032.000000	20.792271
2031.000000	20.837419
2030.000000	20.877207
2029.000000	20.954565
2028.000000	21.024674
2027.000000	21.036017
2026.000000	21.100141
2025.000000	21.147017
2024.000000	21.085636
2023.000000	21.091590
2022.000000	21.135234
2021.000000	21.127326
2020.000000	21.193405
2019.000000	21.167442
2018.000000	21.110292
2017.000000	21.149277
2016.000000	21.159528
2015.000000	21.145531
2014.000000	21.124526
2013.000000	21.109452
2012.000000	21.084220
2011.000000	21.091659
2010.000000	21.047387
2009.000000	20.973482
2008.000000	20.928595
2007.000000	20.903858
2006.000000	20.844674
2005.000000	20.790070
2004.000000	20.726735
2003.000000	20.673655
2002.000000	20.649700
2001.000000	20.602335
2000.000000	20.530710
1999.000000	20.478359
1998.000000	20.410796
1997.000000	20.367988
1996.000000	20.297224
1995.000000	20.256131
1994.000000	20.198813
1993.000000	20.124261
1992.000000	20.059524
1991.000000	19.988739
1990.000000	19.965943
1989.000000	19.906057
1988.000000	19.856588
1987.000000	19.832693
1986.000000	19.761686
1985.000000	19.669471
1984.000000	19.605228
1983.000000	19.574505
1982.000000	19.519551
1981.000000	19.498063
1980.000000	19.388079
1979.000000	19.369535
1978.000000	19.295836
1977.000000	19.269513
1976.000000	19.209213
1975.000000	19.207514
1974.000000	19.123499
1973.000000	19.055868
1972.000000	19.025551
1971.000000	18.969389
1970.000000	18.926942
1969.000000	18.893362
1968.000000	18.816067
1967.000000	18.808766
1966.000000	18.793863
1965.000000	18.744967
1964.000000	18.721989
1963.000000	18.666555
1962.000000	18.601846
1961.000000	18.564713
1960.000000	18.464717
1959.000000	18.469046
1958.000000	18.412673
1957.000000	18.411991
1956.000000	18.446463
1955.000000	18.396966
1954.000000	18.371024
1953.000000	18.336227
1952.000000	18.347522
1951.000000	18.351181
1950.000000	18.254079
1949.000000	18.285659
1948.000000	18.247943
1947.000000	18.226898
1946.000000	18.263496
1945.000000	18.230498
1944.000000	18.305838
1943.000000	18.388975
1942.000000	18.348680
1941.000000	18.351642
1940.000000	18.382364
1939.000000	18.433316
1938.000000	18.373329
1937.000000	18.564520
1936.000000	18.557557
1935.000000	18.615412
1934.000000	18.643340
1933.000000	18.756180
1932.000000	18.720953
1931.000000	18.894131
1930.000000	19.013386
1929.000000	19.077249
1928.000000	19.240779
1927.000000	19.293549
1926.000000	19.378706
1925.000000	19.443039
1924.000000	19.640987
1923.000000	19.670549
1922.000000	19.883489
1921.000000	20.077506
1920.000000	20.138729
1919.000000	20.175202
1918.000000	20.430153
1917.000000	20.598810
1916.000000	20.728345
1915.000000	20.975433
1914.000000	21.169223
1913.000000	21.450141
1912.000000	21.705135
1911.000000	21.866658
1910.000000	22.132164
1909.000000	22.286578
1908.000000	22.475768
1907.000000	22.735678
1906.000000	23.054002
1905.000000	23.350478
1904.000000	23.609142
1903.000000	23.949801
1902.000000	24.223739
1901.000000	24.582598
1900.000000	24.996437
1899.000000	25.237886
1898.000000	25.570511
1897.000000	25.966650
1896.000000	26.226645
1895.000000	26.653443
1894.000000	26.920149
1893.000000	27.272010
1892.000000	27.600404
1891.000000	27.947879
1890.000000	28.341804
1889.000000	28.684843
1888.000000	28.969485
1887.000000	29.252761
1886.000000	29.596450
1885.000000	29.955593
1884.000000	30.267540
1883.000000	30.573223
1882.000000	30.842290
1881.000000	31.111268
1880.000000	31.364727
1879.000000	31.692605
1878.000000	31.915772
1877.000000	32.149045
1876.000000	32.436335
1875.000000	32.680642
1874.000000	32.935276
1873.000000	33.105633
1872.000000	33.320924
1871.000000	33.541818
1870.000000	33.702136
1869.000000	33.862076
1868.000000	33.988885
1867.000000	34.081462
1866.000000	34.244630
1865.000000	34.314070
1864.000000	34.425075
1863.000000	34.510610
1862.000000	34.573096
1861.000000	34.661705
1860.000000	34.729527
1859.000000	34.785225
1858.000000	34.864752
1857.000000	34.916471
1856.000000	34.994789
1855.000000	35.055959
1854.000000	35.074474
1853.000000	35.071973
1852.000000	35.104137
1851.000000	35.117662
1850.000000	35.124239
1849.000000	35.128699
1848.000000	35.120786
1847.000000	35.115889
1846.000000	35.137910
1845.000000	35.150446
1844.000000	35.150892
1843.000000	35.131723
1842.000000	35.055438
1841.000000	35.055690
1840.000000	35.050093
1839.000000	35.041315
1838.000000	35.034968
1837.000000	34.984925
1836.000000	34.942476
1835.000000	34.908537
1834.000000	34.838491
1833.000000	34.828490
1832.000000	34.792970
1831.000000	34.750324
1830.000000	34.721993
1829.000000	34.655827
1828.000000	34.636793
1827.000000	34.620828
1826.000000	34.588214
1825.000000	34.544339
1824.000000	34.511012
1823.000000	34.474790
1822.000000	34.445097
1821.000000	34.398421
1820.000000	34.364475
1819.000000	34.348742
1818.000000	34.327464
1817.000000	34.309783
1816.000000	34.292502
1815.000000	34.255649
1814.000000	34.221033
1813.000000	34.195057
1812.000000	34.167894
1811.000000	34.130217
1810.000000	34.073473
1809.000000	34.058080
1808.000000	34.018169
1807.000000	33.991494
1806.000000	33.984022
1805.000000	33.936023
1804.000000	33.890241
1803.000000	33.881042
1802.000000	33.863404
1801.000000	33.823883
1800.000000	33.787919
1799.000000	33.759005
1798.000000	33.748099
1797.000000	33.738352
1796.000000	33.742184
1795.000000	33.726654
1794.000000	33.699519
1793.000000	33.667087
1792.000000	33.663559
1791.000000	33.651485
1790.000000	33.648495
1789.000000	33.629324
1788.000000	33.628339
1787.000000	33.627737
1786.000000	33.611051
1785.000000	33.589415
1784.000000	33.565347
1783.000000	33.548902
1782.000000	33.529526
1781.000000	33.487201
1780.000000	33.457001
1779.000000	33.465374
1778.000000	33.434530
1777.000000	33.393364
1776.000000	33.385226
1775.000000	33.329685
1774.000000	33.309789
1773.000000	33.277612
1772.000000	33.238792
1771.000000	33.197646
1770.000000	33.157135
1769.000000	33.105270
1768.000000	33.069390
1767.000000	33.014610
1766.000000	32.990715
1765.000000	32.942931
1764.000000	32.922589
1763.000000	32.880429
1762.000000	32.847559
1761.000000	32.816930
1760.000000	32.782724
1759.000000	32.735640
1758.000000	32.738215
1757.000000	32.695196
1756.000000	32.627524
1755.000000	32.591368
1754.000000	32.558319
1753.000000	32.506548
1752.000000	32.468737
1751.000000	32.431359
1750.000000	32.400356
1749.000000	32.389837
1748.000000	32.331721
1747.000000	32.291298
1746.000000	32.281738
1745.000000	32.210233
1744.000000	32.150541
1743.000000	32.112826
1742.000000	32.071692
1741.000000	32.073389
1740.000000	32.032426
1739.000000	31.996648
1738.000000	31.979253
1737.000000	31.907847
1736.000000	31.930201
1735.000000	31.907253
1734.000000	31.933305
1733.000000	31.915890
1732.000000	31.919202
1731.000000	31.925103
1730.000000	31.929892
1729.000000	31.991028
1728.000000	31.997044
1727.000000	32.027923
1726.000000	32.083547
1725.000000	32.126909
1724.000000	32.202619
1723.000000	32.289546
1722.000000	32.344580
1721.000000	32.405029
1720.000000	32.511428
1719.000000	32.587394
1718.000000	32.679833
1717.000000	32.721871
1716.000000	32.808819
1715.000000	32.883096
1714.000000	32.988220
1713.000000	33.069941
1712.000000	33.103747
1711.000000	33.161012
1710.000000	33.234720
1709.000000	33.278474
1708.000000	33.315673
1707.000000	33.334887
1706.000000	33.368219
1705.000000	33.399950
1704.000000	33.448108
1703.000000	33.465976
1702.000000	33.440290
1701.000000	33.452833
1700.000000	33.479467
1699.000000	33.466170
1698.000000	33.509660
1697.000000	33.521978
1696.000000	33.582646
1695.000000	33.542708
1694.000000	33.606119
1693.000000	33.647856
1692.000000	33.686872
1691.000000	33.757456
1690.000000	33.793847
1689.000000	33.866061
1688.000000	33.961851
1687.000000	34.032890
1686.000000	34.105100
1685.000000	34.247896
1684.000000	34.367317
1683.000000	34.482567
1682.000000	34.610760
1681.000000	34.763346
1680.000000	34.891567
1679.000000	35.030236
1678.000000	35.204215
1677.000000	35.310908
1676.000000	35.485410
1675.000000	35.635389
1674.000000	35.784621
1673.000000	35.949515
1672.000000	36.077194
1671.000000	36.232688
1670.000000	36.347758
1669.000000	36.503041
1668.000000	36.593168
1667.000000	36.749597
1666.000000	36.817257
1665.000000	36.910530
1664.000000	37.011208
1663.000000	37.087145
1662.000000	37.166714
1661.000000	37.223368
1660.000000	37.304136
1659.000000	37.350748
1658.000000	37.391049
1657.000000	37.424768
1656.000000	37.467398
1655.000000	37.507112
1654.000000	37.520318
1653.000000	37.556184
1652.000000	37.563551
1651.000000	37.572148
1650.000000	37.573210
1649.000000	37.560042
1648.000000	37.559343
1647.000000	37.551437
1646.000000	37.541746
1645.000000	37.496127
1644.000000	37.507721
1643.000000	37.466403
1642.000000	37.447248
1641.000000	37.427732
1640.000000	37.379821
1639.000000	37.360893
1638.000000	37.342841
1637.000000	37.300402
1636.000000	37.251583
1635.000000	37.222752
1634.000000	37.166091
1633.000000	37.110184
1632.000000	37.081696
1631.000000	37.071057
1630.000000	37.009323
1629.000000	36.936064
1628.000000	36.908825
1627.000000	36.861922
1626.000000	36.816101
1625.000000	36.778480
1624.000000	36.747621
1623.000000	36.681395
1622.000000	36.647217
1621.000000	36.589803
1620.000000	36.534778
1619.000000	36.483959
1618.000000	36.420933
1617.000000	36.379253
1616.000000	36.336256
1615.000000	36.276890
1614.000000	36.212072
1613.000000	36.150432
1612.000000	36.095385
1611.000000	36.042069
1610.000000	35.981421
1609.000000	35.926191
1608.000000	35.876942
1607.000000	35.807446
1606.000000	35.740550
1605.000000	35.698213
1604.000000	35.633999
1603.000000	35.548978
1602.000000	35.495727
1601.000000	35.443738
1600.000000	35.405461
1599.000000	35.358964
1598.000000	35.292569
1597.000000	35.234198
1596.000000	35.173709
1595.000000	35.124585
1594.000000	35.070703
1593.000000	35.015525
1592.000000	34.979794
1591.000000	34.920140
1590.000000	34.867151
1589.000000	34.825833
1588.000000	34.759429
1587.000000	34.726194
1586.000000	34.706302
1585.000000	34.668304
1584.000000	34.603583
1583.000000	34.547599
1582.000000	34.513540
1581.000000	34.459704
1580.000000	34.432770
1579.000000	34.388173
1578.000000	34.335424
1577.000000	34.292602
1576.000000	34.265666
1575.000000	34.214746
1574.000000	34.150615
1573.000000	34.118146
1572.000000	34.085594
1571.000000	34.053311
1570.000000	34.008811
1569.000000	33.962174
1568.000000	33.928246
1567.000000	33.883325
1566.000000	33.863248
1565.000000	33.842343
1564.000000	33.808779
1563.000000	33.789475
1562.000000	33.751050
1561.000000	33.721424
1560.000000	33.707266
1559.000000	33.675198
1558.000000	33.649320
1557.000000	33.634234
1556.000000	33.618784
1555.000000	33.587993
1554.000000	33.557129
1553.000000	33.522235
1552.000000	33.504208
1551.000000	33.475037
1550.000000	33.444451
1549.000000	33.403246
1548.000000	33.366119
1547.000000	33.311108
1546.000000	33.267332
1545.000000	33.223020
1544.000000	33.146669
1543.000000	33.091372
1542.000000	33.032281
1541.000000	32.945870
1540.000000	32.891776
1539.000000	32.826220
1538.000000	32.751217
1537.000000	32.679159
1536.000000	32.602321
1535.000000	32.545447
1534.000000	32.457152
1533.000000	32.394066
1532.000000	32.317891
1531.000000	32.263309
1530.000000	32.216349
1529.000000	32.148234
1528.000000	32.090569
1527.000000	32.029731
1526.000000	31.979417
1525.000000	31.927143
1524.000000	31.868982
1523.000000	31.839480
1522.000000	31.801351
1521.000000	31.759310
1520.000000	31.700772
1519.000000	31.693504
1518.000000	31.675945
1517.000000	31.635292
1516.000000	31.615410
1515.000000	31.579842
1514.000000	31.570395
1513.000000	31.551870
1512.000000	31.526410
1511.000000	31.508259
1510.000000	31.478813
1509.000000	31.474025
1508.000000	31.441976
1507.000000	31.409687
1506.000000	31.419282
1505.000000	31.417899
1504.000000	31.410186
1503.000000	31.384786
1502.000000	31.379129
1501.000000	31.387985
1500.000000	31.364149
1499.000000	31.363807
1498.000000	31.358163
1497.000000	31.351156
1496.000000	31.364176
1495.000000	31.377325
1494.000000	31.366310
1493.000000	31.372914
1492.000000	31.390708
1491.000000	31.404002
1490.000000	31.427103
1489.000000	31.432025
1488.000000	31.439840
1487.000000	31.441432
1486.000000	31.472141
1485.000000	31.482822
1484.000000	31.515039
1483.000000	31.530937
1482.000000	31.540668
1481.000000	31.597229
1480.000000	31.614111
1479.000000	31.641822
1478.000000	31.649206
1477.000000	31.665224
1476.000000	31.689467
1475.000000	31.714809
1474.000000	31.753201
1473.000000	31.767919
1472.000000	31.798059
1471.000000	31.807157
1470.000000	31.848722
1469.000000	31.894949
1468.000000	31.904924
1467.000000	31.923585
1466.000000	31.954319
1465.000000	31.986100
1464.000000	32.019747
1463.000000	32.039917
1462.000000	32.093680
1461.000000	32.123222
1460.000000	32.142041
1459.000000	32.200482
1458.000000	32.246667
1457.000000	32.286380
1456.000000	32.336474
1455.000000	32.383446
1454.000000	32.420843
1453.000000	32.471238
1452.000000	32.545989
1451.000000	32.603424
1450.000000	32.670286
1449.000000	32.720485
1448.000000	32.787938
1447.000000	32.857723
1446.000000	32.927403
1445.000000	33.001790
1444.000000	33.064114
1443.000000	33.134143
1442.000000	33.225328
1441.000000	33.294658
1440.000000	33.405772
1439.000000	33.492762
1438.000000	33.590572
1437.000000	33.691679
1436.000000	33.798960
1435.000000	33.901861
1434.000000	34.010356
1433.000000	34.104107
1432.000000	34.226945
1431.000000	34.374138
1430.000000	34.495080
1429.000000	34.624063
1428.000000	34.744782
1427.000000	34.882969
1426.000000	35.036838
1425.000000	35.179746
1424.000000	35.331689
1423.000000	35.490962
1422.000000	35.661212
1421.000000	35.830111
1420.000000	36.013801
1419.000000	36.189166
1418.000000	36.365444
1417.000000	36.554922
1416.000000	36.734455
1415.000000	36.928207
1414.000000	37.120900
1413.000000	37.323202
1412.000000	37.534178
1411.000000	37.741781
1410.000000	37.945029
1409.000000	38.163845
1408.000000	38.379789
1407.000000	38.583878
1406.000000	38.803395
1405.000000	39.013296
1404.000000	39.217276
1403.000000	39.425691
1402.000000	39.640133
1401.000000	39.839600
1400.000000	40.041935
1399.000000	40.229907
1398.000000	40.438004
1397.000000	40.630185
1396.000000	40.823342
1395.000000	41.019109
1394.000000	41.195808
1393.000000	41.363210
1392.000000	41.536299
1391.000000	41.723159
1390.000000	41.879927
1389.000000	42.027557
1388.000000	42.187245
1387.000000	42.340264
1386.000000	42.475282
1385.000000	42.600605
1384.000000	42.745551
1383.000000	42.884345
1382.000000	42.980723
1381.000000	43.096478
1380.000000	43.215574
1379.000000	43.307948
1378.000000	43.405456
1377.000000	43.496392
1376.000000	43.585969
1375.000000	43.665861
1374.000000	43.729525
1373.000000	43.794042
1372.000000	43.857242
1371.000000	43.938316
1370.000000	44.020776
1369.000000	44.074278
1368.000000	44.125579
1367.000000	44.186264
1366.000000	44.257715
1365.000000	44.327486
1364.000000	44.391371
1363.000000	44.452423
1362.000000	44.523447
1361.000000	44.606676
1360.000000	44.687458
1359.000000	44.746636
1358.000000	44.823552
1357.000000	44.891642
1356.000000	44.949595
1355.000000	45.036357
1354.000000	45.116345
1353.000000	45.182050
1352.000000	45.251873
1351.000000	45.328454
1350.000000	45.398540
1349.000000	45.471694
1348.000000	45.535992
1347.000000	45.606674
1346.000000	45.706387
1345.000000	45.774936
1344.000000	45.833834
1343.000000	45.908920
1342.000000	45.978111
1341.000000	46.042007
1340.000000	46.109766
1339.000000	46.177073
1338.000000	46.241925
1337.000000	46.306044
1336.000000	46.367278
1335.000000	46.423819
1334.000000	46.472698
1333.000000	46.534238
1332.000000	46.585007
1331.000000	46.633377
1330.000000	46.670164
1329.000000	46.716823
1328.000000	46.789244
1327.000000	46.883031
1326.000000	46.959270
1325.000000	46.995885
1324.000000	47.023527
1323.000000	47.021077
1322.000000	47.037896
1321.000000	47.075549
1320.000000	47.125916
1319.000000	47.175521
1318.000000	47.186682
1317.000000	47.195246
1316.000000	47.224843
1315.000000	47.268746
1314.000000	47.290462
1313.000000	47.311535
1312.000000	47.327225
1311.000000	47.358905
1310.000000	47.394908
1309.000000	47.429295
1308.000000	47.434490
1307.000000	47.436495
1306.000000	47.441784
1305.000000	47.490186
1304.000000	47.511129
1303.000000	47.518648
1302.000000	47.517835
1301.000000	47.521389
1300.000000	47.527644
1299.000000	47.543543
1298.000000	47.553316
1297.000000	47.553775
1296.000000	47.557942
1295.000000	47.560108
1294.000000	47.570642
1293.000000	47.558005
1292.000000	47.573963
1291.000000	47.574900
1290.000000	47.570985
1289.000000	47.584017
1288.000000	47.589676
1287.000000	47.582547
1286.000000	47.566202
1285.000000	47.562871
1284.000000	47.568564
1283.000000	47.572448
1282.000000	47.571020
1281.000000	47.582926
1280.000000	47.569751
1279.000000	47.558884
1278.000000	47.520566
1277.000000	47.521169
1276.000000	47.533050
1275.000000	47.534614
1274.000000	47.543084
1273.000000	47.534578
1272.000000	47.538168
1271.000000	47.544801
1270.000000	47.564930
1269.000000	47.574091
1268.000000	47.597113
1267.000000	47.605610
1266.000000	47.619662
1265.000000	47.630462
1264.000000	47.621529
1263.000000	47.628169
1262.000000	47.638980
1261.000000	47.656020
1260.000000	47.716592
1259.000000	47.689706
1258.000000	47.680779
1257.000000	47.687848
1256.000000	47.696465
1255.000000	47.710247
1254.000000	47.712877
1253.000000	47.730334
1252.000000	47.743741
1251.000000	47.754356
1250.000000	47.739425
1249.000000	47.743398
1248.000000	47.727252
1247.000000	47.714437
1246.000000	47.718823
1245.000000	47.703095
1244.000000	47.652543
1243.000000	47.623494
1242.000000	47.637675
1241.000000	47.609335
1240.000000	47.588749
1239.000000	47.550392
1238.000000	47.554808
1237.000000	47.535395
1236.000000	47.495774
1235.000000	47.447535
1234.000000	47.408448
1233.000000	47.409263
1232.000000	47.390921
1231.000000	47.343990
1230.000000	47.331164
1229.000000	47.325444
1228.000000	47.298358
1227.000000	47.290690
1226.000000	47.258499
1225.000000	47.228393
1224.000000	47.190937
1223.000000	47.168853
1222.000000	47.141493
1221.000000	47.133097
1220.000000	47.109839
1219.000000	47.083428
1218.000000	47.053108
1217.000000	47.034139
1216.000000	47.014339
1215.000000	46.994388
1214.000000	46.980977
1213.000000	46.935503
1212.000000	46.891698
1211.000000	46.874469
1210.000000	46.859257
1209.000000	46.809962
1208.000000	46.778162
1207.000000	46.758797
1206.000000	46.698300
1205.000000	46.659339
1204.000000	46.637261
1203.000000	46.613129
1202.000000	46.560983
1201.000000	46.533303
1200.000000	46.510294
1199.000000	46.464973
1198.000000	46.415570
1197.000000	46.381252
1196.000000	46.348818
1195.000000	46.334362
1194.000000	46.322241
1193.000000	46.307581
1192.000000	46.299241
1191.000000	46.279844
1190.000000	46.235037
1189.000000	46.174193
1188.000000	46.179191
1187.000000	46.184541
1186.000000	46.179115
1185.000000	46.180715
1184.000000	46.186802
1183.000000	46.208048
1182.000000	46.238556
1181.000000	46.268204
1180.000000	46.310438
1179.000000	46.341385
1178.000000	46.364893
1177.000000	46.419640
1176.000000	46.479436
1175.000000	46.527996
1174.000000	46.588424
1173.000000	46.660279
1172.000000	46.727935
1171.000000	46.791903
1170.000000	46.866016
1169.000000	46.923919
1168.000000	46.978911
1167.000000	47.065235
1166.000000	47.145157
1165.000000	47.234729
1164.000000	47.335705
1163.000000	47.417779
1162.000000	47.504127
1161.000000	47.595946
1160.000000	47.673616
1159.000000	47.744822
1158.000000	47.831736
1157.000000	47.917919
1156.000000	48.003205
1155.000000	48.083357
1154.000000	48.149357
1153.000000	48.220830
1152.000000	48.290017
1151.000000	48.355736
1150.000000	48.440451
1149.000000	48.489198
1148.000000	48.525399
1147.000000	48.586871
1146.000000	48.647956
1145.000000	48.716153
1144.000000	48.780273
1143.000000	48.833893
1142.000000	48.886176
1141.000000	48.933076
1140.000000	48.988791
1139.000000	49.049367
1138.000000	49.106312
1137.000000	49.143680
1136.000000	49.171025
1135.000000	49.199847
1134.000000	49.248169
1133.000000	49.296431
1132.000000	49.347343
1131.000000	49.386941
1130.000000	49.408753
1129.000000	49.447648
1128.000000	49.481323
1127.000000	49.508924
1126.000000	49.540066
1125.000000	49.562116
1124.000000	49.601553
1123.000000	49.616404
1122.000000	49.603226
1121.000000	49.605925
1120.000000	49.637708
1119.000000	49.661509
1118.000000	49.669972
1117.000000	49.685342
1116.000000	49.698465
1115.000000	49.699328
1114.000000	49.720118
1113.000000	49.735604
1112.000000	49.744520
1111.000000	49.754958
1110.000000	49.755695
1109.000000	49.765634
1108.000000	49.773725
1107.000000	49.772743
1106.000000	49.788777
1105.000000	49.782310
1104.000000	49.788625
1103.000000	49.792916
1102.000000	49.771965
1101.000000	49.757216
1100.000000	49.763755
1099.000000	49.782964
1098.000000	49.799989
1097.000000	49.804542
1096.000000	49.813948
1095.000000	49.810402
1094.000000	49.776906
1093.000000	49.747484
1092.000000	49.763484
1091.000000	49.777731
1090.000000	49.774507
1089.000000	49.788509
1088.000000	49.773017
1087.000000	49.771741
1086.000000	49.754982
1085.000000	49.774530
1084.000000	49.772468
1083.000000	49.760568
1082.000000	49.764027
1081.000000	49.729640
1080.000000	49.730595
1079.000000	49.720950
1078.000000	49.728214
1077.000000	49.723578
1076.000000	49.705352
1075.000000	49.689404
1074.000000	49.693120
1073.000000	49.699979
1072.000000	49.696811
1071.000000	49.671364
1070.000000	49.664880
1069.000000	49.662845
1068.000000	49.661205
1067.000000	49.663036
1066.000000	49.622055
1065.000000	49.626450
1064.000000	49.613927
1063.000000	49.618151
1062.000000	49.609858
1061.000000	49.604552
1060.000000	49.590900
1059.000000	49.591103
1058.000000	49.589527
1057.000000	49.591295
1056.000000	49.565724
1055.000000	49.548283
1054.000000	49.548329
1053.000000	49.540570
1052.000000	49.530549
1051.000000	49.535031
1050.000000	49.525174
1049.000000	49.510180
1048.000000	49.511512
1047.000000	49.498408
1046.000000	49.507998
1045.000000	49.469925
1044.000000	49.484327
1043.000000	49.464342
1042.000000	49.458420
1041.000000	49.456330
1040.000000	49.465155
1039.000000	49.437540
1038.000000	49.423300
1037.000000	49.416967
1036.000000	49.411703
1035.000000	49.411722
1034.000000	49.411094
1033.000000	49.381410
1032.000000	49.383152
1031.000000	49.389960
1030.000000	49.387007
1029.000000	49.386160
1028.000000	49.380030
1027.000000	49.384748
1026.000000	49.364294
1025.000000	49.368450
1024.000000	49.352875
1023.000000	49.335354
1022.000000	49.342695
1021.000000	49.349784
1020.000000	49.344788
1019.000000	49.350498
1018.000000	49.332512
1017.000000	49.349412
1016.000000	49.334919
1015.000000	49.313726
1014.000000	49.327873
1013.000000	49.351829
1012.000000	49.360352
1011.000000	49.337988
1010.000000	49.323355
1009.000000	49.328191
1008.000000	49.330552
1007.000000	49.349514
1006.000000	49.346864
1005.000000	49.345952
1004.000000	49.335598
1003.000000	49.335971
1002.000000	49.330421
1001.000000	49.343818
1000.000000	49.345100
999.000000	49.344660
998.000000	49.356274
997.000000	49.355771
996.000000	49.348392
995.000000	49.339644
994.000000	49.345567
993.000000	49.344032
992.000000	49.355048
991.000000	49.368188
990.000000	49.368508
989.000000	49.351803
988.000000	49.363442
987.000000	49.381963
986.000000	49.386572
985.000000	49.388607
984.000000	49.389871
983.000000	49.390182
982.000000	49.397576
981.000000	49.394998
980.000000	49.391445
979.000000	49.406129
978.000000	49.412827
977.000000	49.422213
976.000000	49.442517
975.000000	49.459410
974.000000	49.458378
973.000000	49.455879
972.000000	49.471823
971.000000	49.491129
970.000000	49.480809
969.000000	49.479425
968.000000	49.492808
967.000000	49.504041
966.000000	49.506779
965.000000	49.521291
964.000000	49.536048
963.000000	49.535872
962.000000	49.546418
961.000000	49.561909
960.000000	49.560412
959.000000	49.564372
958.000000	49.583509
957.000000	49.585817
956.000000	49.569762
955.000000	49.593466
954.000000	49.605929
953.000000	49.619375
952.000000	49.637610
951.000000	49.621376
950.000000	49.615210
949.000000	49.615151
948.000000	49.620069
947.000000	49.643903
946.000000	49.661061
945.000000	49.656960
944.000000	49.649961
943.000000	49.654365
942.000000	49.644278
941.000000	49.641361
940.000000	49.667890
939.000000	49.672394
938.000000	49.666125
937.000000	49.672442
936.000000	49.667295
935.000000	49.662107
934.000000	49.677857
933.000000	49.682745
932.000000	49.674863
931.000000	49.661793
930.000000	49.643800
929.000000	49.625754
928.000000	49.620024
927.000000	49.645554
926.000000	49.624572
925.000000	49.605862
924.000000	49.614357
923.000000	49.633248
922.000000	49.635011
921.000000	49.628942
920.000000	49.614177
919.000000	49.594757
918.000000	49.582229
917.000000	49.629192
916.000000	49.615303
915.000000	49.589940
914.000000	49.603798
913.000000	49.586191
912.000000	49.584091
911.000000	49.577232
910.000000	49.603751
909.000000	49.621900
908.000000	49.587592
907.000000	49.546711
906.000000	49.596580
905.000000	49.592770
904.000000	49.554881
903.000000	49.569285
902.000000	49.620602
901.000000	49.571844
900.000000	49.597174
899.000000	49.586545
898.000000	49.580976
897.000000	49.560914
896.000000	49.580796
895.000000	49.574340
894.000000	49.648092
893.000000	49.666076
892.000000	49.615750
891.000000	49.598382
890.000000	49.638567
889.000000	49.691551
888.000000	49.696452
887.000000	49.657070
886.000000	49.658114
885.000000	49.658593
884.000000	49.700549
883.000000	49.755509
882.000000	49.650664
881.000000	49.710699
880.000000	49.790621
879.000000	49.735213
878.000000	49.816498
877.000000	49.760095
876.000000	49.859149
875.000000	49.659799
874.000000	49.685535
873.000000	49.700132
872.000000	49.698023
871.000000	49.729121
870.000000	49.728161
869.000000	49.753864
868.000000	49.788753
867.000000	49.699509
866.000000	49.721316
865.000000	49.603344
864.000000	49.625056
863.000000	49.747355
862.000000	49.709805
861.000000	49.729622
860.000000	49.830819
859.000000	49.503428
858.000000	49.711148
857.000000	49.714997
856.000000	49.453590
855.000000	49.600271
854.000000	49.411883
853.000000	49.674747
852.000000	49.557590
851.000000	49.933649
850.000000	49.806226
849.000000	49.808218
848.000000	49.574367
847.000000	49.729083
846.000000	49.440630
845.000000	49.237942
844.000000	49.596353
843.000000	49.478605
842.000000	49.729014
841.000000	49.463285
840.000000	49.714690
839.000000	49.509446
838.000000	49.532174
837.000000	49.361932
836.000000	49.478139
835.000000	49.521132
834.000000	49.557223
833.000000	49.423411
832.000000	49.800249
831.000000	49.393150
830.000000	49.601948
829.000000	49.605793
828.000000	49.522646
827.000000	49.244664
826.000000	49.333625
825.000000	49.362991
824.000000	49.474993
823.000000	49.307166
822.000000	49.454624
821.000000	49.344100
820.000000	49.302815
819.000000	49.394956
818.000000	49.381112
817.000000	49.497442
816.000000	49.399217
815.000000	49.295277
814.000000	49.563410
813.000000	49.398882
812.000000	49.333110
811.000000	49.384738
810.000000	49.316565
809.000000	49.325036
808.000000	49.413234
807.000000	49.438670
806.000000	49.465551
805.000000	49.450917
804.000000	49.515802
803.000000	49.544716
802.000000	49.337337
801.000000	49.443753
800.000000	49.491833
799.000000	49.390358
798.000000	49.464976
797.000000	49.511707
796.000000	49.329644
795.000000	49.216660
794.000000	49.384225
793.000000	49.297882
792.000000	49.367569
791.000000	49.288269
790.000000	49.311817
789.000000	49.371680
788.000000	49.385736
787.000000	49.270463
786.000000	49.317969
785.000000	49.304723
784.000000	49.368480
783.000000	49.327920
782.000000	49.266748
781.000000	49.353008
780.000000	49.312955
779.000000	49.308486
778.000000	49.298282
777.000000	49.262881
776.000000	49.313313
775.000000	49.320005
774.000000	49.270827
773.000000	49.241550
772.000000	49.167267
771.000000	49.207107
770.000000	49.209210
769.000000	49.243627
768.000000	49.202219
767.000000	49.207614
766.000000	49.242090
765.000000	49.229569
764.000000	49.189895
763.000000	49.232275
762.000000	49.159043
761.000000	49.102652
760.000000	49.215625
759.000000	49.226942
758.000000	49.079077
757.000000	49.115177
756.000000	49.141935
755.000000	49.115809
754.000000	49.066177
753.000000	49.106638
752.000000	49.136479
751.000000	49.142268
750.000000	49.040590
749.000000	49.065023
748.000000	49.030115
747.000000	49.082624
746.000000	49.013666
745.000000	49.003416
744.000000	49.039606
743.000000	49.016402
742.000000	48.956776
741.000000	48.905441
740.000000	48.885600
739.000000	48.938689
738.000000	48.946147
737.000000	48.939086
736.000000	48.904762
735.000000	48.880436
734.000000	48.822299
733.000000	48.860471
732.000000	48.861143
731.000000	48.820809
730.000000	48.844150
729.000000	48.812145
728.000000	48.774152
727.000000	48.807433
726.000000	48.767926
725.000000	48.737562
724.000000	48.691608
723.000000	48.677044
722.000000	48.684565
721.000000	48.705711
720.000000	48.742678
719.000000	48.705598
718.000000	48.671841
717.000000	48.662191
716.000000	48.619996
715.000000	48.617433
714.000000	48.587892
713.000000	48.532967
712.000000	48.519472
711.000000	48.529266
710.000000	48.538466
709.000000	48.551041
708.000000	48.529442
707.000000	48.522345
706.000000	48.532361
705.000000	48.495080
704.000000	48.449925
703.000000	48.437790
702.000000	48.434346
701.000000	48.449901
700.000000	48.434995
699.000000	48.358791
698.000000	48.356521
697.000000	48.378735
696.000000	48.422411
695.000000	48.421312
694.000000	48.375738
693.000000	48.356091
692.000000	48.355958
691.000000	48.394942
690.000000	48.333780
689.000000	48.245040
688.000000	48.243415
687.000000	48.253406
686.000000	48.266631
685.000000	48.236517
684.000000	48.214111
683.000000	48.244958
682.000000	48.218356
681.000000	48.159333
680.000000	48.181827
679.000000	48.185999
678.000000	48.193650
677.000000	48.196875
676.000000	48.150300
675.000000	48.165781
674.000000	48.136651
673.000000	48.061496
672.000000	48.062074
671.000000	48.065766
670.000000	48.050766
669.000000	48.063527
668.000000	48.005064
667.000000	48.036100
666.000000	47.985337
665.000000	47.936815
664.000000	47.920762
663.000000	47.916653
662.000000	47.864377
661.000000	47.883229
660.000000	47.867792
659.000000	47.851606
658.000000	47.808772
657.000000	47.816940
656.000000	47.811326
655.000000	47.738163
654.000000	47.773776
653.000000	47.722954
652.000000	47.705019
651.000000	47.674685
650.000000	47.612069
649.000000	47.631780
648.000000	47.589300
647.000000	47.580687
646.000000	47.558696
645.000000	47.484744
644.000000	47.483100
643.000000	47.478633
642.000000	47.498255
641.000000	47.447969
640.000000	47.387563
639.000000	47.378883
638.000000	47.329888
637.000000	47.330789
636.000000	47.334567
635.000000	47.278315
634.000000	47.307769
633.000000	47.272762
632.000000	47.194879
631.000000	47.188596
630.000000	47.193246
629.000000	47.126797
628.000000	47.094605
627.000000	47.056057
626.000000	47.046020
625.000000	47.036614
624.000000	47.032809
623.000000	46.992098
622.000000	46.980402
621.000000	46.913222
620.000000	46.858087
619.000000	46.884498
618.000000	46.842643
617.000000	46.828008
616.000000	46.819964
615.000000	46.834892
614.000000	46.759779
613.000000	46.769917
612.000000	46.704154
611.000000	46.710371
610.000000	46.677783
609.000000	46.615134
608.000000	46.633667
607.000000	46.577432
606.000000	46.570255
605.000000	46.530626
604.000000	46.509726
603.000000	46.501437
602.000000	46.477255
601.000000	46.415945
600.000000	46.438301
599.000000	46.434597
598.000000	46.384639
597.000000	46.367817
596.000000	46.333115
595.000000	46.290277
594.000000	46.298887
593.000000	46.298674
592.000000	46.252204
591.000000	46.239820
590.000000	46.201299
589.000000	46.131121
588.000000	46.171767
587.000000	46.131431
586.000000	46.091550
585.000000	46.139741
584.000000	46.059260
583.000000	46.013188
582.000000	46.022767
581.000000	46.008609
580.000000	45.927210
579.000000	45.933759
578.000000	45.858628
577.000000	45.803005
576.000000	45.848589
575.000000	45.807946
574.000000	45.781073
573.000000	45.845751
572.000000	45.766595
571.000000	45.733010
570.000000	45.673237
569.000000	45.691385
568.000000	45.629146
567.000000	45.593906
566.000000	45.569477
565.000000	45.511977
564.000000	45.541645
563.000000	45.503395
562.000000	45.476324
561.000000	45.398793
560.000000	45.385067
559.000000	45.327960
558.000000	45.313763
557.000000	45.274216
556.000000	45.271110
555.000000	45.269176
554.000000	45.218156
553.000000	45.214144
552.000000	45.168576
551.000000	45.113190
550.000000	45.094026
549.000000	45.082432
548.000000	45.054793
547.000000	45.004079
546.000000	44.969956
545.000000	44.936507
544.000000	44.914638
543.000000	44.861532
542.000000	44.850744
541.000000	44.831891
540.000000	44.778912
539.000000	44.738519
538.000000	44.743396
537.000000	44.699128
536.000000	44.644149
535.000000	44.638997
534.000000	44.579722
533.000000	44.576361
532.000000	44.519186
531.000000	44.493901
530.000000	44.460353
529.000000	44.471173
528.000000	44.407204
527.000000	44.382518
526.000000	44.361081
525.000000	44.318715
524.000000	44.253795
523.000000	44.253086
522.000000	44.205651
521.000000	44.175289
520.000000	44.142266
519.000000	44.080433
518.000000	44.048047
517.000000	44.046561
516.000000	43.997923
515.000000	43.956719
514.000000	43.894662
513.000000	43.868349
512.000000	43.835937
511.000000	43.831896
510.000000	43.775474
509.000000	43.706809
508.000000	43.674135
507.000000	43.616850
506.000000	43.551145
505.000000	43.537628
504.000000	43.487548
503.000000	43.448260
502.000000	43.376651
501.000000	43.331945
500.000000	43.255756
499.000000	43.225311
498.000000	43.171033
497.000000	43.129975
496.000000	43.069773
495.000000	43.020823
494.000000	42.958055
493.000000	42.907740
492.000000	42.861620
491.000000	42.790681
490.000000	42.735626
489.000000	42.667558
488.000000	42.627368
487.000000	42.539911
486.000000	42.500155
485.000000	42.517558
484.000000	42.512013
483.000000	42.417347
482.000000	42.358635
481.000000	42.269162
480.000000	42.166837
479.000000	42.099353
478.000000	42.054510
477.000000	41.985091
476.000000	41.883550
475.000000	41.777827
474.000000	41.697971
473.000000	41.656477
472.000000	41.596200
471.000000	41.516739
470.000000	41.425849
469.000000	41.322434
468.000000	41.225008
467.000000	41.144413
466.000000	41.060584
465.000000	40.976417
464.000000	40.888578
463.000000	40.806521
462.000000	40.703730
461.000000	40.634204
460.000000	40.541184
459.000000	40.425035
458.000000	40.343907
457.000000	40.233593
456.000000	40.100183
455.000000	40.002997
454.000000	39.950799
453.000000	39.872763
452.000000	39.749604
451.000000	39.620023
450.000000	39.517166
449.000000	39.429349
448.000000	39.300564
447.000000	39.177919
446.000000	39.063712
445.000000	38.972247
444.000000	38.882313
443.000000	38.806106
442.000000	38.681482
441.000000	38.523321
440.000000	38.402202
439.000000	38.271615
438.000000	38.132577
437.000000	38.006065
436.000000	37.902932
435.000000	37.771874
434.000000	37.642126
433.000000	37.551197
432.000000	37.439171
431.000000	37.302003
430.000000	37.199211
429.000000	37.035852
428.000000	36.887220
427.000000	36.790034
426.000000	36.657061
425.000000	36.489689
424.000000	36.359200
423.000000	36.271384
422.000000	36.129407
421.000000	36.012829
420.000000	35.897616
419.000000	35.774539
418.000000	35.639586
417.000000	35.516270
416.000000	35.405990
415.000000	35.305053
414.000000	35.228083
413.000000	35.152615
412.000000	35.058665
411.000000	34.953470
410.000000	34.905798
409.000000	34.878949
408.000000	34.838014
407.000000	34.795637
406.000000	34.745159
405.000000	34.741144
404.000000	34.713356
403.000000	34.655912
402.000000	34.621986
401.000000	34.611942
400.000000	34.632578
399.000000	34.613413
398.000000	34.593573
397.000000	34.554746
396.000000	34.586828
395.000000	34.577051
394.000000	34.499239
393.000000	34.524438
392.000000	34.504574
391.000000	34.448276
390.000000	34.435443
389.000000	34.394516
388.000000	34.362769
387.000000	34.306103
386.000000	34.246074
385.000000	34.266257
384.000000	34.184366
383.000000	34.139872
382.000000	34.054384
381.000000	34.042452
380.000000	34.002101
379.000000	33.938427
378.000000	33.746139
377.000000	33.954236
376.000000	33.796993
375.000000	33.661913
374.000000	33.638370
373.000000	33.476802
372.000000	33.444083
371.000000	33.252212
370.000000	33.375477
369.000000	33.171085
368.000000	33.102401
367.000000	33.041823
366.000000	33.009381
365.000000	32.963572
364.000000	32.835831
363.000000	32.782840
362.000000	32.807680
361.000000	32.769494
360.000000	32.592673
359.000000	32.510837
358.000000	32.487421
357.000000	32.379589
356.000000	32.306217
355.000000	32.331467
354.000000	32.222685
353.000000	32.272952
352.000000	32.116863
351.000000	32.111828
350.000000	32.026136
349.000000	31.926542
348.000000	31.908309
347.000000	31.867482
346.000000	31.813348
345.000000	31.800492
344.000000	31.710948
343.000000	31.672039
342.000000	31.503337
341.000000	31.531905
340.000000	31.532643
339.000000	31.418093
338.000000	31.518924
337.000000	31.374313
336.000000	31.076400
335.000000	31.166502
334.000000	31.345977
333.000000	31.088322
332.000000	31.227035
331.000000	31.113451
330.000000	31.010216
329.000000	31.050335
328.000000	30.851242
327.000000	30.843536
326.000000	30.959869
325.000000	30.833927
324.000000	31.111513
323.000000	30.837471
322.000000	30.824720
321.000000	30.692339
320.000000	30.914900
319.000000	30.992247
318.000000	30.708110
317.000000	30.856283
316.000000	30.814197
315.000000	30.818821
314.000000	30.812663
313.000000	30.732020
312.000000	30.587431
311.000000	30.639399
310.000000	30.563455
309.000000	30.485802
308.000000	30.497960
307.000000	30.272391
306.000000	30.290676
305.000000	30.324190
304.000000	30.210946
303.000000	30.114665
302.000000	30.029242
301.000000	29.934136
300.000000	29.745199
299.000000	29.641578
298.000000	29.467550
297.000000	29.310997
296.000000	29.090364
295.000000	28.708826
294.000000	28.338348
293.000000	27.802811
292.000000	27.271068
291.000000	26.487659
290.000000	25.869871
289.000000	25.231937
288.000000	24.617673
287.000000	24.175184
286.000000	23.906380
285.000000	23.840939
284.000000	23.667936
283.000000	23.670207
282.000000	23.566810
281.000000	23.653212
280.000000	23.739550
279.000000	23.723639
278.000000	23.797575
277.000000	23.985663
276.000000	24.175195
275.000000	24.437745
274.000000	24.734636
273.000000	24.889401
272.000000	25.137604
271.000000	25.252321
270.000000	25.302556
269.000000	25.404462
268.000000	25.707644
267.000000	25.992059
266.000000	26.165707
265.000000	26.239425
264.000000	26.453747
263.000000	26.838183
262.000000	27.107389
261.000000	27.290098
260.000000	27.387437
259.000000	27.570669
258.000000	27.945277
257.000000	28.281184
256.000000	28.429086
255.000000	28.494182
254.000000	28.536599
253.000000	28.468475
252.000000	28.318053
251.000000	28.099086
250.000000	27.891889
249.000000	27.461418
248.000000	26.811035
247.000000	26.043452
246.000000	25.272430
245.000000	24.233988
244.000000	23.087288
243.000000	21.979710
242.000000	20.899195
241.000000	19.842006
240.000000	18.812657
239.000000	17.854656
238.000000	17.085971
237.000000	16.375912
236.000000	15.818676
235.000000	15.363473
234.000000	14.876839
233.000000	14.426181
232.000000	14.043961
231.000000	13.688876
230.000000	13.359622
229.000000	13.056088
228.000000	12.773260
227.000000	12.501426
226.000000	12.297796
225.000000	12.139765
224.000000	11.952310
223.000000	11.866050
222.000000	11.789369
221.000000	11.739240
220.000000	11.752493
219.000000	11.789784
218.000000	11.882686
217.000000	11.926425
216.000000	11.968121
215.000000	12.153643
214.000000	12.304626
213.000000	12.450427
212.000000	12.713484
211.000000	12.844014
210.000000	12.999921
209.000000	13.306538
208.000000	13.661531
207.000000	13.948275
206.000000	14.151416
205.000000	14.470830
204.000000	14.946823
203.000000	15.653861
202.000000	16.193454
201.000000	16.484310
200.000000	16.873897
