PE UV       SUBTECH     SPECTRUM    ASCII       PEDS        4.00        
   -1
RDgVeauAl 22.Sample.asc
18/03/12
12:24:32.00
18/03/12
12:24:32.00
Administrator

200.000000
1
Lambda 750
750N8071901
PerkinElmer UV WinLab 6.0.4.0738 / 1.61.00 Lambda 900

0
0
3350/servo 860.8/2
0
0
UV/VIS
1
1
1
CommonBeamDepol,150mm sphere / downward view
0
0
0
0
Program
Program
3350/servo 860.8/2
3350/0.2 860.8/0.2
3350/0.2 860.8/0.2
0
1
 
 
 
0
 
860.8
319.2
860.8
Front
100
on
 
 
0
0
0
 
0
 
 
 
0
 
 
0
0
0
0
0
 
 
 
 
0
0


0
0
#HDR
-1
-1
#GR
nm
%R
1.0
0.0
2350.000000
-1.000000
2151
8
68.014940
8.999923
#DATA
2350.000000	18.202329
2349.000000	18.754231
2348.000000	18.290816
2347.000000	19.256778
2346.000000	19.141523
2345.000000	18.998149
2344.000000	18.712684
2343.000000	18.935080
2342.000000	18.977842
2341.000000	19.149291
2340.000000	19.171433
2339.000000	19.393578
2338.000000	19.401213
2337.000000	19.309687
2336.000000	19.567813
2335.000000	19.600045
2334.000000	19.493402
2333.000000	19.842783
2332.000000	19.808606
2331.000000	19.429755
2330.000000	19.837071
2329.000000	19.590719
2328.000000	19.517749
2327.000000	19.535428
2326.000000	19.537374
2325.000000	19.830307
2324.000000	19.829166
2323.000000	19.451341
2322.000000	19.162467
2321.000000	19.419144
2320.000000	19.409720
2319.000000	19.542876
2318.000000	19.487377
2317.000000	19.333535
2316.000000	19.193195
2315.000000	19.090390
2314.000000	19.196767
2313.000000	19.105213
2312.000000	18.921951
2311.000000	18.672750
2310.000000	18.782497
2309.000000	18.645969
2308.000000	18.654166
2307.000000	18.732434
2306.000000	18.752594
2305.000000	18.620268
2304.000000	18.618228
2303.000000	18.832438
2302.000000	18.640916
2301.000000	18.412696
2300.000000	18.247055
2299.000000	18.277741
2298.000000	18.267525
2297.000000	18.017784
2296.000000	17.979951
2295.000000	17.975192
2294.000000	17.992419
2293.000000	17.852491
2292.000000	17.851703
2291.000000	17.804598
2290.000000	17.873669
2289.000000	17.549933
2288.000000	17.434238
2287.000000	17.739914
2286.000000	17.674245
2285.000000	17.346466
2284.000000	17.237142
2283.000000	17.290453
2282.000000	17.471963
2281.000000	17.614950
2280.000000	17.565269
2279.000000	17.297532
2278.000000	17.253954
2277.000000	17.540147
2276.000000	17.541559
2275.000000	17.464385
2274.000000	17.566633
2273.000000	17.702409
2272.000000	17.828918
2271.000000	17.599831
2270.000000	17.691958
2269.000000	17.695904
2268.000000	17.646804
2267.000000	17.892845
2266.000000	18.188600
2265.000000	18.159115
2264.000000	18.179259
2263.000000	18.250950
2262.000000	18.261464
2261.000000	18.502103
2260.000000	18.755102
2259.000000	18.932255
2258.000000	19.155361
2257.000000	19.249281
2256.000000	19.289495
2255.000000	19.392736
2254.000000	19.570735
2253.000000	19.665109
2252.000000	19.887189
2251.000000	20.077643
2250.000000	20.274546
2249.000000	20.477304
2248.000000	20.643945
2247.000000	20.879104
2246.000000	20.957690
2245.000000	21.064429
2244.000000	21.246976
2243.000000	21.562635
2242.000000	21.732203
2241.000000	21.703382
2240.000000	21.833885
2239.000000	22.084967
2238.000000	22.153940
2237.000000	22.211190
2236.000000	22.308148
2235.000000	22.368418
2234.000000	22.478334
2233.000000	22.529435
2232.000000	22.582389
2231.000000	22.739517
2230.000000	22.775522
2229.000000	22.753165
2228.000000	22.833379
2227.000000	22.892837
2226.000000	22.861469
2225.000000	22.817173
2224.000000	22.710665
2223.000000	22.645105
2222.000000	22.715325
2221.000000	22.705470
2220.000000	22.670786
2219.000000	22.634168
2218.000000	22.605720
2217.000000	22.569963
2216.000000	22.507488
2215.000000	22.396031
2214.000000	22.425993
2213.000000	22.467178
2212.000000	22.241182
2211.000000	22.231950
2210.000000	22.253375
2209.000000	22.099673
2208.000000	22.003788
2207.000000	21.920215
2206.000000	21.915288
2205.000000	21.844109
2204.000000	21.905808
2203.000000	21.849100
2202.000000	21.773915
2201.000000	21.677063
2200.000000	21.616834
2199.000000	21.692852
2198.000000	21.480123
2197.000000	21.240143
2196.000000	21.249918
2195.000000	21.155723
2194.000000	21.050132
2193.000000	21.086116
2192.000000	20.997742
2191.000000	20.969456
2190.000000	20.978612
2189.000000	20.858581
2188.000000	20.605946
2187.000000	20.662138
2186.000000	20.695961
2185.000000	20.585371
2184.000000	20.488395
2183.000000	20.570224
2182.000000	20.521676
2181.000000	20.387433
2180.000000	20.475903
2179.000000	20.360189
2178.000000	20.391475
2177.000000	20.426705
2176.000000	20.578893
2175.000000	20.591198
2174.000000	20.507703
2173.000000	20.585784
2172.000000	20.555103
2171.000000	20.717580
2170.000000	20.765722
2169.000000	20.566298
2168.000000	20.943563
2167.000000	20.996237
2166.000000	20.956194
2165.000000	21.131981
2164.000000	21.262895
2163.000000	21.075861
2162.000000	21.356211
2161.000000	21.385751
2160.000000	21.444541
2159.000000	21.530882
2158.000000	21.718481
2157.000000	21.853412
2156.000000	21.994563
2155.000000	22.154668
2154.000000	22.176226
2153.000000	22.492362
2152.000000	22.713581
2151.000000	22.601814
2150.000000	22.805996
2149.000000	22.898155
2148.000000	23.008806
2147.000000	23.050223
2146.000000	23.340652
2145.000000	23.422287
2144.000000	23.422586
2143.000000	23.574474
2142.000000	23.719297
2141.000000	23.967366
2140.000000	24.064196
2139.000000	24.088511
2138.000000	24.206955
2137.000000	24.222834
2136.000000	24.239982
2135.000000	24.290061
2134.000000	24.580598
2133.000000	24.606595
2132.000000	24.651994
2131.000000	24.997161
2130.000000	25.058181
2129.000000	24.794763
2128.000000	24.865888
2127.000000	24.852600
2126.000000	25.086899
2125.000000	24.975255
2124.000000	25.164134
2123.000000	25.233118
2122.000000	25.297034
2121.000000	25.257288
2120.000000	25.373254
2119.000000	25.317667
2118.000000	25.215677
2117.000000	25.446881
2116.000000	25.452267
2115.000000	25.485606
2114.000000	25.401117
2113.000000	25.517836
2112.000000	25.494753
2111.000000	25.615260
2110.000000	25.627983
2109.000000	25.718431
2108.000000	25.716176
2107.000000	25.755383
2106.000000	25.758028
2105.000000	25.696067
2104.000000	25.652825
2103.000000	25.721808
2102.000000	25.709298
2101.000000	25.692482
2100.000000	25.856739
2099.000000	25.842311
2098.000000	25.756064
2097.000000	25.662461
2096.000000	25.682094
2095.000000	25.690007
2094.000000	25.808905
2093.000000	25.754973
2092.000000	25.765071
2091.000000	25.704100
2090.000000	25.651904
2089.000000	25.699434
2088.000000	25.615875
2087.000000	25.572991
2086.000000	25.633183
2085.000000	25.652934
2084.000000	25.481644
2083.000000	25.325684
2082.000000	25.385485
2081.000000	25.314352
2080.000000	25.106765
2079.000000	25.138449
2078.000000	25.073913
2077.000000	24.954978
2076.000000	24.880311
2075.000000	24.805534
2074.000000	24.664416
2073.000000	24.497843
2072.000000	24.437826
2071.000000	24.328413
2070.000000	24.197980
2069.000000	24.039206
2068.000000	23.895120
2067.000000	23.798698
2066.000000	23.554730
2065.000000	23.370877
2064.000000	23.297503
2063.000000	23.205419
2062.000000	23.011680
2061.000000	22.798251
2060.000000	22.720320
2059.000000	22.561826
2058.000000	22.344590
2057.000000	22.276306
2056.000000	22.206306
2055.000000	22.086840
2054.000000	21.848893
2053.000000	21.650805
2052.000000	21.631066
2051.000000	21.528652
2050.000000	21.379732
2049.000000	21.276071
2048.000000	21.121663
2047.000000	21.156553
2046.000000	21.108759
2045.000000	20.992317
2044.000000	20.971205
2043.000000	20.991537
2042.000000	21.021050
2041.000000	21.055863
2040.000000	21.049416
2039.000000	20.962132
2038.000000	21.014562
2037.000000	21.167498
2036.000000	21.161157
2035.000000	21.174747
2034.000000	21.288965
2033.000000	21.402524
2032.000000	21.551296
2031.000000	21.656702
2030.000000	21.728237
2029.000000	21.837134
2028.000000	21.945760
2027.000000	22.043672
2026.000000	22.134980
2025.000000	22.252587
2024.000000	22.371539
2023.000000	22.411869
2022.000000	22.444567
2021.000000	22.432330
2020.000000	22.452617
2019.000000	22.536299
2018.000000	22.577999
2017.000000	22.603220
2016.000000	22.586768
2015.000000	22.570444
2014.000000	22.563021
2013.000000	22.563033
2012.000000	22.515477
2011.000000	22.493264
2010.000000	22.415550
2009.000000	22.302116
2008.000000	22.226259
2007.000000	22.153117
2006.000000	22.040626
2005.000000	21.972350
2004.000000	21.936508
2003.000000	21.881744
2002.000000	21.795939
2001.000000	21.621345
2000.000000	21.515833
1999.000000	21.452488
1998.000000	21.380077
1997.000000	21.263561
1996.000000	21.170109
1995.000000	21.150269
1994.000000	21.026728
1993.000000	20.876837
1992.000000	20.731625
1991.000000	20.591175
1990.000000	20.505665
1989.000000	20.374963
1988.000000	20.286904
1987.000000	20.204982
1986.000000	20.118367
1985.000000	19.986002
1984.000000	19.879015
1983.000000	19.829125
1982.000000	19.707020
1981.000000	19.654570
1980.000000	19.557674
1979.000000	19.441363
1978.000000	19.321375
1977.000000	19.232336
1976.000000	19.107129
1975.000000	19.046326
1974.000000	18.952820
1973.000000	18.841500
1972.000000	18.731090
1971.000000	18.637986
1970.000000	18.581376
1969.000000	18.469119
1968.000000	18.366667
1967.000000	18.317170
1966.000000	18.241752
1965.000000	18.112913
1964.000000	18.028098
1963.000000	17.932741
1962.000000	17.877622
1961.000000	17.770752
1960.000000	17.764173
1959.000000	17.670434
1958.000000	17.615617
1957.000000	17.523293
1956.000000	17.488451
1955.000000	17.426583
1954.000000	17.356002
1953.000000	17.305693
1952.000000	17.246484
1951.000000	17.238531
1950.000000	17.187000
1949.000000	17.102625
1948.000000	17.065261
1947.000000	17.065869
1946.000000	17.038581
1945.000000	17.090852
1944.000000	17.010115
1943.000000	17.049068
1942.000000	17.044815
1941.000000	17.138132
1940.000000	17.117628
1939.000000	17.147647
1938.000000	17.243955
1937.000000	17.349370
1936.000000	17.457116
1935.000000	17.421993
1934.000000	17.531796
1933.000000	17.652078
1932.000000	17.735098
1931.000000	17.884433
1930.000000	17.937531
1929.000000	18.064257
1928.000000	18.287484
1927.000000	18.420991
1926.000000	18.575033
1925.000000	18.814141
1924.000000	18.990485
1923.000000	19.238395
1922.000000	19.549072
1921.000000	19.834466
1920.000000	19.988187
1919.000000	20.209151
1918.000000	20.482266
1917.000000	20.835714
1916.000000	20.983376
1915.000000	21.479672
1914.000000	21.937612
1913.000000	22.319793
1912.000000	22.631973
1911.000000	22.975111
1910.000000	23.345126
1909.000000	23.840077
1908.000000	24.253942
1907.000000	24.727817
1906.000000	25.241898
1905.000000	25.727827
1904.000000	26.217074
1903.000000	26.865622
1902.000000	27.435395
1901.000000	27.928585
1900.000000	28.542292
1899.000000	29.168854
1898.000000	29.836307
1897.000000	30.365433
1896.000000	30.864224
1895.000000	31.509363
1894.000000	32.172814
1893.000000	32.752039
1892.000000	33.409945
1891.000000	33.957904
1890.000000	34.535625
1889.000000	35.146734
1888.000000	35.707369
1887.000000	36.273868
1886.000000	36.843940
1885.000000	37.361953
1884.000000	37.902840
1883.000000	38.434325
1882.000000	38.925272
1881.000000	39.382489
1880.000000	39.901580
1879.000000	40.362515
1878.000000	40.816825
1877.000000	41.255542
1876.000000	41.658124
1875.000000	42.099496
1874.000000	42.449887
1873.000000	42.796804
1872.000000	43.125825
1871.000000	43.413468
1870.000000	43.779969
1869.000000	44.089224
1868.000000	44.305449
1867.000000	44.569060
1866.000000	44.739698
1865.000000	44.932811
1864.000000	45.072279
1863.000000	45.226133
1862.000000	45.335313
1861.000000	45.441503
1860.000000	45.580358
1859.000000	45.646192
1858.000000	45.736532
1857.000000	45.815042
1856.000000	45.886839
1855.000000	45.942360
1854.000000	46.059266
1853.000000	46.121154
1852.000000	46.153101
1851.000000	46.165815
1850.000000	46.165936
1849.000000	46.170231
1848.000000	46.196326
1847.000000	46.252443
1846.000000	46.260273
1845.000000	46.219624
1844.000000	46.172803
1843.000000	46.175273
1842.000000	46.167985
1841.000000	46.121695
1840.000000	46.061549
1839.000000	46.039288
1838.000000	46.006251
1837.000000	45.905512
1836.000000	45.843891
1835.000000	45.808438
1834.000000	45.748557
1833.000000	45.697954
1832.000000	45.627457
1831.000000	45.542898
1830.000000	45.493062
1829.000000	45.466840
1828.000000	45.397437
1827.000000	45.342473
1826.000000	45.302489
1825.000000	45.245512
1824.000000	45.181409
1823.000000	45.121394
1822.000000	45.059727
1821.000000	45.020870
1820.000000	44.973552
1819.000000	44.903015
1818.000000	44.882875
1817.000000	44.847968
1816.000000	44.798463
1815.000000	44.743409
1814.000000	44.666814
1813.000000	44.603190
1812.000000	44.563876
1811.000000	44.516583
1810.000000	44.467640
1809.000000	44.432502
1808.000000	44.377708
1807.000000	44.306206
1806.000000	44.236497
1805.000000	44.173772
1804.000000	44.119700
1803.000000	44.100176
1802.000000	44.063908
1801.000000	44.004442
1800.000000	43.971610
1799.000000	43.910273
1798.000000	43.865396
1797.000000	43.829773
1796.000000	43.772587
1795.000000	43.741582
1794.000000	43.727918
1793.000000	43.678672
1792.000000	43.619077
1791.000000	43.615165
1790.000000	43.593029
1789.000000	43.546133
1788.000000	43.498045
1787.000000	43.464213
1786.000000	43.448922
1785.000000	43.396517
1784.000000	43.343466
1783.000000	43.293402
1782.000000	43.252680
1781.000000	43.188785
1780.000000	43.150693
1779.000000	43.103684
1778.000000	43.024700
1777.000000	42.928245
1776.000000	42.853711
1775.000000	42.796047
1774.000000	42.737159
1773.000000	42.682593
1772.000000	42.603060
1771.000000	42.528520
1770.000000	42.453944
1769.000000	42.382684
1768.000000	42.317934
1767.000000	42.244524
1766.000000	42.164193
1765.000000	42.100654
1764.000000	42.072545
1763.000000	41.993481
1762.000000	41.918221
1761.000000	41.853272
1760.000000	41.769547
1759.000000	41.689584
1758.000000	41.665492
1757.000000	41.594109
1756.000000	41.540832
1755.000000	41.483498
1754.000000	41.375711
1753.000000	41.313690
1752.000000	41.274065
1751.000000	41.181521
1750.000000	41.141546
1749.000000	41.072762
1748.000000	40.998207
1747.000000	40.906589
1746.000000	40.830768
1745.000000	40.719929
1744.000000	40.639957
1743.000000	40.578441
1742.000000	40.502015
1741.000000	40.448772
1740.000000	40.374787
1739.000000	40.292387
1738.000000	40.212071
1737.000000	40.166455
1736.000000	40.133823
1735.000000	40.123185
1734.000000	40.116652
1733.000000	40.051831
1732.000000	40.059088
1731.000000	40.072360
1730.000000	40.099112
1729.000000	40.140542
1728.000000	40.203018
1727.000000	40.251236
1726.000000	40.330941
1725.000000	40.414213
1724.000000	40.542674
1723.000000	40.655109
1722.000000	40.790401
1721.000000	40.893490
1720.000000	41.043973
1719.000000	41.224541
1718.000000	41.334597
1717.000000	41.453425
1716.000000	41.629306
1715.000000	41.747515
1714.000000	41.896357
1713.000000	42.050749
1712.000000	42.138895
1711.000000	42.243354
1710.000000	42.357693
1709.000000	42.448319
1708.000000	42.528144
1707.000000	42.588807
1706.000000	42.679784
1705.000000	42.746808
1704.000000	42.794447
1703.000000	42.814222
1702.000000	42.847955
1701.000000	42.869679
1700.000000	42.916051
1699.000000	42.915622
1698.000000	42.959266
1697.000000	42.993645
1696.000000	43.078335
1695.000000	43.085626
1694.000000	43.160571
1693.000000	43.215425
1692.000000	43.281238
1691.000000	43.367995
1690.000000	43.481754
1689.000000	43.594554
1688.000000	43.792993
1687.000000	43.918302
1686.000000	44.026940
1685.000000	44.241707
1684.000000	44.438074
1683.000000	44.666640
1682.000000	44.903983
1681.000000	45.140793
1680.000000	45.345056
1679.000000	45.587681
1678.000000	45.863530
1677.000000	46.098247
1676.000000	46.343749
1675.000000	46.583743
1674.000000	46.845900
1673.000000	47.122359
1672.000000	47.334237
1671.000000	47.551353
1670.000000	47.795984
1669.000000	48.069462
1668.000000	48.251454
1667.000000	48.481092
1666.000000	48.611962
1665.000000	48.777746
1664.000000	48.915057
1663.000000	49.039966
1662.000000	49.180029
1661.000000	49.287560
1660.000000	49.414292
1659.000000	49.469911
1658.000000	49.570777
1657.000000	49.642481
1656.000000	49.718730
1655.000000	49.745089
1654.000000	49.762052
1653.000000	49.794095
1652.000000	49.825165
1651.000000	49.827350
1650.000000	49.880414
1649.000000	49.849339
1648.000000	49.805962
1647.000000	49.790708
1646.000000	49.791802
1645.000000	49.750528
1644.000000	49.718416
1643.000000	49.689503
1642.000000	49.663235
1641.000000	49.593297
1640.000000	49.570913
1639.000000	49.545430
1638.000000	49.511185
1637.000000	49.441941
1636.000000	49.348505
1635.000000	49.303886
1634.000000	49.252884
1633.000000	49.176307
1632.000000	49.104505
1631.000000	49.050291
1630.000000	48.983389
1629.000000	48.909938
1628.000000	48.833317
1627.000000	48.761330
1626.000000	48.699784
1625.000000	48.610312
1624.000000	48.533813
1623.000000	48.455235
1622.000000	48.379367
1621.000000	48.288311
1620.000000	48.211683
1619.000000	48.134930
1618.000000	48.024130
1617.000000	47.944416
1616.000000	47.858056
1615.000000	47.774111
1614.000000	47.678669
1613.000000	47.567802
1612.000000	47.471074
1611.000000	47.376125
1610.000000	47.270738
1609.000000	47.183538
1608.000000	47.095250
1607.000000	46.975012
1606.000000	46.869936
1605.000000	46.777911
1604.000000	46.676080
1603.000000	46.569745
1602.000000	46.472828
1601.000000	46.375751
1600.000000	46.284514
1599.000000	46.174265
1598.000000	46.071506
1597.000000	45.986675
1596.000000	45.872136
1595.000000	45.786469
1594.000000	45.712024
1593.000000	45.617556
1592.000000	45.525824
1591.000000	45.434700
1590.000000	45.357861
1589.000000	45.264725
1588.000000	45.181133
1587.000000	45.116267
1586.000000	45.040214
1585.000000	44.965666
1584.000000	44.880481
1583.000000	44.797206
1582.000000	44.722771
1581.000000	44.652504
1580.000000	44.581137
1579.000000	44.503586
1578.000000	44.425756
1577.000000	44.354141
1576.000000	44.279086
1575.000000	44.201385
1574.000000	44.108701
1573.000000	44.036682
1572.000000	43.963009
1571.000000	43.902187
1570.000000	43.836311
1569.000000	43.767279
1568.000000	43.695071
1567.000000	43.631988
1566.000000	43.577679
1565.000000	43.524724
1564.000000	43.485402
1563.000000	43.451330
1562.000000	43.382036
1561.000000	43.329333
1560.000000	43.293650
1559.000000	43.254215
1558.000000	43.210075
1557.000000	43.183187
1556.000000	43.144487
1555.000000	43.101718
1554.000000	43.065719
1553.000000	43.027759
1552.000000	42.965827
1551.000000	42.918408
1550.000000	42.865540
1549.000000	42.810110
1548.000000	42.741584
1547.000000	42.648591
1546.000000	42.543046
1545.000000	42.449686
1544.000000	42.351784
1543.000000	42.258976
1542.000000	42.142366
1541.000000	42.041838
1540.000000	41.928134
1539.000000	41.792889
1538.000000	41.665866
1537.000000	41.516586
1536.000000	41.382059
1535.000000	41.266755
1534.000000	41.138540
1533.000000	41.032294
1532.000000	40.911248
1531.000000	40.791834
1530.000000	40.676747
1529.000000	40.546958
1528.000000	40.436735
1527.000000	40.350634
1526.000000	40.260709
1525.000000	40.151708
1524.000000	40.064005
1523.000000	39.991541
1522.000000	39.918518
1521.000000	39.845444
1520.000000	39.796017
1519.000000	39.723706
1518.000000	39.685763
1517.000000	39.625688
1516.000000	39.570298
1515.000000	39.525493
1514.000000	39.472403
1513.000000	39.461999
1512.000000	39.414993
1511.000000	39.386109
1510.000000	39.335262
1509.000000	39.307343
1508.000000	39.275981
1507.000000	39.224599
1506.000000	39.206223
1505.000000	39.189888
1504.000000	39.175805
1503.000000	39.164709
1502.000000	39.117547
1501.000000	39.121952
1500.000000	39.095458
1499.000000	39.086822
1498.000000	39.089060
1497.000000	39.069245
1496.000000	39.062748
1495.000000	39.066309
1494.000000	39.076042
1493.000000	39.099899
1492.000000	39.095748
1491.000000	39.119472
1490.000000	39.151676
1489.000000	39.176757
1488.000000	39.206309
1487.000000	39.206684
1486.000000	39.257425
1485.000000	39.285895
1484.000000	39.326429
1483.000000	39.367605
1482.000000	39.393170
1481.000000	39.434372
1480.000000	39.485234
1479.000000	39.515824
1478.000000	39.558171
1477.000000	39.607719
1476.000000	39.644594
1475.000000	39.688281
1474.000000	39.723126
1473.000000	39.783029
1472.000000	39.819116
1471.000000	39.865230
1470.000000	39.930517
1469.000000	39.983799
1468.000000	40.007201
1467.000000	40.062449
1466.000000	40.107772
1465.000000	40.169599
1464.000000	40.211301
1463.000000	40.256506
1462.000000	40.331449
1461.000000	40.384886
1460.000000	40.454127
1459.000000	40.512589
1458.000000	40.597946
1457.000000	40.659615
1456.000000	40.734072
1455.000000	40.816384
1454.000000	40.908507
1453.000000	40.986765
1452.000000	41.091727
1451.000000	41.193014
1450.000000	41.304563
1449.000000	41.394715
1448.000000	41.505506
1447.000000	41.603387
1446.000000	41.723187
1445.000000	41.841662
1444.000000	41.961381
1443.000000	42.086296
1442.000000	42.209834
1441.000000	42.354898
1440.000000	42.497756
1439.000000	42.652741
1438.000000	42.825910
1437.000000	42.978353
1436.000000	43.156525
1435.000000	43.311768
1434.000000	43.484166
1433.000000	43.682900
1432.000000	43.860188
1431.000000	44.070133
1430.000000	44.273961
1429.000000	44.484245
1428.000000	44.702949
1427.000000	44.938999
1426.000000	45.152195
1425.000000	45.398580
1424.000000	45.659161
1423.000000	45.929141
1422.000000	46.205736
1421.000000	46.472774
1420.000000	46.753873
1419.000000	47.040698
1418.000000	47.337872
1417.000000	47.624164
1416.000000	47.930082
1415.000000	48.257199
1414.000000	48.573258
1413.000000	48.882920
1412.000000	49.235788
1411.000000	49.585605
1410.000000	49.907312
1409.000000	50.234279
1408.000000	50.582059
1407.000000	50.920036
1406.000000	51.267909
1405.000000	51.611496
1404.000000	51.933390
1403.000000	52.263244
1402.000000	52.593845
1401.000000	52.930535
1400.000000	53.245300
1399.000000	53.555594
1398.000000	53.865586
1397.000000	54.169620
1396.000000	54.457866
1395.000000	54.745223
1394.000000	55.041514
1393.000000	55.317382
1392.000000	55.582223
1391.000000	55.863959
1390.000000	56.113751
1389.000000	56.330116
1388.000000	56.579506
1387.000000	56.819321
1386.000000	57.015968
1385.000000	57.217102
1384.000000	57.434265
1383.000000	57.632251
1382.000000	57.786743
1381.000000	57.955417
1380.000000	58.116323
1379.000000	58.260764
1378.000000	58.407091
1377.000000	58.551690
1376.000000	58.673439
1375.000000	58.774351
1374.000000	58.898416
1373.000000	59.009671
1372.000000	59.097672
1371.000000	59.196685
1370.000000	59.294990
1369.000000	59.382376
1368.000000	59.461129
1367.000000	59.553178
1366.000000	59.651738
1365.000000	59.748038
1364.000000	59.843879
1363.000000	59.929296
1362.000000	60.028344
1361.000000	60.127881
1360.000000	60.222727
1359.000000	60.310872
1358.000000	60.426899
1357.000000	60.521988
1356.000000	60.608987
1355.000000	60.735088
1354.000000	60.847096
1353.000000	60.938661
1352.000000	61.027591
1351.000000	61.135994
1350.000000	61.249370
1349.000000	61.374001
1348.000000	61.469988
1347.000000	61.557905
1346.000000	61.678640
1345.000000	61.788898
1344.000000	61.874142
1343.000000	61.973582
1342.000000	62.078785
1341.000000	62.172328
1340.000000	62.252926
1339.000000	62.353753
1338.000000	62.455373
1337.000000	62.535798
1336.000000	62.600648
1335.000000	62.683233
1334.000000	62.767182
1333.000000	62.848798
1332.000000	62.931288
1331.000000	63.030112
1330.000000	63.117720
1329.000000	63.180422
1328.000000	63.227050
1327.000000	63.261964
1326.000000	63.306944
1325.000000	63.348118
1324.000000	63.388656
1323.000000	63.426415
1322.000000	63.474999
1321.000000	63.526696
1320.000000	63.568941
1319.000000	63.608770
1318.000000	63.661395
1317.000000	63.678393
1316.000000	63.695387
1315.000000	63.739322
1314.000000	63.797400
1313.000000	63.830053
1312.000000	63.841256
1311.000000	63.873001
1310.000000	63.899272
1309.000000	63.924541
1308.000000	63.952775
1307.000000	63.970976
1306.000000	63.987222
1305.000000	64.036073
1304.000000	64.074433
1303.000000	64.076133
1302.000000	64.089822
1301.000000	64.110426
1300.000000	64.109917
1299.000000	64.118056
1298.000000	64.153120
1297.000000	64.137708
1296.000000	64.139959
1295.000000	64.138901
1294.000000	64.150176
1293.000000	64.139112
1292.000000	64.164422
1291.000000	64.147903
1290.000000	64.147579
1289.000000	64.150930
1288.000000	64.134575
1287.000000	64.125700
1286.000000	64.105254
1285.000000	64.108172
1284.000000	64.111849
1283.000000	64.117830
1282.000000	64.103474
1281.000000	64.111013
1280.000000	64.051177
1279.000000	64.057728
1278.000000	64.070561
1277.000000	64.075850
1276.000000	64.087356
1275.000000	64.068901
1274.000000	64.086476
1273.000000	64.091284
1272.000000	64.077675
1271.000000	64.059175
1270.000000	64.093232
1269.000000	64.096311
1268.000000	64.100644
1267.000000	64.150814
1266.000000	64.130003
1265.000000	64.180439
1264.000000	64.172223
1263.000000	64.171038
1262.000000	64.187934
1261.000000	64.212110
1260.000000	64.265062
1259.000000	64.251210
1258.000000	64.252212
1257.000000	64.245146
1256.000000	64.263574
1255.000000	64.267139
1254.000000	64.272730
1253.000000	64.264810
1252.000000	64.277216
1251.000000	64.264960
1250.000000	64.270733
1249.000000	64.275259
1248.000000	64.273389
1247.000000	64.250913
1246.000000	64.230752
1245.000000	64.237765
1244.000000	64.219571
1243.000000	64.191450
1242.000000	64.184731
1241.000000	64.137709
1240.000000	64.099822
1239.000000	64.057236
1238.000000	64.029768
1237.000000	63.994425
1236.000000	63.951469
1235.000000	63.896341
1234.000000	63.861299
1233.000000	63.829929
1232.000000	63.791419
1231.000000	63.749467
1230.000000	63.722726
1229.000000	63.690555
1228.000000	63.661634
1227.000000	63.617268
1226.000000	63.569399
1225.000000	63.511563
1224.000000	63.489568
1223.000000	63.458996
1222.000000	63.413219
1221.000000	63.384093
1220.000000	63.354368
1219.000000	63.304594
1218.000000	63.260438
1217.000000	63.228728
1216.000000	63.177584
1215.000000	63.121271
1214.000000	63.119282
1213.000000	63.049676
1212.000000	62.984617
1211.000000	62.945139
1210.000000	62.916165
1209.000000	62.848661
1208.000000	62.793462
1207.000000	62.763601
1206.000000	62.688639
1205.000000	62.628560
1204.000000	62.593049
1203.000000	62.546071
1202.000000	62.474368
1201.000000	62.401758
1200.000000	62.379520
1199.000000	62.317693
1198.000000	62.258262
1197.000000	62.217657
1196.000000	62.173904
1195.000000	62.140022
1194.000000	62.111413
1193.000000	62.065283
1192.000000	62.036193
1191.000000	62.017933
1190.000000	61.990607
1189.000000	61.954705
1188.000000	61.953243
1187.000000	61.933592
1186.000000	61.914580
1185.000000	61.933992
1184.000000	61.940222
1183.000000	61.970526
1182.000000	62.004691
1181.000000	62.046152
1180.000000	62.083319
1179.000000	62.117349
1178.000000	62.169432
1177.000000	62.238117
1176.000000	62.309029
1175.000000	62.389808
1174.000000	62.456608
1173.000000	62.546102
1172.000000	62.651825
1171.000000	62.743558
1170.000000	62.852514
1169.000000	62.960259
1168.000000	63.069688
1167.000000	63.185935
1166.000000	63.301913
1165.000000	63.431870
1164.000000	63.568816
1163.000000	63.680490
1162.000000	63.797484
1161.000000	63.920804
1160.000000	64.037416
1159.000000	64.164208
1158.000000	64.287918
1157.000000	64.396161
1156.000000	64.507875
1155.000000	64.622595
1154.000000	64.710582
1153.000000	64.804066
1152.000000	64.926021
1151.000000	65.024588
1150.000000	65.122283
1149.000000	65.208958
1148.000000	65.283969
1147.000000	65.379636
1146.000000	65.471019
1145.000000	65.552499
1144.000000	65.634008
1143.000000	65.717320
1142.000000	65.793705
1141.000000	65.860921
1140.000000	65.924131
1139.000000	66.000064
1138.000000	66.067944
1137.000000	66.119530
1136.000000	66.190769
1135.000000	66.246564
1134.000000	66.323786
1133.000000	66.380499
1132.000000	66.439146
1131.000000	66.504762
1130.000000	66.548886
1129.000000	66.579589
1128.000000	66.612528
1127.000000	66.674648
1126.000000	66.720242
1125.000000	66.743579
1124.000000	66.763901
1123.000000	66.775083
1122.000000	66.816028
1121.000000	66.842199
1120.000000	66.875955
1119.000000	66.902764
1118.000000	66.926734
1117.000000	66.934755
1116.000000	66.967703
1115.000000	66.965279
1114.000000	66.968257
1113.000000	66.992585
1112.000000	67.000066
1111.000000	67.016868
1110.000000	67.012463
1109.000000	67.026433
1108.000000	67.041867
1107.000000	67.067404
1106.000000	67.076134
1105.000000	67.063881
1104.000000	67.058459
1103.000000	67.078314
1102.000000	67.066014
1101.000000	67.051361
1100.000000	67.067105
1099.000000	67.076735
1098.000000	67.080480
1097.000000	67.099183
1096.000000	67.106621
1095.000000	67.118541
1094.000000	67.085322
1093.000000	67.059492
1092.000000	67.078397
1091.000000	67.081933
1090.000000	67.078721
1089.000000	67.089053
1088.000000	67.091043
1087.000000	67.084661
1086.000000	67.069388
1085.000000	67.081153
1084.000000	67.068952
1083.000000	67.057025
1082.000000	67.055425
1081.000000	67.050450
1080.000000	67.046266
1079.000000	67.017689
1078.000000	67.042460
1077.000000	67.041704
1076.000000	67.008837
1075.000000	67.009473
1074.000000	67.004959
1073.000000	67.007143
1072.000000	66.997229
1071.000000	66.970531
1070.000000	66.977096
1069.000000	66.948948
1068.000000	66.953793
1067.000000	66.948904
1066.000000	66.930594
1065.000000	66.936593
1064.000000	66.889265
1063.000000	66.888856
1062.000000	66.901964
1061.000000	66.888813
1060.000000	66.850606
1059.000000	66.858051
1058.000000	66.841827
1057.000000	66.830636
1056.000000	66.833675
1055.000000	66.799143
1054.000000	66.804323
1053.000000	66.795820
1052.000000	66.784362
1051.000000	66.778840
1050.000000	66.751724
1049.000000	66.759877
1048.000000	66.746005
1047.000000	66.727666
1046.000000	66.715089
1045.000000	66.696476
1044.000000	66.695523
1043.000000	66.684271
1042.000000	66.690459
1041.000000	66.674956
1040.000000	66.676627
1039.000000	66.665160
1038.000000	66.654848
1037.000000	66.635708
1036.000000	66.641271
1035.000000	66.660876
1034.000000	66.626304
1033.000000	66.604255
1032.000000	66.601756
1031.000000	66.605099
1030.000000	66.579635
1029.000000	66.597401
1028.000000	66.598233
1027.000000	66.595150
1026.000000	66.582284
1025.000000	66.571292
1024.000000	66.571137
1023.000000	66.579475
1022.000000	66.562239
1021.000000	66.569716
1020.000000	66.572186
1019.000000	66.573548
1018.000000	66.567201
1017.000000	66.582551
1016.000000	66.585249
1015.000000	66.559790
1014.000000	66.569061
1013.000000	66.577267
1012.000000	66.587279
1011.000000	66.591595
1010.000000	66.572903
1009.000000	66.592270
1008.000000	66.602798
1007.000000	66.597860
1006.000000	66.603199
1005.000000	66.609546
1004.000000	66.603742
1003.000000	66.616548
1002.000000	66.632782
1001.000000	66.649453
1000.000000	66.634707
999.000000	66.627904
998.000000	66.645662
997.000000	66.655941
996.000000	66.660047
995.000000	66.645429
994.000000	66.659892
993.000000	66.672440
992.000000	66.685236
991.000000	66.694320
990.000000	66.684965
989.000000	66.691749
988.000000	66.703844
987.000000	66.718282
986.000000	66.712406
985.000000	66.715860
984.000000	66.738293
983.000000	66.758209
982.000000	66.785597
981.000000	66.784134
980.000000	66.772912
979.000000	66.785823
978.000000	66.808091
977.000000	66.805807
976.000000	66.840309
975.000000	66.862311
974.000000	66.856886
973.000000	66.874568
972.000000	66.918024
971.000000	66.918993
970.000000	66.917623
969.000000	66.934775
968.000000	66.942766
967.000000	66.972910
966.000000	66.985919
965.000000	67.005336
964.000000	67.039344
963.000000	67.037135
962.000000	67.036118
961.000000	67.061306
960.000000	67.068534
959.000000	67.090399
958.000000	67.131371
957.000000	67.140757
956.000000	67.141612
955.000000	67.166373
954.000000	67.192665
953.000000	67.202119
952.000000	67.221895
951.000000	67.241060
950.000000	67.257551
949.000000	67.272047
948.000000	67.284751
947.000000	67.285207
946.000000	67.287795
945.000000	67.302167
944.000000	67.301493
943.000000	67.303878
942.000000	67.313346
941.000000	67.292140
940.000000	67.314461
939.000000	67.336378
938.000000	67.342319
937.000000	67.358292
936.000000	67.358823
935.000000	67.382329
934.000000	67.379089
933.000000	67.376348
932.000000	67.368272
931.000000	67.356628
930.000000	67.384277
929.000000	67.395078
928.000000	67.364130
927.000000	67.348633
926.000000	67.343634
925.000000	67.342336
924.000000	67.372087
923.000000	67.386855
922.000000	67.369323
921.000000	67.330022
920.000000	67.333792
919.000000	67.335453
918.000000	67.328776
917.000000	67.370959
916.000000	67.369027
915.000000	67.323528
914.000000	67.338480
913.000000	67.342879
912.000000	67.297973
911.000000	67.279646
910.000000	67.356932
909.000000	67.343007
908.000000	67.329616
907.000000	67.343048
906.000000	67.351304
905.000000	67.367963
904.000000	67.365408
903.000000	67.360518
902.000000	67.431350
901.000000	67.368183
900.000000	67.416040
899.000000	67.402731
898.000000	67.432279
897.000000	67.457890
896.000000	67.468792
895.000000	67.478417
894.000000	67.511991
893.000000	67.522866
892.000000	67.557964
891.000000	67.494106
890.000000	67.564789
889.000000	67.551100
888.000000	67.551553
887.000000	67.506956
886.000000	67.547681
885.000000	67.569696
884.000000	67.602805
883.000000	67.641724
882.000000	67.682295
881.000000	67.593942
880.000000	67.599592
879.000000	67.624707
878.000000	67.654943
877.000000	67.682757
876.000000	67.773137
875.000000	67.694643
874.000000	67.668928
873.000000	67.678305
872.000000	67.669730
871.000000	67.716561
870.000000	67.779674
869.000000	67.622660
868.000000	67.683067
867.000000	67.618140
866.000000	67.514894
865.000000	67.638489
864.000000	67.634283
863.000000	67.736142
862.000000	67.841346
861.000000	67.649821
860.000000	67.626943
859.000000	67.235352
858.000000	67.433069
857.000000	67.504144
856.000000	67.791560
855.000000	68.010781
854.000000	67.384206
853.000000	67.693784
852.000000	67.745198
851.000000	67.952851
850.000000	68.010658
849.000000	68.014940
848.000000	67.685944
847.000000	67.480283
846.000000	67.509318
845.000000	67.534701
844.000000	67.757295
843.000000	67.695738
842.000000	67.762238
841.000000	67.759264
840.000000	67.674143
839.000000	67.521077
838.000000	67.657321
837.000000	67.636411
836.000000	67.633526
835.000000	67.477280
834.000000	67.792809
833.000000	67.415006
832.000000	67.728388
831.000000	67.578464
830.000000	67.778318
829.000000	67.700696
828.000000	67.805921
827.000000	67.429923
826.000000	67.666498
825.000000	67.528722
824.000000	67.309010
823.000000	67.514015
822.000000	67.885416
821.000000	67.581414
820.000000	67.574561
819.000000	67.737086
818.000000	67.505326
817.000000	67.768760
816.000000	67.767243
815.000000	67.591556
814.000000	67.775092
813.000000	67.706463
812.000000	67.545969
811.000000	67.553466
810.000000	67.727430
809.000000	67.421691
808.000000	67.638297
807.000000	67.579615
806.000000	67.664346
805.000000	67.749178
804.000000	67.690814
803.000000	67.652903
802.000000	67.655702
801.000000	67.660523
800.000000	67.740063
799.000000	67.686200
798.000000	67.618979
797.000000	67.684639
796.000000	67.660595
795.000000	67.689804
794.000000	67.608900
793.000000	67.531876
792.000000	67.763483
791.000000	67.577603
790.000000	67.441562
789.000000	67.760853
788.000000	67.695017
787.000000	67.654771
786.000000	67.670182
785.000000	67.669688
784.000000	67.777024
783.000000	67.713340
782.000000	67.663750
781.000000	67.656501
780.000000	67.685987
779.000000	67.686390
778.000000	67.704786
777.000000	67.677500
776.000000	67.767755
775.000000	67.781321
774.000000	67.726608
773.000000	67.703066
772.000000	67.675084
771.000000	67.688162
770.000000	67.742668
769.000000	67.815302
768.000000	67.704108
767.000000	67.716075
766.000000	67.628616
765.000000	67.658629
764.000000	67.723530
763.000000	67.744000
762.000000	67.722244
761.000000	67.694850
760.000000	67.728976
759.000000	67.756062
758.000000	67.679160
757.000000	67.708652
756.000000	67.668219
755.000000	67.668413
754.000000	67.670841
753.000000	67.727756
752.000000	67.738885
751.000000	67.692634
750.000000	67.676209
749.000000	67.712813
748.000000	67.692598
747.000000	67.743940
746.000000	67.673704
745.000000	67.756863
744.000000	67.724066
743.000000	67.692410
742.000000	67.655998
741.000000	67.651599
740.000000	67.699644
739.000000	67.718736
738.000000	67.718811
737.000000	67.725765
736.000000	67.668815
735.000000	67.684228
734.000000	67.700111
733.000000	67.750817
732.000000	67.776169
731.000000	67.735367
730.000000	67.699150
729.000000	67.716348
728.000000	67.723916
727.000000	67.768797
726.000000	67.709104
725.000000	67.698113
724.000000	67.728111
723.000000	67.674164
722.000000	67.641254
721.000000	67.731250
720.000000	67.784558
719.000000	67.726103
718.000000	67.746894
717.000000	67.792617
716.000000	67.752138
715.000000	67.720064
714.000000	67.748624
713.000000	67.776410
712.000000	67.746421
711.000000	67.721999
710.000000	67.746100
709.000000	67.706023
708.000000	67.697384
707.000000	67.734995
706.000000	67.742920
705.000000	67.791857
704.000000	67.802288
703.000000	67.770369
702.000000	67.734189
701.000000	67.726661
700.000000	67.825728
699.000000	67.843850
698.000000	67.726307
697.000000	67.685014
696.000000	67.785129
695.000000	67.802263
694.000000	67.794416
693.000000	67.802933
692.000000	67.739177
691.000000	67.773317
690.000000	67.839489
689.000000	67.796174
688.000000	67.724925
687.000000	67.742986
686.000000	67.780794
685.000000	67.766973
684.000000	67.771941
683.000000	67.832097
682.000000	67.827538
681.000000	67.754737
680.000000	67.807221
679.000000	67.868534
678.000000	67.836458
677.000000	67.887723
676.000000	67.840706
675.000000	67.818762
674.000000	67.858137
673.000000	67.903252
672.000000	67.920278
671.000000	67.856943
670.000000	67.869367
669.000000	67.863003
668.000000	67.836983
667.000000	67.865552
666.000000	67.871790
665.000000	67.793606
664.000000	67.771690
663.000000	67.821764
662.000000	67.798540
661.000000	67.850957
660.000000	67.889840
659.000000	67.864287
658.000000	67.801265
657.000000	67.881407
656.000000	67.901341
655.000000	67.839794
654.000000	67.898601
653.000000	67.828740
652.000000	67.831686
651.000000	67.882176
650.000000	67.845946
649.000000	67.891316
648.000000	67.880044
647.000000	67.868328
646.000000	67.835212
645.000000	67.831448
644.000000	67.864967
643.000000	67.822692
642.000000	67.869298
641.000000	67.825854
640.000000	67.804309
639.000000	67.794770
638.000000	67.826683
637.000000	67.874614
636.000000	67.871126
635.000000	67.825930
634.000000	67.906345
633.000000	67.896961
632.000000	67.814858
631.000000	67.807339
630.000000	67.858045
629.000000	67.841516
628.000000	67.797313
627.000000	67.810727
626.000000	67.791158
625.000000	67.828880
624.000000	67.859842
623.000000	67.805771
622.000000	67.796549
621.000000	67.777398
620.000000	67.755489
619.000000	67.760466
618.000000	67.708666
617.000000	67.725474
616.000000	67.702784
615.000000	67.692657
614.000000	67.646622
613.000000	67.756190
612.000000	67.729208
611.000000	67.704392
610.000000	67.662845
609.000000	67.709602
608.000000	67.716064
607.000000	67.588823
606.000000	67.619176
605.000000	67.599012
604.000000	67.611976
603.000000	67.630755
602.000000	67.606330
601.000000	67.545293
600.000000	67.615486
599.000000	67.600503
598.000000	67.586389
597.000000	67.532150
596.000000	67.467346
595.000000	67.507567
594.000000	67.490801
593.000000	67.473079
592.000000	67.532397
591.000000	67.443629
590.000000	67.410599
589.000000	67.372311
588.000000	67.529551
587.000000	67.422576
586.000000	67.324736
585.000000	67.348405
584.000000	67.373210
583.000000	67.314644
582.000000	67.287353
581.000000	67.296150
580.000000	67.214758
579.000000	67.255223
578.000000	67.207547
577.000000	67.158765
576.000000	67.216399
575.000000	67.156631
574.000000	67.142227
573.000000	67.241325
572.000000	67.186732
571.000000	67.104584
570.000000	67.098705
569.000000	67.130875
568.000000	67.040666
567.000000	67.003485
566.000000	67.006023
565.000000	66.905929
564.000000	66.962003
563.000000	66.944856
562.000000	66.888525
561.000000	66.716362
560.000000	66.752860
559.000000	66.648684
558.000000	66.679247
557.000000	66.633517
556.000000	66.692559
555.000000	66.625126
554.000000	66.574995
553.000000	66.558825
552.000000	66.494860
551.000000	66.448475
550.000000	66.463090
549.000000	66.428197
548.000000	66.356331
547.000000	66.298221
546.000000	66.270126
545.000000	66.284797
544.000000	66.250934
543.000000	66.182479
542.000000	66.167771
541.000000	66.160345
540.000000	66.085383
539.000000	66.062586
538.000000	66.020069
537.000000	65.984515
536.000000	65.906659
535.000000	65.921800
534.000000	65.801424
533.000000	65.806658
532.000000	65.750225
531.000000	65.689497
530.000000	65.606165
529.000000	65.625719
528.000000	65.550008
527.000000	65.506237
526.000000	65.497967
525.000000	65.442996
524.000000	65.360634
523.000000	65.315444
522.000000	65.259688
521.000000	65.227105
520.000000	65.137246
519.000000	65.080014
518.000000	65.034955
517.000000	64.975189
516.000000	64.899982
515.000000	64.826039
514.000000	64.748195
513.000000	64.715833
512.000000	64.635704
511.000000	64.591757
510.000000	64.508222
509.000000	64.444859
508.000000	64.398670
507.000000	64.340364
506.000000	64.254846
505.000000	64.224084
504.000000	64.176413
503.000000	64.072796
502.000000	63.975206
501.000000	63.891515
500.000000	63.802240
499.000000	63.719909
498.000000	63.599590
497.000000	63.582931
496.000000	63.531993
495.000000	63.408107
494.000000	63.316368
493.000000	63.226429
492.000000	63.117396
491.000000	63.091492
490.000000	62.960689
489.000000	62.862483
488.000000	62.756572
487.000000	62.652398
486.000000	62.574457
485.000000	62.563141
484.000000	62.479886
483.000000	62.314901
482.000000	62.235416
481.000000	62.150821
480.000000	62.038714
479.000000	61.948188
478.000000	61.891745
477.000000	61.782260
476.000000	61.654708
475.000000	61.537961
474.000000	61.409864
473.000000	61.320792
472.000000	61.215392
471.000000	61.087926
470.000000	60.955404
469.000000	60.838550
468.000000	60.684126
467.000000	60.612643
466.000000	60.504622
465.000000	60.329425
464.000000	60.173982
463.000000	60.045589
462.000000	59.943962
461.000000	59.799921
460.000000	59.644247
459.000000	59.498278
458.000000	59.322370
457.000000	59.116297
456.000000	58.926273
455.000000	58.730546
454.000000	58.570194
453.000000	58.444248
452.000000	58.274108
451.000000	58.041257
450.000000	57.815760
449.000000	57.629066
448.000000	57.437639
447.000000	57.207021
446.000000	56.953130
445.000000	56.737466
444.000000	56.584051
443.000000	56.376723
442.000000	56.171822
441.000000	55.944607
440.000000	55.743541
439.000000	55.570749
438.000000	55.338255
437.000000	55.136144
436.000000	54.990682
435.000000	54.777386
434.000000	54.503982
433.000000	54.312493
432.000000	54.092061
431.000000	53.910765
430.000000	53.710890
429.000000	53.485916
428.000000	53.267616
427.000000	53.019970
426.000000	52.827712
425.000000	52.621245
424.000000	52.310009
423.000000	52.085838
422.000000	51.880672
421.000000	51.615858
420.000000	51.422462
419.000000	51.147512
418.000000	50.879310
417.000000	50.584543
416.000000	50.309684
415.000000	50.005369
414.000000	49.772408
413.000000	49.545982
412.000000	49.273759
411.000000	48.994188
410.000000	48.714500
409.000000	48.402667
408.000000	48.127032
407.000000	47.893263
406.000000	47.569272
405.000000	47.264563
404.000000	47.025080
403.000000	46.700456
402.000000	46.386345
401.000000	46.093439
400.000000	45.869390
399.000000	45.537431
398.000000	45.182187
397.000000	44.913336
396.000000	44.707966
395.000000	44.372196
394.000000	44.087254
393.000000	43.812009
392.000000	43.554937
391.000000	43.240312
390.000000	42.982558
389.000000	42.638447
388.000000	42.315497
387.000000	42.126339
386.000000	41.735901
385.000000	41.508563
384.000000	41.191253
383.000000	40.885397
382.000000	40.584453
381.000000	40.334194
380.000000	39.998112
379.000000	39.620498
378.000000	39.267511
377.000000	39.039203
376.000000	38.762572
375.000000	38.543351
374.000000	38.179479
373.000000	37.857257
372.000000	37.546496
371.000000	37.345973
370.000000	37.125207
369.000000	36.674542
368.000000	36.332658
367.000000	36.005772
366.000000	35.621187
365.000000	35.356110
364.000000	34.922886
363.000000	34.736538
362.000000	34.428708
361.000000	34.036922
360.000000	33.631140
359.000000	33.179423
358.000000	33.012124
357.000000	32.446179
356.000000	32.256140
355.000000	32.001010
354.000000	31.633820
353.000000	31.292920
352.000000	30.912399
351.000000	30.652787
350.000000	30.290685
349.000000	29.777183
348.000000	29.444875
347.000000	29.267577
346.000000	28.884049
345.000000	28.634135
344.000000	28.213964
343.000000	27.784614
342.000000	27.555952
341.000000	27.119689
340.000000	26.736834
339.000000	26.461427
338.000000	26.248581
337.000000	25.585369
336.000000	25.335694
335.000000	25.045069
334.000000	24.667154
333.000000	24.183221
332.000000	23.914747
331.000000	23.519980
330.000000	23.117323
329.000000	22.717851
328.000000	22.377758
327.000000	21.866400
326.000000	21.486681
325.000000	21.188463
324.000000	20.848623
323.000000	20.459179
322.000000	19.957882
321.000000	19.624522
320.000000	19.247755
319.000000	18.869928
318.000000	18.561136
317.000000	18.280810
316.000000	18.055524
315.000000	17.599772
314.000000	17.328612
313.000000	16.971690
312.000000	16.537232
311.000000	16.225802
310.000000	15.837921
309.000000	15.541088
308.000000	15.126272
307.000000	14.720338
306.000000	14.395804
305.000000	14.038177
304.000000	13.571529
303.000000	13.217644
302.000000	12.741445
301.000000	12.290510
300.000000	11.917026
299.000000	11.561025
298.000000	11.113639
297.000000	10.778621
296.000000	10.400447
295.000000	10.055802
294.000000	9.792340
293.000000	9.557959
292.000000	9.413570
291.000000	9.195753
290.000000	9.115723
289.000000	9.051104
288.000000	9.021620
287.000000	8.999923
286.000000	9.036794
285.000000	9.040857
284.000000	9.081182
283.000000	9.075308
282.000000	9.069468
281.000000	9.103412
280.000000	9.134118
279.000000	9.175922
278.000000	9.193447
277.000000	9.196151
276.000000	9.260903
275.000000	9.287689
274.000000	9.323547
273.000000	9.325740
272.000000	9.400150
271.000000	9.448427
270.000000	9.474410
269.000000	9.517776
268.000000	9.611049
267.000000	9.683456
266.000000	9.793370
265.000000	9.811343
264.000000	9.869146
263.000000	9.937262
262.000000	10.098773
261.000000	10.199227
260.000000	10.317623
259.000000	10.384887
258.000000	10.519164
257.000000	10.646233
256.000000	10.816476
255.000000	10.968099
254.000000	11.131787
253.000000	11.308496
252.000000	11.479723
251.000000	11.693564
250.000000	11.912523
249.000000	12.055214
248.000000	12.269187
247.000000	12.524758
246.000000	12.826336
245.000000	13.001413
244.000000	13.212174
243.000000	13.503478
242.000000	13.761635
241.000000	13.951177
240.000000	14.172213
239.000000	14.333807
238.000000	14.571359
237.000000	14.734878
236.000000	14.910869
235.000000	15.145841
234.000000	15.383170
233.000000	15.498073
232.000000	15.587134
231.000000	15.755142
230.000000	15.901603
229.000000	16.043933
228.000000	16.160198
227.000000	16.325089
226.000000	16.549190
225.000000	16.682326
224.000000	16.845103
223.000000	17.087430
222.000000	17.379424
221.000000	17.654215
220.000000	18.050278
219.000000	18.448950
218.000000	18.697878
217.000000	19.037379
216.000000	19.355887
215.000000	19.824677
214.000000	20.295698
213.000000	20.631967
212.000000	21.062748
211.000000	21.584161
210.000000	22.067524
209.000000	22.605183
208.000000	23.215998
207.000000	23.875331
206.000000	24.519261
205.000000	25.214204
204.000000	26.041842
203.000000	26.664630
202.000000	27.397367
201.000000	27.902130
200.000000	28.338879
