PE UV       SUBTECH     SPECTRUM    ASCII       PEDS        4.00        
   -1
3C-XXX-C002.Sample.Raw.asc
23/09/05
14:51:31.00
23/09/05
14:51:31.00
Administrator

250.000000
1
Lambda 750
750N8071901
PerkinElmer UV WinLab 6.0.4.0738 / 1.61.00 Lambda 900

0
0
3350/servo 860.8/2
0
0
UV/VIS
1
1
1
CommonBeamDepol,150mm sphere / downward view
0
0
0
0
Program
Program
3350/servo 860.8/2
3350/0.2 860.8/0.2
3350/0.2 860.8/0.2
0
1
 
 
 
0
 
860.8
319.2
860.8
Front
100
on
 
 
0
0
0
 
0
 
 
 
0
 
 
0
0
0
0
0
 
 
 
 
0
0


0
0
#HDR
-1
-1
#GR
nm
%R
1.0
0.0
2500.000000
-10.000000
226
8
65.275988
15.212880
#DATA
2500.000000	15.212880
2490.000000	16.179943
2480.000000	16.560747
2470.000000	17.183449
2460.000000	17.184342
2450.000000	18.267509
2440.000000	18.030551
2430.000000	18.646580
2420.000000	19.000996
2410.000000	19.079863
2400.000000	19.580802
2390.000000	19.217569
2380.000000	18.887206
2370.000000	19.784674
2360.000000	20.032717
2350.000000	19.693298
2340.000000	19.563719
2330.000000	19.437362
2320.000000	19.193618
2310.000000	18.520259
2300.000000	18.322088
2290.000000	18.707674
2280.000000	19.322686
2270.000000	20.414913
2260.000000	21.525609
2250.000000	22.062115
2240.000000	22.460668
2230.000000	21.816026
2220.000000	21.619672
2210.000000	21.262985
2200.000000	20.768322
2190.000000	20.685168
2180.000000	21.348114
2170.000000	21.899962
2160.000000	22.925935
2150.000000	23.403223
2140.000000	23.809976
2130.000000	24.052515
2120.000000	23.921853
2110.000000	23.696241
2100.000000	23.491502
2090.000000	22.900048
2080.000000	21.907138
2070.000000	20.890103
2060.000000	20.368478
2050.000000	20.506923
2040.000000	21.041592
2030.000000	20.754665
2020.000000	20.262223
2010.000000	19.549123
2000.000000	18.757889
1990.000000	17.992904
1980.000000	17.371366
1970.000000	16.860766
1960.000000	16.642596
1950.000000	17.112009
1940.000000	18.198715
1930.000000	20.028417
1920.000000	23.258982
1910.000000	27.468532
1900.000000	31.833519
1890.000000	36.040727
1880.000000	38.588750
1870.000000	39.832151
1860.000000	40.016187
1850.000000	39.787299
1840.000000	39.382752
1830.000000	39.001972
1820.000000	38.517137
1810.000000	38.106318
1800.000000	37.764274
1790.000000	37.448773
1780.000000	37.049327
1770.000000	36.635166
1760.000000	36.263659
1750.000000	35.901142
1740.000000	36.330063
1730.000000	37.383228
1720.000000	38.119146
1710.000000	38.371351
1700.000000	39.233507
1690.000000	41.068795
1680.000000	42.750622
1670.000000	43.398184
1660.000000	43.419451
1650.000000	42.992707
1640.000000	42.348880
1630.000000	41.544791
1620.000000	40.671927
1610.000000	39.752126
1600.000000	39.029674
1590.000000	38.311838
1580.000000	37.690075
1570.000000	37.314217
1560.000000	36.721477
1550.000000	35.703410
1540.000000	34.804347
1530.000000	34.261295
1520.000000	33.859672
1510.000000	33.550266
1500.000000	33.427230
1490.000000	33.460483
1480.000000	33.623974
1470.000000	34.045040
1460.000000	34.764729
1450.000000	35.958538
1440.000000	37.724696
1430.000000	40.276490
1420.000000	43.664218
1410.000000	47.263261
1400.000000	50.240014
1390.000000	52.115633
1380.000000	53.208935
1370.000000	54.272176
1360.000000	55.351834
1350.000000	56.383897
1340.000000	57.196728
1330.000000	57.872569
1320.000000	58.386574
1310.000000	58.686102
1300.000000	58.682472
1290.000000	58.628676
1280.000000	58.654882
1270.000000	58.692541
1260.000000	58.678246
1250.000000	58.390575
1240.000000	58.113330
1230.000000	57.744494
1220.000000	57.169827
1210.000000	56.679826
1200.000000	56.549496
1190.000000	57.029005
1180.000000	58.038777
1170.000000	59.359531
1160.000000	60.465285
1150.000000	61.356558
1140.000000	61.982797
1130.000000	62.248530
1120.000000	62.378560
1110.000000	62.491943
1100.000000	62.511453
1090.000000	62.463757
1080.000000	62.416179
1070.000000	62.286260
1060.000000	62.224293
1050.000000	62.171185
1040.000000	62.149054
1030.000000	62.114719
1020.000000	62.130399
1010.000000	62.274041
1000.000000	62.443688
990.000000	62.639078
980.000000	62.878526
970.000000	63.178727
960.000000	63.459090
950.000000	63.661772
940.000000	63.810456
930.000000	63.941638
920.000000	64.067185
910.000000	64.240356
900.000000	64.681313
890.000000	64.882749
880.000000	65.078517
870.000000	65.233135
860.000000	65.275988
850.000000	64.388920
840.000000	64.408105
830.000000	64.473854
820.000000	64.370926
810.000000	64.500957
800.000000	64.407656
790.000000	64.604859
780.000000	64.511797
770.000000	64.608341
760.000000	64.613680
750.000000	64.753988
740.000000	64.786306
730.000000	64.892275
720.000000	64.845900
710.000000	65.036774
700.000000	64.974738
690.000000	64.980896
680.000000	64.919404
670.000000	64.958564
660.000000	64.959779
650.000000	65.038181
640.000000	64.986695
630.000000	64.998592
620.000000	64.931534
610.000000	64.859964
600.000000	64.850527
590.000000	64.827251
580.000000	64.770987
570.000000	64.640244
560.000000	64.557951
550.000000	64.395507
540.000000	64.328854
530.000000	64.176319
520.000000	63.986112
510.000000	63.856751
500.000000	63.620257
490.000000	63.337178
480.000000	63.178051
470.000000	62.679562
460.000000	61.972349
450.000000	61.207986
440.000000	60.062854
430.000000	58.349814
420.000000	56.597027
410.000000	54.905553
400.000000	53.053850
390.000000	51.275943
380.000000	49.297828
370.000000	47.481357
360.000000	44.784198
350.000000	42.618453
340.000000	40.097948
330.000000	38.438396
320.000000	36.375957
310.000000	35.614460
300.000000	33.237687
290.000000	27.461229
280.000000	24.497395
270.000000	25.080804
260.000000	26.244749
250.000000	27.309447
