PE UV       SUBTECH     SPECTRUM    ASCII       PEDS        4.00        
   -1
3C-XXX-F038.Sample.Raw.asc
23/09/06
15:48:38.00
23/09/06
15:48:38.00
Administrator

250.000000
1
Lambda 750
750N8071901
PerkinElmer UV WinLab 6.0.4.0738 / 1.61.00 Lambda 900

0
0
3350/servo 860.8/2
0
0
UV/VIS
1
1
1
CommonBeamDepol,150mm sphere / downward view
0
0
0
0
Program
Program
3350/servo 860.8/2
3350/0.2 860.8/0.2
3350/0.2 860.8/0.2
0
1
 
 
 
0
 
860.8
319.2
860.8
Front
100
on
 
 
0
0
0
 
0
 
 
 
0
 
 
0
0
0
0
0
 
 
 
 
0
0


0
0
#HDR
-1
-1
#GR
nm
%R
1.0
0.0
2500.000000
-10.000000
226
8
70.183932
15.365984
#DATA
2500.000000	16.782196
2490.000000	17.081658
2480.000000	17.372135
2470.000000	19.414139
2460.000000	19.091969
2450.000000	19.461766
2440.000000	19.712491
2430.000000	20.116569
2420.000000	20.792897
2410.000000	20.589123
2400.000000	20.666163
2390.000000	20.729060
2380.000000	20.564795
2370.000000	20.218154
2360.000000	20.721049
2350.000000	20.644716
2340.000000	20.823040
2330.000000	20.705168
2320.000000	20.221697
2310.000000	20.011125
2300.000000	19.475405
2290.000000	20.142769
2280.000000	20.272452
2270.000000	21.254173
2260.000000	22.800045
2250.000000	23.923989
2240.000000	23.802506
2230.000000	23.565884
2220.000000	23.161575
2210.000000	22.575557
2200.000000	22.045715
2190.000000	22.412760
2180.000000	23.091676
2170.000000	23.667664
2160.000000	24.452687
2150.000000	25.414705
2140.000000	25.510215
2130.000000	25.523902
2120.000000	25.720115
2110.000000	25.755209
2100.000000	25.289851
2090.000000	24.541542
2080.000000	23.723944
2070.000000	22.481689
2060.000000	21.853534
2050.000000	22.063862
2040.000000	22.666691
2030.000000	22.491200
2020.000000	22.024327
2010.000000	21.282967
2000.000000	20.404981
1990.000000	19.694170
1980.000000	18.984767
1970.000000	18.384135
1960.000000	18.180869
1950.000000	18.536755
1940.000000	19.603134
1930.000000	21.726934
1920.000000	24.762831
1910.000000	29.625071
1900.000000	34.496349
1890.000000	38.977232
1880.000000	42.048874
1870.000000	43.278277
1860.000000	43.460228
1850.000000	43.224677
1840.000000	42.728229
1830.000000	42.258920
1820.000000	41.726055
1810.000000	41.300263
1800.000000	40.949569
1790.000000	40.537630
1780.000000	40.052251
1770.000000	39.630826
1760.000000	39.167045
1750.000000	38.807854
1740.000000	39.228943
1730.000000	40.465406
1720.000000	41.245423
1710.000000	41.504023
1700.000000	42.560162
1690.000000	44.614584
1680.000000	46.553718
1670.000000	47.265452
1660.000000	47.322917
1650.000000	46.872377
1640.000000	46.110373
1630.000000	45.257908
1620.000000	44.258025
1610.000000	43.256656
1600.000000	42.440180
1590.000000	41.683605
1580.000000	41.019475
1570.000000	40.555466
1560.000000	39.910491
1550.000000	38.801941
1540.000000	37.782002
1530.000000	37.163444
1520.000000	36.750352
1510.000000	36.441611
1500.000000	36.338624
1490.000000	36.383485
1480.000000	36.595531
1470.000000	36.999308
1460.000000	37.822154
1450.000000	39.065068
1440.000000	40.967985
1430.000000	43.804218
1420.000000	47.483293
1410.000000	51.400762
1400.000000	54.692397
1390.000000	56.798983
1380.000000	58.020635
1370.000000	59.231311
1360.000000	60.434193
1350.000000	61.586841
1340.000000	62.493406
1330.000000	63.282491
1320.000000	63.839362
1310.000000	64.081897
1300.000000	64.097175
1290.000000	64.017498
1280.000000	64.060548
1270.000000	64.123237
1260.000000	64.068532
1250.000000	63.764207
1240.000000	63.406769
1230.000000	63.008394
1220.000000	62.299766
1210.000000	61.728339
1200.000000	61.540501
1190.000000	62.105926
1180.000000	63.240288
1170.000000	64.686202
1160.000000	65.951092
1150.000000	66.946643
1140.000000	67.633163
1130.000000	67.914642
1120.000000	68.055212
1110.000000	68.149565
1100.000000	68.190774
1090.000000	68.127893
1080.000000	68.019860
1070.000000	67.908659
1060.000000	67.773068
1050.000000	67.713197
1040.000000	67.617260
1030.000000	67.541801
1020.000000	67.584340
1010.000000	67.699946
1000.000000	67.847662
990.000000	68.009872
980.000000	68.284649
970.000000	68.612241
960.000000	68.883988
950.000000	69.041360
940.000000	69.142689
930.000000	69.199906
920.000000	69.263715
910.000000	69.528981
900.000000	69.737317
890.000000	69.768196
880.000000	69.965906
870.000000	70.183932
860.000000	70.131753
850.000000	69.105714
840.000000	69.592308
830.000000	69.422531
820.000000	69.439801
810.000000	69.389957
800.000000	69.432567
790.000000	69.441338
780.000000	69.247039
770.000000	69.096177
760.000000	69.210843
750.000000	69.242063
740.000000	69.204702
730.000000	69.073549
720.000000	69.145549
710.000000	69.268359
700.000000	69.033672
690.000000	68.946537
680.000000	68.814982
670.000000	68.845606
660.000000	68.704653
650.000000	68.574038
640.000000	68.463023
630.000000	68.273919
620.000000	68.180473
610.000000	67.993667
600.000000	67.792974
590.000000	67.630416
580.000000	67.310347
570.000000	67.108951
560.000000	66.839933
550.000000	66.481633
540.000000	66.169177
530.000000	65.801133
520.000000	65.426896
510.000000	64.881558
500.000000	64.414824
490.000000	63.917761
480.000000	63.574295
470.000000	62.640934
460.000000	61.800379
450.000000	60.576762
440.000000	59.028681
430.000000	57.088166
420.000000	54.827071
410.000000	52.731234
400.000000	50.498386
390.000000	48.066533
380.000000	45.594520
370.000000	42.911675
360.000000	40.210483
350.000000	37.559911
340.000000	34.645213
330.000000	32.545158
320.000000	29.594840
310.000000	28.212254
300.000000	22.930978
290.000000	18.091175
280.000000	15.756780
270.000000	15.365984
260.000000	15.421569
250.000000	15.553472
