PE UV       SUBTECH     SPECTRUM    ASCII       PEDS        4.00        
   -1
3C-XXX-F028.Sample.Raw.asc
23/09/06
15:19:05.00
23/09/06
15:19:05.00
Administrator

250.000000
1
Lambda 750
750N8071901
PerkinElmer UV WinLab 6.0.4.0738 / 1.61.00 Lambda 900

0
0
3350/servo 860.8/2
0
0
UV/VIS
1
1
1
CommonBeamDepol,150mm sphere / downward view
0
0
0
0
Program
Program
3350/servo 860.8/2
3350/0.2 860.8/0.2
3350/0.2 860.8/0.2
0
1
 
 
 
0
 
860.8
319.2
860.8
Front
100
on
 
 
0
0
0
 
0
 
 
 
0
 
 
0
0
0
0
0
 
 
 
 
0
0


0
0
#HDR
-1
-1
#GR
nm
%R
1.0
0.0
2500.000000
-10.000000
226
8
70.448740
14.301370
#DATA
2500.000000	14.766396
2490.000000	14.301370
2480.000000	15.145857
2470.000000	16.247038
2460.000000	16.418867
2450.000000	16.811319
2440.000000	17.379543
2430.000000	17.531678
2420.000000	18.934294
2410.000000	17.514279
2400.000000	18.014504
2390.000000	18.356228
2380.000000	19.050916
2370.000000	18.326095
2360.000000	18.530133
2350.000000	18.696165
2340.000000	18.546023
2330.000000	18.427852
2320.000000	18.349529
2310.000000	17.957178
2300.000000	17.338223
2290.000000	18.475714
2280.000000	18.024211
2270.000000	18.881627
2260.000000	20.420598
2250.000000	21.386177
2240.000000	21.501117
2230.000000	21.321422
2220.000000	20.940419
2210.000000	20.423464
2200.000000	20.012468
2190.000000	19.975177
2180.000000	20.574988
2170.000000	21.484497
2160.000000	21.910246
2150.000000	22.912639
2140.000000	23.424642
2130.000000	22.958991
2120.000000	23.337661
2110.000000	23.369961
2100.000000	22.959743
2090.000000	22.135276
2080.000000	21.364419
2070.000000	20.289187
2060.000000	19.671526
2050.000000	19.826877
2040.000000	20.374389
2030.000000	20.224768
2020.000000	19.751987
2010.000000	18.980637
2000.000000	18.244620
1990.000000	17.484721
1980.000000	16.844881
1970.000000	16.257433
1960.000000	16.165200
1950.000000	16.522127
1940.000000	17.465403
1930.000000	19.442928
1920.000000	22.196738
1910.000000	27.205067
1900.000000	31.997364
1890.000000	36.821551
1880.000000	40.028490
1870.000000	41.308257
1860.000000	41.687834
1850.000000	41.479389
1840.000000	40.928166
1830.000000	40.396765
1820.000000	39.836023
1810.000000	39.401578
1800.000000	39.002472
1790.000000	38.572730
1780.000000	38.071228
1770.000000	37.629675
1760.000000	37.158853
1750.000000	36.719478
1740.000000	37.176778
1730.000000	38.396542
1720.000000	39.269753
1710.000000	39.550882
1700.000000	40.581598
1690.000000	42.782590
1680.000000	44.865954
1670.000000	45.674983
1660.000000	45.728029
1650.000000	45.261793
1640.000000	44.447429
1630.000000	43.544169
1620.000000	42.475982
1610.000000	41.426792
1600.000000	40.525977
1590.000000	39.710264
1580.000000	39.002158
1570.000000	38.525419
1560.000000	37.863146
1550.000000	36.721882
1540.000000	35.611051
1530.000000	34.978579
1520.000000	34.523968
1510.000000	34.190515
1500.000000	34.057616
1490.000000	34.081363
1480.000000	34.287793
1470.000000	34.702015
1460.000000	35.524909
1450.000000	36.818072
1440.000000	38.766465
1430.000000	41.724952
1420.000000	45.619156
1410.000000	49.869207
1400.000000	53.475219
1390.000000	55.806410
1380.000000	57.137806
1370.000000	58.478724
1360.000000	59.766944
1350.000000	61.017612
1340.000000	61.998741
1330.000000	62.849425
1320.000000	63.459508
1310.000000	63.770873
1300.000000	63.770317
1290.000000	63.706291
1280.000000	63.747686
1270.000000	63.804019
1260.000000	63.754010
1250.000000	63.397570
1240.000000	63.026717
1230.000000	62.567194
1220.000000	61.815536
1210.000000	61.172326
1200.000000	60.940678
1190.000000	61.502248
1180.000000	62.753009
1170.000000	64.318807
1160.000000	65.732633
1150.000000	66.859326
1140.000000	67.633163
1130.000000	67.981142
1120.000000	68.126621
1110.000000	68.232283
1100.000000	68.260825
1090.000000	68.214673
1080.000000	68.098956
1070.000000	67.974255
1060.000000	67.801746
1050.000000	67.678252
1040.000000	67.578194
1030.000000	67.505040
1020.000000	67.542113
1010.000000	67.671179
1000.000000	67.820129
990.000000	68.004768
980.000000	68.258336
970.000000	68.625356
960.000000	68.924642
950.000000	69.077313
940.000000	69.196169
930.000000	69.216561
920.000000	69.326937
910.000000	69.556086
900.000000	69.770634
890.000000	69.846806
880.000000	70.044912
870.000000	70.242284
860.000000	70.448740
850.000000	69.618168
840.000000	69.853306
830.000000	69.579747
820.000000	69.702091
810.000000	69.619632
800.000000	69.645394
790.000000	69.670868
780.000000	69.556283
770.000000	69.448341
760.000000	69.635701
750.000000	69.671086
740.000000	69.593198
730.000000	69.394356
720.000000	69.417228
710.000000	69.480181
700.000000	69.393408
690.000000	69.273672
680.000000	69.108058
670.000000	69.103519
660.000000	69.112819
650.000000	68.879438
640.000000	68.727550
630.000000	68.503474
620.000000	68.323150
610.000000	68.165274
600.000000	67.917924
590.000000	67.808783
580.000000	67.568207
570.000000	67.244121
560.000000	66.928658
550.000000	66.599588
540.000000	66.223621
530.000000	65.893760
520.000000	65.382825
510.000000	64.855727
500.000000	64.288753
490.000000	63.750547
480.000000	63.313276
470.000000	62.240227
460.000000	61.265655
450.000000	59.941326
440.000000	58.090997
430.000000	55.974469
420.000000	53.405853
410.000000	51.037409
400.000000	48.642325
390.000000	46.009607
380.000000	43.296755
370.000000	40.453440
360.000000	37.496359
350.000000	34.940936
340.000000	32.090263
330.000000	29.912863
320.000000	27.293494
310.000000	25.673349
300.000000	21.804869
290.000000	17.377957
280.000000	15.266549
270.000000	15.007589
260.000000	15.084205
250.000000	15.112689
