PE UV       SUBTECH     SPECTRUM    ASCII       PEDS        4.00        
   -1
3C-XXX-C030.Sample.Raw.asc
23/09/06
09:10:57.00
23/09/06
09:10:57.00
Administrator

250.000000
1
Lambda 750
750N8071901
PerkinElmer UV WinLab 6.0.4.0738 / 1.61.00 Lambda 900

0
0
3350/servo 860.8/2
0
0
UV/VIS
1
1
1
CommonBeamDepol,150mm sphere / downward view
0
0
0
0
Program
Program
3350/servo 860.8/2
3350/0.2 860.8/0.2
3350/0.2 860.8/0.2
0
1
 
 
 
0
 
860.8
319.2
860.8
Front
100
on
 
 
0
0
0
 
0
 
 
 
0
 
 
0
0
0
0
0
 
 
 
 
0
0


0
0
#HDR
-1
-1
#GR
nm
%R
1.0
0.0
2500.000000
-10.000000
226
8
64.305201
15.271779
#DATA
2500.000000	15.271779
2490.000000	16.064626
2480.000000	15.637470
2470.000000	16.128140
2460.000000	16.908121
2450.000000	18.263246
2440.000000	17.730912
2430.000000	17.944171
2420.000000	18.421475
2410.000000	18.622969
2400.000000	18.382429
2390.000000	18.634691
2380.000000	19.001812
2370.000000	18.491768
2360.000000	19.142694
2350.000000	19.175396
2340.000000	19.511203
2330.000000	18.884029
2320.000000	18.604587
2310.000000	18.297768
2300.000000	17.742753
2290.000000	18.248878
2280.000000	18.595989
2270.000000	19.316806
2260.000000	20.432648
2250.000000	21.498806
2240.000000	21.947156
2230.000000	21.614504
2220.000000	20.891499
2210.000000	20.624842
2200.000000	20.218335
2190.000000	20.280561
2180.000000	20.887214
2170.000000	21.537701
2160.000000	22.291564
2150.000000	22.801423
2140.000000	23.240566
2130.000000	23.317769
2120.000000	23.389384
2110.000000	23.255916
2100.000000	23.015476
2090.000000	22.332399
2080.000000	21.319799
2070.000000	20.259190
2060.000000	19.702341
2050.000000	19.814929
2040.000000	20.159379
2030.000000	20.170925
2020.000000	19.651435
2010.000000	18.877396
2000.000000	18.164573
1990.000000	17.489697
1980.000000	16.737760
1970.000000	16.323038
1960.000000	16.187645
1950.000000	16.628232
1940.000000	17.496718
1930.000000	19.378673
1920.000000	22.469863
1910.000000	26.767475
1900.000000	31.174297
1890.000000	35.334032
1880.000000	37.984723
1870.000000	39.200397
1860.000000	39.453393
1850.000000	39.142073
1840.000000	38.809317
1830.000000	38.318317
1820.000000	37.853122
1810.000000	37.406985
1800.000000	37.068602
1790.000000	36.762460
1780.000000	36.318706
1770.000000	35.982809
1760.000000	35.544062
1750.000000	35.274954
1740.000000	35.632606
1730.000000	36.686930
1720.000000	37.428211
1710.000000	37.645520
1700.000000	38.572170
1690.000000	40.420183
1680.000000	42.091981
1670.000000	42.716766
1660.000000	42.797877
1650.000000	42.315144
1640.000000	41.608983
1630.000000	40.847983
1620.000000	39.912735
1610.000000	39.021800
1600.000000	38.265064
1590.000000	37.583883
1580.000000	36.941592
1570.000000	36.516475
1560.000000	35.907076
1550.000000	34.915632
1540.000000	33.982472
1530.000000	33.443641
1520.000000	33.013299
1510.000000	32.738072
1500.000000	32.579957
1490.000000	32.607890
1480.000000	32.766220
1470.000000	33.159078
1460.000000	33.904718
1450.000000	35.087712
1440.000000	36.851918
1430.000000	39.463294
1420.000000	42.871335
1410.000000	46.502533
1400.000000	49.565074
1390.000000	51.439318
1380.000000	52.580493
1370.000000	53.680840
1360.000000	54.770988
1350.000000	55.824826
1340.000000	56.667644
1330.000000	57.306470
1320.000000	57.760501
1310.000000	57.985707
1300.000000	57.973791
1290.000000	57.964131
1280.000000	57.989742
1270.000000	58.029087
1260.000000	57.955733
1250.000000	57.677629
1240.000000	57.395476
1230.000000	57.017997
1220.000000	56.402168
1210.000000	55.856596
1200.000000	55.688568
1190.000000	56.171771
1180.000000	57.247633
1170.000000	58.581810
1160.000000	59.712895
1150.000000	60.648133
1140.000000	61.280204
1130.000000	61.560644
1120.000000	61.708475
1110.000000	61.779653
1100.000000	61.805833
1090.000000	61.767096
1080.000000	61.667805
1070.000000	61.573969
1060.000000	61.494211
1050.000000	61.436927
1040.000000	61.399320
1030.000000	61.333649
1020.000000	61.386346
1010.000000	61.510718
1000.000000	61.618007
990.000000	61.825439
980.000000	62.090266
970.000000	62.352916
960.000000	62.659703
950.000000	62.863339
940.000000	62.966345
930.000000	63.055090
920.000000	63.144995
910.000000	63.313013
900.000000	63.574601
890.000000	63.844246
880.000000	64.001157
870.000000	64.240610
860.000000	64.305201
850.000000	63.069553
840.000000	63.446057
830.000000	63.373797
820.000000	63.243546
810.000000	63.131263
800.000000	63.348818
790.000000	63.124550
780.000000	63.195720
770.000000	63.297095
760.000000	63.314830
750.000000	63.365050
740.000000	63.534518
730.000000	63.375757
720.000000	63.418366
710.000000	63.432636
700.000000	63.536576
690.000000	63.623273
680.000000	63.481115
670.000000	63.345563
660.000000	63.374259
650.000000	63.312957
640.000000	63.223100
630.000000	63.260522
620.000000	63.205849
610.000000	63.103409
600.000000	62.983665
590.000000	62.940542
580.000000	62.774285
570.000000	62.723788
560.000000	62.594524
550.000000	62.443914
540.000000	62.253021
530.000000	62.051739
520.000000	61.893439
510.000000	61.557846
500.000000	61.342376
490.000000	61.000468
480.000000	60.778979
470.000000	60.122549
460.000000	59.444195
450.000000	58.607445
440.000000	57.393178
430.000000	55.736520
420.000000	53.905011
410.000000	52.022897
400.000000	50.324393
390.000000	48.355675
380.000000	46.370014
370.000000	44.122755
360.000000	41.632843
350.000000	39.370614
340.000000	37.032968
330.000000	34.716503
320.000000	33.382908
310.000000	32.467257
300.000000	27.936508
290.000000	22.996661
280.000000	21.075831
270.000000	21.521881
260.000000	22.465897
250.000000	23.706091
