PE UV       SUBTECH     SPECTRUM    ASCII       PEDS        4.00        
   -1
3C-XXX-F011.Sample.Raw.asc
23/09/06
14:21:50.00
23/09/06
14:21:50.00
Administrator

250.000000
1
Lambda 750
750N8071901
PerkinElmer UV WinLab 6.0.4.0738 / 1.61.00 Lambda 900

0
0
3350/servo 860.8/2
0
0
UV/VIS
1
1
1
CommonBeamDepol,150mm sphere / downward view
0
0
0
0
Program
Program
3350/servo 860.8/2
3350/0.2 860.8/0.2
3350/0.2 860.8/0.2
0
1
 
 
 
0
 
860.8
319.2
860.8
Front
100
on
 
 
0
0
0
 
0
 
 
 
0
 
 
0
0
0
0
0
 
 
 
 
0
0


0
0
#HDR
-1
-1
#GR
nm
%R
1.0
0.0
2500.000000
-10.000000
226
8
66.615711
13.682984
#DATA
2500.000000	13.682984
2490.000000	14.723178
2480.000000	14.548186
2470.000000	14.846899
2460.000000	15.206671
2450.000000	16.308297
2440.000000	17.086158
2430.000000	16.937517
2420.000000	18.004283
2410.000000	17.423300
2400.000000	17.013849
2390.000000	17.575883
2380.000000	17.384226
2370.000000	17.557509
2360.000000	17.411194
2350.000000	17.962441
2340.000000	17.990349
2330.000000	17.560143
2320.000000	17.110030
2310.000000	17.069371
2300.000000	16.256397
2290.000000	17.082143
2280.000000	17.290143
2270.000000	18.061515
2260.000000	19.327665
2250.000000	20.295530
2240.000000	20.201994
2230.000000	20.031654
2220.000000	19.592690
2210.000000	19.354826
2200.000000	18.509586
2190.000000	19.046555
2180.000000	19.382159
2170.000000	20.465612
2160.000000	20.826195
2150.000000	21.814134
2140.000000	22.000540
2130.000000	21.851120
2120.000000	22.066689
2110.000000	22.054533
2100.000000	21.807806
2090.000000	21.167250
2080.000000	20.334262
2070.000000	19.177860
2060.000000	18.552221
2050.000000	18.845440
2040.000000	19.288138
2030.000000	19.173526
2020.000000	18.672225
2010.000000	18.004594
2000.000000	17.276631
1990.000000	16.614568
1980.000000	16.140901
1970.000000	15.627733
1960.000000	15.250646
1950.000000	15.765829
1940.000000	16.580814
1930.000000	18.590360
1920.000000	21.132569
1910.000000	25.662135
1900.000000	30.228308
1890.000000	34.595534
1880.000000	37.517933
1870.000000	38.857073
1860.000000	39.156947
1850.000000	38.857631
1840.000000	38.386049
1830.000000	37.924048
1820.000000	37.416098
1810.000000	36.995255
1800.000000	36.622507
1790.000000	36.220824
1780.000000	35.759664
1770.000000	35.328685
1760.000000	34.891842
1750.000000	34.500921
1740.000000	34.902285
1730.000000	36.103631
1720.000000	36.879037
1710.000000	37.143851
1700.000000	38.131951
1690.000000	40.178906
1680.000000	42.152329
1670.000000	42.845767
1660.000000	42.926898
1650.000000	42.468908
1640.000000	41.706794
1630.000000	40.855820
1620.000000	39.847792
1610.000000	38.873899
1600.000000	38.019023
1590.000000	37.268302
1580.000000	36.596966
1570.000000	36.118042
1560.000000	35.515720
1550.000000	34.411815
1540.000000	33.403313
1530.000000	32.808523
1520.000000	32.377442
1510.000000	32.093198
1500.000000	31.933107
1490.000000	31.951126
1480.000000	32.134261
1470.000000	32.527184
1460.000000	33.325453
1450.000000	34.522114
1440.000000	36.379574
1430.000000	39.171832
1420.000000	42.857057
1410.000000	46.882319
1400.000000	50.292354
1390.000000	52.506337
1380.000000	53.809017
1370.000000	55.004899
1360.000000	56.272405
1350.000000	57.489832
1340.000000	58.422188
1330.000000	59.288193
1320.000000	59.908895
1310.000000	60.231305
1300.000000	60.247320
1290.000000	60.154868
1280.000000	60.181292
1270.000000	60.234647
1260.000000	60.183990
1250.000000	59.836625
1240.000000	59.465302
1230.000000	59.007111
1220.000000	58.310230
1210.000000	57.727219
1200.000000	57.513298
1190.000000	58.059601
1180.000000	59.230269
1170.000000	60.768117
1160.000000	62.105993
1150.000000	63.174063
1140.000000	63.890290
1130.000000	64.232764
1120.000000	64.368666
1110.000000	64.481010
1100.000000	64.500101
1090.000000	64.437560
1080.000000	64.314398
1070.000000	64.176603
1060.000000	64.025836
1050.000000	63.915312
1040.000000	63.835021
1030.000000	63.763578
1020.000000	63.794762
1010.000000	63.925203
1000.000000	64.078814
990.000000	64.267694
980.000000	64.544410
970.000000	64.875884
960.000000	65.135858
950.000000	65.333890
940.000000	65.404944
930.000000	65.521901
920.000000	65.553869
910.000000	65.864578
900.000000	65.974735
890.000000	66.129786
880.000000	66.323877
870.000000	66.499520
860.000000	66.615711
850.000000	65.420548
840.000000	65.796054
830.000000	65.460610
820.000000	65.583549
810.000000	65.484433
800.000000	65.543237
790.000000	65.556120
780.000000	65.303334
770.000000	65.294154
760.000000	65.219960
750.000000	65.446529
740.000000	65.336614
730.000000	65.220789
720.000000	65.302914
710.000000	65.346105
700.000000	65.096359
690.000000	65.042741
680.000000	64.859772
670.000000	64.836958
660.000000	64.825100
650.000000	64.591344
640.000000	64.503132
630.000000	64.321579
620.000000	64.209023
610.000000	63.950389
600.000000	63.807942
590.000000	63.598990
580.000000	63.381099
570.000000	63.147223
560.000000	62.861123
550.000000	62.467272
540.000000	62.138283
530.000000	61.806194
520.000000	61.391172
510.000000	60.921250
500.000000	60.417591
490.000000	59.875091
480.000000	59.454398
470.000000	58.601865
460.000000	57.669032
450.000000	56.441685
440.000000	54.864070
430.000000	52.922098
420.000000	50.561901
410.000000	48.393316
400.000000	46.166404
390.000000	43.719969
380.000000	41.224704
370.000000	38.455422
360.000000	35.557529
350.000000	32.842453
340.000000	29.959343
330.000000	27.715971
320.000000	25.592384
310.000000	24.385671
300.000000	20.686208
290.000000	16.512743
280.000000	14.444528
270.000000	14.202723
260.000000	14.372954
250.000000	14.298825
