PE UV       SUBTECH     SPECTRUM    ASCII       PEDS        4.00        
   -1
3C-XXX-F05.Sample.Raw.asc
23/09/06
14:03:36.00
23/09/06
14:03:36.00
Administrator

250.000000
1
Lambda 750
750N8071901
PerkinElmer UV WinLab 6.0.4.0738 / 1.61.00 Lambda 900

0
0
3350/servo 860.8/2
0
0
UV/VIS
1
1
1
CommonBeamDepol,150mm sphere / downward view
0
0
0
0
Program
Program
3350/servo 860.8/2
3350/0.2 860.8/0.2
3350/0.2 860.8/0.2
0
1
 
 
 
0
 
860.8
319.2
860.8
Front
100
on
 
 
0
0
0
 
0
 
 
 
0
 
 
0
0
0
0
0
 
 
 
 
0
0


0
0
#HDR
-1
-1
#GR
nm
%R
1.0
0.0
2500.000000
-10.000000
226
8
65.914405
14.777291
#DATA
2500.000000	15.692719
2490.000000	15.989687
2480.000000	16.700847
2470.000000	17.103227
2460.000000	17.893959
2450.000000	18.324976
2440.000000	18.949345
2430.000000	18.300958
2420.000000	19.899385
2410.000000	19.361001
2400.000000	19.672760
2390.000000	19.490932
2380.000000	19.738869
2370.000000	19.792369
2360.000000	19.451294
2350.000000	19.842030
2340.000000	19.488938
2330.000000	19.741396
2320.000000	19.622942
2310.000000	19.052979
2300.000000	18.317110
2290.000000	19.185926
2280.000000	19.253702
2270.000000	20.245202
2260.000000	21.735545
2250.000000	22.301695
2240.000000	22.471356
2230.000000	22.231156
2220.000000	21.796871
2210.000000	21.368425
2200.000000	20.879400
2190.000000	21.205490
2180.000000	21.638915
2170.000000	22.506110
2160.000000	23.072828
2150.000000	23.794574
2140.000000	24.078223
2130.000000	24.255679
2120.000000	24.348853
2110.000000	24.132545
2100.000000	23.872959
2090.000000	23.336143
2080.000000	22.442345
2070.000000	21.414835
2060.000000	20.843896
2050.000000	20.974475
2040.000000	21.491774
2030.000000	21.355463
2020.000000	20.880042
2010.000000	20.135582
2000.000000	19.391974
1990.000000	18.503651
1980.000000	17.914068
1970.000000	17.350611
1960.000000	17.103277
1950.000000	17.567098
1940.000000	18.475020
1930.000000	20.512559
1920.000000	23.464521
1910.000000	27.958045
1900.000000	32.383234
1890.000000	36.516659
1880.000000	39.486820
1870.000000	40.676125
1860.000000	40.895381
1850.000000	40.699947
1840.000000	40.209851
1830.000000	39.773332
1820.000000	39.287320
1810.000000	38.870404
1800.000000	38.480875
1790.000000	38.102268
1780.000000	37.701139
1770.000000	37.314156
1760.000000	36.862685
1750.000000	36.504263
1740.000000	36.907899
1730.000000	38.045336
1720.000000	38.828905
1710.000000	39.088602
1700.000000	39.989282
1690.000000	41.895232
1680.000000	43.678806
1670.000000	44.348028
1660.000000	44.432169
1650.000000	44.025084
1640.000000	43.354387
1630.000000	42.518710
1620.000000	41.578104
1610.000000	40.668963
1600.000000	39.880743
1590.000000	39.163085
1580.000000	38.550496
1570.000000	38.120703
1560.000000	37.545692
1550.000000	36.548468
1540.000000	35.586862
1530.000000	34.988149
1520.000000	34.582276
1510.000000	34.290517
1500.000000	34.159028
1490.000000	34.187557
1480.000000	34.399265
1470.000000	34.790236
1460.000000	35.509214
1450.000000	36.665256
1440.000000	38.381249
1430.000000	41.004421
1420.000000	44.427407
1410.000000	48.091271
1400.000000	51.214514
1390.000000	53.209392
1380.000000	54.348691
1370.000000	55.536036
1360.000000	56.609539
1350.000000	57.676542
1340.000000	58.528495
1330.000000	59.309372
1320.000000	59.828020
1310.000000	60.103260
1300.000000	60.106360
1290.000000	60.040823
1280.000000	60.058195
1270.000000	60.099570
1260.000000	60.034885
1250.000000	59.778656
1240.000000	59.468207
1230.000000	59.055689
1220.000000	58.443769
1210.000000	57.888427
1200.000000	57.720849
1190.000000	58.234634
1180.000000	59.257545
1170.000000	60.558604
1160.000000	61.748587
1150.000000	62.673976
1140.000000	63.316079
1130.000000	63.624659
1120.000000	63.710362
1110.000000	63.808790
1100.000000	63.832451
1090.000000	63.796123
1080.000000	63.713951
1070.000000	63.561523
1060.000000	63.470564
1050.000000	63.381375
1040.000000	63.285377
1030.000000	63.207882
1020.000000	63.234839
1010.000000	63.348802
1000.000000	63.503145
990.000000	63.675774
980.000000	63.914042
970.000000	64.182048
960.000000	64.465251
950.000000	64.635084
940.000000	64.673260
930.000000	64.760009
920.000000	64.855987
910.000000	65.076104
900.000000	65.206118
890.000000	65.444049
880.000000	65.506866
870.000000	65.800396
860.000000	65.914405
850.000000	64.705940
840.000000	64.993830
830.000000	65.089383
820.000000	64.883902
810.000000	64.975742
800.000000	64.991277
790.000000	65.076547
780.000000	64.939595
770.000000	64.725834
760.000000	64.804577
750.000000	64.934293
740.000000	64.861775
730.000000	64.704079
720.000000	64.875834
710.000000	64.908164
700.000000	64.686678
690.000000	64.535508
680.000000	64.413440
670.000000	64.423234
660.000000	64.311657
650.000000	64.153641
640.000000	64.108965
630.000000	63.941842
620.000000	63.774910
610.000000	63.583649
600.000000	63.449425
590.000000	63.300236
580.000000	63.090902
570.000000	62.882610
560.000000	62.606487
550.000000	62.265761
540.000000	61.977990
530.000000	61.749476
520.000000	61.290423
510.000000	60.888158
500.000000	60.433876
490.000000	60.002006
480.000000	59.638480
470.000000	58.817812
460.000000	58.048788
450.000000	57.034114
440.000000	55.607194
430.000000	53.935129
420.000000	51.844170
410.000000	49.913834
400.000000	48.030821
390.000000	45.816552
380.000000	43.506082
370.000000	40.964735
360.000000	38.308299
350.000000	35.341314
340.000000	32.694773
330.000000	30.623969
320.000000	28.238322
310.000000	26.702953
300.000000	23.054665
290.000000	17.801461
280.000000	15.288033
270.000000	14.777291
260.000000	14.777300
250.000000	14.803317
