PE UV       SUBTECH     SPECTRUM    ASCII       PEDS        4.00        
   -1
3C-XXX-F033.Sample.Raw.asc
23/09/06
15:34:54.00
23/09/06
15:34:54.00
Administrator

250.000000
1
Lambda 750
750N8071901
PerkinElmer UV WinLab 6.0.4.0738 / 1.61.00 Lambda 900

0
0
3350/servo 860.8/2
0
0
UV/VIS
1
1
1
CommonBeamDepol,150mm sphere / downward view
0
0
0
0
Program
Program
3350/servo 860.8/2
3350/0.2 860.8/0.2
3350/0.2 860.8/0.2
0
1
 
 
 
0
 
860.8
319.2
860.8
Front
100
on
 
 
0
0
0
 
0
 
 
 
0
 
 
0
0
0
0
0
 
 
 
 
0
0


0
0
#HDR
-1
-1
#GR
nm
%R
1.0
0.0
2500.000000
-10.000000
226
8
71.878065
14.368986
#DATA
2500.000000	18.997439
2490.000000	19.968680
2480.000000	20.707684
2470.000000	21.522779
2460.000000	21.945824
2450.000000	23.266071
2440.000000	23.336495
2430.000000	23.938710
2420.000000	24.990470
2410.000000	24.103566
2400.000000	24.251297
2390.000000	24.614222
2380.000000	24.017477
2370.000000	24.925447
2360.000000	24.600503
2350.000000	24.639810
2340.000000	25.029589
2330.000000	24.554997
2320.000000	24.202729
2310.000000	23.748782
2300.000000	22.926762
2290.000000	23.586920
2280.000000	24.292048
2270.000000	24.959375
2260.000000	26.858918
2250.000000	27.818120
2240.000000	28.153122
2230.000000	27.551436
2220.000000	27.052791
2210.000000	26.450957
2200.000000	26.017836
2190.000000	26.175761
2180.000000	26.732033
2170.000000	27.684299
2160.000000	28.803364
2150.000000	29.676095
2140.000000	29.909373
2130.000000	30.003100
2120.000000	29.968598
2110.000000	29.937603
2100.000000	29.736367
2090.000000	28.989001
2080.000000	27.833284
2070.000000	26.699791
2060.000000	25.936359
2050.000000	26.006659
2040.000000	26.792048
2030.000000	26.726418
2020.000000	26.003418
2010.000000	25.136040
2000.000000	24.116042
1990.000000	23.153889
1980.000000	22.401967
1970.000000	21.647694
1960.000000	21.360110
1950.000000	21.922992
1940.000000	22.999928
1930.000000	25.375863
1920.000000	28.848351
1910.000000	33.960292
1900.000000	38.807411
1890.000000	43.252066
1880.000000	46.247772
1870.000000	47.418064
1860.000000	47.621937
1850.000000	47.525294
1840.000000	46.966198
1830.000000	46.530343
1820.000000	46.013481
1810.000000	45.568962
1800.000000	45.252157
1790.000000	44.907214
1780.000000	44.476429
1770.000000	44.016627
1760.000000	43.572721
1750.000000	43.146473
1740.000000	43.562685
1730.000000	44.708830
1720.000000	45.505366
1710.000000	45.794747
1700.000000	46.665925
1690.000000	48.584056
1680.000000	50.452574
1670.000000	51.143979
1660.000000	51.216976
1650.000000	50.809944
1640.000000	50.155731
1630.000000	49.344207
1620.000000	48.415654
1610.000000	47.473585
1600.000000	46.676537
1590.000000	45.990058
1580.000000	45.328562
1570.000000	44.936504
1560.000000	44.330916
1550.000000	43.288912
1540.000000	42.294133
1530.000000	41.673088
1520.000000	41.246425
1510.000000	40.933732
1500.000000	40.819672
1490.000000	40.890300
1480.000000	41.110721
1470.000000	41.518464
1460.000000	42.256279
1450.000000	43.432486
1440.000000	45.199228
1430.000000	47.817600
1420.000000	51.209959
1410.000000	54.818793
1400.000000	57.831622
1390.000000	59.791463
1380.000000	60.869147
1370.000000	61.956063
1360.000000	62.989711
1350.000000	64.019565
1340.000000	64.840940
1330.000000	65.543825
1320.000000	66.041817
1310.000000	66.281058
1300.000000	66.269715
1290.000000	66.199873
1280.000000	66.225285
1270.000000	66.275755
1260.000000	66.241567
1250.000000	65.945507
1240.000000	65.644011
1230.000000	65.291358
1220.000000	64.698789
1210.000000	64.181007
1200.000000	63.998513
1190.000000	64.457937
1180.000000	65.441054
1170.000000	66.709312
1160.000000	67.837911
1150.000000	68.734155
1140.000000	69.350248
1130.000000	69.640194
1120.000000	69.747755
1110.000000	69.841976
1100.000000	69.881950
1090.000000	69.813439
1080.000000	69.746232
1070.000000	69.624275
1060.000000	69.534415
1050.000000	69.453715
1040.000000	69.369750
1030.000000	69.330744
1020.000000	69.356816
1010.000000	69.466633
1000.000000	69.577276
990.000000	69.786304
980.000000	69.973312
970.000000	70.270345
960.000000	70.549102
950.000000	70.694165
940.000000	70.780035
930.000000	70.829734
920.000000	70.895485
910.000000	71.104153
900.000000	71.298561
890.000000	71.432262
880.000000	71.560978
870.000000	71.801754
860.000000	71.878065
850.000000	70.416802
840.000000	70.937875
830.000000	70.946326
820.000000	70.842337
810.000000	70.724108
800.000000	70.875090
790.000000	70.962197
780.000000	70.716259
770.000000	70.728106
760.000000	70.705759
750.000000	70.848852
740.000000	70.860186
730.000000	70.655244
720.000000	70.787426
710.000000	70.768414
700.000000	70.652528
690.000000	70.559564
680.000000	70.380981
670.000000	70.391800
660.000000	70.417446
650.000000	70.270643
640.000000	70.179823
630.000000	69.988444
620.000000	69.822364
610.000000	69.668402
600.000000	69.541449
590.000000	69.318156
580.000000	69.196208
570.000000	68.976944
560.000000	68.742966
550.000000	68.349831
540.000000	68.051139
530.000000	67.817018
520.000000	67.377639
510.000000	66.927574
500.000000	66.454840
490.000000	66.010029
480.000000	65.697399
470.000000	64.739027
460.000000	63.946167
450.000000	62.784300
440.000000	61.357269
430.000000	59.550448
420.000000	57.377974
410.000000	55.378251
400.000000	53.238541
390.000000	51.016305
380.000000	48.636702
370.000000	45.966251
360.000000	43.115856
350.000000	40.240277
340.000000	37.237449
330.000000	34.292778
320.000000	31.548641
310.000000	29.541381
300.000000	25.188378
290.000000	18.113949
280.000000	14.972920
270.000000	14.527190
260.000000	14.477277
250.000000	14.368986
