PE UV       SUBTECH     SPECTRUM    ASCII       PEDS        4.00        
   -1
3C-XXX-C012.Sample.Raw.asc
23/09/05
15:38:26.00
23/09/05
15:38:26.00
Administrator

250.000000
1
Lambda 750
750N8071901
PerkinElmer UV WinLab 6.0.4.0738 / 1.61.00 Lambda 900

0
0
3350/servo 860.8/2
0
0
UV/VIS
1
1
1
CommonBeamDepol,150mm sphere / downward view
0
0
0
0
Program
Program
3350/servo 860.8/2
3350/0.2 860.8/0.2
3350/0.2 860.8/0.2
0
1
 
 
 
0
 
860.8
319.2
860.8
Front
100
on
 
 
0
0
0
 
0
 
 
 
0
 
 
0
0
0
0
0
 
 
 
 
0
0


0
0
#HDR
-1
-1
#GR
nm
%R
1.0
0.0
2500.000000
-10.000000
226
8
67.167488
15.181743
#DATA
2500.000000	15.181743
2490.000000	15.918549
2480.000000	15.666020
2470.000000	16.450966
2460.000000	16.209269
2450.000000	17.410640
2440.000000	17.706938
2430.000000	18.620486
2420.000000	18.163785
2410.000000	18.743662
2400.000000	19.045289
2390.000000	18.590951
2380.000000	18.930065
2370.000000	18.637503
2360.000000	19.509826
2350.000000	19.033009
2340.000000	18.945923
2330.000000	19.144935
2320.000000	18.268996
2310.000000	18.341268
2300.000000	17.970329
2290.000000	18.280941
2280.000000	18.718811
2270.000000	19.896246
2260.000000	21.100542
2250.000000	21.490768
2240.000000	22.001615
2230.000000	21.729468
2220.000000	20.904657
2210.000000	20.767994
2200.000000	20.141543
2190.000000	19.998811
2180.000000	20.891334
2170.000000	21.542734
2160.000000	22.407094
2150.000000	23.051476
2140.000000	23.450405
2130.000000	23.542386
2120.000000	23.519454
2110.000000	23.373157
2100.000000	22.934250
2090.000000	22.429538
2080.000000	21.249315
2070.000000	20.264014
2060.000000	19.584993
2050.000000	19.862529
2040.000000	20.349151
2030.000000	20.150860
2020.000000	19.620478
2010.000000	18.906499
2000.000000	18.071081
1990.000000	17.366088
1980.000000	16.661904
1970.000000	16.140517
1960.000000	15.990432
1950.000000	16.334448
1940.000000	17.424590
1930.000000	19.317999
1920.000000	22.537084
1910.000000	27.018609
1900.000000	31.727235
1890.000000	36.195193
1880.000000	39.029274
1870.000000	40.320422
1860.000000	40.522322
1850.000000	40.323786
1840.000000	39.839747
1830.000000	39.414018
1820.000000	38.846874
1810.000000	38.447085
1800.000000	38.072644
1790.000000	37.696214
1780.000000	37.266424
1770.000000	36.910521
1760.000000	36.447771
1750.000000	36.094455
1740.000000	36.486597
1730.000000	37.677476
1720.000000	38.418705
1710.000000	38.662722
1700.000000	39.601846
1690.000000	41.588169
1680.000000	43.407438
1670.000000	44.079903
1660.000000	44.125169
1650.000000	43.700893
1640.000000	42.975808
1630.000000	42.099740
1620.000000	41.169280
1610.000000	40.133840
1600.000000	39.359855
1590.000000	38.609022
1580.000000	37.929733
1570.000000	37.491550
1560.000000	36.859850
1550.000000	35.754979
1540.000000	34.791493
1530.000000	34.197698
1520.000000	33.769865
1510.000000	33.437212
1500.000000	33.273738
1490.000000	33.294147
1480.000000	33.419188
1470.000000	33.892283
1460.000000	34.647323
1450.000000	35.907195
1440.000000	37.783553
1430.000000	40.537423
1420.000000	44.187794
1410.000000	48.085609
1400.000000	51.368741
1390.000000	53.400410
1380.000000	54.604888
1370.000000	55.770323
1360.000000	56.945729
1350.000000	58.073014
1340.000000	58.983973
1330.000000	59.713635
1320.000000	60.275397
1310.000000	60.561030
1300.000000	60.536778
1290.000000	60.490609
1280.000000	60.557724
1270.000000	60.589524
1260.000000	60.550519
1250.000000	60.262668
1240.000000	59.966856
1230.000000	59.557043
1220.000000	58.911329
1210.000000	58.327651
1200.000000	58.153091
1190.000000	58.657113
1180.000000	59.791603
1170.000000	61.211739
1160.000000	62.449861
1150.000000	63.433725
1140.000000	64.125845
1130.000000	64.380033
1120.000000	64.513472
1110.000000	64.623230
1100.000000	64.665879
1090.000000	64.608050
1080.000000	64.533434
1070.000000	64.391725
1060.000000	64.315175
1050.000000	64.242344
1040.000000	64.206318
1030.000000	64.137800
1020.000000	64.182996
1010.000000	64.321389
1000.000000	64.476084
990.000000	64.652464
980.000000	64.904884
970.000000	65.258187
960.000000	65.552460
950.000000	65.741391
940.000000	65.846728
930.000000	66.007987
920.000000	66.131977
910.000000	66.298576
900.000000	66.697177
890.000000	66.797313
880.000000	66.893168
870.000000	67.167488
860.000000	67.141535
850.000000	65.953668
840.000000	66.469538
830.000000	66.438071
820.000000	66.463199
810.000000	66.471798
800.000000	66.400288
790.000000	66.612943
780.000000	66.510619
770.000000	66.725848
760.000000	66.587815
750.000000	66.710178
740.000000	66.694887
730.000000	66.743617
720.000000	66.721309
710.000000	66.866704
700.000000	66.891814
690.000000	66.888153
680.000000	66.779348
670.000000	66.730286
660.000000	66.882255
650.000000	66.841433
640.000000	66.811807
630.000000	66.703655
620.000000	66.654354
610.000000	66.600203
600.000000	66.577231
590.000000	66.530044
580.000000	66.325988
570.000000	66.318410
560.000000	66.162393
550.000000	66.043963
540.000000	65.932517
530.000000	65.722621
520.000000	65.485851
510.000000	65.288279
500.000000	65.019441
490.000000	64.708990
480.000000	64.400259
470.000000	63.924244
460.000000	63.083330
450.000000	62.224438
440.000000	61.042963
430.000000	59.149509
420.000000	57.242584
410.000000	55.377985
400.000000	53.404104
390.000000	51.419338
380.000000	49.272570
370.000000	47.261167
360.000000	44.731071
350.000000	41.921787
340.000000	38.929630
330.000000	37.362527
320.000000	36.131272
310.000000	34.767885
300.000000	30.712596
290.000000	25.482612
280.000000	22.863230
270.000000	23.874754
260.000000	24.605386
250.000000	26.039356
