PE UV       SUBTECH     SPECTRUM    ASCII       PEDS        4.00        
   -1
3C-XXX-C063.Sample.Raw.asc
23/09/06
11:04:22.00
23/09/06
11:04:22.00
Administrator

250.000000
1
Lambda 750
750N8071901
PerkinElmer UV WinLab 6.0.4.0738 / 1.61.00 Lambda 900

0
0
3350/servo 860.8/2
0
0
UV/VIS
1
1
1
CommonBeamDepol,150mm sphere / downward view
0
0
0
0
Program
Program
3350/servo 860.8/2
3350/0.2 860.8/0.2
3350/0.2 860.8/0.2
0
1
 
 
 
0
 
860.8
319.2
860.8
Front
100
on
 
 
0
0
0
 
0
 
 
 
0
 
 
0
0
0
0
0
 
 
 
 
0
0


0
0
#HDR
-1
-1
#GR
nm
%R
1.0
0.0
2500.000000
-10.000000
226
8
71.256294
21.241894
#DATA
2500.000000	21.518392
2490.000000	21.988199
2480.000000	21.241894
2470.000000	22.790531
2460.000000	23.276626
2450.000000	24.158112
2440.000000	24.953596
2430.000000	24.861295
2420.000000	25.665261
2410.000000	25.725615
2400.000000	25.313127
2390.000000	25.706320
2380.000000	25.833160
2370.000000	25.842512
2360.000000	26.292376
2350.000000	26.338253
2340.000000	26.561415
2330.000000	25.597706
2320.000000	25.794992
2310.000000	25.164434
2300.000000	25.047069
2290.000000	25.251591
2280.000000	25.444385
2270.000000	26.283105
2260.000000	28.199267
2250.000000	28.626322
2240.000000	29.293805
2230.000000	28.763816
2220.000000	28.238683
2210.000000	27.634040
2200.000000	27.193824
2190.000000	27.572511
2180.000000	28.264328
2170.000000	29.120484
2160.000000	30.086839
2150.000000	30.651522
2140.000000	30.986440
2130.000000	31.161891
2120.000000	31.203994
2110.000000	31.299767
2100.000000	30.956512
2090.000000	30.010596
2080.000000	28.876809
2070.000000	27.746262
2060.000000	27.167841
2050.000000	27.356018
2040.000000	27.770978
2030.000000	27.743086
2020.000000	27.063452
2010.000000	26.120108
2000.000000	25.176526
1990.000000	24.321842
1980.000000	23.541226
1970.000000	22.888218
1960.000000	22.588857
1950.000000	23.074241
1940.000000	24.471308
1930.000000	26.573461
1920.000000	30.203705
1910.000000	34.841092
1900.000000	39.145614
1890.000000	43.269314
1880.000000	46.203599
1870.000000	47.242087
1860.000000	47.486300
1850.000000	47.290576
1840.000000	46.962737
1830.000000	46.471077
1820.000000	46.013671
1810.000000	45.583506
1800.000000	45.235014
1790.000000	44.953782
1780.000000	44.567299
1770.000000	44.157161
1760.000000	43.795962
1750.000000	43.559807
1740.000000	43.850940
1730.000000	44.923840
1720.000000	45.664370
1710.000000	45.863763
1700.000000	46.726868
1690.000000	48.477623
1680.000000	50.098897
1670.000000	50.744140
1660.000000	50.834072
1650.000000	50.403789
1640.000000	49.772973
1630.000000	49.031810
1620.000000	48.155936
1610.000000	47.300647
1600.000000	46.533879
1590.000000	45.892244
1580.000000	45.296555
1570.000000	44.916363
1560.000000	44.370870
1550.000000	43.391243
1540.000000	42.467651
1530.000000	41.903111
1520.000000	41.497490
1510.000000	41.188412
1500.000000	41.066613
1490.000000	41.153295
1480.000000	41.327428
1470.000000	41.714608
1460.000000	42.425214
1450.000000	43.564674
1440.000000	45.241666
1430.000000	47.717403
1420.000000	50.959999
1410.000000	54.381052
1400.000000	57.228278
1390.000000	58.998736
1380.000000	60.031219
1370.000000	61.050647
1360.000000	62.019599
1350.000000	62.962082
1340.000000	63.735107
1330.000000	64.398262
1320.000000	64.892888
1310.000000	65.162615
1300.000000	65.186822
1290.000000	65.189451
1280.000000	65.175565
1270.000000	65.213882
1260.000000	65.181638
1250.000000	64.961146
1240.000000	64.718747
1230.000000	64.400997
1220.000000	63.846432
1210.000000	63.376914
1200.000000	63.227903
1190.000000	63.672348
1180.000000	64.646603
1170.000000	65.841489
1160.000000	66.822017
1150.000000	67.631374
1140.000000	68.226166
1130.000000	68.462924
1120.000000	68.617695
1110.000000	68.686614
1100.000000	68.743877
1090.000000	68.708576
1080.000000	68.634649
1070.000000	68.521414
1060.000000	68.435781
1050.000000	68.386106
1040.000000	68.343347
1030.000000	68.290029
1020.000000	68.332949
1010.000000	68.496961
1000.000000	68.582303
990.000000	68.757381
980.000000	69.027544
970.000000	69.319510
960.000000	69.621795
950.000000	69.770134
940.000000	69.866706
930.000000	69.994542
920.000000	70.173004
910.000000	70.247702
900.000000	70.617112
890.000000	70.683543
880.000000	70.913970
870.000000	71.256294
860.000000	71.075348
850.000000	70.612891
840.000000	70.510745
830.000000	70.525306
820.000000	70.331835
810.000000	70.452962
800.000000	70.635384
790.000000	70.571972
780.000000	70.509146
770.000000	70.725128
760.000000	70.795937
750.000000	70.695050
740.000000	70.902977
730.000000	70.868077
720.000000	70.963667
710.000000	70.875505
700.000000	71.060844
690.000000	71.111122
680.000000	70.922548
670.000000	70.992215
660.000000	70.931431
650.000000	70.913695
640.000000	70.824865
630.000000	70.906323
620.000000	70.934169
610.000000	70.735404
600.000000	70.707049
590.000000	70.713893
580.000000	70.574779
570.000000	70.617315
560.000000	70.476904
550.000000	70.381872
540.000000	70.307741
530.000000	70.161908
520.000000	69.975344
510.000000	69.706591
500.000000	69.655796
490.000000	69.394138
480.000000	69.180477
470.000000	68.658097
460.000000	67.975513
450.000000	67.364082
440.000000	66.146358
430.000000	64.753192
420.000000	63.089745
410.000000	61.498851
400.000000	60.115201
390.000000	58.502890
380.000000	56.959391
370.000000	54.851455
360.000000	52.476683
350.000000	50.042711
340.000000	47.944825
330.000000	45.779436
320.000000	44.781210
310.000000	42.799077
300.000000	37.247242
290.000000	29.987320
280.000000	25.908055
270.000000	26.110488
260.000000	26.985918
250.000000	28.038572
