PE UV       SUBTECH     SPECTRUM    ASCII       PEDS        4.00        
   -1
3C-XXX-F034.Sample.Raw.asc
23/09/06
15:37:33.00
23/09/06
15:37:33.00
Administrator

250.000000
1
Lambda 750
750N8071901
PerkinElmer UV WinLab 6.0.4.0738 / 1.61.00 Lambda 900

0
0
3350/servo 860.8/2
0
0
UV/VIS
1
1
1
CommonBeamDepol,150mm sphere / downward view
0
0
0
0
Program
Program
3350/servo 860.8/2
3350/0.2 860.8/0.2
3350/0.2 860.8/0.2
0
1
 
 
 
0
 
860.8
319.2
860.8
Front
100
on
 
 
0
0
0
 
0
 
 
 
0
 
 
0
0
0
0
0
 
 
 
 
0
0


0
0
#HDR
-1
-1
#GR
nm
%R
1.0
0.0
2500.000000
-10.000000
226
8
69.448927
12.428820
#DATA
2500.000000	16.403494
2490.000000	16.194777
2480.000000	17.064110
2470.000000	17.444106
2460.000000	18.579174
2450.000000	18.892174
2440.000000	18.948938
2430.000000	19.702624
2420.000000	20.930681
2410.000000	19.815899
2400.000000	19.977640
2390.000000	20.294948
2380.000000	20.673802
2370.000000	20.178947
2360.000000	20.425250
2350.000000	20.855981
2340.000000	21.104974
2330.000000	20.347103
2320.000000	20.020631
2310.000000	19.776527
2300.000000	19.178757
2290.000000	19.795184
2280.000000	20.065338
2270.000000	20.888620
2260.000000	22.575006
2250.000000	23.748355
2240.000000	23.614905
2230.000000	23.322755
2220.000000	22.872790
2210.000000	22.563159
2200.000000	21.836156
2190.000000	22.073976
2180.000000	22.695146
2170.000000	23.616639
2160.000000	24.264759
2150.000000	24.858230
2140.000000	25.528626
2130.000000	25.518128
2120.000000	25.647757
2110.000000	25.627708
2100.000000	25.276432
2090.000000	24.572662
2080.000000	23.571063
2070.000000	22.380943
2060.000000	21.828063
2050.000000	21.876715
2040.000000	22.584172
2030.000000	22.435240
2020.000000	21.868967
2010.000000	20.956510
2000.000000	20.096819
1990.000000	19.269035
1980.000000	18.577088
1970.000000	17.925813
1960.000000	17.676445
1950.000000	18.100293
1940.000000	19.177323
1930.000000	21.415548
1920.000000	24.476794
1910.000000	29.459645
1900.000000	34.263518
1890.000000	38.962440
1880.000000	41.995455
1870.000000	43.275360
1860.000000	43.472988
1850.000000	43.275003
1840.000000	42.716963
1830.000000	42.278126
1820.000000	41.755628
1810.000000	41.337780
1800.000000	40.958331
1790.000000	40.550951
1780.000000	40.107578
1770.000000	39.646303
1760.000000	39.189212
1750.000000	38.775359
1740.000000	39.161749
1730.000000	40.400611
1720.000000	41.191594
1710.000000	41.476324
1700.000000	42.454297
1690.000000	44.465176
1680.000000	46.452182
1670.000000	47.163518
1660.000000	47.251628
1650.000000	46.827678
1640.000000	46.101586
1630.000000	45.218561
1620.000000	44.248042
1610.000000	43.270778
1600.000000	42.415251
1590.000000	41.674517
1580.000000	40.981870
1570.000000	40.548089
1560.000000	39.907359
1550.000000	38.835736
1540.000000	37.791677
1530.000000	37.172107
1520.000000	36.714199
1510.000000	36.378065
1500.000000	36.266216
1490.000000	36.324846
1480.000000	36.533849
1470.000000	36.932437
1460.000000	37.728993
1450.000000	38.921200
1440.000000	40.780504
1430.000000	43.548092
1420.000000	47.150972
1410.000000	51.033152
1400.000000	54.284057
1390.000000	56.368573
1380.000000	57.588736
1370.000000	58.743038
1360.000000	59.876515
1350.000000	60.999811
1340.000000	61.881944
1330.000000	62.653721
1320.000000	63.184451
1310.000000	63.466678
1300.000000	63.442551
1290.000000	63.372719
1280.000000	63.397573
1270.000000	63.438841
1260.000000	63.403063
1250.000000	63.087100
1240.000000	62.740726
1230.000000	62.335900
1220.000000	61.696846
1210.000000	61.138073
1200.000000	60.936690
1190.000000	61.426164
1180.000000	62.506931
1170.000000	63.900675
1160.000000	65.151301
1150.000000	66.123682
1140.000000	66.786410
1130.000000	67.076655
1120.000000	67.206221
1110.000000	67.296985
1100.000000	67.344446
1090.000000	67.296941
1080.000000	67.200201
1070.000000	67.064137
1060.000000	66.950779
1050.000000	66.863778
1040.000000	66.790747
1030.000000	66.699408
1020.000000	66.729118
1010.000000	66.828807
1000.000000	67.003045
990.000000	67.170670
980.000000	67.402480
970.000000	67.721780
960.000000	67.996366
950.000000	68.164784
940.000000	68.234946
930.000000	68.284357
920.000000	68.370163
910.000000	68.622928
900.000000	68.737995
890.000000	68.928848
880.000000	69.140034
870.000000	69.154850
860.000000	69.448927
850.000000	68.123480
840.000000	68.569483
830.000000	68.400581
820.000000	68.312266
810.000000	68.286623
800.000000	68.151204
790.000000	68.400847
780.000000	68.227331
770.000000	68.128370
760.000000	68.188161
750.000000	68.385187
740.000000	68.173645
730.000000	68.085441
720.000000	68.127999
710.000000	68.145503
700.000000	68.024007
690.000000	67.903668
680.000000	67.718160
670.000000	67.728717
660.000000	67.616638
650.000000	67.475646
640.000000	67.341983
630.000000	67.163713
620.000000	67.027261
610.000000	66.848884
600.000000	66.627631
590.000000	66.461712
580.000000	66.181990
570.000000	65.975803
560.000000	65.627963
550.000000	65.303369
540.000000	64.957679
530.000000	64.590166
520.000000	64.129775
510.000000	63.632879
500.000000	63.081834
490.000000	62.514041
480.000000	62.124272
470.000000	61.091572
460.000000	60.214343
450.000000	58.863262
440.000000	57.186085
430.000000	55.190135
420.000000	52.680360
410.000000	50.379974
400.000000	48.107435
390.000000	45.612951
380.000000	42.971596
370.000000	40.183576
360.000000	37.288392
350.000000	34.601865
340.000000	31.692750
330.000000	29.376688
320.000000	26.895099
310.000000	24.781548
300.000000	19.816163
290.000000	14.747118
280.000000	12.814618
270.000000	12.428820
260.000000	12.482803
250.000000	12.691379
