PE UV       SUBTECH     SPECTRUM    ASCII       PEDS        4.00        
   -1
3C-XXX-F024.Sample.Raw.asc
23/09/06
15:06:27.00
23/09/06
15:06:27.00
Administrator

250.000000
1
Lambda 750
750N8071901
PerkinElmer UV WinLab 6.0.4.0738 / 1.61.00 Lambda 900

0
0
3350/servo 860.8/2
0
0
UV/VIS
1
1
1
CommonBeamDepol,150mm sphere / downward view
0
0
0
0
Program
Program
3350/servo 860.8/2
3350/0.2 860.8/0.2
3350/0.2 860.8/0.2
0
1
 
 
 
0
 
860.8
319.2
860.8
Front
100
on
 
 
0
0
0
 
0
 
 
 
0
 
 
0
0
0
0
0
 
 
 
 
0
0


0
0
#HDR
-1
-1
#GR
nm
%R
1.0
0.0
2500.000000
-10.000000
226
8
70.816958
14.456771
#DATA
2500.000000	18.326135
2490.000000	19.022371
2480.000000	18.770149
2470.000000	20.534470
2460.000000	19.910616
2450.000000	21.558191
2440.000000	21.614104
2430.000000	22.272735
2420.000000	22.935279
2410.000000	22.392395
2400.000000	22.618220
2390.000000	22.668390
2380.000000	22.727364
2370.000000	22.707854
2360.000000	22.515690
2350.000000	23.031077
2340.000000	22.798701
2330.000000	22.693788
2320.000000	22.557365
2310.000000	22.051670
2300.000000	21.415735
2290.000000	22.185778
2280.000000	22.213749
2270.000000	23.228016
2260.000000	24.966652
2250.000000	25.990617
2240.000000	26.007814
2230.000000	25.719007
2220.000000	25.255920
2210.000000	24.836711
2200.000000	24.360664
2190.000000	24.535310
2180.000000	25.090525
2170.000000	26.104643
2160.000000	26.776738
2150.000000	27.776970
2140.000000	28.062835
2130.000000	28.107552
2120.000000	28.274103
2110.000000	28.157532
2100.000000	27.836987
2090.000000	27.129591
2080.000000	26.128416
2070.000000	24.756380
2060.000000	24.306120
2050.000000	24.408596
2040.000000	25.029320
2030.000000	24.910993
2020.000000	24.332256
2010.000000	23.505068
2000.000000	22.448860
1990.000000	21.496954
1980.000000	20.789410
1970.000000	19.970214
1960.000000	19.773734
1950.000000	20.177244
1940.000000	21.496218
1930.000000	23.862020
1920.000000	27.246400
1910.000000	32.143440
1900.000000	36.731976
1890.000000	41.162999
1880.000000	44.342520
1870.000000	45.396247
1860.000000	45.623272
1850.000000	45.632753
1840.000000	45.066551
1830.000000	44.556070
1820.000000	44.059576
1810.000000	43.619683
1800.000000	43.206763
1790.000000	42.800934
1780.000000	42.399217
1770.000000	41.977540
1760.000000	41.505011
1750.000000	41.125617
1740.000000	41.549380
1730.000000	42.766416
1720.000000	43.558533
1710.000000	43.797430
1700.000000	44.729221
1690.000000	46.677509
1680.000000	48.580913
1670.000000	49.270114
1660.000000	49.377335
1650.000000	48.966965
1640.000000	48.283228
1630.000000	47.460768
1620.000000	46.528032
1610.000000	45.565043
1600.000000	44.731551
1590.000000	43.992080
1580.000000	43.366743
1570.000000	42.974263
1560.000000	42.390333
1550.000000	41.364411
1540.000000	40.354286
1530.000000	39.702782
1520.000000	39.256395
1510.000000	38.920908
1500.000000	38.822960
1490.000000	38.920867
1480.000000	39.158664
1470.000000	39.549283
1460.000000	40.288720
1450.000000	41.451208
1440.000000	43.204389
1430.000000	45.799249
1420.000000	49.298131
1410.000000	53.024747
1400.000000	56.173222
1390.000000	58.194048
1380.000000	59.322042
1370.000000	60.542441
1360.000000	61.584236
1350.000000	62.599193
1340.000000	63.469547
1330.000000	64.226245
1320.000000	64.695261
1310.000000	64.947883
1300.000000	64.933162
1290.000000	64.883718
1280.000000	64.931162
1270.000000	64.980560
1260.000000	64.920834
1250.000000	64.631341
1240.000000	64.339471
1230.000000	63.982052
1220.000000	63.367980
1210.000000	62.818458
1200.000000	62.625208
1190.000000	63.123673
1180.000000	64.142873
1170.000000	65.469441
1160.000000	66.631715
1150.000000	67.552105
1140.000000	68.217083
1130.000000	68.490881
1120.000000	68.605810
1110.000000	68.709913
1100.000000	68.729571
1090.000000	68.692500
1080.000000	68.601147
1070.000000	68.489715
1060.000000	68.382957
1050.000000	68.315853
1040.000000	68.227110
1030.000000	68.156626
1020.000000	68.182802
1010.000000	68.286033
1000.000000	68.419370
990.000000	68.607569
980.000000	68.825321
970.000000	69.137884
960.000000	69.403716
950.000000	69.549176
940.000000	69.591923
930.000000	69.732204
920.000000	69.697453
910.000000	69.922844
900.000000	70.067230
890.000000	70.349211
880.000000	70.586140
870.000000	70.664854
860.000000	70.816958
850.000000	69.811399
840.000000	70.278631
830.000000	70.000307
820.000000	70.070894
810.000000	70.093380
800.000000	69.921682
790.000000	70.047878
780.000000	69.982225
770.000000	69.843914
760.000000	70.129388
750.000000	70.081307
740.000000	69.937756
730.000000	69.897499
720.000000	69.921918
710.000000	70.019206
700.000000	69.825327
690.000000	69.826478
680.000000	69.629784
670.000000	69.658756
660.000000	69.575322
650.000000	69.452292
640.000000	69.325425
630.000000	69.159634
620.000000	69.045475
610.000000	68.914347
600.000000	68.725672
590.000000	68.585303
580.000000	68.352597
570.000000	68.138046
560.000000	67.835581
550.000000	67.585656
540.000000	67.259626
530.000000	67.015691
520.000000	66.636611
510.000000	66.115988
500.000000	65.644707
490.000000	65.255470
480.000000	64.871905
470.000000	63.883151
460.000000	63.041661
450.000000	61.937082
440.000000	60.447855
430.000000	58.443480
420.000000	56.306401
410.000000	54.227917
400.000000	52.053093
390.000000	49.772736
380.000000	47.256801
370.000000	44.455947
360.000000	41.612972
350.000000	38.858388
340.000000	35.862799
330.000000	33.227643
320.000000	30.605757
310.000000	28.844366
300.000000	23.501224
290.000000	17.447922
280.000000	14.837589
270.000000	14.456771
260.000000	14.617987
250.000000	14.645439
