PE UV       SUBTECH     SPECTRUM    ASCII       PEDS        4.00        
   -1
3C-XXX-C069.Sample.Raw.asc
23/09/06
11:23:43.00
23/09/06
11:23:43.00
Administrator

250.000000
1
Lambda 750
750N8071901
PerkinElmer UV WinLab 6.0.4.0738 / 1.61.00 Lambda 900

0
0
3350/servo 860.8/2
0
0
UV/VIS
1
1
1
CommonBeamDepol,150mm sphere / downward view
0
0
0
0
Program
Program
3350/servo 860.8/2
3350/0.2 860.8/0.2
3350/0.2 860.8/0.2
0
1
 
 
 
0
 
860.8
319.2
860.8
Front
100
on
 
 
0
0
0
 
0
 
 
 
0
 
 
0
0
0
0
0
 
 
 
 
0
0


0
0
#HDR
-1
-1
#GR
nm
%R
1.0
0.0
2500.000000
-10.000000
226
8
71.899288
21.804874
#DATA
2500.000000	21.804874
2490.000000	21.827161
2480.000000	22.232956
2470.000000	22.534958
2460.000000	23.181210
2450.000000	23.604204
2440.000000	24.325585
2430.000000	25.135794
2420.000000	25.137852
2410.000000	25.601246
2400.000000	25.148869
2390.000000	25.697023
2380.000000	25.337214
2370.000000	25.156663
2360.000000	26.263599
2350.000000	26.233802
2340.000000	26.160507
2330.000000	25.668794
2320.000000	25.289230
2310.000000	24.994613
2300.000000	24.624551
2290.000000	24.809999
2280.000000	25.217274
2270.000000	26.318885
2260.000000	27.467743
2250.000000	28.628566
2240.000000	28.921415
2230.000000	28.568314
2220.000000	28.012704
2210.000000	27.349309
2200.000000	26.959785
2190.000000	27.315252
2180.000000	27.994264
2170.000000	28.894462
2160.000000	29.717726
2150.000000	30.231228
2140.000000	30.604752
2130.000000	30.896847
2120.000000	30.910799
2110.000000	30.703813
2100.000000	30.419678
2090.000000	29.599724
2080.000000	28.615376
2070.000000	27.534214
2060.000000	26.815283
2050.000000	27.048075
2040.000000	27.497219
2030.000000	27.414728
2020.000000	26.740312
2010.000000	25.942070
2000.000000	25.067926
1990.000000	24.113483
1980.000000	23.404678
1970.000000	22.823411
1960.000000	22.521149
1950.000000	22.948221
1940.000000	24.263543
1930.000000	26.209997
1920.000000	29.964028
1910.000000	34.554008
1900.000000	39.040979
1890.000000	43.312097
1880.000000	46.055933
1870.000000	47.091817
1860.000000	47.452229
1850.000000	47.119979
1840.000000	46.786660
1830.000000	46.288524
1820.000000	45.856942
1810.000000	45.399964
1800.000000	45.126853
1790.000000	44.803598
1780.000000	44.426367
1770.000000	43.997992
1760.000000	43.632395
1750.000000	43.356402
1740.000000	43.717650
1730.000000	44.759799
1720.000000	45.472014
1710.000000	45.763269
1700.000000	46.614438
1690.000000	48.486088
1680.000000	50.096041
1670.000000	50.728543
1660.000000	50.837753
1650.000000	50.375191
1640.000000	49.719507
1630.000000	48.950876
1620.000000	48.064250
1610.000000	47.186815
1600.000000	46.459047
1590.000000	45.794701
1580.000000	45.174433
1570.000000	44.773334
1560.000000	44.191912
1550.000000	43.213477
1540.000000	42.288095
1530.000000	41.690876
1520.000000	41.317764
1510.000000	41.028751
1500.000000	40.917432
1490.000000	40.982272
1480.000000	41.145556
1470.000000	41.540624
1460.000000	42.302389
1450.000000	43.469910
1440.000000	45.205372
1430.000000	47.746985
1420.000000	51.057307
1410.000000	54.567263
1400.000000	57.449099
1390.000000	59.233136
1380.000000	60.292730
1370.000000	61.319942
1360.000000	62.326930
1350.000000	63.301306
1340.000000	64.104481
1330.000000	64.756026
1320.000000	65.254794
1310.000000	65.511089
1300.000000	65.517907
1290.000000	65.516373
1280.000000	65.529023
1270.000000	65.589483
1260.000000	65.553216
1250.000000	65.321495
1240.000000	65.040750
1230.000000	64.708676
1220.000000	64.164202
1210.000000	63.690295
1200.000000	63.553313
1190.000000	64.015129
1180.000000	65.009734
1170.000000	66.243662
1160.000000	67.282827
1150.000000	68.121622
1140.000000	68.724990
1130.000000	68.978635
1120.000000	69.126271
1110.000000	69.195306
1100.000000	69.229330
1090.000000	69.212205
1080.000000	69.126528
1070.000000	69.043086
1060.000000	68.985323
1050.000000	68.929493
1040.000000	68.915922
1030.000000	68.864228
1020.000000	68.899932
1010.000000	69.068439
1000.000000	69.154142
990.000000	69.376413
980.000000	69.651102
970.000000	69.965697
960.000000	70.229231
950.000000	70.422545
940.000000	70.554875
930.000000	70.594854
920.000000	70.824000
910.000000	70.952950
900.000000	71.204914
890.000000	71.453980
880.000000	71.475222
870.000000	71.780333
860.000000	71.899288
850.000000	71.076788
840.000000	71.493406
830.000000	71.296395
820.000000	71.123089
810.000000	71.289406
800.000000	71.394006
790.000000	71.317865
780.000000	71.423346
770.000000	71.483926
760.000000	71.721951
750.000000	71.684819
740.000000	71.662412
730.000000	71.705895
720.000000	71.638256
710.000000	71.682649
700.000000	71.781989
690.000000	71.786936
680.000000	71.796596
670.000000	71.772342
660.000000	71.743393
650.000000	71.732038
640.000000	71.732027
630.000000	71.728054
620.000000	71.691181
610.000000	71.621240
600.000000	71.580516
590.000000	71.546688
580.000000	71.425601
570.000000	71.474838
560.000000	71.328516
550.000000	71.288021
540.000000	71.252684
530.000000	71.060768
520.000000	70.866278
510.000000	70.634553
500.000000	70.554273
490.000000	70.226670
480.000000	70.146164
470.000000	69.571663
460.000000	68.830795
450.000000	68.148207
440.000000	66.982623
430.000000	65.600352
420.000000	63.962971
410.000000	62.311577
400.000000	60.962817
390.000000	59.380825
380.000000	57.817941
370.000000	56.071696
360.000000	53.404499
350.000000	51.408348
340.000000	48.676808
330.000000	47.306309
320.000000	46.952340
310.000000	45.601894
300.000000	40.567585
290.000000	32.651642
280.000000	27.834200
270.000000	28.193734
260.000000	29.047837
250.000000	30.045031
