PE UV       SUBTECH     SPECTRUM    ASCII       PEDS        4.00        
   -1
3C-XXX-F013.Sample.Raw.asc
23/09/06
14:28:51.00
23/09/06
14:28:51.00
Administrator

250.000000
1
Lambda 750
750N8071901
PerkinElmer UV WinLab 6.0.4.0738 / 1.61.00 Lambda 900

0
0
3350/servo 860.8/2
0
0
UV/VIS
1
1
1
CommonBeamDepol,150mm sphere / downward view
0
0
0
0
Program
Program
3350/servo 860.8/2
3350/0.2 860.8/0.2
3350/0.2 860.8/0.2
0
1
 
 
 
0
 
860.8
319.2
860.8
Front
100
on
 
 
0
0
0
 
0
 
 
 
0
 
 
0
0
0
0
0
 
 
 
 
0
0


0
0
#HDR
-1
-1
#GR
nm
%R
1.0
0.0
2500.000000
-10.000000
226
8
64.617639
12.509097
#DATA
2500.000000	12.509097
2490.000000	13.309234
2480.000000	14.057977
2470.000000	14.841710
2460.000000	14.749728
2450.000000	15.351956
2440.000000	15.259060
2430.000000	16.319605
2420.000000	17.156089
2410.000000	15.956611
2400.000000	16.769200
2390.000000	16.425127
2380.000000	16.901266
2370.000000	16.359788
2360.000000	16.740812
2350.000000	17.042102
2340.000000	16.822352
2330.000000	16.584844
2320.000000	16.371175
2310.000000	16.238299
2300.000000	15.654380
2290.000000	16.237157
2280.000000	16.357926
2270.000000	16.991417
2260.000000	18.533474
2250.000000	19.208516
2240.000000	19.346891
2230.000000	19.220448
2220.000000	18.611651
2210.000000	18.247583
2200.000000	18.040554
2190.000000	18.346248
2180.000000	18.722255
2170.000000	19.301330
2160.000000	19.824418
2150.000000	20.696033
2140.000000	20.874753
2130.000000	20.770294
2120.000000	20.894791
2110.000000	20.983601
2100.000000	20.692999
2090.000000	20.080991
2080.000000	19.328493
2070.000000	18.255720
2060.000000	17.658617
2050.000000	17.780973
2040.000000	18.347782
2030.000000	18.189335
2020.000000	17.729979
2010.000000	17.138512
2000.000000	16.381721
1990.000000	15.779136
1980.000000	15.246549
1970.000000	14.804412
1960.000000	14.612384
1950.000000	15.025366
1940.000000	15.680507
1930.000000	17.515432
1920.000000	20.089871
1910.000000	24.513269
1900.000000	28.989092
1890.000000	33.368720
1880.000000	36.247529
1870.000000	37.544833
1860.000000	37.806150
1850.000000	37.524810
1840.000000	37.016714
1830.000000	36.595129
1820.000000	36.077384
1810.000000	35.685677
1800.000000	35.313532
1790.000000	34.897133
1780.000000	34.456311
1770.000000	34.057202
1760.000000	33.581051
1750.000000	33.205682
1740.000000	33.617088
1730.000000	34.768968
1720.000000	35.551636
1710.000000	35.821707
1700.000000	36.800809
1690.000000	38.800188
1680.000000	40.755245
1670.000000	41.443825
1660.000000	41.485423
1650.000000	41.045818
1640.000000	40.292293
1630.000000	39.459687
1620.000000	38.465781
1610.000000	37.505006
1600.000000	36.664164
1590.000000	35.927060
1580.000000	35.284942
1570.000000	34.819111
1560.000000	34.196511
1550.000000	33.147982
1540.000000	32.155067
1530.000000	31.561569
1520.000000	31.157301
1510.000000	30.831444
1500.000000	30.714353
1490.000000	30.722032
1480.000000	30.895076
1470.000000	31.276569
1460.000000	32.051675
1450.000000	33.242582
1440.000000	35.074646
1430.000000	37.814101
1420.000000	41.443761
1410.000000	45.409968
1400.000000	48.778146
1390.000000	50.953408
1380.000000	52.175372
1370.000000	53.445718
1360.000000	54.668541
1350.000000	55.864949
1340.000000	56.788426
1330.000000	57.620664
1320.000000	58.202603
1310.000000	58.480552
1300.000000	58.486678
1290.000000	58.399457
1280.000000	58.440165
1270.000000	58.488562
1260.000000	58.418744
1250.000000	58.080132
1240.000000	57.729722
1230.000000	57.267401
1220.000000	56.561064
1210.000000	55.933820
1200.000000	55.731671
1190.000000	56.265539
1180.000000	57.492293
1170.000000	58.983272
1160.000000	60.318366
1150.000000	61.361943
1140.000000	62.107026
1130.000000	62.437149
1120.000000	62.559021
1110.000000	62.642731
1100.000000	62.670205
1090.000000	62.600323
1080.000000	62.507455
1070.000000	62.358523
1060.000000	62.211927
1050.000000	62.089676
1040.000000	62.007127
1030.000000	61.933108
1020.000000	61.974040
1010.000000	62.068632
1000.000000	62.218203
990.000000	62.415767
980.000000	62.664062
970.000000	62.969653
960.000000	63.269381
950.000000	63.442062
940.000000	63.501618
930.000000	63.591908
920.000000	63.644823
910.000000	63.853297
900.000000	64.109637
890.000000	64.247110
880.000000	64.256522
870.000000	64.488533
860.000000	64.617639
850.000000	63.695874
840.000000	64.065737
830.000000	64.082795
820.000000	63.961677
810.000000	63.885928
800.000000	63.889119
790.000000	63.802370
780.000000	63.726366
770.000000	63.705545
760.000000	63.641020
750.000000	63.839201
740.000000	63.763322
730.000000	63.638370
720.000000	63.649600
710.000000	63.624392
700.000000	63.392742
690.000000	63.430628
680.000000	63.208965
670.000000	63.168589
660.000000	63.144248
650.000000	62.970170
640.000000	62.853775
630.000000	62.679797
620.000000	62.443904
610.000000	62.283220
600.000000	62.129971
590.000000	61.920114
580.000000	61.727413
570.000000	61.437298
560.000000	61.137758
550.000000	60.816817
540.000000	60.488745
530.000000	60.134116
520.000000	59.735681
510.000000	59.254323
500.000000	58.704190
490.000000	58.290026
480.000000	57.869576
470.000000	56.924390
460.000000	56.082360
450.000000	54.823505
440.000000	53.265101
430.000000	51.277795
420.000000	48.993623
410.000000	46.797043
400.000000	44.565078
390.000000	42.082969
380.000000	39.447367
370.000000	36.593954
360.000000	33.817210
350.000000	31.071529
340.000000	28.113340
330.000000	26.346992
320.000000	23.755443
310.000000	22.321004
300.000000	19.457222
290.000000	15.645601
280.000000	14.031467
270.000000	13.745936
260.000000	13.840231
250.000000	13.840619
