PE UV       SUBTECH     SPECTRUM    ASCII       PEDS        4.00        
   -1
3C-XXX-C034.Sample.Raw.asc
23/09/06
09:23:26.00
23/09/06
09:23:26.00
Administrator

250.000000
1
Lambda 750
750N8071901
PerkinElmer UV WinLab 6.0.4.0738 / 1.61.00 Lambda 900

0
0
3350/servo 860.8/2
0
0
UV/VIS
1
1
1
CommonBeamDepol,150mm sphere / downward view
0
0
0
0
Program
Program
3350/servo 860.8/2
3350/0.2 860.8/0.2
3350/0.2 860.8/0.2
0
1
 
 
 
0
 
860.8
319.2
860.8
Front
100
on
 
 
0
0
0
 
0
 
 
 
0
 
 
0
0
0
0
0
 
 
 
 
0
0


0
0
#HDR
-1
-1
#GR
nm
%R
1.0
0.0
2500.000000
-10.000000
226
8
63.913295
17.356703
#DATA
2500.000000	17.691931
2490.000000	17.698441
2480.000000	17.356703
2470.000000	18.130799
2460.000000	18.397377
2450.000000	20.155739
2440.000000	19.711325
2430.000000	19.947695
2420.000000	20.055006
2410.000000	20.667942
2400.000000	20.241028
2390.000000	20.465734
2380.000000	20.595422
2370.000000	20.639907
2360.000000	20.778370
2350.000000	21.154143
2340.000000	21.600222
2330.000000	20.595133
2320.000000	20.397744
2310.000000	19.932051
2300.000000	19.510015
2290.000000	20.120670
2280.000000	20.390859
2270.000000	21.378418
2260.000000	22.742539
2250.000000	23.443953
2240.000000	23.662577
2230.000000	23.084485
2220.000000	22.778123
2210.000000	22.335769
2200.000000	22.089118
2190.000000	21.976676
2180.000000	22.665557
2170.000000	23.675373
2160.000000	24.107731
2150.000000	24.681802
2140.000000	25.255119
2130.000000	25.060693
2120.000000	25.293374
2110.000000	25.177216
2100.000000	24.874178
2090.000000	24.217117
2080.000000	23.238266
2070.000000	22.233326
2060.000000	21.637238
2050.000000	21.791362
2040.000000	22.107380
2030.000000	22.072690
2020.000000	21.627776
2010.000000	20.829406
2000.000000	20.059985
1990.000000	19.457290
1980.000000	18.785271
1970.000000	18.291632
1960.000000	18.092482
1950.000000	18.503259
1940.000000	19.431580
1930.000000	21.281820
1920.000000	24.200384
1910.000000	28.526691
1900.000000	32.783828
1890.000000	36.726987
1880.000000	39.219932
1870.000000	40.314683
1860.000000	40.584958
1850.000000	40.198901
1840.000000	39.912825
1830.000000	39.510903
1820.000000	39.057618
1810.000000	38.664356
1800.000000	38.341300
1790.000000	38.100050
1780.000000	37.679692
1770.000000	37.280798
1760.000000	36.960927
1750.000000	36.698276
1740.000000	37.031642
1730.000000	37.994449
1720.000000	38.704283
1710.000000	38.892503
1700.000000	39.743239
1690.000000	41.542283
1680.000000	43.091965
1670.000000	43.656791
1660.000000	43.717590
1650.000000	43.263667
1640.000000	42.639328
1630.000000	41.882888
1620.000000	41.046180
1610.000000	40.203328
1600.000000	39.484191
1590.000000	38.865200
1580.000000	38.260737
1570.000000	37.852837
1560.000000	37.293239
1550.000000	36.312792
1540.000000	35.453550
1530.000000	34.930711
1520.000000	34.569267
1510.000000	34.297847
1500.000000	34.207514
1490.000000	34.219919
1480.000000	34.326851
1470.000000	34.717905
1460.000000	35.449338
1450.000000	36.557157
1440.000000	38.238891
1430.000000	40.714992
1420.000000	43.880242
1410.000000	47.281197
1400.000000	50.063194
1390.000000	51.821958
1380.000000	52.847275
1370.000000	53.862571
1360.000000	54.881989
1350.000000	55.868329
1340.000000	56.658339
1330.000000	57.317290
1320.000000	57.801254
1310.000000	58.074352
1300.000000	58.100244
1290.000000	58.074805
1280.000000	58.070332
1270.000000	58.104329
1260.000000	58.036211
1250.000000	57.780340
1240.000000	57.509948
1230.000000	57.148644
1220.000000	56.548427
1210.000000	56.073661
1200.000000	55.936948
1190.000000	56.392058
1180.000000	57.402251
1170.000000	58.645009
1160.000000	59.711787
1150.000000	60.537814
1140.000000	61.135731
1130.000000	61.367428
1120.000000	61.514765
1110.000000	61.575935
1100.000000	61.587374
1090.000000	61.527962
1080.000000	61.437464
1070.000000	61.323427
1060.000000	61.214772
1050.000000	61.144242
1040.000000	61.093960
1030.000000	61.021741
1020.000000	61.064199
1010.000000	61.179946
1000.000000	61.296115
990.000000	61.499891
980.000000	61.738392
970.000000	61.997250
960.000000	62.298810
950.000000	62.463446
940.000000	62.586851
930.000000	62.633751
920.000000	62.750256
910.000000	62.946984
900.000000	63.158950
890.000000	63.394275
880.000000	63.494565
870.000000	63.913295
860.000000	63.844371
850.000000	63.135682
840.000000	63.431599
830.000000	63.481395
820.000000	63.168711
810.000000	63.131441
800.000000	63.354741
790.000000	63.369733
780.000000	63.335519
770.000000	63.270663
760.000000	63.325428
750.000000	63.424967
740.000000	63.509441
730.000000	63.337322
720.000000	63.496268
710.000000	63.373144
700.000000	63.461589
690.000000	63.546270
680.000000	63.360611
670.000000	63.439141
660.000000	63.369092
650.000000	63.317379
640.000000	63.260242
630.000000	63.410108
620.000000	63.258644
610.000000	63.117042
600.000000	63.115325
590.000000	63.007363
580.000000	62.902763
570.000000	62.883723
560.000000	62.771741
550.000000	62.639274
540.000000	62.428540
530.000000	62.288311
520.000000	62.105621
510.000000	61.844217
500.000000	61.658233
490.000000	61.344425
480.000000	61.224033
470.000000	60.730987
460.000000	60.077699
450.000000	59.377091
440.000000	58.281885
430.000000	56.851447
420.000000	55.198414
410.000000	53.565467
400.000000	52.201285
390.000000	50.434602
380.000000	48.662845
370.000000	46.781560
360.000000	44.168960
350.000000	42.542913
340.000000	40.130612
330.000000	38.840630
320.000000	36.938600
310.000000	35.412808
300.000000	31.471025
290.000000	25.372334
280.000000	22.566377
270.000000	23.168689
260.000000	24.020018
250.000000	25.136400
