PE UV       SUBTECH     SPECTRUM    ASCII       PEDS        4.00        
   -1
3C-XXX-F010.Sample.Raw.asc
23/09/06
14:18:26.00
23/09/06
14:18:26.00
Administrator

250.000000
1
Lambda 750
750N8071901
PerkinElmer UV WinLab 6.0.4.0738 / 1.61.00 Lambda 900

0
0
3350/servo 860.8/2
0
0
UV/VIS
1
1
1
CommonBeamDepol,150mm sphere / downward view
0
0
0
0
Program
Program
3350/servo 860.8/2
3350/0.2 860.8/0.2
3350/0.2 860.8/0.2
0
1
 
 
 
0
 
860.8
319.2
860.8
Front
100
on
 
 
0
0
0
 
0
 
 
 
0
 
 
0
0
0
0
0
 
 
 
 
0
0


0
0
#HDR
-1
-1
#GR
nm
%R
1.0
0.0
2500.000000
-10.000000
226
8
66.404478
13.755214
#DATA
2500.000000	14.573814
2490.000000	14.888452
2480.000000	15.352547
2470.000000	16.470864
2460.000000	15.963512
2450.000000	17.462253
2440.000000	17.995895
2430.000000	17.645434
2420.000000	18.497321
2410.000000	18.481396
2400.000000	18.419097
2390.000000	18.131501
2380.000000	18.392940
2370.000000	18.127930
2360.000000	17.791916
2350.000000	18.430505
2340.000000	18.225749
2330.000000	18.419155
2320.000000	18.131304
2310.000000	17.854692
2300.000000	17.461040
2290.000000	17.912390
2280.000000	17.970115
2270.000000	18.590685
2260.000000	20.548140
2250.000000	21.195301
2240.000000	21.281387
2230.000000	20.911212
2220.000000	20.506333
2210.000000	19.967967
2200.000000	19.799979
2190.000000	19.872491
2180.000000	20.229392
2170.000000	21.295957
2160.000000	21.750452
2150.000000	22.579905
2140.000000	22.764890
2130.000000	22.731380
2120.000000	23.002486
2110.000000	22.950175
2100.000000	22.666437
2090.000000	22.039601
2080.000000	21.093930
2070.000000	19.898508
2060.000000	19.422275
2050.000000	19.496065
2040.000000	20.145875
2030.000000	19.984392
2020.000000	19.490263
2010.000000	18.739650
2000.000000	17.995405
1990.000000	17.243287
1980.000000	16.697285
1970.000000	16.239840
1960.000000	16.016458
1950.000000	16.412605
1940.000000	17.434171
1930.000000	19.213437
1920.000000	21.867047
1910.000000	26.474476
1900.000000	31.313176
1890.000000	35.732391
1880.000000	38.541985
1870.000000	39.898054
1860.000000	40.126137
1850.000000	39.844716
1840.000000	39.322344
1830.000000	38.876392
1820.000000	38.391793
1810.000000	37.995844
1800.000000	37.666505
1790.000000	37.261956
1780.000000	36.856883
1770.000000	36.438918
1760.000000	36.036836
1750.000000	35.621436
1740.000000	36.026376
1730.000000	37.190151
1720.000000	37.974933
1710.000000	38.205286
1700.000000	39.196461
1690.000000	41.186983
1680.000000	43.061110
1670.000000	43.757822
1660.000000	43.818922
1650.000000	43.370475
1640.000000	42.659457
1630.000000	41.810756
1620.000000	40.856393
1610.000000	39.901653
1600.000000	39.113992
1590.000000	38.367205
1580.000000	37.707117
1570.000000	37.248821
1560.000000	36.613731
1550.000000	35.533407
1540.000000	34.523560
1530.000000	33.948500
1520.000000	33.555287
1510.000000	33.248001
1500.000000	33.115303
1490.000000	33.148887
1480.000000	33.304810
1470.000000	33.716467
1460.000000	34.489367
1450.000000	35.701209
1440.000000	37.554322
1430.000000	40.342292
1420.000000	43.940949
1410.000000	47.749136
1400.000000	50.957403
1390.000000	53.018289
1380.000000	54.239013
1370.000000	55.346108
1360.000000	56.513201
1350.000000	57.662041
1340.000000	58.532691
1330.000000	59.221960
1320.000000	59.693094
1310.000000	59.883625
1300.000000	59.833609
1290.000000	59.767396
1280.000000	59.823046
1270.000000	59.896204
1260.000000	59.849854
1250.000000	59.535967
1240.000000	59.198143
1230.000000	58.794207
1220.000000	58.130251
1210.000000	57.570393
1200.000000	57.372638
1190.000000	57.906535
1180.000000	59.068706
1170.000000	60.473545
1160.000000	61.734076
1150.000000	62.730732
1140.000000	63.418517
1130.000000	63.708973
1120.000000	63.836860
1110.000000	63.938648
1100.000000	63.981925
1090.000000	63.950572
1080.000000	63.870965
1070.000000	63.768119
1060.000000	63.667400
1050.000000	63.594266
1040.000000	63.520549
1030.000000	63.488647
1020.000000	63.558290
1010.000000	63.661652
1000.000000	63.830733
990.000000	64.020988
980.000000	64.245359
970.000000	64.568597
960.000000	64.847174
950.000000	65.048071
940.000000	65.124576
930.000000	65.199247
920.000000	65.298729
910.000000	65.568199
900.000000	65.726719
890.000000	65.847936
880.000000	65.944906
870.000000	66.218661
860.000000	66.404478
850.000000	64.885475
840.000000	65.363850
830.000000	65.343510
820.000000	65.160219
810.000000	65.232809
800.000000	65.128145
790.000000	65.277253
780.000000	65.172193
770.000000	64.984064
760.000000	65.033856
750.000000	65.136255
740.000000	65.026250
730.000000	65.065586
720.000000	65.149328
710.000000	65.161056
700.000000	64.945794
690.000000	64.832231
680.000000	64.754769
670.000000	64.723582
660.000000	64.691002
650.000000	64.546600
640.000000	64.443418
630.000000	64.209334
620.000000	64.137040
610.000000	63.978621
600.000000	63.807942
590.000000	63.620870
580.000000	63.460739
570.000000	63.185078
560.000000	62.879312
550.000000	62.506652
540.000000	62.223588
530.000000	61.932796
520.000000	61.485663
510.000000	61.090112
500.000000	60.580075
490.000000	60.056528
480.000000	59.683017
470.000000	58.807537
460.000000	57.861630
450.000000	56.667742
440.000000	55.081407
430.000000	53.149628
420.000000	50.789888
410.000000	48.524006
400.000000	46.205459
390.000000	43.648848
380.000000	41.011237
370.000000	38.104003
360.000000	34.885162
350.000000	32.152384
340.000000	29.342268
330.000000	26.675127
320.000000	24.872100
310.000000	22.947809
300.000000	19.983586
290.000000	15.806022
280.000000	14.151746
270.000000	13.755214
260.000000	13.818085
250.000000	13.986726
