PE UV       SUBTECH     SPECTRUM    ASCII       PEDS        4.00        
   -1
3C-XXX-C075.Sample.Raw.asc
23/09/06
11:41:22.00
23/09/06
11:41:22.00
Administrator

250.000000
1
Lambda 750
750N8071901
PerkinElmer UV WinLab 6.0.4.0738 / 1.61.00 Lambda 900

0
0
3350/servo 860.8/2
0
0
UV/VIS
1
1
1
CommonBeamDepol,150mm sphere / downward view
0
0
0
0
Program
Program
3350/servo 860.8/2
3350/0.2 860.8/0.2
3350/0.2 860.8/0.2
0
1
 
 
 
0
 
860.8
319.2
860.8
Front
100
on
 
 
0
0
0
 
0
 
 
 
0
 
 
0
0
0
0
0
 
 
 
 
0
0


0
0
#HDR
-1
-1
#GR
nm
%R
1.0
0.0
2500.000000
-10.000000
226
8
70.482706
23.012161
#DATA
2500.000000	23.012161
2490.000000	23.094023
2480.000000	23.479347
2470.000000	23.415589
2460.000000	24.777102
2450.000000	25.855019
2440.000000	25.574664
2430.000000	26.636394
2420.000000	26.169398
2410.000000	26.502766
2400.000000	26.749187
2390.000000	26.809972
2380.000000	26.401154
2370.000000	26.701234
2360.000000	26.943082
2350.000000	27.371106
2340.000000	27.307956
2330.000000	27.040189
2320.000000	26.903479
2310.000000	26.068274
2300.000000	25.903058
2290.000000	26.004248
2280.000000	26.548341
2270.000000	27.640523
2260.000000	28.949364
2250.000000	29.797551
2240.000000	30.226106
2230.000000	29.908504
2220.000000	29.340995
2210.000000	28.752226
2200.000000	28.208708
2190.000000	28.439817
2180.000000	29.148607
2170.000000	30.144054
2160.000000	30.976827
2150.000000	31.411491
2140.000000	31.990264
2130.000000	31.863760
2120.000000	32.256994
2110.000000	32.102637
2100.000000	31.867317
2090.000000	30.960510
2080.000000	29.780609
2070.000000	28.774510
2060.000000	28.108572
2050.000000	28.348459
2040.000000	28.763821
2030.000000	28.640243
2020.000000	27.957577
2010.000000	27.048426
2000.000000	26.072836
1990.000000	25.304671
1980.000000	24.448253
1970.000000	23.816537
1960.000000	23.538003
1950.000000	23.996682
1940.000000	25.331566
1930.000000	27.548703
1920.000000	30.978599
1910.000000	35.655091
1900.000000	39.938725
1890.000000	43.925803
1880.000000	46.712317
1870.000000	47.660527
1860.000000	47.907735
1850.000000	47.687179
1840.000000	47.379918
1830.000000	46.869587
1820.000000	46.451172
1810.000000	46.022505
1800.000000	45.686176
1790.000000	45.379968
1780.000000	44.996842
1770.000000	44.662576
1760.000000	44.282469
1750.000000	44.031894
1740.000000	44.365367
1730.000000	45.383440
1720.000000	46.036613
1710.000000	46.303322
1700.000000	47.106842
1690.000000	48.835272
1680.000000	50.403187
1670.000000	50.979019
1660.000000	51.041453
1650.000000	50.652588
1640.000000	50.035916
1630.000000	49.287860
1620.000000	48.441182
1610.000000	47.602296
1600.000000	46.872865
1590.000000	46.249764
1580.000000	45.648831
1570.000000	45.268064
1560.000000	44.757967
1550.000000	43.792441
1540.000000	42.909158
1530.000000	42.375321
1520.000000	41.983444
1510.000000	41.691411
1500.000000	41.545522
1490.000000	41.615329
1480.000000	41.799173
1470.000000	42.151348
1460.000000	42.862071
1450.000000	43.963250
1440.000000	45.582639
1430.000000	47.972967
1420.000000	51.120720
1410.000000	54.458674
1400.000000	57.234893
1390.000000	58.942854
1380.000000	59.958645
1370.000000	60.955667
1360.000000	61.902003
1350.000000	62.838756
1340.000000	63.594821
1330.000000	64.243041
1320.000000	64.693789
1310.000000	64.944207
1300.000000	64.925751
1290.000000	64.932606
1280.000000	64.923937
1270.000000	64.979030
1260.000000	64.916081
1250.000000	64.646323
1240.000000	64.405166
1230.000000	64.106584
1220.000000	63.559772
1210.000000	63.090692
1200.000000	62.932819
1190.000000	63.374414
1180.000000	64.297501
1170.000000	65.486892
1160.000000	66.494291
1150.000000	67.285737
1140.000000	67.870609
1130.000000	68.096466
1120.000000	68.224964
1110.000000	68.291498
1100.000000	68.298053
1090.000000	68.265753
1080.000000	68.165694
1070.000000	68.056534
1060.000000	67.978292
1050.000000	67.905790
1040.000000	67.855265
1030.000000	67.787445
1020.000000	67.809103
1010.000000	67.963930
1000.000000	68.060258
990.000000	68.223989
980.000000	68.466322
970.000000	68.715326
960.000000	69.010189
950.000000	69.173871
940.000000	69.301217
930.000000	69.305653
920.000000	69.449664
910.000000	69.633153
900.000000	69.903521
890.000000	69.989924
880.000000	70.133889
870.000000	70.479482
860.000000	70.482706
850.000000	69.370960
840.000000	70.028170
830.000000	69.956880
820.000000	69.573136
810.000000	69.721185
800.000000	69.735142
790.000000	69.741712
780.000000	69.764997
770.000000	69.838985
760.000000	69.923185
750.000000	69.861541
740.000000	69.932041
730.000000	69.848060
720.000000	69.915709
710.000000	69.829090
700.000000	69.877465
690.000000	69.904424
680.000000	69.768918
670.000000	69.743074
660.000000	69.774693
650.000000	69.658571
640.000000	69.601331
630.000000	69.590760
620.000000	69.482117
610.000000	69.304926
600.000000	69.293387
590.000000	69.217065
580.000000	69.086791
570.000000	69.031189
560.000000	68.879288
550.000000	68.794013
540.000000	68.671213
530.000000	68.467442
520.000000	68.172469
510.000000	67.861457
500.000000	67.736873
490.000000	67.356233
480.000000	67.155824
470.000000	66.567636
460.000000	65.765945
450.000000	65.018419
440.000000	63.901012
430.000000	62.342899
420.000000	60.630943
410.000000	58.982154
400.000000	57.700450
390.000000	56.129553
380.000000	54.770168
370.000000	52.840323
360.000000	50.566314
350.000000	48.278402
340.000000	45.890734
330.000000	44.091731
320.000000	42.916074
310.000000	41.398049
300.000000	36.073479
290.000000	29.206332
280.000000	25.193047
270.000000	25.423602
260.000000	26.437339
250.000000	27.313644
