PE UV       SUBTECH     SPECTRUM    ASCII       PEDS        4.00        
   -1
3C-XXX-F040.Sample.Raw.asc
23/09/06
15:54:33.00
23/09/06
15:54:33.00
Administrator

250.000000
1
Lambda 750
750N8071901
PerkinElmer UV WinLab 6.0.4.0738 / 1.61.00 Lambda 900

0
0
3350/servo 860.8/2
0
0
UV/VIS
1
1
1
CommonBeamDepol,150mm sphere / downward view
0
0
0
0
Program
Program
3350/servo 860.8/2
3350/0.2 860.8/0.2
3350/0.2 860.8/0.2
0
1
 
 
 
0
 
860.8
319.2
860.8
Front
100
on
 
 
0
0
0
 
0
 
 
 
0
 
 
0
0
0
0
0
 
 
 
 
0
0


0
0
#HDR
-1
-1
#GR
nm
%R
1.0
0.0
2500.000000
-10.000000
226
8
70.287274
14.027611
#DATA
2500.000000	14.420006
2490.000000	15.117096
2480.000000	15.355760
2470.000000	16.032292
2460.000000	15.834247
2450.000000	16.751236
2440.000000	17.517086
2430.000000	17.226596
2420.000000	18.174002
2410.000000	17.552221
2400.000000	18.645415
2390.000000	18.294458
2380.000000	18.202885
2370.000000	18.092888
2360.000000	18.107359
2350.000000	18.383342
2340.000000	17.880085
2330.000000	18.297003
2320.000000	17.979193
2310.000000	17.612334
2300.000000	16.860848
2290.000000	17.779534
2280.000000	18.012526
2270.000000	18.627687
2260.000000	20.188198
2250.000000	21.074376
2240.000000	20.985035
2230.000000	20.872125
2220.000000	20.544629
2210.000000	20.110694
2200.000000	19.472809
2190.000000	19.760507
2180.000000	20.134715
2170.000000	21.120956
2160.000000	21.680826
2150.000000	22.783849
2140.000000	22.838330
2130.000000	22.909660
2120.000000	22.995301
2110.000000	23.073434
2100.000000	22.718096
2090.000000	22.096603
2080.000000	21.063595
2070.000000	19.924728
2060.000000	19.285521
2050.000000	19.479419
2040.000000	20.018620
2030.000000	19.895662
2020.000000	19.366056
2010.000000	18.709716
2000.000000	17.870243
1990.000000	17.126910
1980.000000	16.503383
1970.000000	15.916901
1960.000000	15.676694
1950.000000	16.122916
1940.000000	16.981619
1930.000000	19.007782
1920.000000	21.938277
1910.000000	26.839974
1900.000000	31.707206
1890.000000	36.432336
1880.000000	39.696346
1870.000000	41.042329
1860.000000	41.359278
1850.000000	41.129224
1840.000000	40.568456
1830.000000	40.062022
1820.000000	39.512836
1810.000000	39.060202
1800.000000	38.637787
1790.000000	38.208430
1780.000000	37.679191
1770.000000	37.272782
1760.000000	36.764300
1750.000000	36.363958
1740.000000	36.740318
1730.000000	38.042805
1720.000000	38.879799
1710.000000	39.201316
1700.000000	40.238726
1690.000000	42.381037
1680.000000	44.504521
1670.000000	45.322252
1660.000000	45.407734
1650.000000	44.935651
1640.000000	44.127283
1630.000000	43.200029
1620.000000	42.131715
1610.000000	41.071834
1600.000000	40.172527
1590.000000	39.361600
1580.000000	38.642082
1570.000000	38.177596
1560.000000	37.523471
1550.000000	36.385142
1540.000000	35.278958
1530.000000	34.636999
1520.000000	34.167674
1510.000000	33.807628
1500.000000	33.689030
1490.000000	33.759857
1480.000000	33.950759
1470.000000	34.371283
1460.000000	35.190392
1450.000000	36.443874
1440.000000	38.388386
1430.000000	41.319553
1420.000000	45.253633
1410.000000	49.503813
1400.000000	53.155062
1390.000000	55.534266
1380.000000	56.836018
1370.000000	58.232480
1360.000000	59.516024
1350.000000	60.792000
1340.000000	61.808309
1330.000000	62.653521
1320.000000	63.224689
1310.000000	63.492688
1300.000000	63.472980
1290.000000	63.402741
1280.000000	63.464442
1270.000000	63.536069
1260.000000	63.452297
1250.000000	63.110027
1240.000000	62.723997
1230.000000	62.286922
1220.000000	61.546365
1210.000000	60.875998
1200.000000	60.612105
1190.000000	61.186430
1180.000000	62.449592
1170.000000	64.065620
1160.000000	65.475909
1150.000000	66.595887
1140.000000	67.386478
1130.000000	67.761750
1120.000000	67.882724
1110.000000	67.978100
1100.000000	68.039031
1090.000000	67.997872
1080.000000	67.892421
1070.000000	67.727066
1060.000000	67.590815
1050.000000	67.482052
1040.000000	67.404397
1030.000000	67.360232
1020.000000	67.388930
1010.000000	67.513204
1000.000000	67.655515
990.000000	67.862638
980.000000	68.128786
970.000000	68.458885
960.000000	68.782734
950.000000	68.993993
940.000000	69.009320
930.000000	69.099412
920.000000	69.144494
910.000000	69.421309
900.000000	69.614100
890.000000	69.747640
880.000000	69.845643
870.000000	70.028846
860.000000	70.287274
850.000000	69.052878
840.000000	69.557643
830.000000	69.162347
820.000000	69.329782
810.000000	69.257034
800.000000	69.201608
790.000000	69.317554
780.000000	69.189621
770.000000	69.094398
760.000000	69.101969
750.000000	69.308364
740.000000	69.053400
730.000000	69.052927
720.000000	69.043521
710.000000	69.091780
700.000000	68.936242
690.000000	68.872105
680.000000	68.707511
670.000000	68.608132
660.000000	68.561285
650.000000	68.394694
640.000000	68.218371
630.000000	68.066924
620.000000	67.918438
610.000000	67.704611
600.000000	67.493148
590.000000	67.289194
580.000000	66.970999
570.000000	66.692642
560.000000	66.366113
550.000000	65.950695
540.000000	65.591111
530.000000	65.199701
520.000000	64.691388
510.000000	64.171914
500.000000	63.519241
490.000000	63.027170
480.000000	62.617105
470.000000	61.555199
460.000000	60.532620
450.000000	59.209486
440.000000	57.374162
430.000000	55.171922
420.000000	52.640163
410.000000	50.302535
400.000000	47.947786
390.000000	45.242879
380.000000	42.616421
370.000000	39.781163
360.000000	37.212821
350.000000	34.278977
340.000000	31.582439
330.000000	29.480267
320.000000	27.414707
310.000000	25.634207
300.000000	20.380349
290.000000	16.213677
280.000000	14.357251
270.000000	14.027611
260.000000	14.248120
250.000000	14.357215
