PE UV       SUBTECH     SPECTRUM    ASCII       PEDS        4.00        
   -1
3C-XXX-C054.Sample.Raw.asc
23/09/06
10:31:39.00
23/09/06
10:31:39.00
Administrator

250.000000
1
Lambda 750
750N8071901
PerkinElmer UV WinLab 6.0.4.0738 / 1.61.00 Lambda 900

0
0
3350/servo 860.8/2
0
0
UV/VIS
1
1
1
CommonBeamDepol,150mm sphere / downward view
0
0
0
0
Program
Program
3350/servo 860.8/2
3350/0.2 860.8/0.2
3350/0.2 860.8/0.2
0
1
 
 
 
0
 
860.8
319.2
860.8
Front
100
on
 
 
0
0
0
 
0
 
 
 
0
 
 
0
0
0
0
0
 
 
 
 
0
0


0
0
#HDR
-1
-1
#GR
nm
%R
1.0
0.0
2500.000000
-10.000000
226
8
70.589895
22.772045
#DATA
2500.000000	22.945222
2490.000000	22.772045
2480.000000	23.225128
2470.000000	24.119972
2460.000000	24.949032
2450.000000	25.427649
2440.000000	25.863502
2430.000000	26.063491
2420.000000	26.209427
2410.000000	26.615070
2400.000000	26.219661
2390.000000	26.762161
2380.000000	26.808805
2370.000000	26.437052
2360.000000	27.268128
2350.000000	27.352487
2340.000000	26.946298
2330.000000	26.588334
2320.000000	26.173649
2310.000000	25.686049
2300.000000	25.475319
2290.000000	26.015576
2280.000000	26.199927
2270.000000	27.192909
2260.000000	28.534514
2250.000000	29.246763
2240.000000	29.811806
2230.000000	29.449549
2220.000000	29.028594
2210.000000	28.191405
2200.000000	27.963655
2190.000000	28.249673
2180.000000	28.778569
2170.000000	29.691094
2160.000000	30.583789
2150.000000	31.047284
2140.000000	31.644825
2130.000000	31.556101
2120.000000	31.628777
2110.000000	31.688193
2100.000000	31.188799
2090.000000	30.516074
2080.000000	29.420186
2070.000000	28.334471
2060.000000	27.550118
2050.000000	27.808007
2040.000000	28.276237
2030.000000	28.158849
2020.000000	27.486381
2010.000000	26.632869
2000.000000	25.710155
1990.000000	24.877363
1980.000000	24.050225
1970.000000	23.491278
1960.000000	23.237099
1950.000000	23.722595
1940.000000	24.933512
1930.000000	27.048167
1920.000000	30.532105
1910.000000	35.128789
1900.000000	39.492295
1890.000000	43.482927
1880.000000	46.178291
1870.000000	47.213575
1860.000000	47.429818
1850.000000	47.169288
1840.000000	46.848434
1830.000000	46.401731
1820.000000	45.949619
1810.000000	45.545924
1800.000000	45.216190
1790.000000	44.945524
1780.000000	44.573022
1770.000000	44.210933
1760.000000	43.806396
1750.000000	43.582010
1740.000000	43.895677
1730.000000	44.924658
1720.000000	45.609689
1710.000000	45.815559
1700.000000	46.683264
1690.000000	48.415109
1680.000000	49.970367
1670.000000	50.539437
1660.000000	50.627101
1650.000000	50.192166
1640.000000	49.561149
1630.000000	48.841505
1620.000000	47.967062
1610.000000	47.127096
1600.000000	46.419185
1590.000000	45.792151
1580.000000	45.197611
1570.000000	44.819173
1560.000000	44.249252
1550.000000	43.273820
1540.000000	42.384544
1530.000000	41.857712
1520.000000	41.444264
1510.000000	41.184240
1500.000000	41.079648
1490.000000	41.121209
1480.000000	41.285552
1470.000000	41.660550
1460.000000	42.391531
1450.000000	43.514038
1440.000000	45.191343
1430.000000	47.624590
1420.000000	50.822791
1410.000000	54.155317
1400.000000	56.919637
1390.000000	58.631032
1380.000000	59.671084
1370.000000	60.645130
1360.000000	61.610196
1350.000000	62.555783
1340.000000	63.324365
1330.000000	63.941702
1320.000000	64.375373
1310.000000	64.606928
1300.000000	64.595687
1290.000000	64.586712
1280.000000	64.600561
1270.000000	64.651697
1260.000000	64.595283
1250.000000	64.337584
1240.000000	64.109345
1230.000000	63.765381
1220.000000	63.213922
1210.000000	62.742178
1200.000000	62.610745
1190.000000	63.079417
1180.000000	64.021974
1170.000000	65.213535
1160.000000	66.219557
1150.000000	67.048607
1140.000000	67.632902
1130.000000	67.867316
1120.000000	67.991771
1110.000000	68.078967
1100.000000	68.097307
1090.000000	68.075944
1080.000000	67.977514
1070.000000	67.905154
1060.000000	67.815038
1050.000000	67.793113
1040.000000	67.779568
1030.000000	67.704782
1020.000000	67.758087
1010.000000	67.902180
1000.000000	67.969591
990.000000	68.182929
980.000000	68.452080
970.000000	68.706089
960.000000	69.008346
950.000000	69.145073
940.000000	69.294193
930.000000	69.378621
920.000000	69.501966
910.000000	69.636956
900.000000	69.921858
890.000000	70.100202
880.000000	70.204421
870.000000	70.589895
860.000000	70.452702
850.000000	69.357608
840.000000	69.575138
830.000000	69.666938
820.000000	69.299752
810.000000	69.454159
800.000000	69.660742
790.000000	69.626945
780.000000	69.577876
770.000000	69.714093
760.000000	69.583604
750.000000	69.743910
740.000000	69.821588
730.000000	69.697367
720.000000	69.867948
710.000000	69.789676
700.000000	69.789700
690.000000	69.910412
680.000000	69.671635
670.000000	69.611146
660.000000	69.679715
650.000000	69.560452
640.000000	69.542601
630.000000	69.574601
620.000000	69.581841
610.000000	69.452139
600.000000	69.370734
590.000000	69.375195
580.000000	69.229988
570.000000	69.219381
560.000000	69.113736
550.000000	69.038380
540.000000	68.894809
530.000000	68.734648
520.000000	68.538105
510.000000	68.301375
500.000000	68.257698
490.000000	67.962733
480.000000	67.632450
470.000000	67.181048
460.000000	66.507853
450.000000	65.805420
440.000000	64.734204
430.000000	63.272760
420.000000	61.642327
410.000000	60.035382
400.000000	58.772654
390.000000	57.200851
380.000000	55.631686
370.000000	53.714007
360.000000	51.651072
350.000000	49.313294
340.000000	46.993506
330.000000	44.992645
320.000000	44.128300
310.000000	43.217929
300.000000	36.894378
290.000000	29.862961
280.000000	25.865576
270.000000	26.067957
260.000000	27.060817
250.000000	28.151063
