PE UV       SUBTECH     SPECTRUM    ASCII       PEDS        4.00        
   -1
3C-XXX-F025.Sample.Raw.asc
23/09/06
15:09:30.00
23/09/06
15:09:30.00
Administrator

250.000000
1
Lambda 750
750N8071901
PerkinElmer UV WinLab 6.0.4.0738 / 1.61.00 Lambda 900

0
0
3350/servo 860.8/2
0
0
UV/VIS
1
1
1
CommonBeamDepol,150mm sphere / downward view
0
0
0
0
Program
Program
3350/servo 860.8/2
3350/0.2 860.8/0.2
3350/0.2 860.8/0.2
0
1
 
 
 
0
 
860.8
319.2
860.8
Front
100
on
 
 
0
0
0
 
0
 
 
 
0
 
 
0
0
0
0
0
 
 
 
 
0
0


0
0
#HDR
-1
-1
#GR
nm
%R
1.0
0.0
2500.000000
-10.000000
226
8
68.736095
14.178419
#DATA
2500.000000	14.729609
2490.000000	15.063385
2480.000000	14.977232
2470.000000	15.842294
2460.000000	16.305375
2450.000000	17.036082
2440.000000	17.181615
2430.000000	17.542075
2420.000000	18.555111
2410.000000	17.421056
2400.000000	18.795387
2390.000000	18.257173
2380.000000	18.256682
2370.000000	18.171809
2360.000000	18.311482
2350.000000	18.500383
2340.000000	18.616936
2330.000000	18.280520
2320.000000	17.917319
2310.000000	17.790601
2300.000000	17.022103
2290.000000	17.639814
2280.000000	17.945636
2270.000000	18.573046
2260.000000	20.489662
2250.000000	21.414844
2240.000000	21.090948
2230.000000	20.921338
2220.000000	20.463591
2210.000000	20.043665
2200.000000	19.502818
2190.000000	19.642863
2180.000000	20.318500
2170.000000	20.934840
2160.000000	21.864301
2150.000000	22.544147
2140.000000	22.891742
2130.000000	22.859316
2120.000000	23.084459
2110.000000	23.065149
2100.000000	22.633544
2090.000000	22.138499
2080.000000	21.080022
2070.000000	19.951251
2060.000000	19.357486
2050.000000	19.502421
2040.000000	20.056000
2030.000000	19.933977
2020.000000	19.364846
2010.000000	18.695001
2000.000000	17.784144
1990.000000	16.975004
1980.000000	16.427517
1970.000000	15.798504
1960.000000	15.544885
1950.000000	16.007304
1940.000000	17.037550
1930.000000	19.083260
1920.000000	22.014187
1910.000000	26.808469
1900.000000	31.410097
1890.000000	36.051975
1880.000000	39.458088
1870.000000	40.693626
1860.000000	41.010124
1850.000000	40.850018
1840.000000	40.335992
1830.000000	39.815564
1820.000000	39.287421
1810.000000	38.821320
1800.000000	38.372910
1790.000000	37.953016
1780.000000	37.503603
1770.000000	37.062469
1760.000000	36.575930
1750.000000	36.174557
1740.000000	36.579010
1730.000000	37.813595
1720.000000	38.663372
1710.000000	38.937777
1700.000000	39.925480
1690.000000	41.968472
1680.000000	44.056893
1670.000000	44.848512
1660.000000	44.972305
1650.000000	44.481379
1640.000000	43.716344
1630.000000	42.844186
1620.000000	41.778070
1610.000000	40.732511
1600.000000	39.836739
1590.000000	39.067361
1580.000000	38.372278
1570.000000	37.877267
1560.000000	37.295909
1550.000000	36.180052
1540.000000	35.088874
1530.000000	34.426571
1520.000000	33.980665
1510.000000	33.606215
1500.000000	33.458310
1490.000000	33.495782
1480.000000	33.702015
1470.000000	34.111854
1460.000000	34.880122
1450.000000	36.110092
1440.000000	37.964971
1430.000000	40.789810
1420.000000	44.555486
1410.000000	48.682305
1400.000000	52.243963
1390.000000	54.521609
1380.000000	55.820473
1370.000000	57.074939
1360.000000	58.325080
1350.000000	59.555337
1340.000000	60.508153
1330.000000	61.325252
1320.000000	61.900753
1310.000000	62.208823
1300.000000	62.215624
1290.000000	62.136858
1280.000000	62.163693
1270.000000	62.239171
1260.000000	62.188605
1250.000000	61.881363
1240.000000	61.497191
1230.000000	61.066176
1220.000000	60.367034
1210.000000	59.750233
1200.000000	59.493305
1190.000000	60.014618
1180.000000	61.170026
1170.000000	62.693335
1160.000000	64.032171
1150.000000	65.086895
1140.000000	65.847125
1130.000000	66.165339
1120.000000	66.297096
1110.000000	66.411990
1100.000000	66.432902
1090.000000	66.418215
1080.000000	66.313925
1070.000000	66.170491
1060.000000	66.031394
1050.000000	65.926313
1040.000000	65.861847
1030.000000	65.792343
1020.000000	65.847491
1010.000000	65.971905
1000.000000	66.109160
990.000000	66.303157
980.000000	66.557476
970.000000	66.880044
960.000000	67.195302
950.000000	67.368010
940.000000	67.453094
930.000000	67.557751
920.000000	67.630820
910.000000	67.875579
900.000000	68.092781
890.000000	68.183758
880.000000	68.319609
870.000000	68.495941
860.000000	68.736095
850.000000	67.260083
840.000000	67.692637
830.000000	67.921822
820.000000	67.690378
810.000000	67.657651
800.000000	67.707594
790.000000	67.524547
780.000000	67.519968
770.000000	67.527760
760.000000	67.472703
750.000000	67.537127
740.000000	67.500138
730.000000	67.424834
720.000000	67.439405
710.000000	67.464049
700.000000	67.180492
690.000000	67.151311
680.000000	66.915238
670.000000	66.906677
660.000000	66.835734
650.000000	66.715637
640.000000	66.563678
630.000000	66.379286
620.000000	66.235256
610.000000	66.017513
600.000000	65.823944
590.000000	65.575420
580.000000	65.341334
570.000000	65.087324
560.000000	64.775697
550.000000	64.425481
540.000000	64.043367
530.000000	63.713983
520.000000	63.289470
510.000000	62.738654
500.000000	62.135749
490.000000	61.654085
480.000000	61.248673
470.000000	60.214601
460.000000	59.253254
450.000000	57.961473
440.000000	56.256955
430.000000	54.054995
420.000000	51.527235
410.000000	49.218211
400.000000	46.795852
390.000000	44.253288
380.000000	41.674753
370.000000	38.747846
360.000000	35.914020
350.000000	33.159002
340.000000	30.374480
330.000000	27.898438
320.000000	25.712198
310.000000	23.822692
300.000000	20.223440
290.000000	16.176695
280.000000	14.276336
270.000000	14.178419
260.000000	14.290367
250.000000	14.399178
