PE UV       SUBTECH     SPECTRUM    ASCII       PEDS        4.00        
   -1
Empty Chamber.Sample.asc
18/03/05
16:38:33.00
18/03/05
16:38:33.00
Administrator

200.000000
1
Lambda 750
750N8071901
PerkinElmer UV WinLab 6.0.4.0738 / 1.61.00 Lambda 900

0
0
3350/servo 860.8/2
0
0
UV/VIS
1
1
1
CommonBeamDepol,150mm sphere / downward view
0
0
0
0
Program
Program
3350/servo 860.8/2
3350/0.2 860.8/0.2
3350/0.2 860.8/0.2
0
1
 
 
 
0
 
860.8
319.2
860.8
Front
100
on
 
 
0
0
0
 
0
 
 
 
0
 
 
0
0
0
0
0
 
 
 
 
0
0


0
0
#HDR
-1
-1
#GR
nm
%T
1.0
0.0
2350.000000
-1.000000
2151
8
101.015564
99.512092
#DATA
2350.000000	99.985914
2349.000000	99.807863
2348.000000	99.517668
2347.000000	100.172078
2346.000000	99.754974
2345.000000	100.514439
2344.000000	100.309178
2343.000000	99.744139
2342.000000	99.864168
2341.000000	100.032624
2340.000000	100.109668
2339.000000	100.125740
2338.000000	100.093363
2337.000000	99.820393
2336.000000	100.206615
2335.000000	100.613940
2334.000000	99.766580
2333.000000	99.668884
2332.000000	100.904014
2331.000000	100.414436
2330.000000	99.807225
2329.000000	100.156114
2328.000000	99.995861
2327.000000	99.990702
2326.000000	100.037985
2325.000000	99.910169
2324.000000	99.924860
2323.000000	100.254681
2322.000000	99.785824
2321.000000	99.693196
2320.000000	100.518623
2319.000000	100.241675
2318.000000	100.224797
2317.000000	100.046107
2316.000000	100.089018
2315.000000	100.088561
2314.000000	100.171515
2313.000000	100.268918
2312.000000	99.849592
2311.000000	100.210404
2310.000000	100.353011
2309.000000	99.976789
2308.000000	100.178099
2307.000000	99.967115
2306.000000	99.726894
2305.000000	100.147887
2304.000000	100.160357
2303.000000	100.197837
2302.000000	100.046779
2301.000000	99.744150
2300.000000	100.434036
2299.000000	100.299405
2298.000000	99.880560
2297.000000	99.967316
2296.000000	99.869526
2295.000000	100.428971
2294.000000	100.283041
2293.000000	100.172241
2292.000000	100.067739
2291.000000	99.792142
2290.000000	100.052196
2289.000000	99.769192
2288.000000	99.779214
2287.000000	99.888459
2286.000000	100.040298
2285.000000	100.113993
2284.000000	100.372497
2283.000000	100.049265
2282.000000	100.035189
2281.000000	100.017535
2280.000000	99.979931
2279.000000	99.950384
2278.000000	99.843553
2277.000000	99.968833
2276.000000	99.850510
2275.000000	100.011635
2274.000000	100.102087
2273.000000	100.129865
2272.000000	100.162519
2271.000000	99.815519
2270.000000	99.907727
2269.000000	99.905726
2268.000000	99.865611
2267.000000	100.002936
2266.000000	100.182897
2265.000000	100.049065
2264.000000	100.037905
2263.000000	100.030615
2262.000000	99.900464
2261.000000	100.014776
2260.000000	99.921107
2259.000000	99.780224
2258.000000	100.014360
2257.000000	100.039079
2256.000000	99.874982
2255.000000	99.899389
2254.000000	99.849762
2253.000000	99.767292
2252.000000	99.836175
2251.000000	99.906407
2250.000000	99.936534
2249.000000	100.092452
2248.000000	99.997063
2247.000000	99.933226
2246.000000	99.969132
2245.000000	99.752856
2244.000000	99.917479
2243.000000	100.168680
2242.000000	100.121740
2241.000000	99.786033
2240.000000	99.706054
2239.000000	99.793810
2238.000000	99.823107
2237.000000	100.052699
2236.000000	100.273141
2235.000000	100.285454
2234.000000	100.262362
2233.000000	100.109560
2232.000000	99.837239
2231.000000	99.805003
2230.000000	99.970250
2229.000000	99.956913
2228.000000	100.038883
2227.000000	99.921003
2226.000000	99.832984
2225.000000	99.911503
2224.000000	99.870528
2223.000000	99.828595
2222.000000	99.912174
2221.000000	100.002936
2220.000000	100.082938
2219.000000	100.169230
2218.000000	99.905173
2217.000000	99.849304
2216.000000	99.951849
2215.000000	100.014273
2214.000000	100.094772
2213.000000	100.280047
2212.000000	100.253923
2211.000000	100.098813
2210.000000	99.972250
2209.000000	99.823253
2208.000000	100.156822
2207.000000	100.175666
2206.000000	100.030990
2205.000000	99.951527
2204.000000	100.190345
2203.000000	99.852566
2202.000000	99.722549
2201.000000	99.958114
2200.000000	100.048261
2199.000000	100.018706
2198.000000	100.092664
2197.000000	100.063086
2196.000000	100.122106
2195.000000	100.145718
2194.000000	100.039682
2193.000000	99.916586
2192.000000	99.922870
2191.000000	100.197982
2190.000000	99.892369
2189.000000	99.793507
2188.000000	99.759336
2187.000000	99.862764
2186.000000	100.043694
2185.000000	100.032718
2184.000000	100.106042
2183.000000	100.071914
2182.000000	99.897130
2181.000000	100.061256
2180.000000	99.949494
2179.000000	99.870477
2178.000000	99.894087
2177.000000	99.984044
2176.000000	100.062686
2175.000000	99.997476
2174.000000	100.179880
2173.000000	99.995555
2172.000000	99.952135
2171.000000	99.974598
2170.000000	99.988007
2169.000000	100.217320
2168.000000	100.087268
2167.000000	99.972185
2166.000000	99.896620
2165.000000	100.090884
2164.000000	100.109654
2163.000000	100.065389
2162.000000	100.190642
2161.000000	100.147922
2160.000000	100.026598
2159.000000	99.883702
2158.000000	99.921343
2157.000000	99.831171
2156.000000	99.981573
2155.000000	99.798756
2154.000000	100.062294
2153.000000	100.072108
2152.000000	100.054606
2151.000000	99.942311
2150.000000	100.100561
2149.000000	100.065755
2148.000000	99.988317
2147.000000	100.289602
2146.000000	100.163046
2145.000000	99.937185
2144.000000	100.050314
2143.000000	100.103810
2142.000000	99.926545
2141.000000	99.902662
2140.000000	100.134679
2139.000000	100.076529
2138.000000	100.116368
2137.000000	99.841726
2136.000000	99.978557
2135.000000	99.955631
2134.000000	99.922566
2133.000000	99.801416
2132.000000	99.780791
2131.000000	99.858807
2130.000000	100.214959
2129.000000	100.026613
2128.000000	99.924350
2127.000000	99.984980
2126.000000	99.858085
2125.000000	100.098748
2124.000000	99.939242
2123.000000	100.101297
2122.000000	99.775169
2121.000000	100.010086
2120.000000	100.195673
2119.000000	100.079927
2118.000000	99.917244
2117.000000	100.092780
2116.000000	100.119581
2115.000000	100.116744
2114.000000	100.178755
2113.000000	100.014839
2112.000000	99.976177
2111.000000	100.014134
2110.000000	100.121829
2109.000000	100.194960
2108.000000	100.135816
2107.000000	99.806807
2106.000000	99.943739
2105.000000	99.806277
2104.000000	99.832722
2103.000000	99.985171
2102.000000	99.943327
2101.000000	100.003330
2100.000000	100.191169
2099.000000	100.015051
2098.000000	100.034220
2097.000000	100.021627
2096.000000	100.083451
2095.000000	99.913917
2094.000000	100.027569
2093.000000	100.036877
2092.000000	99.871534
2091.000000	100.009599
2090.000000	99.905967
2089.000000	99.870560
2088.000000	100.047069
2087.000000	100.086507
2086.000000	99.966692
2085.000000	100.078906
2084.000000	99.976667
2083.000000	100.031112
2082.000000	100.048718
2081.000000	99.953616
2080.000000	99.972205
2079.000000	100.103751
2078.000000	100.037736
2077.000000	99.859207
2076.000000	100.080115
2075.000000	100.044569
2074.000000	99.927744
2073.000000	99.925707
2072.000000	100.001415
2071.000000	100.070054
2070.000000	99.986252
2069.000000	99.933567
2068.000000	100.068719
2067.000000	99.999798
2066.000000	99.938145
2065.000000	100.069946
2064.000000	100.035204
2063.000000	99.953674
2062.000000	99.917426
2061.000000	100.018309
2060.000000	99.960098
2059.000000	100.002830
2058.000000	99.994137
2057.000000	100.012135
2056.000000	100.085612
2055.000000	100.137935
2054.000000	100.026199
2053.000000	99.922426
2052.000000	99.953249
2051.000000	99.943335
2050.000000	99.957911
2049.000000	100.021762
2048.000000	100.056104
2047.000000	100.042926
2046.000000	100.027421
2045.000000	99.995953
2044.000000	100.024990
2043.000000	99.979971
2042.000000	99.977741
2041.000000	100.038349
2040.000000	100.042595
2039.000000	100.010829
2038.000000	100.044345
2037.000000	100.029467
2036.000000	99.943437
2035.000000	99.987655
2034.000000	100.056988
2033.000000	100.051332
2032.000000	100.059454
2031.000000	100.053690
2030.000000	99.998886
2029.000000	99.978636
2028.000000	99.979649
2027.000000	99.959395
2026.000000	99.961225
2025.000000	100.017527
2024.000000	99.995136
2023.000000	99.993617
2022.000000	100.040328
2021.000000	100.015601
2020.000000	100.016719
2019.000000	100.107253
2018.000000	100.062951
2017.000000	100.008817
2016.000000	100.061834
2015.000000	100.003141
2014.000000	99.978931
2013.000000	100.001824
2012.000000	100.029086
2011.000000	100.062857
2010.000000	100.002635
2009.000000	99.932416
2008.000000	100.048981
2007.000000	100.076572
2006.000000	100.019467
2005.000000	100.058315
2004.000000	100.069303
2003.000000	100.002739
2002.000000	100.010851
2001.000000	99.962790
2000.000000	99.917784
1999.000000	99.917808
1998.000000	99.957005
1997.000000	100.016433
1996.000000	100.024648
1995.000000	99.959330
1994.000000	99.996653
1993.000000	100.043942
1992.000000	100.049946
1991.000000	100.006193
1990.000000	100.018373
1989.000000	100.051982
1988.000000	100.004367
1987.000000	99.975129
1986.000000	99.955032
1985.000000	99.972792
1984.000000	99.973607
1983.000000	100.048841
1982.000000	99.994518
1981.000000	100.025385
1980.000000	100.001117
1979.000000	99.971264
1978.000000	99.988322
1977.000000	99.931685
1976.000000	99.988525
1975.000000	99.998985
1974.000000	100.036866
1973.000000	100.050676
1972.000000	100.033622
1971.000000	100.012389
1970.000000	99.961933
1969.000000	99.962450
1968.000000	99.980920
1967.000000	100.021009
1966.000000	99.994112
1965.000000	99.933416
1964.000000	99.968828
1963.000000	100.024474
1962.000000	100.035741
1961.000000	99.995939
1960.000000	100.013602
1959.000000	100.029843
1958.000000	99.997563
1957.000000	99.983453
1956.000000	100.037860
1955.000000	99.920267
1954.000000	99.954854
1953.000000	100.038052
1952.000000	99.981736
1951.000000	100.048204
1950.000000	100.027806
1949.000000	100.007410
1948.000000	100.034101
1947.000000	100.015114
1946.000000	100.064724
1945.000000	100.006086
1944.000000	99.962268
1943.000000	99.965298
1942.000000	100.113134
1941.000000	100.044006
1940.000000	99.919456
1939.000000	99.946240
1938.000000	99.987543
1937.000000	99.854494
1936.000000	99.928420
1935.000000	99.977008
1934.000000	100.017618
1933.000000	100.052719
1932.000000	100.000304
1931.000000	99.989976
1930.000000	100.144596
1929.000000	100.129211
1928.000000	99.873603
1927.000000	100.109773
1926.000000	99.874485
1925.000000	99.886747
1924.000000	99.940147
1923.000000	100.043034
1922.000000	99.922969
1921.000000	100.022980
1920.000000	99.881509
1919.000000	100.033549
1918.000000	100.006783
1917.000000	100.049924
1916.000000	99.932807
1915.000000	100.032502
1914.000000	100.069277
1913.000000	99.899037
1912.000000	99.896941
1911.000000	99.943610
1910.000000	99.974086
1909.000000	100.022895
1908.000000	99.971140
1907.000000	100.046993
1906.000000	99.945948
1905.000000	99.991082
1904.000000	100.150938
1903.000000	99.994631
1902.000000	99.836852
1901.000000	99.921040
1900.000000	99.995340
1899.000000	99.993111
1898.000000	100.022191
1897.000000	100.012567
1896.000000	100.073108
1895.000000	100.078264
1894.000000	99.954396
1893.000000	99.997062
1892.000000	100.011860
1891.000000	100.023916
1890.000000	99.964437
1889.000000	99.939006
1888.000000	99.988148
1887.000000	99.954851
1886.000000	99.942722
1885.000000	99.920273
1884.000000	99.965708
1883.000000	100.016801
1882.000000	99.921807
1881.000000	99.947890
1880.000000	100.036620
1879.000000	99.970475
1878.000000	99.920160
1877.000000	99.941177
1876.000000	99.969062
1875.000000	99.977458
1874.000000	99.985754
1873.000000	99.957965
1872.000000	99.911038
1871.000000	99.932638
1870.000000	100.146112
1869.000000	100.103422
1868.000000	100.094051
1867.000000	100.010817
1866.000000	99.957866
1865.000000	100.035185
1864.000000	100.030230
1863.000000	100.027503
1862.000000	100.030039
1861.000000	100.034994
1860.000000	100.034086
1859.000000	99.984727
1858.000000	99.956831
1857.000000	99.931863
1856.000000	99.939959
1855.000000	99.985137
1854.000000	99.980486
1853.000000	100.000404
1852.000000	100.006876
1851.000000	100.012033
1850.000000	99.968668
1849.000000	100.008693
1848.000000	100.070173
1847.000000	100.047936
1846.000000	100.011524
1845.000000	100.017082
1844.000000	100.001011
1843.000000	99.963717
1842.000000	99.940878
1841.000000	99.998484
1840.000000	100.044995
1839.000000	100.011932
1838.000000	99.970175
1837.000000	99.987664
1836.000000	100.022762
1835.000000	100.011331
1834.000000	99.989075
1833.000000	100.035320
1832.000000	100.061152
1831.000000	100.016500
1830.000000	100.052147
1829.000000	100.044048
1828.000000	99.987752
1827.000000	99.991093
1826.000000	100.017715
1825.000000	99.995038
1824.000000	100.015297
1823.000000	100.031202
1822.000000	100.004964
1821.000000	100.008512
1820.000000	100.013476
1819.000000	100.025431
1818.000000	100.039526
1817.000000	100.001013
1816.000000	99.967272
1815.000000	100.005980
1814.000000	100.010238
1813.000000	99.965545
1812.000000	99.976591
1811.000000	100.027775
1810.000000	100.042484
1809.000000	100.023527
1808.000000	100.010040
1807.000000	100.018760
1806.000000	100.021603
1805.000000	99.982352
1804.000000	99.987121
1803.000000	100.019780
1802.000000	100.011666
1801.000000	100.010854
1800.000000	100.019374
1799.000000	99.980122
1798.000000	99.965014
1797.000000	99.978092
1796.000000	99.993811
1795.000000	99.997159
1794.000000	100.008118
1793.000000	100.007814
1792.000000	99.994622
1791.000000	99.993810
1790.000000	99.974633
1789.000000	99.970067
1788.000000	100.015834
1787.000000	100.027103
1786.000000	99.990968
1785.000000	100.019285
1784.000000	100.016342
1783.000000	99.993810
1782.000000	100.008422
1781.000000	100.045164
1780.000000	100.021616
1779.000000	100.023446
1778.000000	99.983560
1777.000000	99.995738
1776.000000	99.997767
1775.000000	100.002537
1774.000000	99.985082
1773.000000	100.019183
1772.000000	100.044262
1771.000000	99.997869
1770.000000	100.001522
1769.000000	99.982547
1768.000000	99.929480
1767.000000	99.949281
1766.000000	99.992391
1765.000000	100.005277
1764.000000	99.988938
1763.000000	99.976760
1762.000000	100.013196
1761.000000	100.012688
1760.000000	99.948055
1759.000000	100.020498
1758.000000	100.017254
1757.000000	100.014515
1756.000000	100.016749
1755.000000	100.025583
1754.000000	100.022835
1753.000000	100.000406
1752.000000	99.971389
1751.000000	99.990259
1750.000000	99.962562
1749.000000	100.024560
1748.000000	99.980111
1747.000000	99.996855
1746.000000	99.991274
1745.000000	100.011976
1744.000000	99.995737
1743.000000	99.996041
1742.000000	99.991068
1741.000000	99.986298
1740.000000	100.014511
1739.000000	99.987113
1738.000000	100.002029
1737.000000	99.998478
1736.000000	99.992999
1735.000000	100.029119
1734.000000	100.003856
1733.000000	99.986811
1732.000000	99.962768
1731.000000	99.954552
1730.000000	99.964294
1729.000000	99.989142
1728.000000	100.023951
1727.000000	99.992288
1726.000000	100.017759
1725.000000	99.964095
1724.000000	99.945838
1723.000000	99.987418
1722.000000	99.981333
1721.000000	100.012476
1720.000000	100.011565
1719.000000	99.991883
1718.000000	99.953538
1717.000000	99.976164
1716.000000	100.006392
1715.000000	99.974032
1714.000000	100.036016
1713.000000	99.979915
1712.000000	99.981130
1711.000000	99.977378
1710.000000	100.035309
1709.000000	99.985696
1708.000000	99.983266
1707.000000	100.009841
1706.000000	100.002941
1705.000000	99.995841
1704.000000	100.032561
1703.000000	100.040180
1702.000000	99.971497
1701.000000	99.982249
1700.000000	100.014911
1699.000000	100.016636
1698.000000	100.005374
1697.000000	99.977285
1696.000000	99.953957
1695.000000	99.957403
1694.000000	99.977382
1693.000000	100.030736
1692.000000	99.984888
1691.000000	100.043310
1690.000000	100.003348
1689.000000	99.980330
1688.000000	99.972213
1687.000000	100.013592
1686.000000	100.031139
1685.000000	100.001116
1684.000000	99.998276
1683.000000	100.008012
1682.000000	100.004563
1681.000000	100.031347
1680.000000	99.984182
1679.000000	100.001419
1678.000000	99.997160
1677.000000	99.967857
1676.000000	99.984278
1675.000000	100.028301
1674.000000	100.007709
1673.000000	100.001521
1672.000000	99.996957
1671.000000	99.978805
1670.000000	100.020788
1669.000000	99.980739
1668.000000	99.975571
1667.000000	99.995945
1666.000000	99.968883
1665.000000	99.985001
1664.000000	100.006894
1663.000000	99.964635
1662.000000	99.992601
1661.000000	100.021494
1660.000000	100.011053
1659.000000	100.006590
1658.000000	100.013180
1657.000000	100.012367
1656.000000	99.995540
1655.000000	99.998074
1654.000000	100.022502
1653.000000	100.003345
1652.000000	100.031731
1651.000000	100.020070
1650.000000	100.029705
1649.000000	99.975980
1648.000000	99.973853
1647.000000	99.995844
1646.000000	99.979020
1645.000000	99.976285
1644.000000	99.979123
1643.000000	99.998378
1642.000000	100.016013
1641.000000	99.985610
1640.000000	100.000811
1639.000000	99.997770
1638.000000	99.990674
1637.000000	99.995743
1636.000000	100.011049
1635.000000	100.011557
1634.000000	100.000710
1633.000000	100.009933
1632.000000	100.024330
1631.000000	100.027678
1630.000000	100.002230
1629.000000	100.022304
1628.000000	100.007603
1627.000000	99.996148
1626.000000	99.992196
1625.000000	99.979829
1624.000000	100.013786
1623.000000	99.980947
1622.000000	99.967064
1621.000000	99.992905
1620.000000	99.990473
1619.000000	99.971015
1618.000000	99.986014
1617.000000	99.994324
1616.000000	99.992702
1615.000000	99.989864
1614.000000	99.979222
1613.000000	99.979426
1612.000000	99.986723
1611.000000	99.988445
1610.000000	99.972739
1609.000000	99.984596
1608.000000	99.995237
1607.000000	100.008615
1606.000000	100.002534
1605.000000	100.006791
1604.000000	100.024937
1603.000000	100.031728
1602.000000	100.020881
1601.000000	99.977502
1600.000000	99.963217
1599.000000	99.992703
1598.000000	100.011353
1597.000000	100.015408
1596.000000	100.026356
1595.000000	100.007906
1594.000000	99.983482
1593.000000	99.987636
1592.000000	99.993716
1591.000000	100.016321
1590.000000	100.009427
1589.000000	99.998480
1588.000000	100.003446
1587.000000	99.991892
1586.000000	99.989156
1585.000000	99.994020
1584.000000	100.015813
1583.000000	100.004662
1582.000000	99.988041
1581.000000	99.988953
1580.000000	99.996251
1579.000000	100.002533
1578.000000	99.997973
1577.000000	99.997163
1576.000000	100.020980
1575.000000	100.018143
1574.000000	100.014494
1573.000000	100.025137
1572.000000	100.011554
1571.000000	99.989867
1570.000000	99.992096
1569.000000	100.002027
1568.000000	100.013579
1567.000000	100.004763
1566.000000	99.993313
1565.000000	99.971329
1564.000000	100.001013
1563.000000	100.000405
1562.000000	99.987741
1561.000000	99.986931
1560.000000	99.997771
1559.000000	99.988856
1558.000000	99.994428
1557.000000	100.018845
1556.000000	100.004053
1555.000000	100.022292
1554.000000	99.998683
1553.000000	100.000507
1552.000000	99.993719
1551.000000	99.998481
1550.000000	99.972047
1549.000000	99.968501
1548.000000	99.990579
1547.000000	99.990174
1546.000000	99.982678
1545.000000	100.015906
1544.000000	99.992808
1543.000000	99.985212
1542.000000	99.995644
1541.000000	100.030902
1540.000000	100.001621
1539.000000	99.999797
1538.000000	99.989668
1537.000000	99.994936
1536.000000	100.013066
1535.000000	99.968405
1534.000000	99.993822
1533.000000	99.985923
1532.000000	99.967694
1531.000000	99.989060
1530.000000	99.991593
1529.000000	99.957875
1528.000000	99.998278
1527.000000	99.996455
1526.000000	99.970829
1525.000000	99.992404
1524.000000	100.000405
1523.000000	99.984503
1522.000000	99.990986
1521.000000	99.989670
1520.000000	99.974684
1519.000000	99.992607
1518.000000	99.979746
1517.000000	100.001317
1516.000000	99.997670
1515.000000	100.000000
1514.000000	99.993113
1513.000000	99.997367
1512.000000	99.982174
1511.000000	100.002229
1510.000000	100.005572
1509.000000	100.022794
1508.000000	99.978934
1507.000000	100.004457
1506.000000	99.976908
1505.000000	99.979443
1504.000000	99.990581
1503.000000	99.997974
1502.000000	100.009827
1501.000000	100.027864
1500.000000	100.022591
1499.000000	99.983088
1498.000000	99.982075
1497.000000	99.992910
1496.000000	99.995847
1495.000000	100.003140
1494.000000	100.018841
1493.000000	100.014685
1492.000000	100.017320
1491.000000	99.971750
1490.000000	99.988354
1489.000000	100.018634
1488.000000	99.980052
1487.000000	99.997975
1486.000000	99.977625
1485.000000	100.038078
1484.000000	99.984508
1483.000000	99.987142
1482.000000	100.021569
1481.000000	99.984006
1480.000000	99.988662
1479.000000	99.978236
1478.000000	100.023998
1477.000000	100.010934
1476.000000	99.975503
1475.000000	99.993015
1474.000000	100.021060
1473.000000	99.994432
1472.000000	100.006276
1471.000000	100.009617
1470.000000	99.995141
1469.000000	100.008300
1468.000000	99.981983
1467.000000	99.980566
1466.000000	99.989372
1465.000000	100.014880
1464.000000	100.017208
1463.000000	99.997976
1462.000000	100.010730
1461.000000	99.983403
1460.000000	100.008603
1459.000000	100.003846
1458.000000	100.028043
1457.000000	100.017408
1456.000000	100.020139
1455.000000	100.000708
1454.000000	100.009006
1453.000000	99.978447
1452.000000	99.987050
1451.000000	99.992007
1450.000000	99.971370
1449.000000	99.989883
1448.000000	99.998381
1447.000000	99.992412
1446.000000	99.984017
1445.000000	99.996763
1444.000000	100.004148
1443.000000	99.996561
1442.000000	99.996864
1441.000000	100.003541
1440.000000	100.001618
1439.000000	99.996561
1438.000000	99.981290
1437.000000	100.005462
1436.000000	100.024479
1435.000000	100.009407
1434.000000	100.001618
1433.000000	99.987864
1432.000000	100.003742
1431.000000	100.000404
1430.000000	100.002933
1429.000000	100.001011
1428.000000	100.009000
1427.000000	99.993428
1426.000000	99.991103
1425.000000	100.003336
1424.000000	99.988478
1423.000000	99.996160
1422.000000	100.002728
1421.000000	99.992927
1420.000000	99.987573
1419.000000	99.994646
1418.000000	100.000202
1417.000000	100.011819
1416.000000	99.985255
1415.000000	99.980713
1414.000000	99.987277
1413.000000	99.998990
1412.000000	100.006461
1411.000000	99.996164
1410.000000	99.988898
1409.000000	99.995761
1408.000000	99.978910
1407.000000	99.974674
1406.000000	99.989103
1405.000000	100.001917
1404.000000	99.971454
1403.000000	99.979523
1402.000000	100.012105
1401.000000	100.010389
1400.000000	100.006656
1399.000000	99.988100
1398.000000	99.991026
1397.000000	100.003932
1396.000000	99.981855
1395.000000	99.977826
1394.000000	99.998085
1393.000000	99.997682
1392.000000	100.007759
1391.000000	100.010782
1390.000000	99.997582
1389.000000	99.993148
1388.000000	99.997380
1387.000000	99.991235
1386.000000	99.978239
1385.000000	99.987306
1384.000000	99.986803
1383.000000	99.993250
1382.000000	99.987912
1381.000000	99.986603
1380.000000	99.997583
1379.000000	99.987913
1378.000000	99.990028
1377.000000	99.982979
1376.000000	99.980059
1375.000000	99.984090
1374.000000	99.991340
1373.000000	100.005740
1372.000000	100.015810
1371.000000	100.015508
1370.000000	100.004229
1369.000000	99.994462
1368.000000	100.006645
1367.000000	100.016414
1366.000000	100.005840
1365.000000	99.995067
1364.000000	99.993758
1363.000000	99.998792
1362.000000	100.010171
1361.000000	100.008157
1360.000000	99.997079
1359.000000	99.994862
1358.000000	99.988917
1357.000000	99.992140
1356.000000	99.976518
1355.000000	99.983065
1354.000000	99.992841
1353.000000	100.027740
1352.000000	100.028245
1351.000000	100.004237
1350.000000	99.973669
1349.000000	99.975881
1348.000000	100.022210
1347.000000	100.006662
1346.000000	99.978803
1345.000000	99.995356
1344.000000	100.016356
1343.000000	99.989500
1342.000000	99.991621
1341.000000	100.008177
1340.000000	100.016357
1339.000000	100.004443
1338.000000	99.981828
1337.000000	99.993135
1336.000000	100.009895
1335.000000	100.016254
1334.000000	100.002322
1333.000000	99.977388
1332.000000	99.978096
1331.000000	99.981833
1330.000000	100.008379
1329.000000	99.966993
1328.000000	99.974868
1327.000000	100.012216
1326.000000	100.014738
1325.000000	99.967703
1324.000000	99.991017
1323.000000	100.030794
1322.000000	99.992428
1321.000000	100.022110
1320.000000	100.011608
1319.000000	99.983043
1318.000000	99.977795
1317.000000	99.999293
1316.000000	100.017972
1315.000000	100.004643
1314.000000	99.977895
1313.000000	99.988897
1312.000000	100.036353
1311.000000	99.972539
1310.000000	99.996466
1309.000000	100.016157
1308.000000	99.995659
1307.000000	99.988187
1306.000000	99.989298
1305.000000	99.992932
1304.000000	100.041813
1303.000000	100.030196
1302.000000	100.026053
1301.000000	99.977886
1300.000000	99.992831
1299.000000	99.986875
1298.000000	99.971430
1297.000000	99.986268
1296.000000	100.000909
1295.000000	99.986776
1294.000000	100.003938
1293.000000	99.995860
1292.000000	100.000101
1291.000000	100.004543
1290.000000	99.994145
1289.000000	100.015042
1288.000000	100.008077
1287.000000	99.986676
1286.000000	99.962660
1285.000000	99.993944
1284.000000	99.978302
1283.000000	99.999294
1282.000000	99.999495
1281.000000	100.016753
1280.000000	99.972559
1279.000000	99.990618
1278.000000	100.003733
1277.000000	99.990518
1276.000000	99.991728
1275.000000	100.005750
1274.000000	99.988603
1273.000000	99.978318
1272.000000	99.995664
1271.000000	99.986185
1270.000000	99.995664
1269.000000	99.976101
1268.000000	100.009580
1267.000000	100.042167
1266.000000	99.986088
1265.000000	99.982155
1264.000000	99.950903
1263.000000	99.989919
1262.000000	99.976815
1261.000000	99.992742
1260.000000	100.008974
1259.000000	100.029949
1258.000000	100.010486
1257.000000	99.969256
1256.000000	100.010283
1255.000000	99.997278
1254.000000	99.973187
1253.000000	99.986592
1252.000000	100.015326
1251.000000	99.970166
1250.000000	99.969255
1249.000000	100.000202
1248.000000	100.017540
1247.000000	100.004940
1246.000000	99.992037
1245.000000	100.024296
1244.000000	100.001008
1243.000000	99.996875
1242.000000	99.979643
1241.000000	100.001008
1240.000000	99.999395
1239.000000	99.998488
1238.000000	100.003326
1237.000000	99.991839
1236.000000	99.988012
1235.000000	100.013399
1234.000000	99.989524
1233.000000	99.982677
1232.000000	99.992446
1231.000000	99.998792
1230.000000	100.001309
1229.000000	99.980065
1228.000000	99.989429
1227.000000	100.018423
1226.000000	100.014091
1225.000000	100.004126
1224.000000	100.007851
1223.000000	99.998390
1222.000000	100.002314
1221.000000	100.007545
1220.000000	99.979984
1219.000000	99.993362
1218.000000	99.976165
1217.000000	100.006035
1216.000000	100.012776
1215.000000	99.999397
1214.000000	100.003821
1213.000000	99.986728
1212.000000	100.003318
1211.000000	100.022630
1210.000000	99.988437
1209.000000	100.013373
1208.000000	100.010860
1207.000000	100.025143
1206.000000	99.984314
1205.000000	100.017700
1204.000000	99.987131
1203.000000	99.985522
1202.000000	100.005831
1201.000000	100.008545
1200.000000	100.032980
1199.000000	100.014678
1198.000000	99.978085
1197.000000	99.990350
1196.000000	100.018598
1195.000000	100.019003
1194.000000	99.999598
1193.000000	100.001608
1192.000000	100.003920
1191.000000	100.008041
1190.000000	99.996683
1189.000000	99.985725
1188.000000	99.968235
1187.000000	99.989044
1186.000000	99.989347
1185.000000	99.990956
1184.000000	99.997990
1183.000000	99.988444
1182.000000	99.977395
1181.000000	99.975087
1180.000000	99.983726
1179.000000	99.993872
1178.000000	99.990960
1177.000000	99.994878
1176.000000	99.981822
1175.000000	99.985339
1174.000000	99.988353
1173.000000	99.991265
1172.000000	99.993977
1171.000000	99.994579
1170.000000	100.003413
1169.000000	99.991468
1168.000000	99.988459
1167.000000	100.002609
1166.000000	99.993076
1165.000000	99.994683
1164.000000	100.018862
1163.000000	100.018961
1162.000000	100.012036
1161.000000	100.013440
1160.000000	100.002106
1159.000000	100.003910
1158.000000	100.015039
1157.000000	100.013734
1156.000000	100.007317
1155.000000	99.997895
1154.000000	99.980763
1153.000000	99.982769
1152.000000	99.984774
1151.000000	99.979367
1150.000000	99.993389
1149.000000	99.990286
1148.000000	99.995194
1147.000000	100.012217
1146.000000	99.983781
1145.000000	99.990590
1144.000000	100.004704
1143.000000	100.000100
1142.000000	100.006205
1141.000000	100.000500
1140.000000	99.996699
1139.000000	99.992298
1138.000000	100.013003
1137.000000	100.004800
1136.000000	99.988002
1135.000000	99.983306
1134.000000	99.978908
1133.000000	99.991803
1132.000000	99.974117
1131.000000	99.960135
1130.000000	100.001599
1129.000000	100.003197
1128.000000	99.992010
1127.000000	99.996504
1126.000000	100.012984
1125.000000	100.017977
1124.000000	100.004393
1123.000000	99.997704
1122.000000	99.986923
1121.000000	99.976247
1120.000000	99.999601
1119.000000	100.010479
1118.000000	99.981043
1117.000000	99.970771
1116.000000	99.980348
1115.000000	99.979850
1114.000000	99.991023
1113.000000	99.976463
1112.000000	99.979958
1111.000000	99.997607
1110.000000	99.985243
1109.000000	99.984648
1108.000000	99.991328
1107.000000	99.989932
1106.000000	99.987542
1105.000000	99.994320
1104.000000	100.009965
1103.000000	99.997510
1102.000000	100.011853
1101.000000	100.015042
1100.000000	100.032371
1099.000000	100.006969
1098.000000	99.983975
1097.000000	99.988058
1096.000000	99.999900
1095.000000	99.996616
1094.000000	99.999602
1093.000000	100.020195
1092.000000	100.002089
1091.000000	99.982101
1090.000000	99.978822
1089.000000	99.987076
1088.000000	100.003181
1087.000000	100.024250
1086.000000	100.002583
1085.000000	100.001093
1084.000000	99.999801
1083.000000	100.006455
1082.000000	99.993347
1081.000000	99.997617
1080.000000	100.014294
1079.000000	100.011611
1078.000000	100.009129
1077.000000	100.005257
1076.000000	99.997917
1075.000000	100.020332
1074.000000	100.000000
1073.000000	100.018636
1072.000000	100.000595
1071.000000	100.011493
1070.000000	99.994353
1069.000000	99.994652
1068.000000	100.018023
1067.000000	100.003465
1066.000000	99.990597
1065.000000	100.032068
1064.000000	100.018405
1063.000000	100.017410
1062.000000	99.998813
1061.000000	99.989519
1060.000000	99.992784
1059.000000	99.998715
1058.000000	100.004447
1057.000000	99.996640
1056.000000	100.002963
1055.000000	99.986472
1054.000000	99.999013
1053.000000	100.005034
1052.000000	100.010658
1051.000000	99.975732
1050.000000	100.005623
1049.000000	99.993294
1048.000000	100.004732
1047.000000	99.984724
1046.000000	99.977340
1045.000000	99.982860
1044.000000	99.993304
1043.000000	100.022453
1042.000000	99.981593
1041.000000	99.986615
1040.000000	100.001082
1039.000000	99.993409
1038.000000	99.982498
1037.000000	99.988497
1036.000000	100.013270
1035.000000	99.991451
1034.000000	100.001768
1033.000000	100.006385
1032.000000	99.998036
1031.000000	100.009423
1030.000000	100.006575
1029.000000	99.993329
1028.000000	100.026877
1027.000000	99.998235
1026.000000	100.000588
1025.000000	100.016855
1024.000000	99.993241
1023.000000	99.989033
1022.000000	99.986393
1021.000000	99.974364
1020.000000	99.960484
1019.000000	100.010564
1018.000000	100.001467
1017.000000	99.985045
1016.000000	99.985734
1015.000000	100.020224
1014.000000	99.998633
1013.000000	99.992287
1012.000000	100.016106
1011.000000	100.010928
1010.000000	99.990441
1009.000000	99.999805
1008.000000	99.977289
1007.000000	99.993277
1006.000000	99.977109
1005.000000	99.980720
1004.000000	99.983645
1003.000000	99.990755
1002.000000	99.981712
1001.000000	99.991734
1000.000000	99.993389
999.000000	100.018760
998.000000	100.021183
997.000000	100.013889
996.000000	99.995534
995.000000	99.959055
994.000000	99.963431
993.000000	99.969166
992.000000	99.980808
991.000000	99.988082
990.000000	100.010270
989.000000	100.009588
988.000000	99.988771
987.000000	99.993130
986.000000	100.000097
985.000000	100.000870
984.000000	99.997777
983.000000	100.004057
982.000000	100.002221
981.000000	99.988998
980.000000	99.973472
979.000000	100.005015
978.000000	99.989205
977.000000	99.968112
976.000000	99.987480
975.000000	99.991818
974.000000	100.007409
973.000000	100.002597
972.000000	99.998750
971.000000	99.977228
970.000000	99.977433
969.000000	99.991745
968.000000	100.012379
967.000000	100.001918
966.000000	99.985047
965.000000	99.994635
964.000000	99.972808
963.000000	99.980858
962.000000	100.003540
961.000000	100.008416
960.000000	99.988053
959.000000	99.996083
958.000000	99.982814
957.000000	99.999809
956.000000	100.004863
955.000000	99.979418
954.000000	99.979523
953.000000	100.008949
952.000000	100.023979
951.000000	100.005705
950.000000	99.988123
949.000000	99.983096
948.000000	99.970389
947.000000	99.972205
946.000000	99.978858
945.000000	99.974514
944.000000	99.964404
943.000000	100.008516
942.000000	100.008417
941.000000	99.979589
940.000000	99.995656
939.000000	99.993205
938.000000	100.013020
937.000000	100.012163
936.000000	99.992276
935.000000	99.977125
934.000000	99.982972
933.000000	99.993231
932.000000	99.962801
931.000000	99.972305
930.000000	99.998499
929.000000	100.000000
928.000000	100.020616
927.000000	99.993070
926.000000	99.978197
925.000000	99.985134
924.000000	99.997571
923.000000	99.992064
922.000000	100.017259
921.000000	100.022002
920.000000	100.031122
919.000000	99.969561
918.000000	99.933319
917.000000	99.942108
916.000000	99.977344
915.000000	99.996010
914.000000	99.982665
913.000000	99.997128
912.000000	99.981857
911.000000	99.950343
910.000000	99.953251
909.000000	99.960953
908.000000	99.966610
907.000000	99.971799
906.000000	100.011975
905.000000	100.015282
904.000000	99.970031
903.000000	99.947748
902.000000	99.963838
901.000000	99.975696
900.000000	99.916375
899.000000	99.933466
898.000000	100.036409
897.000000	99.998720
896.000000	99.957286
895.000000	99.956421
894.000000	99.976570
893.000000	99.985883
892.000000	99.969261
891.000000	99.958748
890.000000	99.962783
889.000000	99.958840
888.000000	99.963556
887.000000	100.014583
886.000000	100.039461
885.000000	100.076214
884.000000	100.010568
883.000000	99.955526
882.000000	100.003245
881.000000	100.024848
880.000000	99.910395
879.000000	99.985255
878.000000	99.977011
877.000000	99.966080
876.000000	99.904120
875.000000	99.937967
874.000000	99.981742
873.000000	99.871833
872.000000	99.934194
871.000000	100.050912
870.000000	99.901187
869.000000	99.905192
868.000000	100.009445
867.000000	100.014241
866.000000	100.104749
865.000000	99.923025
864.000000	99.842724
863.000000	100.017564
862.000000	100.079154
861.000000	100.076004
860.000000	99.804114
859.000000	99.864566
858.000000	99.844798
857.000000	100.169521
856.000000	99.924049
855.000000	99.910457
854.000000	99.964354
853.000000	100.358364
852.000000	100.185384
851.000000	100.003817
850.000000	100.248650
849.000000	100.368614
848.000000	100.127218
847.000000	99.764209
846.000000	100.031375
845.000000	99.752073
844.000000	100.056512
843.000000	100.122052
842.000000	100.077319
841.000000	99.913810
840.000000	100.136701
839.000000	99.993119
838.000000	99.677331
837.000000	99.883022
836.000000	100.094920
835.000000	99.827306
834.000000	100.173404
833.000000	99.742323
832.000000	100.117333
831.000000	99.739439
830.000000	100.219347
829.000000	99.825409
828.000000	99.679423
827.000000	99.995256
826.000000	100.181550
825.000000	99.922399
824.000000	100.380120
823.000000	99.928506
822.000000	100.089868
821.000000	99.978873
820.000000	100.286460
819.000000	100.094847
818.000000	100.213234
817.000000	99.952029
816.000000	99.942868
815.000000	99.995869
814.000000	100.283809
813.000000	99.906376
812.000000	99.978520
811.000000	99.873152
810.000000	99.741387
809.000000	99.922303
808.000000	100.093805
807.000000	100.051211
806.000000	100.354738
805.000000	100.043019
804.000000	99.890814
803.000000	100.064176
802.000000	99.961462
801.000000	99.903046
800.000000	100.160778
799.000000	99.803012
798.000000	100.112620
797.000000	99.943183
796.000000	99.701616
795.000000	100.050535
794.000000	99.922887
793.000000	100.054224
792.000000	100.097845
791.000000	100.134516
790.000000	99.964567
789.000000	99.977759
788.000000	100.065268
787.000000	100.108902
786.000000	99.668631
785.000000	100.018269
784.000000	100.093183
783.000000	99.957823
782.000000	100.046033
781.000000	99.855706
780.000000	100.018680
779.000000	100.084369
778.000000	100.005968
777.000000	100.052805
776.000000	99.951344
775.000000	100.051264
774.000000	100.164801
773.000000	99.957731
772.000000	100.009461
771.000000	99.925887
770.000000	99.773744
769.000000	99.947631
768.000000	99.949222
767.000000	99.969389
766.000000	99.816986
765.000000	99.938435
764.000000	99.878167
763.000000	99.971422
762.000000	100.016587
761.000000	100.017849
760.000000	100.060310
759.000000	100.199476
758.000000	99.983299
757.000000	100.001258
756.000000	100.046371
755.000000	99.997662
754.000000	99.956115
753.000000	99.977582
752.000000	99.961609
751.000000	99.996034
750.000000	100.122100
749.000000	99.970254
748.000000	99.991072
747.000000	100.018943
746.000000	100.035924
745.000000	100.005510
744.000000	99.955089
743.000000	99.963834
742.000000	99.980379
741.000000	99.812582
740.000000	99.831328
739.000000	99.878429
738.000000	99.900375
737.000000	99.997374
736.000000	99.995560
735.000000	99.991564
734.000000	99.939507
733.000000	99.980232
732.000000	99.950765
731.000000	99.857835
730.000000	99.881231
729.000000	100.000818
728.000000	100.081566
727.000000	100.053100
726.000000	100.046013
725.000000	99.986174
724.000000	100.079232
723.000000	100.050990
722.000000	99.888633
721.000000	99.965953
720.000000	99.987886
719.000000	99.940332
718.000000	100.106688
717.000000	100.073714
716.000000	99.987136
715.000000	100.138059
714.000000	100.085362
713.000000	99.964136
712.000000	99.915672
711.000000	99.914039
710.000000	99.953783
709.000000	99.964268
708.000000	99.974044
707.000000	99.978506
706.000000	99.944197
705.000000	99.938536
704.000000	99.994786
703.000000	100.037526
702.000000	100.035070
701.000000	100.005220
700.000000	99.986260
699.000000	99.961147
698.000000	99.924130
697.000000	100.021173
696.000000	100.050704
695.000000	99.985421
694.000000	99.923980
693.000000	99.927369
692.000000	99.984864
691.000000	100.022121
690.000000	99.998072
689.000000	99.970816
688.000000	100.008075
687.000000	100.064341
686.000000	100.018998
685.000000	99.913769
684.000000	99.863988
683.000000	100.007252
682.000000	100.021125
681.000000	100.024437
680.000000	99.959416
679.000000	99.962706
678.000000	99.961604
677.000000	99.946350
676.000000	99.924837
675.000000	99.924440
674.000000	99.930576
673.000000	100.033392
672.000000	100.009477
671.000000	99.972223
670.000000	99.927450
669.000000	99.926851
668.000000	100.025417
667.000000	99.992542
666.000000	99.949831
665.000000	99.978734
664.000000	99.993461
663.000000	99.972910
662.000000	99.975403
661.000000	99.982772
660.000000	100.062704
659.000000	100.063006
658.000000	99.962471
657.000000	100.004890
656.000000	99.917275
655.000000	99.971497
654.000000	99.958024
653.000000	100.035352
652.000000	100.021335
651.000000	100.106600
650.000000	99.945354
649.000000	99.924953
648.000000	99.994553
647.000000	100.058027
646.000000	99.962309
645.000000	99.964876
644.000000	99.984008
643.000000	99.968020
642.000000	100.080757
641.000000	99.959231
640.000000	99.941642
639.000000	99.949136
638.000000	99.980578
637.000000	99.986958
636.000000	100.018601
635.000000	99.972327
634.000000	99.954644
633.000000	99.956031
632.000000	99.926456
631.000000	99.990181
630.000000	100.038276
629.000000	100.028343
628.000000	99.967756
627.000000	100.013346
626.000000	99.983410
625.000000	99.957200
624.000000	99.995553
623.000000	99.907693
622.000000	99.968664
621.000000	100.010661
620.000000	99.931845
619.000000	99.890957
618.000000	99.988130
617.000000	100.015308
616.000000	99.950089
615.000000	100.013741
614.000000	99.841322
613.000000	99.936838
612.000000	99.951666
611.000000	99.950354
610.000000	99.940414
609.000000	99.920420
608.000000	99.966102
607.000000	99.968254
606.000000	100.078766
605.000000	99.949875
604.000000	99.977616
603.000000	100.102599
602.000000	99.944260
601.000000	100.008641
600.000000	99.963033
599.000000	100.040056
598.000000	99.949998
597.000000	100.019249
596.000000	99.997118
595.000000	99.978153
594.000000	99.972208
593.000000	100.018224
592.000000	99.974150
591.000000	99.957882
590.000000	99.966522
589.000000	99.998977
588.000000	100.025208
587.000000	99.915673
586.000000	99.961577
585.000000	99.985855
584.000000	99.982421
583.000000	99.893796
582.000000	100.020197
581.000000	100.033400
580.000000	99.909950
579.000000	100.013404
578.000000	99.890824
577.000000	99.956710
576.000000	100.071766
575.000000	100.006609
574.000000	99.893833
573.000000	100.010523
572.000000	99.962016
571.000000	99.956624
570.000000	100.052611
569.000000	99.892708
568.000000	99.906962
567.000000	99.991614
566.000000	99.940873
565.000000	100.110639
564.000000	99.983604
563.000000	100.032811
562.000000	100.026280
561.000000	99.941328
560.000000	99.993199
559.000000	99.937661
558.000000	100.021717
557.000000	99.976049
556.000000	100.055362
555.000000	99.904865
554.000000	99.929365
553.000000	100.075270
552.000000	100.028535
551.000000	99.927209
550.000000	100.002609
549.000000	99.978932
548.000000	99.883295
547.000000	99.956344
546.000000	100.009143
545.000000	99.970982
544.000000	99.983857
543.000000	99.947756
542.000000	99.947752
541.000000	99.997106
540.000000	99.957928
539.000000	99.925441
538.000000	99.999347
537.000000	100.020914
536.000000	100.011671
535.000000	100.088091
534.000000	99.975439
533.000000	99.995330
532.000000	100.039237
531.000000	99.995985
530.000000	99.944928
529.000000	99.995422
528.000000	99.999159
527.000000	99.997478
526.000000	99.992715
525.000000	99.975809
524.000000	99.942287
523.000000	99.981592
522.000000	99.987387
521.000000	99.990935
520.000000	99.947506
519.000000	100.021307
518.000000	99.981399
517.000000	100.015987
516.000000	100.066963
515.000000	99.927314
514.000000	99.967943
513.000000	99.988411
512.000000	99.981021
511.000000	100.001122
510.000000	100.031333
509.000000	100.153774
508.000000	100.121423
507.000000	100.002994
506.000000	99.985686
505.000000	99.933582
504.000000	99.952565
503.000000	100.009268
502.000000	100.020965
501.000000	100.044730
500.000000	100.045398
499.000000	100.066743
498.000000	100.041652
497.000000	100.009918
496.000000	100.007018
495.000000	100.018621
494.000000	99.989988
493.000000	100.005896
492.000000	99.987369
491.000000	99.998036
490.000000	100.000748
489.000000	99.971371
488.000000	100.023398
487.000000	100.015529
486.000000	99.986072
485.000000	100.025993
484.000000	100.184417
483.000000	100.139893
482.000000	99.999250
481.000000	100.034024
480.000000	100.015653
479.000000	100.028600
478.000000	100.034421
477.000000	99.934733
476.000000	99.960397
475.000000	100.035770
474.000000	99.961627
473.000000	99.977851
472.000000	100.012959
471.000000	100.005916
470.000000	100.063494
469.000000	100.038407
468.000000	99.969114
467.000000	100.052121
466.000000	100.066783
465.000000	99.984599
464.000000	99.979804
463.000000	100.024149
462.000000	100.032501
461.000000	99.998967
460.000000	99.979795
459.000000	99.982139
458.000000	99.957054
457.000000	100.011839
456.000000	100.017856
455.000000	99.946439
454.000000	99.990975
453.000000	99.979316
452.000000	100.065758
451.000000	100.021830
450.000000	99.980065
449.000000	100.113314
448.000000	100.039896
447.000000	99.923832
446.000000	99.878294
445.000000	99.942603
444.000000	99.949466
443.000000	100.027016
442.000000	100.018828
441.000000	99.967428
440.000000	100.071008
439.000000	100.085372
438.000000	100.021956
437.000000	100.016297
436.000000	100.010929
435.000000	100.004336
434.000000	99.978123
433.000000	99.983878
432.000000	99.988503
431.000000	100.012348
430.000000	99.986984
429.000000	99.988017
428.000000	99.967936
427.000000	99.964337
426.000000	100.017367
425.000000	100.026428
424.000000	100.082347
423.000000	100.044666
422.000000	100.032012
421.000000	100.085972
420.000000	100.082780
419.000000	100.080244
418.000000	99.973730
417.000000	99.987522
416.000000	100.072788
415.000000	100.034976
414.000000	99.969098
413.000000	99.964832
412.000000	99.896850
411.000000	100.056393
410.000000	100.118988
409.000000	99.922641
408.000000	99.994229
407.000000	100.047901
406.000000	99.920958
405.000000	99.990721
404.000000	99.967161
403.000000	99.965568
402.000000	100.131935
401.000000	100.042513
400.000000	100.045171
399.000000	99.931446
398.000000	100.023106
397.000000	99.937998
396.000000	100.018858
395.000000	100.020843
394.000000	99.922659
393.000000	99.966195
392.000000	99.961518
391.000000	100.018107
390.000000	100.041498
389.000000	99.860914
388.000000	99.966738
387.000000	99.989758
386.000000	100.057032
385.000000	100.083294
384.000000	100.066596
383.000000	100.070644
382.000000	99.909686
381.000000	99.894162
380.000000	100.079759
379.000000	100.114871
378.000000	99.900958
377.000000	99.901039
376.000000	100.197670
375.000000	99.809325
374.000000	100.221353
373.000000	99.923757
372.000000	100.137682
371.000000	99.992026
370.000000	100.136228
369.000000	100.231914
368.000000	99.935994
367.000000	99.857381
366.000000	100.113847
365.000000	100.071979
364.000000	99.829600
363.000000	99.880476
362.000000	99.882881
361.000000	99.816572
360.000000	99.940274
359.000000	99.949534
358.000000	99.965775
357.000000	100.195005
356.000000	100.183955
355.000000	100.197221
354.000000	99.994783
353.000000	99.987791
352.000000	100.224769
351.000000	100.034764
350.000000	100.120622
349.000000	100.000474
348.000000	99.889206
347.000000	100.010712
346.000000	100.038969
345.000000	100.118915
344.000000	99.878469
343.000000	100.335078
342.000000	99.948801
341.000000	99.838951
340.000000	100.249766
339.000000	100.017087
338.000000	100.416080
337.000000	100.182389
336.000000	99.932441
335.000000	99.980097
334.000000	100.027427
333.000000	99.975306
332.000000	99.660365
331.000000	99.988080
330.000000	99.845751
329.000000	100.317644
328.000000	100.007755
327.000000	100.319675
326.000000	100.214874
325.000000	100.428228
324.000000	100.097078
323.000000	99.925472
322.000000	100.174138
321.000000	99.691915
320.000000	100.560861
319.000000	100.329894
318.000000	100.015609
317.000000	100.242461
316.000000	99.788361
315.000000	99.796236
314.000000	100.218854
313.000000	99.909797
312.000000	99.885705
311.000000	99.877472
310.000000	100.304180
309.000000	99.711829
308.000000	99.941880
307.000000	99.853397
306.000000	99.701435
305.000000	99.847497
304.000000	99.676587
303.000000	99.871708
302.000000	99.600707
301.000000	99.850464
300.000000	99.858187
299.000000	99.969357
298.000000	100.250753
297.000000	100.006628
296.000000	99.880471
295.000000	100.053045
294.000000	100.376350
293.000000	100.077562
292.000000	100.230900
291.000000	100.185042
290.000000	99.948311
289.000000	99.937605
288.000000	99.979388
287.000000	100.053831
286.000000	100.250081
285.000000	99.766882
284.000000	99.900216
283.000000	99.824035
282.000000	99.923904
281.000000	99.993238
280.000000	100.211240
279.000000	100.089837
278.000000	99.940630
277.000000	99.830381
276.000000	100.098070
275.000000	100.002410
274.000000	100.074616
273.000000	99.978249
272.000000	99.712319
271.000000	99.791275
270.000000	100.020634
269.000000	99.786906
268.000000	100.189485
267.000000	100.099399
266.000000	100.063200
265.000000	99.994943
264.000000	100.051895
263.000000	100.116292
262.000000	99.802768
261.000000	99.941211
260.000000	100.109238
259.000000	100.043817
258.000000	99.737288
257.000000	99.958063
256.000000	100.330949
255.000000	100.210636
254.000000	99.956131
253.000000	99.954585
252.000000	99.937680
251.000000	100.039002
250.000000	99.858093
249.000000	99.893172
248.000000	100.258694
247.000000	99.954539
246.000000	100.017916
245.000000	100.180541
244.000000	99.867273
243.000000	99.990661
242.000000	100.261041
241.000000	100.114356
240.000000	99.912844
239.000000	99.766101
238.000000	99.890247
237.000000	99.849547
236.000000	99.663181
235.000000	99.787389
234.000000	100.245793
233.000000	100.255374
232.000000	100.042211
231.000000	100.161857
230.000000	100.160775
229.000000	100.275427
228.000000	100.164872
227.000000	99.736718
226.000000	99.840075
225.000000	100.236176
224.000000	100.119816
223.000000	99.980985
222.000000	100.207708
221.000000	100.274638
220.000000	100.295618
219.000000	100.091791
218.000000	100.097223
217.000000	100.000110
216.000000	99.881779
215.000000	100.140104
214.000000	100.026972
213.000000	99.920034
212.000000	100.122505
211.000000	100.277301
210.000000	99.967007
209.000000	99.798864
208.000000	99.762491
207.000000	99.512092
206.000000	99.585753
205.000000	100.399650
204.000000	101.015564
203.000000	100.697715
202.000000	100.443273
201.000000	100.581324
200.000000	99.680946
