PE UV       SUBTECH     SPECTRUM    ASCII       PEDS        4.00        
   -1
S_aborted_grain_2layers.Sample.asc
23/09/07
16:00:23.00
23/09/07
16:00:23.00
Administrator

250.000000
1
Lambda 750
750N8071901
PerkinElmer UV WinLab 6.0.4.0738 / 1.61.00 Lambda 900

0
0
3350/servo 860.8/2
0
0
UV/VIS
1
1
1
CommonBeamDepol,150mm sphere / downward view
0
0
0
0
Program
Program
3350/servo 860.8/2
3350/0.2 860.8/0.2
3350/0.2 860.8/0.2
0
1
 
 
 
0
 
860.8
319.2
860.8
Front
100
on
 
 
0
0
0
 
0
 
 
 
0
 
 
0
0
0
0
0
 
 
 
 
0
0


0
0
#HDR
-1
-1
#GR
nm
%R
1.0
0.0
2500.000000
-10.000000
226
8
57.122190
7.551169
#DATA
2500.000000	12.141763
2490.000000	9.783839
2480.000000	16.323548
2470.000000	14.180382
2460.000000	11.688816
2450.000000	12.718441
2440.000000	14.888726
2430.000000	12.938882
2420.000000	13.298481
2410.000000	15.462795
2400.000000	15.086994
2390.000000	13.553474
2380.000000	14.849223
2370.000000	15.166902
2360.000000	16.719901
2350.000000	17.577395
2340.000000	15.010092
2330.000000	14.180707
2320.000000	15.195675
2310.000000	15.444659
2300.000000	15.860569
2290.000000	16.403816
2280.000000	18.406267
2270.000000	20.014994
2260.000000	21.627530
2250.000000	23.690136
2240.000000	24.014249
2230.000000	22.781900
2220.000000	23.378787
2210.000000	22.394360
2200.000000	21.428836
2190.000000	21.228970
2180.000000	22.787393
2170.000000	24.062477
2160.000000	24.590180
2150.000000	25.609279
2140.000000	25.734918
2130.000000	26.460377
2120.000000	26.450335
2110.000000	26.587563
2100.000000	26.111664
2090.000000	24.730624
2080.000000	23.525866
2070.000000	22.048033
2060.000000	21.782134
2050.000000	21.894755
2040.000000	22.732186
2030.000000	22.482496
2020.000000	21.612823
2010.000000	20.485533
2000.000000	19.120722
1990.000000	17.921420
1980.000000	16.556839
1970.000000	15.675160
1960.000000	15.300289
1950.000000	15.928765
1940.000000	17.778341
1930.000000	20.831367
1920.000000	25.988774
1910.000000	31.150834
1900.000000	35.763038
1890.000000	39.090844
1880.000000	41.178993
1870.000000	41.702992
1860.000000	41.828135
1850.000000	41.440054
1840.000000	41.117147
1830.000000	40.872965
1820.000000	40.539612
1810.000000	40.324055
1800.000000	39.918683
1790.000000	39.215604
1780.000000	38.596556
1770.000000	38.390592
1760.000000	37.617777
1750.000000	36.804525
1740.000000	36.906482
1730.000000	38.376524
1720.000000	39.655544
1710.000000	40.593996
1700.000000	41.991721
1690.000000	43.701221
1680.000000	44.757972
1670.000000	45.314431
1660.000000	45.445138
1650.000000	45.267536
1640.000000	45.011962
1630.000000	44.599932
1620.000000	44.074403
1610.000000	43.589586
1600.000000	43.138866
1590.000000	42.693813
1580.000000	42.271114
1570.000000	42.011802
1560.000000	41.473768
1550.000000	40.808506
1540.000000	40.037975
1530.000000	39.605532
1520.000000	39.252396
1510.000000	39.037860
1500.000000	38.983540
1490.000000	39.154140
1480.000000	39.409005
1470.000000	39.695324
1460.000000	40.311389
1450.000000	41.220375
1440.000000	42.498843
1430.000000	44.116923
1420.000000	46.223191
1410.000000	48.250142
1400.000000	49.837537
1390.000000	50.962132
1380.000000	51.617598
1370.000000	52.189623
1360.000000	52.780715
1350.000000	53.180273
1340.000000	53.380488
1330.000000	53.774141
1320.000000	54.158240
1310.000000	54.388580
1300.000000	54.340642
1290.000000	54.267799
1280.000000	54.254876
1270.000000	54.185772
1260.000000	54.074314
1250.000000	53.721574
1240.000000	53.373345
1230.000000	53.038520
1220.000000	52.863109
1210.000000	52.822302
1200.000000	53.047970
1190.000000	53.526890
1180.000000	54.063506
1170.000000	54.614249
1160.000000	55.104220
1150.000000	55.574713
1140.000000	55.818603
1130.000000	55.930574
1120.000000	55.945687
1110.000000	55.986804
1100.000000	56.144550
1090.000000	56.143588
1080.000000	56.044648
1070.000000	56.011156
1060.000000	56.035312
1050.000000	55.977014
1040.000000	55.920173
1030.000000	55.781096
1020.000000	55.874423
1010.000000	56.176157
1000.000000	56.197708
990.000000	56.317958
980.000000	56.370805
970.000000	56.436552
960.000000	56.625215
950.000000	56.578384
940.000000	56.482181
930.000000	56.667236
920.000000	56.700537
910.000000	56.698203
900.000000	57.027842
890.000000	56.734291
880.000000	57.122190
870.000000	56.945870
860.000000	56.899212
850.000000	56.211486
840.000000	56.136449
830.000000	56.194643
820.000000	55.951674
810.000000	56.197879
800.000000	56.010870
790.000000	55.594607
780.000000	55.884990
770.000000	55.558281
760.000000	55.156645
750.000000	55.042574
740.000000	54.855788
730.000000	54.745880
720.000000	54.364640
710.000000	54.123897
700.000000	53.758683
690.000000	53.442364
680.000000	52.947954
670.000000	52.504220
660.000000	52.050772
650.000000	51.398971
640.000000	50.818640
630.000000	50.088814
620.000000	49.326830
610.000000	48.685928
600.000000	47.999829
590.000000	47.431077
580.000000	46.791671
570.000000	46.069858
560.000000	45.546514
550.000000	44.976091
540.000000	44.280014
530.000000	43.675226
520.000000	43.185401
510.000000	42.642862
500.000000	41.900772
490.000000	40.794285
480.000000	39.539221
470.000000	38.138235
460.000000	36.145483
450.000000	33.530368
440.000000	30.491462
430.000000	26.755544
420.000000	23.062682
410.000000	21.042221
400.000000	21.701940
390.000000	22.461496
380.000000	22.354423
370.000000	21.556777
360.000000	20.592903
350.000000	18.754727
340.000000	17.740087
330.000000	15.747128
320.000000	14.589893
310.000000	13.775646
300.000000	9.787580
290.000000	7.845481
280.000000	7.551169
270.000000	7.574449
260.000000	7.664473
250.000000	7.728056
