PE UV       SUBTECH     SPECTRUM    ASCII       PEDS        4.00        
   -1
S_aborted_grain_1layer.Sample.asc
23/09/07
15:49:03.00
23/09/07
15:49:03.00
Administrator

250.000000
1
Lambda 750
750N8071901
PerkinElmer UV WinLab 6.0.4.0738 / 1.61.00 Lambda 900

0
0
3350/servo 860.8/2
0
0
UV/VIS
1
1
1
CommonBeamDepol,150mm sphere / downward view
0
0
0
0
Program
Program
3350/servo 860.8/2
3350/0.2 860.8/0.2
3350/0.2 860.8/0.2
0
1
 
 
 
0
 
860.8
319.2
860.8
Front
100
on
 
 
0
0
0
 
0
 
 
 
0
 
 
0
0
0
0
0
 
 
 
 
0
0


0
0
#HDR
-1
-1
#GR
nm
%R
1.0
0.0
2500.000000
-10.000000
226
8
47.050125
11.047770
#DATA
2500.000000	17.036891
2490.000000	17.003724
2480.000000	21.463660
2470.000000	21.571430
2460.000000	18.064760
2450.000000	19.208909
2440.000000	21.095304
2430.000000	20.812002
2420.000000	20.160372
2410.000000	21.097868
2400.000000	21.669997
2390.000000	22.550120
2380.000000	23.620403
2370.000000	22.435752
2360.000000	24.321760
2350.000000	23.305654
2340.000000	23.029062
2330.000000	23.182616
2320.000000	22.972212
2310.000000	21.941784
2300.000000	21.753182
2290.000000	21.915733
2280.000000	22.787424
2270.000000	23.046561
2260.000000	24.561940
2250.000000	26.226071
2240.000000	26.147638
2230.000000	25.927152
2220.000000	25.307509
2210.000000	24.688118
2200.000000	24.296893
2190.000000	25.051414
2180.000000	25.856844
2170.000000	26.461690
2160.000000	27.201989
2150.000000	27.905250
2140.000000	27.629313
2130.000000	28.089849
2120.000000	28.225526
2110.000000	28.154610
2100.000000	27.599554
2090.000000	27.158700
2080.000000	25.822818
2070.000000	24.652978
2060.000000	23.864083
2050.000000	24.091161
2040.000000	24.784655
2030.000000	24.765151
2020.000000	23.807748
2010.000000	23.116657
2000.000000	22.057850
1990.000000	20.848157
1980.000000	19.756785
1970.000000	18.899094
1960.000000	18.424433
1950.000000	18.972146
1940.000000	20.618403
1930.000000	23.134046
1920.000000	26.711564
1910.000000	30.670175
1900.000000	33.874070
1890.000000	36.219749
1880.000000	37.675972
1870.000000	37.951127
1860.000000	38.148805
1850.000000	38.163054
1840.000000	38.036627
1830.000000	37.958102
1820.000000	37.793431
1810.000000	37.610082
1800.000000	37.418874
1790.000000	37.206252
1780.000000	37.134727
1770.000000	36.989287
1760.000000	36.783452
1750.000000	36.691951
1740.000000	36.911396
1730.000000	37.319532
1720.000000	37.766800
1710.000000	37.925752
1700.000000	38.282807
1690.000000	39.040324
1680.000000	39.555451
1670.000000	39.881886
1660.000000	39.888084
1650.000000	39.786255
1640.000000	39.599998
1630.000000	39.334740
1620.000000	38.973264
1610.000000	38.586779
1600.000000	38.328407
1590.000000	38.100225
1580.000000	37.800753
1570.000000	37.586503
1560.000000	37.389417
1550.000000	36.907451
1540.000000	36.482738
1530.000000	36.191657
1520.000000	36.029838
1510.000000	35.834964
1500.000000	35.777009
1490.000000	35.736549
1480.000000	35.941997
1470.000000	36.133383
1460.000000	36.547754
1450.000000	37.191690
1440.000000	37.997222
1430.000000	39.029535
1420.000000	40.275655
1410.000000	41.550768
1400.000000	42.414315
1390.000000	42.951087
1380.000000	43.170385
1370.000000	43.524065
1360.000000	43.755578
1350.000000	43.902546
1340.000000	43.970783
1330.000000	44.261172
1320.000000	44.557122
1310.000000	44.787922
1300.000000	44.694852
1290.000000	44.644380
1280.000000	44.656357
1270.000000	44.588646
1260.000000	44.553878
1250.000000	44.646084
1240.000000	44.714374
1230.000000	44.592960
1220.000000	44.423173
1210.000000	44.276599
1200.000000	44.315291
1190.000000	44.503504
1180.000000	44.706232
1170.000000	44.985853
1160.000000	45.138446
1150.000000	45.345781
1140.000000	45.527447
1130.000000	45.575422
1120.000000	45.589343
1110.000000	45.615948
1100.000000	45.715440
1090.000000	45.698457
1080.000000	45.696807
1070.000000	45.665091
1060.000000	45.750099
1050.000000	45.750453
1040.000000	45.694356
1030.000000	45.532082
1020.000000	45.692577
1010.000000	45.900163
1000.000000	45.943793
990.000000	46.009365
980.000000	46.083415
970.000000	46.145319
960.000000	46.367250
950.000000	46.478283
940.000000	46.461270
930.000000	46.470180
920.000000	46.646115
910.000000	46.703266
900.000000	46.941736
890.000000	46.682425
880.000000	46.998606
870.000000	46.865908
860.000000	46.954766
850.000000	46.779412
840.000000	46.652214
830.000000	46.836212
820.000000	46.792201
810.000000	46.941737
800.000000	47.018816
790.000000	46.761017
780.000000	46.946431
770.000000	46.897067
760.000000	46.805651
750.000000	46.831996
740.000000	46.882603
730.000000	47.050125
720.000000	47.000846
710.000000	46.918987
700.000000	46.990688
690.000000	46.937063
680.000000	46.930747
670.000000	47.004424
660.000000	46.911391
650.000000	46.845211
640.000000	46.871022
630.000000	46.714772
620.000000	46.662536
610.000000	46.570158
600.000000	46.487093
590.000000	46.529282
580.000000	46.480847
570.000000	46.440319
560.000000	46.496396
550.000000	46.448410
540.000000	46.388447
530.000000	46.348503
520.000000	46.347429
510.000000	46.231245
500.000000	46.122928
490.000000	46.003519
480.000000	45.709384
470.000000	45.393977
460.000000	44.895494
450.000000	44.157227
440.000000	43.502284
430.000000	42.080593
420.000000	40.451822
410.000000	39.099232
400.000000	38.925760
390.000000	39.286700
380.000000	39.484461
370.000000	39.478098
360.000000	38.762685
350.000000	38.098699
340.000000	37.740793
330.000000	36.290125
320.000000	34.957160
310.000000	32.971932
300.000000	27.559695
290.000000	18.013603
280.000000	12.260875
270.000000	11.519907
260.000000	11.047770
250.000000	11.179670
