PE UV       SUBTECH     SPECTRUM    ASCII       PEDS        4.00        
   -1
Empty Chamber.Sample.asc
18/03/14
08:51:57.00
18/03/14
08:51:57.00
Administrator

200.000000
1
Lambda 750
750N8071901
PerkinElmer UV WinLab 6.0.4.0738 / 1.61.00 Lambda 900

0
0
3350/servo 860.8/2
0
0
UV/VIS
1
1
1
CommonBeamDepol,150mm sphere / downward view
0
0
0
0
Program
Program
3350/servo 860.8/2
3350/0.2 860.8/0.2
3350/0.2 860.8/0.2
0
1
 
 
 
0
 
860.8
319.2
860.8
Front
100
on
 
 
0
0
0
 
0
 
 
 
0
 
 
0
0
0
0
0
 
 
 
 
0
0


0
0
#HDR
-1
-1
#GR
nm
%T
1.0
0.0
2350.000000
-1.000000
2151
8
100.547972
99.315226
#DATA
2350.000000	99.882395
2349.000000	100.131626
2348.000000	100.085319
2347.000000	99.812405
2346.000000	99.676301
2345.000000	100.159434
2344.000000	100.097793
2343.000000	100.071521
2342.000000	100.263866
2341.000000	99.852069
2340.000000	100.237028
2339.000000	100.281129
2338.000000	99.979839
2337.000000	100.156548
2336.000000	99.679628
2335.000000	100.193287
2334.000000	99.757333
2333.000000	100.354384
2332.000000	99.979011
2331.000000	99.618822
2330.000000	99.846676
2329.000000	100.126639
2328.000000	99.990397
2327.000000	100.118127
2326.000000	100.342335
2325.000000	100.239146
2324.000000	100.173965
2323.000000	100.016670
2322.000000	100.237433
2321.000000	100.124505
2320.000000	100.019573
2319.000000	99.649785
2318.000000	100.063953
2317.000000	100.198945
2316.000000	99.953156
2315.000000	100.131519
2314.000000	99.965690
2313.000000	99.967900
2312.000000	100.077313
2311.000000	100.175509
2310.000000	100.293338
2309.000000	100.045287
2308.000000	99.764033
2307.000000	99.837258
2306.000000	100.075579
2305.000000	100.070873
2304.000000	100.085932
2303.000000	100.053462
2302.000000	100.085088
2301.000000	99.861163
2300.000000	100.235494
2299.000000	99.981708
2298.000000	99.853640
2297.000000	100.047882
2296.000000	100.108132
2295.000000	100.196080
2294.000000	100.068166
2293.000000	99.878386
2292.000000	99.880439
2291.000000	99.978377
2290.000000	100.005558
2289.000000	100.183093
2288.000000	100.136384
2287.000000	100.029646
2286.000000	99.794529
2285.000000	99.967456
2284.000000	100.064486
2283.000000	99.922817
2282.000000	99.926649
2281.000000	100.014666
2280.000000	100.089590
2279.000000	100.074094
2278.000000	100.014161
2277.000000	99.984342
2276.000000	100.049164
2275.000000	100.009798
2274.000000	99.976244
2273.000000	100.047056
2272.000000	100.114787
2271.000000	99.966243
2270.000000	99.920434
2269.000000	99.875370
2268.000000	99.956524
2267.000000	99.994638
2266.000000	100.038766
2265.000000	100.116481
2264.000000	100.056421
2263.000000	99.948680
2262.000000	99.860700
2261.000000	99.990701
2260.000000	100.041970
2259.000000	99.980284
2258.000000	100.121874
2257.000000	100.149073
2256.000000	100.130605
2255.000000	100.188254
2254.000000	100.112796
2253.000000	99.916640
2252.000000	100.039882
2251.000000	100.138257
2250.000000	100.036437
2249.000000	100.112960
2248.000000	100.124926
2247.000000	99.889129
2246.000000	99.952692
2245.000000	100.016080
2244.000000	100.034192
2243.000000	100.116725
2242.000000	100.011022
2241.000000	99.979655
2240.000000	99.985020
2239.000000	99.943608
2238.000000	99.922585
2237.000000	99.923368
2236.000000	100.039653
2235.000000	100.134936
2234.000000	100.143631
2233.000000	99.974192
2232.000000	99.739534
2231.000000	99.804051
2230.000000	99.999697
2229.000000	99.998584
2228.000000	99.949553
2227.000000	99.909814
2226.000000	99.939843
2225.000000	99.976437
2224.000000	100.036329
2223.000000	100.173234
2222.000000	100.030971
2221.000000	99.972288
2220.000000	100.018109
2219.000000	100.075231
2218.000000	99.933818
2217.000000	99.803356
2216.000000	99.968169
2215.000000	100.000505
2214.000000	100.020116
2213.000000	100.133437
2212.000000	100.008704
2211.000000	99.919543
2210.000000	100.073070
2209.000000	100.090091
2208.000000	100.019433
2207.000000	100.034113
2206.000000	100.101607
2205.000000	99.926793
2204.000000	99.953658
2203.000000	100.105482
2202.000000	100.088077
2201.000000	99.924411
2200.000000	99.923624
2199.000000	100.019094
2198.000000	100.146919
2197.000000	100.037897
2196.000000	100.045421
2195.000000	100.170772
2194.000000	99.957361
2193.000000	100.012121
2192.000000	100.040904
2191.000000	100.088625
2190.000000	99.899696
2189.000000	100.013641
2188.000000	99.975142
2187.000000	99.795087
2186.000000	99.917981
2185.000000	99.966599
2184.000000	100.026645
2183.000000	100.093925
2182.000000	99.947812
2181.000000	100.094394
2180.000000	100.161986
2179.000000	100.023112
2178.000000	100.008572
2177.000000	100.186118
2176.000000	100.172979
2175.000000	100.219847
2174.000000	100.149023
2173.000000	99.933966
2172.000000	99.973595
2171.000000	100.038794
2170.000000	99.902857
2169.000000	100.076496
2168.000000	100.165203
2167.000000	100.062634
2166.000000	99.998588
2165.000000	99.973597
2164.000000	99.972192
2163.000000	99.923612
2162.000000	100.220152
2161.000000	100.064609
2160.000000	99.992844
2159.000000	100.012891
2158.000000	100.089600
2157.000000	99.875318
2156.000000	100.050814
2155.000000	99.886102
2154.000000	100.080509
2153.000000	100.362154
2152.000000	100.050870
2151.000000	99.886246
2150.000000	100.035533
2149.000000	99.704879
2148.000000	99.913742
2147.000000	100.048107
2146.000000	100.100921
2145.000000	99.833114
2144.000000	100.036740
2143.000000	100.106318
2142.000000	99.853337
2141.000000	100.224976
2140.000000	99.974761
2139.000000	100.057245
2138.000000	99.916702
2137.000000	99.870728
2136.000000	100.210181
2135.000000	100.050961
2134.000000	100.004426
2133.000000	99.720767
2132.000000	100.080100
2131.000000	100.152554
2130.000000	100.155292
2129.000000	99.952475
2128.000000	99.981865
2127.000000	100.021957
2126.000000	100.050653
2125.000000	100.135606
2124.000000	100.070197
2123.000000	99.885200
2122.000000	100.052698
2121.000000	100.117288
2120.000000	100.016827
2119.000000	99.967967
2118.000000	99.839398
2117.000000	100.103622
2116.000000	100.082009
2115.000000	100.115510
2114.000000	99.810300
2113.000000	99.962020
2112.000000	100.093424
2111.000000	100.034798
2110.000000	100.198090
2109.000000	99.951741
2108.000000	100.216403
2107.000000	100.079802
2106.000000	100.151169
2105.000000	99.931762
2104.000000	100.053732
2103.000000	100.091068
2102.000000	100.065229
2101.000000	100.068314
2100.000000	100.093431
2099.000000	100.034938
2098.000000	100.053813
2097.000000	100.138716
2096.000000	99.993543
2095.000000	100.049113
2094.000000	100.112112
2093.000000	100.039455
2092.000000	100.020490
2091.000000	99.970944
2090.000000	100.045492
2089.000000	99.790930
2088.000000	99.927857
2087.000000	100.005649
2086.000000	99.965594
2085.000000	100.008980
2084.000000	99.940269
2083.000000	99.982829
2082.000000	99.987881
2081.000000	99.950535
2080.000000	100.018378
2079.000000	100.065064
2078.000000	100.106987
2077.000000	99.940251
2076.000000	99.948631
2075.000000	100.053405
2074.000000	100.001110
2073.000000	99.996165
2072.000000	99.983552
2071.000000	100.010203
2070.000000	99.947180
2069.000000	99.913766
2068.000000	100.015551
2067.000000	100.006769
2066.000000	99.942849
2065.000000	99.978089
2064.000000	100.038686
2063.000000	100.002928
2062.000000	100.038698
2061.000000	100.036464
2060.000000	99.948920
2059.000000	99.918605
2058.000000	99.998081
2057.000000	100.052022
2056.000000	100.037273
2055.000000	99.976056
2054.000000	99.959588
2053.000000	100.037604
2052.000000	100.033472
2051.000000	99.936140
2050.000000	99.994139
2049.000000	100.053270
2048.000000	100.089953
2047.000000	100.072775
2046.000000	100.052771
2045.000000	99.932519
2044.000000	99.879193
2043.000000	99.986255
2042.000000	100.041241
2041.000000	100.074833
2040.000000	100.023664
2039.000000	99.963201
2038.000000	99.999697
2037.000000	100.015266
2036.000000	99.999798
2035.000000	100.016588
2034.000000	100.015175
2033.000000	100.018509
2032.000000	100.022048
2031.000000	99.949727
2030.000000	99.920098
2029.000000	99.953480
2028.000000	99.984222
2027.000000	100.017096
2026.000000	99.974509
2025.000000	99.959529
2024.000000	99.993118
2023.000000	100.018828
2022.000000	100.046371
2021.000000	100.051729
2020.000000	100.061958
2019.000000	100.024501
2018.000000	99.989066
2017.000000	100.007594
2016.000000	100.011138
2015.000000	99.998887
2014.000000	100.004150
2013.000000	100.042729
2012.000000	99.996052
2011.000000	100.002025
2010.000000	100.030392
2009.000000	100.002127
2008.000000	99.973163
2007.000000	99.937318
2006.000000	99.996354
2005.000000	99.982881
2004.000000	99.969609
2003.000000	100.008106
2002.000000	100.020267
2001.000000	100.019764
2000.000000	99.918469
1999.000000	99.953298
1998.000000	100.010337
1997.000000	99.993819
1996.000000	100.010945
1995.000000	99.997263
1994.000000	99.963411
1993.000000	99.978312
1992.000000	99.991586
1991.000000	100.052217
1990.000000	100.052229
1989.000000	100.020076
1988.000000	99.989760
1987.000000	100.027682
1986.000000	100.002737
1985.000000	99.969591
1984.000000	99.987330
1983.000000	99.969998
1982.000000	99.987427
1981.000000	100.005884
1980.000000	100.022110
1979.000000	100.055276
1978.000000	100.052443
1977.000000	99.984893
1976.000000	99.979524
1975.000000	100.012068
1974.000000	99.981443
1973.000000	99.978403
1972.000000	100.031241
1971.000000	100.016327
1970.000000	99.994627
1969.000000	99.927243
1968.000000	99.993105
1967.000000	100.017034
1966.000000	99.988037
1965.000000	99.962390
1964.000000	100.052014
1963.000000	100.001622
1962.000000	99.981752
1961.000000	100.000811
1960.000000	99.991384
1959.000000	100.031436
1958.000000	100.098893
1957.000000	100.038726
1956.000000	99.969100
1955.000000	99.973457
1954.000000	99.954922
1953.000000	99.969300
1952.000000	99.975382
1951.000000	99.999088
1950.000000	99.968200
1949.000000	99.989364
1948.000000	99.980347
1947.000000	99.966164
1946.000000	99.950898
1945.000000	99.944624
1944.000000	99.969521
1943.000000	100.026642
1942.000000	100.031192
1941.000000	100.041210
1940.000000	99.989976
1939.000000	100.015489
1938.000000	99.994536
1937.000000	99.992813
1936.000000	100.000202
1935.000000	99.983711
1934.000000	100.010524
1933.000000	100.081188
1932.000000	100.039664
1931.000000	100.013248
1930.000000	99.970671
1929.000000	99.977551
1928.000000	100.022848
1927.000000	100.020328
1926.000000	99.959764
1925.000000	99.939566
1924.000000	100.025687
1923.000000	100.041064
1922.000000	100.024356
1921.000000	99.968247
1920.000000	100.048764
1919.000000	100.014767
1918.000000	100.073177
1917.000000	100.035597
1916.000000	100.005761
1915.000000	99.962296
1914.000000	99.948539
1913.000000	99.991707
1912.000000	99.948526
1911.000000	99.994539
1910.000000	99.997573
1909.000000	100.008901
1908.000000	99.972688
1907.000000	100.010624
1906.000000	99.958820
1905.000000	100.013151
1904.000000	99.953757
1903.000000	99.938372
1902.000000	99.993929
1901.000000	100.010627
1900.000000	99.913939
1899.000000	100.018115
1898.000000	99.994333
1897.000000	99.967832
1896.000000	100.028846
1895.000000	100.007897
1894.000000	100.001620
1893.000000	99.962752
1892.000000	99.971350
1891.000000	100.008609
1890.000000	100.058733
1889.000000	100.005063
1888.000000	99.971060
1887.000000	99.982500
1886.000000	99.983415
1885.000000	99.950853
1884.000000	99.966628
1883.000000	100.015372
1882.000000	99.993426
1881.000000	100.043181
1880.000000	100.029924
1879.000000	99.952314
1878.000000	99.940600
1877.000000	99.985349
1876.000000	99.972933
1875.000000	100.040109
1874.000000	100.021718
1873.000000	99.987073
1872.000000	99.992023
1871.000000	99.999798
1870.000000	100.026772
1869.000000	99.988184
1868.000000	99.979899
1867.000000	99.982924
1866.000000	100.023747
1865.000000	100.004042
1864.000000	99.969889
1863.000000	99.983730
1862.000000	100.026280
1861.000000	100.031748
1860.000000	100.037421
1859.000000	100.005966
1858.000000	99.956444
1857.000000	99.984739
1856.000000	99.968265
1855.000000	99.924036
1854.000000	99.972510
1853.000000	99.976754
1852.000000	99.979081
1851.000000	99.994947
1850.000000	99.971204
1849.000000	99.930506
1848.000000	99.976360
1847.000000	100.000101
1846.000000	99.982515
1845.000000	99.969486
1844.000000	99.981306
1843.000000	99.961500
1842.000000	100.004144
1841.000000	100.023349
1840.000000	100.010815
1839.000000	99.998484
1838.000000	99.986859
1837.000000	99.993226
1836.000000	100.004550
1835.000000	99.982608
1834.000000	99.990494
1833.000000	100.002832
1832.000000	99.992716
1831.000000	100.005970
1830.000000	100.040886
1829.000000	100.023785
1828.000000	100.009210
1827.000000	99.975410
1826.000000	99.989575
1825.000000	99.997368
1824.000000	99.981171
1823.000000	99.979955
1822.000000	99.995141
1821.000000	100.013264
1820.000000	100.029070
1819.000000	100.006988
1818.000000	100.001418
1817.000000	99.992401
1816.000000	100.017934
1815.000000	100.017223
1814.000000	100.008714
1813.000000	100.003850
1812.000000	99.970823
1811.000000	99.961401
1810.000000	99.974568
1809.000000	99.991791
1808.000000	100.002940
1807.000000	100.013989
1806.000000	99.989965
1805.000000	99.967661
1804.000000	99.982563
1803.000000	100.007199
1802.000000	100.024029
1801.000000	99.981144
1800.000000	99.986008
1799.000000	100.021399
1798.000000	100.012574
1797.000000	99.993206
1796.000000	99.957824
1795.000000	99.971106
1794.000000	100.009533
1793.000000	99.996147
1792.000000	100.012474
1791.000000	100.023329
1790.000000	99.997769
1789.000000	100.010852
1788.000000	100.027390
1787.000000	100.023133
1786.000000	100.021911
1785.000000	100.025560
1784.000000	99.969983
1783.000000	99.973431
1782.000000	99.988133
1781.000000	99.999899
1780.000000	100.010143
1779.000000	100.000913
1778.000000	99.966332
1777.000000	99.978096
1776.000000	99.993104
1775.000000	99.976574
1774.000000	99.973023
1773.000000	99.999290
1772.000000	100.009129
1771.000000	100.002637
1770.000000	99.997769
1769.000000	99.996552
1768.000000	99.996349
1767.000000	99.971404
1766.000000	100.021704
1765.000000	100.019272
1764.000000	99.999290
1763.000000	100.027388
1762.000000	100.031647
1761.000000	100.023025
1760.000000	100.013897
1759.000000	100.056611
1758.000000	100.022112
1757.000000	100.014404
1756.000000	100.004565
1755.000000	99.994522
1754.000000	100.009230
1753.000000	100.011763
1752.000000	100.007909
1751.000000	100.001724
1750.000000	100.028700
1749.000000	100.033265
1748.000000	99.991785
1747.000000	100.018964
1746.000000	100.037429
1745.000000	100.011155
1744.000000	100.027280
1743.000000	100.021297
1742.000000	99.994119
1741.000000	99.980740
1740.000000	100.014703
1739.000000	100.019571
1738.000000	100.015515
1737.000000	100.027176
1736.000000	100.020384
1735.000000	100.002738
1734.000000	99.981040
1733.000000	99.990367
1732.000000	99.973538
1731.000000	100.039755
1730.000000	99.994322
1729.000000	100.007605
1728.000000	99.993713
1727.000000	99.995031
1726.000000	99.998479
1725.000000	100.034486
1724.000000	99.987123
1723.000000	99.981247
1722.000000	100.001926
1721.000000	100.006894
1720.000000	100.020076
1719.000000	100.014197
1718.000000	99.974459
1717.000000	100.016933
1716.000000	99.991079
1715.000000	99.973133
1714.000000	100.020685
1713.000000	100.011154
1712.000000	99.954587
1711.000000	99.997567
1710.000000	100.019879
1709.000000	100.004259
1708.000000	99.979823
1707.000000	99.976886
1706.000000	99.998682
1705.000000	99.989356
1704.000000	100.006286
1703.000000	99.986820
1702.000000	99.989252
1701.000000	100.009531
1700.000000	100.003752
1699.000000	99.996858
1698.000000	99.987330
1697.000000	100.003345
1696.000000	99.974864
1695.000000	99.973342
1694.000000	100.032650
1693.000000	100.052338
1692.000000	100.009529
1691.000000	100.002433
1690.000000	99.979726
1689.000000	99.962391
1688.000000	99.975568
1687.000000	100.016119
1686.000000	99.986013
1685.000000	99.992702
1684.000000	99.972433
1683.000000	99.998885
1682.000000	100.044509
1681.000000	100.006387
1680.000000	100.037008
1679.000000	100.019466
1678.000000	100.003143
1677.000000	99.981147
1676.000000	99.999189
1675.000000	100.026563
1674.000000	99.970303
1673.000000	100.007604
1672.000000	100.020583
1671.000000	100.006792
1670.000000	99.998987
1669.000000	100.009524
1668.000000	100.008411
1667.000000	100.002533
1666.000000	100.000811
1665.000000	100.012159
1664.000000	99.981055
1663.000000	99.966370
1662.000000	100.007193
1661.000000	99.999899
1660.000000	100.003445
1659.000000	100.017325
1658.000000	100.014690
1657.000000	100.003141
1656.000000	99.988552
1655.000000	99.976091
1654.000000	100.010740
1653.000000	100.000000
1652.000000	99.999797
1651.000000	99.996455
1650.000000	100.000709
1649.000000	100.011652
1648.000000	99.970523
1647.000000	99.967889
1646.000000	100.020973
1645.000000	100.005268
1644.000000	100.007803
1643.000000	99.993717
1642.000000	99.996657
1641.000000	99.985210
1640.000000	99.978627
1639.000000	99.989566
1638.000000	100.004154
1637.000000	100.017020
1636.000000	100.008712
1635.000000	100.015503
1634.000000	100.020367
1633.000000	100.013981
1632.000000	100.022901
1631.000000	100.012059
1630.000000	100.020066
1629.000000	100.003749
1628.000000	99.997467
1627.000000	100.004255
1626.000000	99.991085
1625.000000	99.981056
1624.000000	100.011347
1623.000000	99.998075
1622.000000	100.001823
1621.000000	100.005673
1620.000000	100.005369
1619.000000	99.998481
1618.000000	99.993315
1617.000000	100.000608
1616.000000	100.001925
1615.000000	99.981870
1614.000000	99.979740
1613.000000	99.998176
1612.000000	100.004052
1611.000000	100.002837
1610.000000	100.001317
1609.000000	100.004052
1608.000000	100.006990
1607.000000	100.020260
1606.000000	100.006685
1605.000000	99.999190
1604.000000	100.009725
1603.000000	99.994732
1602.000000	99.996860
1601.000000	100.002735
1600.000000	100.000203
1599.000000	99.994530
1598.000000	99.992303
1597.000000	99.992505
1596.000000	99.998987
1595.000000	100.017626
1594.000000	100.010332
1593.000000	99.996759
1592.000000	100.004355
1591.000000	99.995341
1590.000000	99.994632
1589.000000	100.002229
1588.000000	100.008306
1587.000000	99.996151
1586.000000	99.988757
1585.000000	100.011649
1584.000000	100.018134
1583.000000	100.010434
1582.000000	99.995746
1581.000000	99.991898
1580.000000	99.990279
1579.000000	100.003241
1578.000000	100.010129
1577.000000	99.998076
1576.000000	99.985519
1575.000000	100.007191
1574.000000	100.007292
1573.000000	99.995848
1572.000000	99.999291
1571.000000	100.002633
1570.000000	99.996354
1569.000000	99.997974
1568.000000	99.999595
1567.000000	100.007595
1566.000000	99.989773
1565.000000	99.987748
1564.000000	100.023697
1563.000000	100.046287
1562.000000	100.020762
1561.000000	99.995950
1560.000000	99.990077
1559.000000	99.998076
1558.000000	100.003848
1557.000000	99.970132
1556.000000	99.997671
1555.000000	100.000911
1554.000000	99.984204
1553.000000	99.986533
1552.000000	99.994026
1551.000000	99.997064
1550.000000	99.981067
1549.000000	99.996659
1548.000000	99.989774
1547.000000	100.002228
1546.000000	100.002835
1545.000000	99.998177
1544.000000	99.984003
1543.000000	99.998481
1542.000000	99.993520
1541.000000	99.988965
1540.000000	100.024300
1539.000000	100.018730
1538.000000	100.009212
1537.000000	100.008402
1536.000000	99.988359
1535.000000	99.989572
1534.000000	100.004353
1533.000000	100.009516
1532.000000	99.997975
1531.000000	100.000608
1530.000000	99.996253
1529.000000	99.985217
1528.000000	99.991798
1527.000000	99.971752
1526.000000	100.003849
1525.000000	100.002633
1524.000000	99.998785
1523.000000	100.008708
1522.000000	100.020657
1521.000000	100.013669
1520.000000	100.007191
1519.000000	100.021064
1518.000000	100.008810
1517.000000	100.012659
1516.000000	100.006381
1515.000000	100.014077
1514.000000	100.003544
1513.000000	99.992810
1512.000000	100.022485
1511.000000	100.037891
1510.000000	100.004355
1509.000000	99.971342
1508.000000	100.008507
1507.000000	100.001215
1506.000000	99.990886
1505.000000	100.004253
1504.000000	99.987848
1503.000000	100.000507
1502.000000	100.012966
1501.000000	100.022993
1500.000000	100.014787
1499.000000	99.991190
1498.000000	100.002937
1497.000000	100.017319
1496.000000	99.998278
1495.000000	99.993721
1494.000000	99.995241
1493.000000	100.020661
1492.000000	100.018432
1491.000000	100.008203
1490.000000	100.007797
1489.000000	100.004355
1488.000000	100.010228
1487.000000	100.010127
1486.000000	100.014583
1485.000000	99.998481
1484.000000	100.001823
1483.000000	100.021566
1482.000000	99.997165
1481.000000	100.015083
1480.000000	100.001113
1479.000000	99.969942
1478.000000	99.985729
1477.000000	100.020852
1476.000000	100.012551
1475.000000	99.997470
1474.000000	100.008906
1473.000000	100.002125
1472.000000	100.010627
1471.000000	100.028241
1470.000000	100.012148
1469.000000	100.019030
1468.000000	100.006275
1467.000000	99.993219
1466.000000	99.992005
1465.000000	100.001721
1464.000000	100.004050
1463.000000	99.997065
1462.000000	100.007287
1461.000000	100.004757
1460.000000	99.999292
1459.000000	100.001114
1458.000000	100.020550
1457.000000	99.993725
1456.000000	99.988362
1455.000000	99.979153
1454.000000	100.009719
1453.000000	99.997470
1452.000000	99.995446
1451.000000	99.995143
1450.000000	99.999190
1449.000000	99.986034
1448.000000	99.993017
1447.000000	99.989477
1446.000000	99.990388
1445.000000	99.997369
1444.000000	100.008095
1443.000000	100.014772
1442.000000	99.995042
1441.000000	100.000911
1440.000000	100.000000
1439.000000	100.004655
1438.000000	100.009915
1437.000000	100.005160
1436.000000	100.001113
1435.000000	99.981994
1434.000000	99.995852
1433.000000	100.013354
1432.000000	100.018615
1431.000000	100.010218
1430.000000	100.003642
1429.000000	99.991808
1428.000000	99.989077
1427.000000	99.990089
1426.000000	99.998786
1425.000000	100.002022
1424.000000	99.973211
1423.000000	99.992519
1422.000000	99.999697
1421.000000	100.006975
1420.000000	100.012836
1419.000000	100.023548
1418.000000	100.014652
1417.000000	100.006668
1416.000000	100.005354
1415.000000	100.006868
1414.000000	100.011009
1413.000000	100.008886
1412.000000	100.003331
1411.000000	100.006460
1410.000000	100.003331
1409.000000	100.009588
1408.000000	100.002119
1407.000000	100.006255
1406.000000	99.989811
1405.000000	99.983659
1404.000000	100.010995
1403.000000	99.997781
1402.000000	99.990419
1401.000000	99.996168
1400.000000	99.988807
1399.000000	99.984674
1398.000000	100.005344
1397.000000	100.005243
1396.000000	100.009678
1395.000000	100.009274
1394.000000	100.013305
1393.000000	99.990527
1392.000000	99.984483
1391.000000	99.998186
1390.000000	99.997682
1389.000000	100.010078
1388.000000	99.998388
1387.000000	99.992847
1386.000000	99.996474
1385.000000	100.010379
1384.000000	100.010279
1383.000000	99.990528
1382.000000	99.998086
1381.000000	100.003527
1380.000000	99.999295
1379.000000	100.000101
1378.000000	100.001310
1377.000000	99.999395
1376.000000	99.998287
1375.000000	99.990227
1374.000000	99.983478
1373.000000	99.995768
1372.000000	100.012798
1371.000000	99.997884
1370.000000	99.985996
1369.000000	100.000101
1368.000000	100.007556
1367.000000	100.008462
1366.000000	100.016622
1365.000000	100.014203
1364.000000	100.006043
1363.000000	99.999698
1362.000000	99.998791
1361.000000	99.998992
1360.000000	100.005241
1359.000000	100.013508
1358.000000	100.015321
1357.000000	100.007360
1356.000000	99.991127
1355.000000	100.005145
1354.000000	100.016042
1353.000000	100.000101
1352.000000	99.996569
1351.000000	100.005753
1350.000000	100.006967
1349.000000	99.994345
1348.000000	99.998889
1347.000000	99.995658
1346.000000	99.997172
1345.000000	100.009395
1344.000000	100.015356
1343.000000	100.013434
1342.000000	100.002828
1341.000000	99.983842
1340.000000	99.984443
1339.000000	100.001616
1338.000000	99.994747
1337.000000	99.994949
1336.000000	100.024042
1335.000000	100.013938
1334.000000	100.007878
1333.000000	100.011314
1332.000000	100.011717
1331.000000	100.013130
1330.000000	100.013836
1329.000000	100.021914
1328.000000	100.024344
1327.000000	100.000808
1326.000000	100.004847
1325.000000	100.037172
1324.000000	99.999091
1323.000000	99.955365
1322.000000	99.986367
1321.000000	100.044347
1320.000000	100.067294
1319.000000	100.030301
1318.000000	99.996970
1317.000000	99.964951
1316.000000	99.966773
1315.000000	100.009798
1314.000000	100.040212
1313.000000	100.040717
1312.000000	99.984950
1311.000000	99.947580
1310.000000	99.989797
1309.000000	100.012933
1308.000000	100.012629
1307.000000	100.010506
1306.000000	100.023443
1305.000000	99.994543
1304.000000	99.991311
1303.000000	99.983632
1302.000000	99.995252
1301.000000	99.980808
1300.000000	99.989594
1299.000000	100.006668
1298.000000	99.982321
1297.000000	99.991616
1296.000000	100.012426
1295.000000	99.987575
1294.000000	100.030516
1293.000000	100.021316
1292.000000	99.996666
1291.000000	99.997171
1290.000000	99.999495
1289.000000	99.995859
1288.000000	99.987983
1287.000000	99.998081
1286.000000	99.997778
1285.000000	99.986670
1284.000000	99.994951
1283.000000	100.003332
1282.000000	100.018680
1281.000000	100.001010
1280.000000	100.018374
1279.000000	100.002321
1278.000000	100.026146
1277.000000	100.017966
1276.000000	99.984560
1275.000000	100.004340
1274.000000	99.992028
1273.000000	99.989305
1272.000000	100.003128
1271.000000	99.983858
1270.000000	99.995460
1269.000000	99.999496
1268.000000	99.993746
1267.000000	100.013518
1266.000000	99.995661
1265.000000	100.005751
1264.000000	100.009784
1263.000000	100.008171
1262.000000	100.018965
1261.000000	99.988299
1260.000000	99.993542
1259.000000	99.979020
1258.000000	100.001110
1257.000000	99.987089
1256.000000	100.007767
1255.000000	99.975092
1254.000000	99.994352
1253.000000	99.978418
1252.000000	100.040362
1251.000000	99.999798
1250.000000	100.002017
1249.000000	100.003228
1248.000000	100.000706
1247.000000	100.029458
1246.000000	100.005346
1245.000000	100.035003
1244.000000	100.004337
1243.000000	100.010791
1242.000000	100.019362
1241.000000	100.015935
1240.000000	100.000605
1239.000000	100.007964
1238.000000	100.005746
1237.000000	99.995565
1236.000000	100.005746
1235.000000	99.985488
1234.000000	99.996977
1233.000000	99.994054
1232.000000	100.004131
1231.000000	100.034563
1230.000000	100.015615
1229.000000	100.009166
1228.000000	100.020245
1227.000000	99.993454
1226.000000	99.996274
1225.000000	100.013593
1224.000000	100.001812
1223.000000	99.997786
1222.000000	100.013891
1221.000000	100.010669
1220.000000	100.000503
1219.000000	100.007447
1218.000000	100.011772
1217.000000	99.987626
1216.000000	100.022640
1215.000000	100.029184
1214.000000	99.975356
1213.000000	99.980186
1212.000000	99.975960
1211.000000	100.014490
1210.000000	100.004828
1209.000000	99.998592
1208.000000	100.018309
1207.000000	100.006440
1206.000000	99.997183
1205.000000	99.996881
1204.000000	100.002213
1203.000000	99.998994
1202.000000	99.990647
1201.000000	100.008248
1200.000000	99.991349
1199.000000	100.002414
1198.000000	100.000805
1197.000000	100.033698
1196.000000	100.016397
1195.000000	100.002616
1194.000000	99.994770
1193.000000	100.010962
1192.000000	99.991954
1191.000000	99.999698
1190.000000	99.999799
1189.000000	100.005935
1188.000000	100.000000
1187.000000	100.011766
1186.000000	99.999698
1185.000000	99.994269
1184.000000	100.004826
1183.000000	100.005328
1182.000000	100.009148
1181.000000	100.010554
1180.000000	100.014975
1179.000000	100.009949
1178.000000	100.011054
1177.000000	100.000703
1176.000000	99.996785
1175.000000	99.986037
1174.000000	99.998694
1173.000000	100.015672
1172.000000	100.021598
1171.000000	100.008939
1170.000000	100.000904
1169.000000	99.996385
1168.000000	99.987047
1167.000000	99.999498
1166.000000	100.014157
1165.000000	99.999498
1164.000000	99.997290
1163.000000	100.001004
1162.000000	99.987858
1161.000000	99.992375
1160.000000	99.992776
1159.000000	99.983549
1158.000000	99.991775
1157.000000	99.998897
1156.000000	99.998897
1155.000000	99.993783
1154.000000	99.996090
1153.000000	100.002907
1152.000000	100.012329
1151.000000	100.019946
1150.000000	100.008017
1149.000000	99.996794
1148.000000	99.996994
1147.000000	100.010118
1146.000000	100.005409
1145.000000	99.997196
1144.000000	100.003305
1143.000000	100.000100
1142.000000	100.004005
1141.000000	100.013516
1140.000000	100.000701
1139.000000	99.982586
1138.000000	100.002802
1137.000000	99.976791
1136.000000	99.984195
1135.000000	99.998199
1134.000000	99.980899
1133.000000	99.981401
1132.000000	99.998400
1131.000000	99.997201
1130.000000	100.012397
1129.000000	99.994703
1128.000000	100.010195
1127.000000	100.008695
1126.000000	100.010993
1125.000000	100.000999
1124.000000	100.005195
1123.000000	100.005394
1122.000000	99.998002
1121.000000	99.983922
1120.000000	100.002396
1119.000000	100.029058
1118.000000	100.016874
1117.000000	100.003893
1116.000000	100.004892
1115.000000	100.007487
1114.000000	99.998203
1113.000000	99.999800
1112.000000	99.997805
1111.000000	100.007584
1110.000000	100.001995
1109.000000	100.004090
1108.000000	99.990026
1107.000000	99.989927
1106.000000	99.993618
1105.000000	99.997208
1104.000000	100.019443
1103.000000	100.008074
1102.000000	100.000598
1101.000000	100.033982
1100.000000	100.018032
1099.000000	100.005678
1098.000000	99.993327
1097.000000	99.998207
1096.000000	100.000199
1095.000000	100.003285
1094.000000	100.021701
1093.000000	100.006967
1092.000000	99.999005
1091.000000	99.996617
1090.000000	100.005969
1089.000000	99.989955
1088.000000	100.002785
1087.000000	100.028640
1086.000000	100.027339
1085.000000	100.024551
1084.000000	100.005465
1083.000000	99.998609
1082.000000	100.010232
1081.000000	100.012317
1080.000000	100.020656
1079.000000	100.018763
1078.000000	99.995633
1077.000000	100.004466
1076.000000	100.002778
1075.000000	100.004266
1074.000000	100.002976
1073.000000	99.991967
1072.000000	100.010608
1071.000000	100.009318
1070.000000	100.008820
1069.000000	100.016052
1068.000000	99.996136
1067.000000	100.003368
1066.000000	100.000198
1065.000000	100.010989
1064.000000	100.013363
1063.000000	100.004750
1062.000000	99.995053
1061.000000	100.013554
1060.000000	99.995351
1059.000000	99.984673
1058.000000	100.009590
1057.000000	100.001483
1056.000000	100.001383
1055.000000	100.020550
1054.000000	100.003062
1053.000000	100.006814
1052.000000	100.004344
1051.000000	100.010560
1050.000000	99.982439
1049.000000	100.002565
1048.000000	99.979686
1047.000000	100.010354
1046.000000	100.002070
1045.000000	99.984726
1044.000000	99.993892
1043.000000	99.971042
1042.000000	99.986903
1041.000000	99.995078
1040.000000	99.994980
1039.000000	99.997146
1038.000000	99.999606
1037.000000	100.008163
1036.000000	99.998820
1035.000000	99.996265
1034.000000	100.016612
1033.000000	100.013165
1032.000000	100.011394
1031.000000	100.007954
1030.000000	100.000883
1029.000000	100.000393
1028.000000	99.995389
1027.000000	100.017850
1026.000000	100.009413
1025.000000	100.012938
1024.000000	99.991477
1023.000000	100.016360
1022.000000	100.010674
1021.000000	99.994910
1020.000000	99.986398
1019.000000	100.013403
1018.000000	100.028170
1017.000000	100.016914
1016.000000	99.995016
1015.000000	99.995311
1014.000000	99.975589
1013.000000	100.002538
1012.000000	100.005075
1011.000000	100.010929
1010.000000	99.994440
1009.000000	99.996100
1008.000000	99.992593
1007.000000	99.988796
1006.000000	100.001558
1005.000000	100.003992
1004.000000	100.008856
1003.000000	99.993580
1002.000000	100.003015
1001.000000	99.984642
1000.000000	99.983385
999.000000	99.996503
998.000000	100.021170
997.000000	100.022715
996.000000	100.008926
995.000000	100.003104
994.000000	99.995540
993.000000	100.024517
992.000000	100.020828
991.000000	100.010652
990.000000	99.998548
989.000000	99.999710
988.000000	99.991588
987.000000	99.998647
986.000000	100.003285
985.000000	99.997972
984.000000	100.013035
983.000000	100.012933
982.000000	100.006367
981.000000	99.996914
980.000000	100.005591
979.000000	99.998555
978.000000	99.987577
977.000000	100.000481
976.000000	100.006736
975.000000	100.012889
974.000000	100.006345
973.000000	100.012204
972.000000	100.017289
971.000000	100.004416
970.000000	99.997313
969.000000	100.006426
968.000000	100.028668
967.000000	100.008815
966.000000	100.017718
965.000000	100.008806
964.000000	100.005548
963.000000	99.998757
962.000000	100.002963
961.000000	100.002866
960.000000	100.006779
959.000000	99.998569
958.000000	99.992083
957.000000	99.997522
956.000000	99.991141
955.000000	99.995430
954.000000	99.995147
953.000000	99.983263
952.000000	99.980328
951.000000	100.000665
950.000000	100.010348
949.000000	100.029794
948.000000	100.018397
947.000000	100.009097
946.000000	100.015816
945.000000	100.010886
944.000000	100.027628
943.000000	99.989320
942.000000	99.983093
941.000000	100.017561
940.000000	100.031141
939.000000	100.027063
938.000000	99.998587
937.000000	99.970630
936.000000	99.963784
935.000000	99.973019
934.000000	99.965234
933.000000	99.981499
932.000000	99.994463
931.000000	100.000844
930.000000	99.988944
929.000000	99.973598
928.000000	99.960055
927.000000	99.985134
926.000000	100.031308
925.000000	100.012700
924.000000	99.986845
923.000000	100.018092
922.000000	99.999254
921.000000	99.954476
920.000000	99.975442
919.000000	99.958646
918.000000	99.967587
917.000000	99.994802
916.000000	100.011409
915.000000	100.006209
914.000000	99.989260
913.000000	100.027113
912.000000	100.040585
911.000000	100.033628
910.000000	100.018367
909.000000	100.000738
908.000000	99.987106
907.000000	99.959875
906.000000	99.977101
905.000000	100.001746
904.000000	99.970442
903.000000	99.971384
902.000000	99.985430
901.000000	99.976742
900.000000	100.044203
899.000000	100.039039
898.000000	99.994339
897.000000	99.992700
896.000000	99.984596
895.000000	100.007013
894.000000	100.005551
893.000000	100.015819
892.000000	99.989829
891.000000	99.957813
890.000000	99.988030
889.000000	100.020292
888.000000	100.053683
887.000000	100.028396
886.000000	99.984651
885.000000	100.013807
884.000000	99.991978
883.000000	100.031792
882.000000	99.978947
881.000000	100.077415
880.000000	100.021550
879.000000	100.033648
878.000000	100.056398
877.000000	99.880651
876.000000	99.911585
875.000000	99.965954
874.000000	100.068172
873.000000	100.025427
872.000000	99.970874
871.000000	100.088654
870.000000	100.019490
869.000000	99.935104
868.000000	99.965101
867.000000	100.047033
866.000000	100.002040
865.000000	99.998937
864.000000	99.899750
863.000000	99.941916
862.000000	100.015197
861.000000	99.865357
860.000000	100.033283
859.000000	99.745039
858.000000	99.551118
857.000000	100.045716
856.000000	99.315226
855.000000	99.839221
854.000000	99.644576
853.000000	99.627366
852.000000	99.651442
851.000000	100.033612
850.000000	100.090997
849.000000	100.170041
848.000000	99.807556
847.000000	100.062391
846.000000	99.457101
845.000000	99.990302
844.000000	99.607529
843.000000	100.127728
842.000000	100.127543
841.000000	99.980152
840.000000	100.298075
839.000000	100.023357
838.000000	99.704032
837.000000	99.741845
836.000000	100.053464
835.000000	100.128661
834.000000	99.805189
833.000000	100.064050
832.000000	99.910674
831.000000	100.137121
830.000000	99.955306
829.000000	99.922948
828.000000	100.014879
827.000000	99.733932
826.000000	100.050771
825.000000	100.077657
824.000000	99.796535
823.000000	99.768671
822.000000	100.084728
821.000000	99.938039
820.000000	99.994573
819.000000	99.894226
818.000000	99.904486
817.000000	99.945703
816.000000	99.850402
815.000000	100.256877
814.000000	100.180649
813.000000	100.063133
812.000000	99.952644
811.000000	100.095468
810.000000	100.067221
809.000000	99.881096
808.000000	100.124511
807.000000	100.091804
806.000000	100.009902
805.000000	99.871770
804.000000	99.808607
803.000000	99.907747
802.000000	99.974392
801.000000	99.880623
800.000000	99.920241
799.000000	99.898584
798.000000	99.857938
797.000000	100.177616
796.000000	100.119050
795.000000	99.920963
794.000000	99.863627
793.000000	100.018924
792.000000	100.065258
791.000000	99.987583
790.000000	100.102086
789.000000	100.117416
788.000000	99.967994
787.000000	99.994708
786.000000	99.920260
785.000000	99.860157
784.000000	99.899625
783.000000	100.044204
782.000000	99.945983
781.000000	100.001948
780.000000	100.129481
779.000000	100.155670
778.000000	99.889904
777.000000	99.950495
776.000000	99.868762
775.000000	99.977634
774.000000	100.067728
773.000000	99.957046
772.000000	99.879632
771.000000	99.993777
770.000000	99.865011
769.000000	99.961828
768.000000	99.978904
767.000000	99.987974
766.000000	99.851440
765.000000	99.892992
764.000000	100.023445
763.000000	99.981886
762.000000	100.049511
761.000000	100.017584
760.000000	100.093227
759.000000	100.018865
758.000000	99.967023
757.000000	100.026571
756.000000	99.979870
755.000000	100.044968
754.000000	100.108630
753.000000	100.116621
752.000000	100.028424
751.000000	100.003407
750.000000	100.090076
749.000000	100.037152
748.000000	99.927247
747.000000	99.973949
746.000000	100.078927
745.000000	100.022930
744.000000	100.003238
743.000000	99.992084
742.000000	100.010534
741.000000	100.001351
740.000000	99.990991
739.000000	99.919571
738.000000	99.831620
737.000000	99.969800
736.000000	100.031143
735.000000	99.978790
734.000000	100.004784
733.000000	99.989710
732.000000	99.976713
731.000000	99.961336
730.000000	100.033912
729.000000	100.027863
728.000000	99.939580
727.000000	99.982534
726.000000	100.088398
725.000000	99.982979
724.000000	99.832470
723.000000	99.844957
722.000000	99.925540
721.000000	99.864762
720.000000	99.868930
719.000000	99.951830
718.000000	99.982936
717.000000	100.003088
716.000000	99.950422
715.000000	99.926029
714.000000	100.036242
713.000000	100.095501
712.000000	100.113522
711.000000	100.048745
710.000000	99.898442
709.000000	100.004548
708.000000	100.085481
707.000000	100.002549
706.000000	100.008651
705.000000	100.030243
704.000000	99.993715
703.000000	100.007380
702.000000	99.978950
701.000000	99.944612
700.000000	99.969739
699.000000	100.028739
698.000000	100.027380
697.000000	100.018710
696.000000	100.043630
695.000000	100.054611
694.000000	100.001462
693.000000	99.941565
692.000000	99.998630
691.000000	100.007953
690.000000	100.010053
689.000000	100.022285
688.000000	100.036566
687.000000	100.053224
686.000000	100.056877
685.000000	100.038413
684.000000	99.990394
683.000000	100.012265
682.000000	99.973094
681.000000	99.979134
680.000000	100.001740
679.000000	100.054246
678.000000	100.065438
677.000000	99.975178
676.000000	100.008064
675.000000	100.026490
674.000000	99.962068
673.000000	99.998442
672.000000	100.025956
671.000000	99.931244
670.000000	99.936640
669.000000	99.940557
668.000000	99.964318
667.000000	100.084299
666.000000	100.006152
665.000000	99.857019
664.000000	99.966656
663.000000	100.006522
662.000000	99.929493
661.000000	99.978607
660.000000	100.031703
659.000000	99.954059
658.000000	100.058481
657.000000	100.010849
656.000000	100.021520
655.000000	99.978394
654.000000	99.910845
653.000000	100.002208
652.000000	100.101010
651.000000	100.004969
650.000000	99.957942
649.000000	99.986108
648.000000	99.941382
647.000000	100.013903
646.000000	100.031700
645.000000	100.016306
644.000000	99.956893
643.000000	99.993641
642.000000	100.016587
641.000000	99.986083
640.000000	99.973361
639.000000	99.998893
638.000000	99.963679
637.000000	99.962380
636.000000	100.026832
635.000000	99.913811
634.000000	99.977122
633.000000	99.965781
632.000000	100.032307
631.000000	99.948139
630.000000	100.064822
629.000000	100.073970
628.000000	100.027527
627.000000	99.945902
626.000000	99.975811
625.000000	99.976999
624.000000	99.924388
623.000000	99.963151
622.000000	100.023208
621.000000	100.040122
620.000000	99.929327
619.000000	99.945687
618.000000	100.045009
617.000000	99.909313
616.000000	100.060039
615.000000	100.052176
614.000000	99.989369
613.000000	100.067146
612.000000	99.975210
611.000000	100.092086
610.000000	99.920132
609.000000	99.983622
608.000000	99.886755
607.000000	100.110377
606.000000	100.054330
605.000000	99.953074
604.000000	99.991940
603.000000	100.017777
602.000000	99.903891
601.000000	100.108779
600.000000	100.044190
599.000000	100.074794
598.000000	99.995091
597.000000	100.005561
596.000000	100.049689
595.000000	100.041320
594.000000	100.064119
593.000000	100.016955
592.000000	100.018998
591.000000	100.057950
590.000000	99.980904
589.000000	99.958019
588.000000	100.004911
587.000000	99.975715
586.000000	99.962544
585.000000	99.983589
584.000000	99.939189
583.000000	99.990264
582.000000	100.067552
581.000000	99.963279
580.000000	100.050479
579.000000	100.057339
578.000000	99.963638
577.000000	100.067371
576.000000	99.941482
575.000000	99.880745
574.000000	99.998050
573.000000	99.972920
572.000000	99.919202
571.000000	100.066378
570.000000	99.933219
569.000000	99.998143
568.000000	100.079691
567.000000	100.029232
566.000000	99.953615
565.000000	100.038523
564.000000	100.039195
563.000000	99.990065
562.000000	99.980963
561.000000	99.977288
560.000000	99.937342
559.000000	99.988777
558.000000	100.058441
557.000000	99.944363
556.000000	99.958634
555.000000	99.969765
554.000000	99.967178
553.000000	99.986085
552.000000	100.024676
551.000000	100.027083
550.000000	100.051848
549.000000	99.984231
548.000000	100.003991
547.000000	100.007239
546.000000	100.012525
545.000000	99.930236
544.000000	99.911694
543.000000	100.056154
542.000000	99.916588
541.000000	99.946624
540.000000	99.945792
539.000000	99.978093
538.000000	100.017824
537.000000	100.002786
536.000000	99.947809
535.000000	99.972700
534.000000	99.976046
533.000000	100.017829
532.000000	100.052028
531.000000	99.960807
530.000000	99.980866
529.000000	99.953465
528.000000	100.038842
527.000000	100.002694
526.000000	99.995912
525.000000	100.040806
524.000000	100.010872
523.000000	99.928105
522.000000	100.028059
521.000000	100.035115
520.000000	100.002880
519.000000	99.990429
518.000000	99.942948
517.000000	100.018689
516.000000	100.039227
515.000000	99.989962
514.000000	100.044343
513.000000	100.002974
512.000000	99.944991
511.000000	99.952222
510.000000	100.032433
509.000000	99.975938
508.000000	99.980582
507.000000	99.959407
506.000000	100.008179
505.000000	100.089475
504.000000	100.062458
503.000000	100.037464
502.000000	100.003067
501.000000	99.951324
500.000000	99.902642
499.000000	99.985311
498.000000	100.025659
497.000000	100.034107
496.000000	100.009663
495.000000	99.954836
494.000000	100.007903
493.000000	99.992469
492.000000	99.999071
491.000000	99.996654
490.000000	100.012081
489.000000	99.942481
488.000000	99.961243
487.000000	100.041352
486.000000	100.026387
485.000000	99.979192
484.000000	99.939147
483.000000	99.908036
482.000000	99.933942
481.000000	99.950222
480.000000	99.976744
479.000000	99.991902
478.000000	99.991248
477.000000	99.982585
476.000000	99.964797
475.000000	100.013418
474.000000	100.065718
473.000000	100.051827
472.000000	100.023117
471.000000	99.984994
470.000000	99.988720
469.000000	99.969709
468.000000	99.976138
467.000000	99.961404
466.000000	99.989651
465.000000	100.027789
464.000000	100.028171
463.000000	99.999067
462.000000	100.004760
461.000000	100.045818
460.000000	100.041987
459.000000	100.007370
458.000000	99.983301
457.000000	99.980129
456.000000	99.994402
455.000000	100.063644
454.000000	100.040030
453.000000	99.939928
452.000000	99.958471
451.000000	99.973592
450.000000	100.017916
449.000000	100.032389
448.000000	99.957923
447.000000	99.938511
446.000000	99.911351
445.000000	99.891123
444.000000	99.972371
443.000000	100.065553
442.000000	100.025780
441.000000	99.984775
440.000000	99.980101
439.000000	99.982529
438.000000	100.029055
437.000000	99.961335
436.000000	99.902304
435.000000	99.975982
434.000000	99.986074
433.000000	100.057673
432.000000	100.067302
431.000000	99.977840
430.000000	99.981759
429.000000	100.063320
428.000000	100.033760
427.000000	99.960728
426.000000	99.999813
425.000000	99.993079
424.000000	100.018803
423.000000	100.011134
422.000000	99.913554
421.000000	99.954515
420.000000	99.969218
419.000000	99.988303
418.000000	100.067103
417.000000	100.023014
416.000000	99.969765
415.000000	99.969957
414.000000	99.928395
413.000000	100.019005
412.000000	100.023501
411.000000	100.046838
410.000000	100.030651
409.000000	100.029324
408.000000	100.028380
407.000000	99.918847
406.000000	100.027083
405.000000	100.038617
404.000000	100.053627
403.000000	99.967498
402.000000	99.990910
401.000000	99.951293
400.000000	99.980424
399.000000	99.853686
398.000000	99.944066
397.000000	100.135580
396.000000	99.996814
395.000000	99.962434
394.000000	99.998126
393.000000	99.962631
392.000000	100.000281
391.000000	100.026898
390.000000	99.976190
389.000000	100.066846
388.000000	99.970002
387.000000	100.028402
386.000000	99.910835
385.000000	99.960291
384.000000	100.026697
383.000000	99.947059
382.000000	99.920822
381.000000	100.004593
380.000000	99.922816
379.000000	99.972155
378.000000	99.844847
377.000000	100.137088
376.000000	100.132198
375.000000	100.228019
374.000000	100.111224
373.000000	100.065727
372.000000	100.009894
371.000000	100.018106
370.000000	100.120792
369.000000	99.819392
368.000000	99.943843
367.000000	99.806273
366.000000	99.874474
365.000000	99.992061
364.000000	100.004668
363.000000	99.996082
362.000000	99.742345
361.000000	100.011562
360.000000	100.009980
359.000000	99.911192
358.000000	99.925534
357.000000	99.870068
356.000000	100.275042
355.000000	99.907729
354.000000	100.012676
353.000000	100.081829
352.000000	99.985444
351.000000	100.163243
350.000000	99.753634
349.000000	99.773423
348.000000	100.127161
347.000000	99.764224
346.000000	99.630310
345.000000	99.992377
344.000000	99.874540
343.000000	100.144833
342.000000	99.814965
341.000000	100.128682
340.000000	100.099001
339.000000	100.103519
338.000000	100.070031
337.000000	100.195983
336.000000	100.506098
335.000000	100.126074
334.000000	99.979394
333.000000	99.814945
332.000000	100.023207
331.000000	99.992114
330.000000	100.120488
329.000000	100.405307
328.000000	99.913803
327.000000	100.106723
326.000000	99.866192
325.000000	99.988020
324.000000	100.040733
323.000000	100.033009
322.000000	100.247376
321.000000	99.448135
320.000000	99.864755
319.000000	99.714770
318.000000	99.925370
317.000000	100.075007
316.000000	99.967514
315.000000	99.825902
314.000000	100.180001
313.000000	99.881311
312.000000	100.162572
311.000000	100.237727
310.000000	100.168026
309.000000	100.272507
308.000000	99.956178
307.000000	99.789162
306.000000	99.553785
305.000000	100.275982
304.000000	99.882101
303.000000	99.990601
302.000000	100.140881
301.000000	100.215266
300.000000	100.139389
299.000000	100.118944
298.000000	99.914123
297.000000	99.830699
296.000000	99.816237
295.000000	100.134620
294.000000	100.024461
293.000000	100.044547
292.000000	99.849831
291.000000	100.093253
290.000000	99.967819
289.000000	99.719784
288.000000	99.758653
287.000000	99.981629
286.000000	100.109686
285.000000	100.146275
284.000000	99.852922
283.000000	100.144404
282.000000	100.066123
281.000000	99.976458
280.000000	100.100581
279.000000	100.162010
278.000000	100.137026
277.000000	100.041497
276.000000	100.100032
275.000000	99.995615
274.000000	99.860852
273.000000	99.743489
272.000000	99.726746
271.000000	100.010546
270.000000	100.145417
269.000000	100.034925
268.000000	99.903669
267.000000	100.128679
266.000000	100.160965
265.000000	100.260567
264.000000	100.165214
263.000000	100.014517
262.000000	99.803301
261.000000	99.893645
260.000000	99.813905
259.000000	99.849469
258.000000	99.774810
257.000000	100.077846
256.000000	100.011114
255.000000	99.889868
254.000000	99.934702
253.000000	100.086285
252.000000	99.969871
251.000000	100.075602
250.000000	100.141158
249.000000	100.091648
248.000000	99.920622
247.000000	99.940999
246.000000	99.946270
245.000000	100.230111
244.000000	100.004487
243.000000	100.023457
242.000000	99.986838
241.000000	100.208703
240.000000	100.321865
239.000000	100.017608
238.000000	99.765165
237.000000	100.200151
236.000000	100.377703
235.000000	100.157867
234.000000	100.111564
233.000000	100.110744
232.000000	100.064534
231.000000	99.817721
230.000000	99.819196
229.000000	100.054415
228.000000	100.176624
227.000000	100.092563
226.000000	99.683764
225.000000	99.448407
224.000000	99.881670
223.000000	100.094471
222.000000	100.062594
221.000000	99.751642
220.000000	99.720534
219.000000	99.879094
218.000000	99.854598
217.000000	100.016427
216.000000	100.017322
215.000000	99.981232
214.000000	100.029805
213.000000	99.884833
212.000000	99.977553
211.000000	100.363853
210.000000	100.380916
209.000000	100.115945
208.000000	100.547972
207.000000	100.449579
206.000000	100.101635
205.000000	100.229787
204.000000	100.396789
203.000000	100.167573
202.000000	99.769266
201.000000	99.731252
200.000000	100.098260
