PE UV       SUBTECH     SPECTRUM    ASCII       PEDS        4.00        
   -1
RDmsmeh81.Sample.asc
18/03/14
10:48:31.00
18/03/14
10:48:31.00
Administrator

200.000000
1
Lambda 750
750N8071901
PerkinElmer UV WinLab 6.0.4.0738 / 1.61.00 Lambda 900

0
0
3350/servo 860.8/2
0
0
UV/VIS
1
1
1
CommonBeamDepol,150mm sphere / downward view
0
0
0
0
Program
Program
3350/servo 860.8/2
3350/0.2 860.8/0.2
3350/0.2 860.8/0.2
0
1
 
 
 
0
 
860.8
319.2
860.8
Front
100
on
 
 
0
0
0
 
0
 
 
 
0
 
 
0
0
0
0
0
 
 
 
 
0
0


0
0
#HDR
-1
-1
#GR
nm
%R
1.0
0.0
2350.000000
-1.000000
2151
8
53.299307
7.035027
#DATA
2350.000000	22.098318
2349.000000	22.394911
2348.000000	22.100223
2347.000000	22.541395
2346.000000	22.489292
2345.000000	22.150028
2344.000000	22.662945
2343.000000	22.439682
2342.000000	22.576451
2341.000000	22.601233
2340.000000	22.890594
2339.000000	23.009082
2338.000000	22.968091
2337.000000	23.198415
2336.000000	23.043244
2335.000000	23.268101
2334.000000	23.333578
2333.000000	23.410854
2332.000000	23.708750
2331.000000	23.393322
2330.000000	23.379536
2329.000000	23.494648
2328.000000	23.447494
2327.000000	23.188956
2326.000000	23.266984
2325.000000	23.161652
2324.000000	22.981920
2323.000000	23.022306
2322.000000	22.934679
2321.000000	22.693138
2320.000000	22.742048
2319.000000	22.403573
2318.000000	22.414576
2317.000000	22.772837
2316.000000	22.414578
2315.000000	22.392991
2314.000000	22.412798
2313.000000	22.059949
2312.000000	22.293520
2311.000000	22.235936
2310.000000	22.545349
2309.000000	22.306865
2308.000000	22.134995
2307.000000	22.310031
2306.000000	21.865032
2305.000000	21.818940
2304.000000	21.926875
2303.000000	21.787251
2302.000000	21.759390
2301.000000	21.491867
2300.000000	21.704875
2299.000000	21.759971
2298.000000	21.884880
2297.000000	22.034056
2296.000000	21.869382
2295.000000	21.879735
2294.000000	21.562607
2293.000000	21.459000
2292.000000	21.356122
2291.000000	21.507700
2290.000000	21.655853
2289.000000	21.502796
2288.000000	21.573230
2287.000000	21.633851
2286.000000	21.599075
2285.000000	21.396525
2284.000000	21.505437
2283.000000	21.563090
2282.000000	21.439426
2281.000000	21.438462
2280.000000	21.526085
2279.000000	21.527885
2278.000000	21.606589
2277.000000	21.719858
2276.000000	21.755059
2275.000000	21.904656
2274.000000	21.961984
2273.000000	22.018065
2272.000000	22.078081
2271.000000	22.124746
2270.000000	21.990456
2269.000000	21.921727
2268.000000	22.045150
2267.000000	22.183610
2266.000000	22.375553
2265.000000	22.457084
2264.000000	22.566838
2263.000000	22.742438
2262.000000	22.959163
2261.000000	23.061644
2260.000000	23.158490
2259.000000	23.374599
2258.000000	23.580315
2257.000000	23.764177
2256.000000	23.935383
2255.000000	24.207288
2254.000000	24.317683
2253.000000	24.327433
2252.000000	24.716547
2251.000000	25.015739
2250.000000	25.054023
2249.000000	25.217993
2248.000000	25.499702
2247.000000	25.584449
2246.000000	25.732865
2245.000000	26.018196
2244.000000	26.167973
2243.000000	26.333794
2242.000000	26.445047
2241.000000	26.526254
2240.000000	26.674845
2239.000000	26.827146
2238.000000	27.041116
2237.000000	27.158826
2236.000000	27.259347
2235.000000	27.271080
2234.000000	27.383338
2233.000000	27.563648
2232.000000	27.502415
2231.000000	27.387771
2230.000000	27.517691
2229.000000	27.629803
2228.000000	27.586650
2227.000000	27.576145
2226.000000	27.608164
2225.000000	27.613755
2224.000000	27.607814
2223.000000	27.554690
2222.000000	27.525503
2221.000000	27.621431
2220.000000	27.654139
2219.000000	27.654941
2218.000000	27.451677
2217.000000	27.391057
2216.000000	27.470788
2215.000000	27.352887
2214.000000	27.247521
2213.000000	27.399965
2212.000000	27.443899
2211.000000	27.298065
2210.000000	27.220450
2209.000000	27.163992
2208.000000	26.901973
2207.000000	26.837751
2206.000000	26.913681
2205.000000	26.934059
2204.000000	26.983032
2203.000000	26.910591
2202.000000	26.756004
2201.000000	26.483960
2200.000000	26.380223
2199.000000	26.476837
2198.000000	26.509151
2197.000000	26.300700
2196.000000	26.180271
2195.000000	26.156077
2194.000000	26.093581
2193.000000	25.848926
2192.000000	25.839045
2191.000000	25.807097
2190.000000	25.644156
2189.000000	25.740370
2188.000000	25.739741
2187.000000	25.683802
2186.000000	25.721483
2185.000000	25.616298
2184.000000	25.622400
2183.000000	25.646091
2182.000000	25.650455
2181.000000	25.503673
2180.000000	25.488079
2179.000000	25.402665
2178.000000	25.426821
2177.000000	25.430221
2176.000000	25.312503
2175.000000	25.509972
2174.000000	25.483946
2173.000000	25.338233
2172.000000	25.497988
2171.000000	25.594473
2170.000000	25.625799
2169.000000	25.709730
2168.000000	25.657561
2167.000000	25.734511
2166.000000	25.907276
2165.000000	25.954796
2164.000000	25.963100
2163.000000	26.173199
2162.000000	26.271315
2161.000000	26.295795
2160.000000	26.704262
2159.000000	26.669386
2158.000000	26.648404
2157.000000	26.754118
2156.000000	27.053017
2155.000000	27.021088
2154.000000	27.273615
2153.000000	27.632774
2152.000000	27.693303
2151.000000	27.697635
2150.000000	27.688521
2149.000000	27.699333
2148.000000	27.991360
2147.000000	28.110687
2146.000000	28.130335
2145.000000	28.228546
2144.000000	28.567632
2143.000000	28.568336
2142.000000	28.762480
2141.000000	28.913140
2140.000000	28.906651
2139.000000	29.242621
2138.000000	29.255104
2137.000000	29.194612
2136.000000	29.444657
2135.000000	29.473200
2134.000000	29.757498
2133.000000	29.412616
2132.000000	29.761248
2131.000000	29.899590
2130.000000	30.045721
2129.000000	29.991965
2128.000000	29.923914
2127.000000	30.035454
2126.000000	29.976526
2125.000000	30.227265
2124.000000	30.289651
2123.000000	30.105010
2122.000000	30.320691
2121.000000	30.399959
2120.000000	30.348424
2119.000000	30.429006
2118.000000	30.530038
2117.000000	30.435667
2116.000000	30.586063
2115.000000	30.576905
2114.000000	30.675818
2113.000000	30.597037
2112.000000	30.869166
2111.000000	30.688508
2110.000000	30.601151
2109.000000	30.658127
2108.000000	30.849986
2107.000000	30.886167
2106.000000	30.828312
2105.000000	30.768114
2104.000000	31.016427
2103.000000	30.819345
2102.000000	30.720963
2101.000000	30.894223
2100.000000	31.044315
2099.000000	30.792735
2098.000000	30.730430
2097.000000	30.764455
2096.000000	30.838051
2095.000000	30.829142
2094.000000	30.853716
2093.000000	30.819320
2092.000000	30.829744
2091.000000	30.784038
2090.000000	30.737085
2089.000000	30.715311
2088.000000	30.838417
2087.000000	30.709609
2086.000000	30.754360
2085.000000	30.666790
2084.000000	30.610070
2083.000000	30.531646
2082.000000	30.517724
2081.000000	30.397594
2080.000000	30.285573
2079.000000	30.305265
2078.000000	30.086166
2077.000000	30.103986
2076.000000	29.979947
2075.000000	29.784876
2074.000000	29.750121
2073.000000	29.636839
2072.000000	29.524518
2071.000000	29.505527
2070.000000	29.365034
2069.000000	29.202232
2068.000000	29.064533
2067.000000	28.882672
2066.000000	28.692596
2065.000000	28.639872
2064.000000	28.562165
2063.000000	28.353025
2062.000000	28.199791
2061.000000	28.082911
2060.000000	27.916762
2059.000000	27.871157
2058.000000	27.735088
2057.000000	27.587844
2056.000000	27.490755
2055.000000	27.391448
2054.000000	27.219200
2053.000000	27.093724
2052.000000	27.050105
2051.000000	26.890533
2050.000000	26.806438
2049.000000	26.758677
2048.000000	26.652961
2047.000000	26.643190
2046.000000	26.634155
2045.000000	26.573035
2044.000000	26.527947
2043.000000	26.511074
2042.000000	26.554717
2041.000000	26.609982
2040.000000	26.602720
2039.000000	26.646104
2038.000000	26.706118
2037.000000	26.782562
2036.000000	26.868145
2035.000000	26.945675
2034.000000	27.022258
2033.000000	27.086614
2032.000000	27.183626
2031.000000	27.259320
2030.000000	27.408414
2029.000000	27.548593
2028.000000	27.581216
2027.000000	27.636125
2026.000000	27.724948
2025.000000	27.799109
2024.000000	27.891114
2023.000000	27.964267
2022.000000	28.000267
2021.000000	28.022089
2020.000000	28.049821
2019.000000	28.029778
2018.000000	28.050166
2017.000000	28.083620
2016.000000	28.077675
2015.000000	28.091505
2014.000000	28.066612
2013.000000	28.027100
2012.000000	27.998105
2011.000000	27.921843
2010.000000	27.872410
2009.000000	27.785593
2008.000000	27.698241
2007.000000	27.652329
2006.000000	27.521541
2005.000000	27.443085
2004.000000	27.337689
2003.000000	27.236258
2002.000000	27.164990
2001.000000	27.038844
2000.000000	26.915695
1999.000000	26.855756
1998.000000	26.733496
1997.000000	26.641050
1996.000000	26.556787
1995.000000	26.441755
1994.000000	26.348986
1993.000000	26.223775
1992.000000	26.112647
1991.000000	26.004234
1990.000000	25.880714
1989.000000	25.737331
1988.000000	25.673289
1987.000000	25.566417
1986.000000	25.414782
1985.000000	25.352946
1984.000000	25.234387
1983.000000	25.103792
1982.000000	25.024993
1981.000000	24.958940
1980.000000	24.866075
1979.000000	24.712360
1978.000000	24.606928
1977.000000	24.473280
1976.000000	24.397762
1975.000000	24.282256
1974.000000	24.141263
1973.000000	24.076791
1972.000000	23.982351
1971.000000	23.845819
1970.000000	23.738589
1969.000000	23.650432
1968.000000	23.589256
1967.000000	23.488301
1966.000000	23.406108
1965.000000	23.326927
1964.000000	23.191255
1963.000000	23.104909
1962.000000	22.974111
1961.000000	22.869988
1960.000000	22.834078
1959.000000	22.701239
1958.000000	22.676351
1957.000000	22.549647
1956.000000	22.450609
1955.000000	22.435183
1954.000000	22.359099
1953.000000	22.275044
1952.000000	22.258648
1951.000000	22.196964
1950.000000	22.111824
1949.000000	22.078603
1948.000000	22.033224
1947.000000	22.022945
1946.000000	22.036275
1945.000000	22.002843
1944.000000	21.949918
1943.000000	21.907577
1942.000000	21.984449
1941.000000	21.994739
1940.000000	22.082281
1939.000000	22.107366
1938.000000	22.193776
1937.000000	22.247763
1936.000000	22.347843
1935.000000	22.419738
1934.000000	22.449225
1933.000000	22.590491
1932.000000	22.642743
1931.000000	22.764409
1930.000000	22.894701
1929.000000	23.058247
1928.000000	23.279687
1927.000000	23.428407
1926.000000	23.558949
1925.000000	23.907153
1924.000000	24.241269
1923.000000	24.351693
1922.000000	24.568005
1921.000000	24.868462
1920.000000	25.169662
1919.000000	25.401627
1918.000000	25.649738
1917.000000	26.107208
1916.000000	26.186645
1915.000000	26.648391
1914.000000	26.970164
1913.000000	27.365604
1912.000000	27.823145
1911.000000	28.086352
1910.000000	28.524808
1909.000000	28.988937
1908.000000	29.297990
1907.000000	29.949694
1906.000000	30.232822
1905.000000	30.789713
1904.000000	31.171073
1903.000000	31.651877
1902.000000	32.214768
1901.000000	32.684676
1900.000000	33.124503
1899.000000	33.667405
1898.000000	34.150115
1897.000000	34.613416
1896.000000	35.066791
1895.000000	35.615192
1894.000000	36.060613
1893.000000	36.492219
1892.000000	36.938041
1891.000000	37.342563
1890.000000	37.790400
1889.000000	38.222096
1888.000000	38.624757
1887.000000	39.010290
1886.000000	39.420748
1885.000000	39.788890
1884.000000	40.158386
1883.000000	40.463855
1882.000000	40.823214
1881.000000	41.150761
1880.000000	41.452228
1879.000000	41.632451
1878.000000	41.908078
1877.000000	42.202364
1876.000000	42.406167
1875.000000	42.673744
1874.000000	42.873882
1873.000000	43.046598
1872.000000	43.264742
1871.000000	43.316934
1870.000000	43.589915
1869.000000	43.667525
1868.000000	43.798510
1867.000000	43.882968
1866.000000	43.961434
1865.000000	44.078987
1864.000000	44.190610
1863.000000	44.267532
1862.000000	44.289212
1861.000000	44.345123
1860.000000	44.423700
1859.000000	44.445051
1858.000000	44.471595
1857.000000	44.542491
1856.000000	44.574630
1855.000000	44.579480
1854.000000	44.619758
1853.000000	44.694515
1852.000000	44.715759
1851.000000	44.675396
1850.000000	44.684691
1849.000000	44.698773
1848.000000	44.715105
1847.000000	44.744236
1846.000000	44.758745
1845.000000	44.694926
1844.000000	44.690339
1843.000000	44.653101
1842.000000	44.677879
1841.000000	44.672236
1840.000000	44.633603
1839.000000	44.582531
1838.000000	44.543587
1837.000000	44.494197
1836.000000	44.474184
1835.000000	44.430232
1834.000000	44.390541
1833.000000	44.368868
1832.000000	44.337677
1831.000000	44.263964
1830.000000	44.279561
1829.000000	44.260282
1828.000000	44.207524
1827.000000	44.196641
1826.000000	44.157908
1825.000000	44.091203
1824.000000	44.082585
1823.000000	44.075374
1822.000000	44.009864
1821.000000	43.963983
1820.000000	43.959302
1819.000000	43.932849
1818.000000	43.908835
1817.000000	43.878953
1816.000000	43.849693
1815.000000	43.828917
1814.000000	43.805377
1813.000000	43.788340
1812.000000	43.762632
1811.000000	43.728871
1810.000000	43.704544
1809.000000	43.686800
1808.000000	43.688209
1807.000000	43.646224
1806.000000	43.600223
1805.000000	43.585002
1804.000000	43.583708
1803.000000	43.564917
1802.000000	43.538363
1801.000000	43.514245
1800.000000	43.485649
1799.000000	43.477441
1798.000000	43.480324
1797.000000	43.468866
1796.000000	43.457847
1795.000000	43.441216
1794.000000	43.437576
1793.000000	43.421637
1792.000000	43.400903
1791.000000	43.395235
1790.000000	43.375734
1789.000000	43.361561
1788.000000	43.351482
1787.000000	43.315869
1786.000000	43.298925
1785.000000	43.291548
1784.000000	43.271964
1783.000000	43.266592
1782.000000	43.240614
1781.000000	43.212442
1780.000000	43.179061
1779.000000	43.138273
1778.000000	43.094571
1777.000000	43.049444
1776.000000	42.974560
1775.000000	42.927552
1774.000000	42.893001
1773.000000	42.870386
1772.000000	42.823755
1771.000000	42.760899
1770.000000	42.690835
1769.000000	42.637072
1768.000000	42.617481
1767.000000	42.545472
1766.000000	42.496970
1765.000000	42.493085
1764.000000	42.429354
1763.000000	42.375811
1762.000000	42.321792
1761.000000	42.308906
1760.000000	42.264298
1759.000000	42.203598
1758.000000	42.178636
1757.000000	42.122641
1756.000000	42.110207
1755.000000	42.043381
1754.000000	42.020473
1753.000000	41.953007
1752.000000	41.925147
1751.000000	41.868663
1750.000000	41.814273
1749.000000	41.805092
1748.000000	41.752874
1747.000000	41.701763
1746.000000	41.602063
1745.000000	41.519787
1744.000000	41.488964
1743.000000	41.386895
1742.000000	41.305681
1741.000000	41.268414
1740.000000	41.239815
1739.000000	41.209362
1738.000000	41.131687
1737.000000	41.102537
1736.000000	41.091230
1735.000000	41.032455
1734.000000	41.027939
1733.000000	40.978126
1732.000000	40.968417
1731.000000	40.998586
1730.000000	40.963985
1729.000000	40.978382
1728.000000	41.072526
1727.000000	41.120714
1726.000000	41.162256
1725.000000	41.229590
1724.000000	41.274512
1723.000000	41.368356
1722.000000	41.479540
1721.000000	41.552501
1720.000000	41.657195
1719.000000	41.761663
1718.000000	41.796383
1717.000000	41.918606
1716.000000	42.037093
1715.000000	42.107269
1714.000000	42.216524
1713.000000	42.310099
1712.000000	42.388112
1711.000000	42.466616
1710.000000	42.522538
1709.000000	42.572856
1708.000000	42.671262
1707.000000	42.729550
1706.000000	42.778520
1705.000000	42.818056
1704.000000	42.871757
1703.000000	42.882880
1702.000000	42.929615
1701.000000	43.000408
1700.000000	42.976729
1699.000000	42.994538
1698.000000	43.050138
1697.000000	43.121053
1696.000000	43.168089
1695.000000	43.170445
1694.000000	43.247091
1693.000000	43.313416
1692.000000	43.357382
1691.000000	43.464357
1690.000000	43.503462
1689.000000	43.553876
1688.000000	43.641715
1687.000000	43.743537
1686.000000	43.848183
1685.000000	43.968112
1684.000000	44.071110
1683.000000	44.228689
1682.000000	44.358536
1681.000000	44.524793
1680.000000	44.648785
1679.000000	44.792338
1678.000000	44.935222
1677.000000	45.054247
1676.000000	45.207536
1675.000000	45.352495
1674.000000	45.480972
1673.000000	45.597503
1672.000000	45.718501
1671.000000	45.871511
1670.000000	45.960063
1669.000000	46.146473
1668.000000	46.261785
1667.000000	46.382526
1666.000000	46.427095
1665.000000	46.496788
1664.000000	46.567443
1663.000000	46.608705
1662.000000	46.674089
1661.000000	46.761218
1660.000000	46.825030
1659.000000	46.876143
1658.000000	46.940456
1657.000000	46.982506
1656.000000	47.021858
1655.000000	47.040319
1654.000000	47.067716
1653.000000	47.096709
1652.000000	47.092273
1651.000000	47.090095
1650.000000	47.107130
1649.000000	47.113017
1648.000000	47.087407
1647.000000	47.076711
1646.000000	47.118923
1645.000000	47.097431
1644.000000	47.059843
1643.000000	47.051081
1642.000000	47.041320
1641.000000	47.009973
1640.000000	47.012139
1639.000000	47.004358
1638.000000	46.972902
1637.000000	46.957214
1636.000000	46.925317
1635.000000	46.926404
1634.000000	46.892824
1633.000000	46.846325
1632.000000	46.806840
1631.000000	46.777078
1630.000000	46.753286
1629.000000	46.704429
1628.000000	46.676271
1627.000000	46.660899
1626.000000	46.640792
1625.000000	46.596673
1624.000000	46.569647
1623.000000	46.531540
1622.000000	46.486062
1621.000000	46.454036
1620.000000	46.423481
1619.000000	46.382445
1618.000000	46.332268
1617.000000	46.296623
1616.000000	46.250027
1615.000000	46.210940
1614.000000	46.172999
1613.000000	46.149973
1612.000000	46.119339
1611.000000	46.049756
1610.000000	45.992860
1609.000000	45.960761
1608.000000	45.929462
1607.000000	45.880966
1606.000000	45.813890
1605.000000	45.755267
1604.000000	45.721568
1603.000000	45.684825
1602.000000	45.635983
1601.000000	45.582030
1600.000000	45.532564
1599.000000	45.493938
1598.000000	45.444574
1597.000000	45.406086
1596.000000	45.385370
1595.000000	45.340135
1594.000000	45.283917
1593.000000	45.221976
1592.000000	45.187870
1591.000000	45.161764
1590.000000	45.116364
1589.000000	45.073674
1588.000000	45.037165
1587.000000	45.003854
1586.000000	44.983435
1585.000000	44.942097
1584.000000	44.888349
1583.000000	44.861552
1582.000000	44.818964
1581.000000	44.789776
1580.000000	44.763813
1579.000000	44.718212
1578.000000	44.695147
1577.000000	44.660944
1576.000000	44.620641
1575.000000	44.588682
1574.000000	44.537434
1573.000000	44.499998
1572.000000	44.467816
1571.000000	44.433383
1570.000000	44.401460
1569.000000	44.361709
1568.000000	44.332357
1567.000000	44.304954
1566.000000	44.278447
1565.000000	44.237008
1564.000000	44.206324
1563.000000	44.227920
1562.000000	44.206387
1561.000000	44.168272
1560.000000	44.152440
1559.000000	44.114788
1558.000000	44.075992
1557.000000	44.063704
1556.000000	44.039941
1555.000000	44.010199
1554.000000	43.972936
1553.000000	43.962502
1552.000000	43.915187
1551.000000	43.880706
1550.000000	43.864042
1549.000000	43.819103
1548.000000	43.787030
1547.000000	43.742722
1546.000000	43.668846
1545.000000	43.593074
1544.000000	43.553278
1543.000000	43.501186
1542.000000	43.407831
1541.000000	43.357604
1540.000000	43.297370
1539.000000	43.213995
1538.000000	43.138055
1537.000000	43.065875
1536.000000	42.989618
1535.000000	42.944931
1534.000000	42.861033
1533.000000	42.798961
1532.000000	42.724156
1531.000000	42.681729
1530.000000	42.602982
1529.000000	42.524595
1528.000000	42.465834
1527.000000	42.420100
1526.000000	42.376883
1525.000000	42.329000
1524.000000	42.274515
1523.000000	42.233050
1522.000000	42.190917
1521.000000	42.141512
1520.000000	42.111159
1519.000000	42.088372
1518.000000	42.075077
1517.000000	42.019334
1516.000000	42.005944
1515.000000	41.964510
1514.000000	41.956646
1513.000000	41.930211
1512.000000	41.912025
1511.000000	41.895776
1510.000000	41.865918
1509.000000	41.856358
1508.000000	41.861720
1507.000000	41.829889
1506.000000	41.810819
1505.000000	41.815536
1504.000000	41.806807
1503.000000	41.828495
1502.000000	41.801661
1501.000000	41.797898
1500.000000	41.807763
1499.000000	41.785548
1498.000000	41.793212
1497.000000	41.811046
1496.000000	41.813172
1495.000000	41.816759
1494.000000	41.809170
1493.000000	41.844708
1492.000000	41.849252
1491.000000	41.862432
1490.000000	41.895561
1489.000000	41.914067
1488.000000	41.926128
1487.000000	41.951040
1486.000000	41.977808
1485.000000	41.995907
1484.000000	42.021381
1483.000000	42.052065
1482.000000	42.056660
1481.000000	42.104475
1480.000000	42.142752
1479.000000	42.142230
1478.000000	42.184165
1477.000000	42.192118
1476.000000	42.202984
1475.000000	42.235814
1474.000000	42.255599
1473.000000	42.271101
1472.000000	42.314337
1471.000000	42.335995
1470.000000	42.358103
1469.000000	42.383059
1468.000000	42.382831
1467.000000	42.433830
1466.000000	42.450538
1465.000000	42.488145
1464.000000	42.508171
1463.000000	42.521476
1462.000000	42.549895
1461.000000	42.574921
1460.000000	42.621036
1459.000000	42.666802
1458.000000	42.692124
1457.000000	42.720330
1456.000000	42.753575
1455.000000	42.798780
1454.000000	42.847221
1453.000000	42.890859
1452.000000	42.925194
1451.000000	42.986250
1450.000000	43.049484
1449.000000	43.097394
1448.000000	43.147375
1447.000000	43.200015
1446.000000	43.247939
1445.000000	43.299066
1444.000000	43.373470
1443.000000	43.447138
1442.000000	43.517736
1441.000000	43.591236
1440.000000	43.657213
1439.000000	43.737042
1438.000000	43.817791
1437.000000	43.903488
1436.000000	44.006957
1435.000000	44.075061
1434.000000	44.151388
1433.000000	44.252390
1432.000000	44.371006
1431.000000	44.456269
1430.000000	44.564183
1429.000000	44.680494
1428.000000	44.796206
1427.000000	44.910839
1426.000000	45.034481
1425.000000	45.152251
1424.000000	45.269513
1423.000000	45.409869
1422.000000	45.552398
1421.000000	45.692693
1420.000000	45.851484
1419.000000	45.984670
1418.000000	46.123042
1417.000000	46.286285
1416.000000	46.417738
1415.000000	46.574977
1414.000000	46.745296
1413.000000	46.895188
1412.000000	47.056597
1411.000000	47.208850
1410.000000	47.379764
1409.000000	47.517876
1408.000000	47.661716
1407.000000	47.825754
1406.000000	47.981801
1405.000000	48.126797
1404.000000	48.272332
1403.000000	48.427469
1402.000000	48.557318
1401.000000	48.689137
1400.000000	48.826043
1399.000000	48.956304
1398.000000	49.090042
1397.000000	49.208831
1396.000000	49.335368
1395.000000	49.465188
1394.000000	49.578461
1393.000000	49.674991
1392.000000	49.773188
1391.000000	49.880692
1390.000000	49.970323
1389.000000	50.058501
1388.000000	50.144994
1387.000000	50.224725
1386.000000	50.307951
1385.000000	50.390468
1384.000000	50.461907
1383.000000	50.528096
1382.000000	50.602293
1381.000000	50.691765
1380.000000	50.736945
1379.000000	50.783966
1378.000000	50.863332
1377.000000	50.919250
1376.000000	50.974530
1375.000000	51.025639
1374.000000	51.061866
1373.000000	51.110663
1372.000000	51.157975
1371.000000	51.198191
1370.000000	51.245888
1369.000000	51.284154
1368.000000	51.311790
1367.000000	51.349851
1366.000000	51.382456
1365.000000	51.424157
1364.000000	51.459285
1363.000000	51.487467
1362.000000	51.520433
1361.000000	51.548073
1360.000000	51.592037
1359.000000	51.620350
1358.000000	51.636743
1357.000000	51.666532
1356.000000	51.700313
1355.000000	51.746170
1354.000000	51.772694
1353.000000	51.813196
1352.000000	51.844735
1351.000000	51.876460
1350.000000	51.925253
1349.000000	51.979831
1348.000000	52.011189
1347.000000	52.036021
1346.000000	52.088616
1345.000000	52.139881
1344.000000	52.176263
1343.000000	52.205833
1342.000000	52.235390
1341.000000	52.264256
1340.000000	52.314175
1339.000000	52.349932
1338.000000	52.378475
1337.000000	52.406123
1336.000000	52.454065
1335.000000	52.463879
1334.000000	52.471973
1333.000000	52.510051
1332.000000	52.526124
1331.000000	52.542767
1330.000000	52.557061
1329.000000	52.568414
1328.000000	52.603986
1327.000000	52.637314
1326.000000	52.685602
1325.000000	52.720002
1324.000000	52.738046
1323.000000	52.723167
1322.000000	52.703411
1321.000000	52.723526
1320.000000	52.737647
1319.000000	52.729761
1318.000000	52.745388
1317.000000	52.770881
1316.000000	52.764228
1315.000000	52.768883
1314.000000	52.786046
1313.000000	52.796323
1312.000000	52.787940
1311.000000	52.785900
1310.000000	52.817012
1309.000000	52.841802
1308.000000	52.824198
1307.000000	52.822765
1306.000000	52.859232
1305.000000	52.872735
1304.000000	52.871705
1303.000000	52.869287
1302.000000	52.865712
1301.000000	52.869517
1300.000000	52.898374
1299.000000	52.897416
1298.000000	52.889999
1297.000000	52.889050
1296.000000	52.894906
1295.000000	52.883621
1294.000000	52.903444
1293.000000	52.886647
1292.000000	52.874078
1291.000000	52.889972
1290.000000	52.878457
1289.000000	52.878678
1288.000000	52.871894
1287.000000	52.844535
1286.000000	52.848670
1285.000000	52.849041
1284.000000	52.847988
1283.000000	52.847762
1282.000000	52.830132
1281.000000	52.848487
1280.000000	52.830413
1279.000000	52.823299
1278.000000	52.822897
1277.000000	52.810730
1276.000000	52.796724
1275.000000	52.802109
1274.000000	52.788911
1273.000000	52.791262
1272.000000	52.768565
1271.000000	52.768398
1270.000000	52.762161
1269.000000	52.763584
1268.000000	52.742365
1267.000000	52.772375
1266.000000	52.783140
1265.000000	52.769600
1264.000000	52.758279
1263.000000	52.779613
1262.000000	52.797443
1261.000000	52.788302
1260.000000	52.814299
1259.000000	52.783852
1258.000000	52.769428
1257.000000	52.765746
1256.000000	52.794099
1255.000000	52.806050
1254.000000	52.808392
1253.000000	52.797421
1252.000000	52.823586
1251.000000	52.804676
1250.000000	52.794677
1249.000000	52.787239
1248.000000	52.785853
1247.000000	52.785913
1246.000000	52.787147
1245.000000	52.787986
1244.000000	52.762075
1243.000000	52.733408
1242.000000	52.720890
1241.000000	52.730359
1240.000000	52.704317
1239.000000	52.685822
1238.000000	52.643585
1237.000000	52.628109
1236.000000	52.632014
1235.000000	52.597660
1234.000000	52.576727
1233.000000	52.563446
1232.000000	52.552688
1231.000000	52.546257
1230.000000	52.477479
1229.000000	52.446627
1228.000000	52.447927
1227.000000	52.407692
1226.000000	52.380013
1225.000000	52.366002
1224.000000	52.341681
1223.000000	52.320067
1222.000000	52.283603
1221.000000	52.259176
1220.000000	52.227576
1219.000000	52.212481
1218.000000	52.166502
1217.000000	52.128883
1216.000000	52.126232
1215.000000	52.103028
1214.000000	52.048652
1213.000000	52.039053
1212.000000	52.024680
1211.000000	52.041644
1210.000000	51.979846
1209.000000	51.964384
1208.000000	51.972286
1207.000000	51.947284
1206.000000	51.911895
1205.000000	51.902748
1204.000000	51.880539
1203.000000	51.859980
1202.000000	51.846950
1201.000000	51.851606
1200.000000	51.825643
1199.000000	51.795199
1198.000000	51.780483
1197.000000	51.782657
1196.000000	51.793151
1195.000000	51.794095
1194.000000	51.762788
1193.000000	51.751532
1192.000000	51.726791
1191.000000	51.720465
1190.000000	51.723212
1189.000000	51.698761
1188.000000	51.682051
1187.000000	51.689138
1186.000000	51.693018
1185.000000	51.704163
1184.000000	51.705765
1183.000000	51.715152
1182.000000	51.735883
1181.000000	51.747503
1180.000000	51.775904
1179.000000	51.799570
1178.000000	51.820394
1177.000000	51.844833
1176.000000	51.868277
1175.000000	51.894665
1174.000000	51.930260
1173.000000	51.968816
1172.000000	52.003311
1171.000000	52.027203
1170.000000	52.069520
1169.000000	52.096536
1168.000000	52.124586
1167.000000	52.175376
1166.000000	52.211975
1165.000000	52.252638
1164.000000	52.297403
1163.000000	52.321747
1162.000000	52.343132
1161.000000	52.390995
1160.000000	52.437064
1159.000000	52.468199
1158.000000	52.509888
1157.000000	52.559018
1156.000000	52.597370
1155.000000	52.628191
1154.000000	52.658536
1153.000000	52.689401
1152.000000	52.726717
1151.000000	52.762178
1150.000000	52.797418
1149.000000	52.816638
1148.000000	52.839206
1147.000000	52.862704
1146.000000	52.866825
1145.000000	52.888620
1144.000000	52.929041
1143.000000	52.958847
1142.000000	52.981634
1141.000000	53.014753
1140.000000	53.028336
1139.000000	53.047865
1138.000000	53.074008
1137.000000	53.072390
1136.000000	53.101296
1135.000000	53.129820
1134.000000	53.121687
1133.000000	53.125150
1132.000000	53.158265
1131.000000	53.181115
1130.000000	53.200868
1129.000000	53.207881
1128.000000	53.220361
1127.000000	53.235113
1126.000000	53.239911
1125.000000	53.244598
1124.000000	53.252235
1123.000000	53.258710
1122.000000	53.268081
1121.000000	53.266181
1120.000000	53.264756
1119.000000	53.267662
1118.000000	53.250687
1117.000000	53.241403
1116.000000	53.246087
1115.000000	53.265288
1114.000000	53.270946
1113.000000	53.277891
1112.000000	53.280659
1111.000000	53.283021
1110.000000	53.284946
1109.000000	53.281346
1108.000000	53.289116
1107.000000	53.285128
1106.000000	53.285621
1105.000000	53.291901
1104.000000	53.299307
1103.000000	53.295174
1102.000000	53.270581
1101.000000	53.255982
1100.000000	53.273693
1099.000000	53.269770
1098.000000	53.267675
1097.000000	53.277589
1096.000000	53.276164
1095.000000	53.276455
1094.000000	53.250173
1093.000000	53.234865
1092.000000	53.237099
1091.000000	53.233607
1090.000000	53.257378
1089.000000	53.237628
1088.000000	53.223407
1087.000000	53.228665
1086.000000	53.229777
1085.000000	53.224793
1084.000000	53.203033
1083.000000	53.218599
1082.000000	53.194032
1081.000000	53.188856
1080.000000	53.198766
1079.000000	53.198773
1078.000000	53.169954
1077.000000	53.187794
1076.000000	53.156757
1075.000000	53.143055
1074.000000	53.163674
1073.000000	53.159793
1072.000000	53.142796
1071.000000	53.110190
1070.000000	53.121863
1069.000000	53.120968
1068.000000	53.108208
1067.000000	53.107609
1066.000000	53.088841
1065.000000	53.081896
1064.000000	53.081155
1063.000000	53.085155
1062.000000	53.107890
1061.000000	53.078750
1060.000000	53.076002
1059.000000	53.076073
1058.000000	53.054114
1057.000000	53.050318
1056.000000	53.055467
1055.000000	53.040970
1054.000000	53.026686
1053.000000	53.019513
1052.000000	53.014286
1051.000000	52.999772
1050.000000	52.962748
1049.000000	52.984237
1048.000000	52.963306
1047.000000	52.983142
1046.000000	52.955208
1045.000000	52.951187
1044.000000	52.941043
1043.000000	52.928870
1042.000000	52.913736
1041.000000	52.911336
1040.000000	52.921798
1039.000000	52.900599
1038.000000	52.888174
1037.000000	52.890298
1036.000000	52.881185
1035.000000	52.865574
1034.000000	52.880574
1033.000000	52.856312
1032.000000	52.856330
1031.000000	52.842781
1030.000000	52.838917
1029.000000	52.837561
1028.000000	52.824375
1027.000000	52.825374
1026.000000	52.836124
1025.000000	52.824263
1024.000000	52.790728
1023.000000	52.793041
1022.000000	52.789001
1021.000000	52.771856
1020.000000	52.777963
1019.000000	52.780887
1018.000000	52.773792
1017.000000	52.767553
1016.000000	52.744068
1015.000000	52.737537
1014.000000	52.723965
1013.000000	52.710731
1012.000000	52.728300
1011.000000	52.714765
1010.000000	52.719563
1009.000000	52.716076
1008.000000	52.702337
1007.000000	52.686327
1006.000000	52.696079
1005.000000	52.702271
1004.000000	52.700566
1003.000000	52.692971
1002.000000	52.687188
1001.000000	52.650794
1000.000000	52.643970
999.000000	52.642121
998.000000	52.639276
997.000000	52.644050
996.000000	52.651295
995.000000	52.633748
994.000000	52.630946
993.000000	52.620771
992.000000	52.618001
991.000000	52.610107
990.000000	52.627070
989.000000	52.611304
988.000000	52.605147
987.000000	52.602318
986.000000	52.591619
985.000000	52.593033
984.000000	52.610657
983.000000	52.600805
982.000000	52.588562
981.000000	52.593799
980.000000	52.577570
979.000000	52.573922
978.000000	52.576041
977.000000	52.573662
976.000000	52.566327
975.000000	52.559189
974.000000	52.561401
973.000000	52.569710
972.000000	52.584211
971.000000	52.574160
970.000000	52.564203
969.000000	52.565605
968.000000	52.562017
967.000000	52.555727
966.000000	52.552375
965.000000	52.538882
964.000000	52.539244
963.000000	52.554699
962.000000	52.552987
961.000000	52.543445
960.000000	52.565066
959.000000	52.562341
958.000000	52.550401
957.000000	52.557287
956.000000	52.539247
955.000000	52.519930
954.000000	52.510540
953.000000	52.517403
952.000000	52.517151
951.000000	52.524173
950.000000	52.529866
949.000000	52.528029
948.000000	52.524516
947.000000	52.503265
946.000000	52.483221
945.000000	52.503131
944.000000	52.508206
943.000000	52.464509
942.000000	52.445467
941.000000	52.458072
940.000000	52.461878
939.000000	52.432286
938.000000	52.401929
937.000000	52.402411
936.000000	52.408398
935.000000	52.404030
934.000000	52.412783
933.000000	52.410759
932.000000	52.377561
931.000000	52.355338
930.000000	52.333105
929.000000	52.330449
928.000000	52.344059
927.000000	52.340846
926.000000	52.340370
925.000000	52.339123
924.000000	52.293667
923.000000	52.289442
922.000000	52.284558
921.000000	52.262751
920.000000	52.276226
919.000000	52.282703
918.000000	52.288425
917.000000	52.248743
916.000000	52.276720
915.000000	52.278928
914.000000	52.261903
913.000000	52.247981
912.000000	52.227988
911.000000	52.224266
910.000000	52.180892
909.000000	52.167087
908.000000	52.154721
907.000000	52.172993
906.000000	52.155540
905.000000	52.148319
904.000000	52.179050
903.000000	52.168737
902.000000	52.113419
901.000000	52.116198
900.000000	52.159756
899.000000	52.158474
898.000000	52.140210
897.000000	52.125774
896.000000	52.113433
895.000000	52.093418
894.000000	52.054148
893.000000	52.051783
892.000000	52.085662
891.000000	52.027076
890.000000	52.070004
889.000000	52.085604
888.000000	52.049338
887.000000	52.021690
886.000000	52.019119
885.000000	51.969548
884.000000	52.023411
883.000000	52.008052
882.000000	52.013251
881.000000	51.978709
880.000000	51.933381
879.000000	51.893974
878.000000	52.011488
877.000000	51.919608
876.000000	51.891349
875.000000	51.910111
874.000000	51.865558
873.000000	51.800571
872.000000	51.817969
871.000000	51.913713
870.000000	51.939683
869.000000	51.894039
868.000000	51.713773
867.000000	51.749224
866.000000	51.710235
865.000000	51.733036
864.000000	51.626027
863.000000	51.726863
862.000000	51.723943
861.000000	51.732888
860.000000	51.716418
859.000000	51.348341
858.000000	50.644713
857.000000	51.273901
856.000000	50.953434
855.000000	51.188420
854.000000	50.834647
853.000000	50.897733
852.000000	50.843826
851.000000	50.998712
850.000000	51.264313
849.000000	50.982412
848.000000	50.802115
847.000000	50.979699
846.000000	50.887897
845.000000	50.980603
844.000000	50.809434
843.000000	50.989561
842.000000	50.861181
841.000000	50.897138
840.000000	51.181593
839.000000	50.752945
838.000000	50.781818
837.000000	51.015514
836.000000	50.852834
835.000000	50.739779
834.000000	50.772419
833.000000	50.823885
832.000000	50.761941
831.000000	50.506175
830.000000	50.631225
829.000000	50.688311
828.000000	50.725400
827.000000	50.483538
826.000000	50.671101
825.000000	50.644525
824.000000	50.615203
823.000000	50.576008
822.000000	50.302146
821.000000	50.441287
820.000000	50.431950
819.000000	50.308633
818.000000	50.450742
817.000000	50.301170
816.000000	50.275602
815.000000	50.484502
814.000000	50.356177
813.000000	50.341582
812.000000	50.281201
811.000000	50.294630
810.000000	50.202495
809.000000	50.195298
808.000000	50.212702
807.000000	50.141784
806.000000	50.129385
805.000000	49.987387
804.000000	49.940595
803.000000	49.868316
802.000000	49.938786
801.000000	49.823082
800.000000	49.958366
799.000000	49.895071
798.000000	49.796296
797.000000	49.839530
796.000000	49.797359
795.000000	49.820913
794.000000	49.689866
793.000000	49.732638
792.000000	49.667194
791.000000	49.603010
790.000000	49.641247
789.000000	49.607127
788.000000	49.643220
787.000000	49.516584
786.000000	49.505195
785.000000	49.378597
784.000000	49.477054
783.000000	49.414118
782.000000	49.392946
781.000000	49.414114
780.000000	49.410558
779.000000	49.279540
778.000000	49.170342
777.000000	49.145222
776.000000	49.192267
775.000000	49.161435
774.000000	49.078927
773.000000	49.031711
772.000000	48.972831
771.000000	48.918488
770.000000	48.962078
769.000000	48.955912
768.000000	48.857596
767.000000	48.850088
766.000000	48.778983
765.000000	48.733482
764.000000	48.688636
763.000000	48.673452
762.000000	48.607138
761.000000	48.569075
760.000000	48.675778
759.000000	48.553014
758.000000	48.462677
757.000000	48.426602
756.000000	48.375859
755.000000	48.414892
754.000000	48.293967
753.000000	48.261130
752.000000	48.214025
751.000000	48.145226
750.000000	48.149089
749.000000	48.088575
748.000000	47.997352
747.000000	47.985192
746.000000	48.039625
745.000000	48.033670
744.000000	47.875444
743.000000	47.780786
742.000000	47.783097
741.000000	47.736048
740.000000	47.699282
739.000000	47.676291
738.000000	47.590680
737.000000	47.524631
736.000000	47.515368
735.000000	47.419885
734.000000	47.371295
733.000000	47.359333
732.000000	47.321761
731.000000	47.234812
730.000000	47.181832
729.000000	47.110527
728.000000	47.024985
727.000000	47.021751
726.000000	46.985902
725.000000	46.902051
724.000000	46.801867
723.000000	46.744188
722.000000	46.706324
721.000000	46.605319
720.000000	46.548033
719.000000	46.559513
718.000000	46.524033
717.000000	46.463563
716.000000	46.365805
715.000000	46.227734
714.000000	46.226930
713.000000	46.283608
712.000000	46.176055
711.000000	46.063485
710.000000	45.996751
709.000000	45.940982
708.000000	45.862536
707.000000	45.816902
706.000000	45.774724
705.000000	45.679296
704.000000	45.595895
703.000000	45.491274
702.000000	45.402439
701.000000	45.343761
700.000000	45.289583
699.000000	45.269371
698.000000	45.191803
697.000000	45.095752
696.000000	45.020113
695.000000	44.956357
694.000000	44.903577
693.000000	44.809045
692.000000	44.749474
691.000000	44.692116
690.000000	44.581636
689.000000	44.467511
688.000000	44.426172
687.000000	44.337814
686.000000	44.241069
685.000000	44.183113
684.000000	44.111321
683.000000	44.028876
682.000000	43.938863
681.000000	43.837535
680.000000	43.775837
679.000000	43.724165
678.000000	43.653161
677.000000	43.507384
676.000000	43.440099
675.000000	43.356203
674.000000	43.209239
673.000000	43.194532
672.000000	43.102814
671.000000	42.999160
670.000000	42.859134
669.000000	42.790243
668.000000	42.681550
667.000000	42.646474
666.000000	42.552863
665.000000	42.420794
664.000000	42.365039
663.000000	42.267630
662.000000	42.124620
661.000000	42.038262
660.000000	41.945900
659.000000	41.830805
658.000000	41.797130
657.000000	41.664315
656.000000	41.562785
655.000000	41.455656
654.000000	41.335960
653.000000	41.272333
652.000000	41.186041
651.000000	41.065722
650.000000	40.951257
649.000000	40.838672
648.000000	40.737390
647.000000	40.639137
646.000000	40.554839
645.000000	40.424926
644.000000	40.291491
643.000000	40.209274
642.000000	40.089681
641.000000	39.979060
640.000000	39.865681
639.000000	39.772276
638.000000	39.616770
637.000000	39.547070
636.000000	39.415770
635.000000	39.299314
634.000000	39.214800
633.000000	39.085044
632.000000	39.002768
631.000000	38.860083
630.000000	38.752407
629.000000	38.615730
628.000000	38.497563
627.000000	38.366565
626.000000	38.239313
625.000000	38.104942
624.000000	37.959186
623.000000	37.878438
622.000000	37.776843
621.000000	37.664637
620.000000	37.492783
619.000000	37.376871
618.000000	37.256678
617.000000	37.163588
616.000000	37.018069
615.000000	36.889636
614.000000	36.720424
613.000000	36.625830
612.000000	36.482725
611.000000	36.393479
610.000000	36.168067
609.000000	36.078537
608.000000	35.966252
607.000000	35.881352
606.000000	35.702320
605.000000	35.539685
604.000000	35.432391
603.000000	35.284679
602.000000	35.137578
601.000000	35.029910
600.000000	34.916322
599.000000	34.760816
598.000000	34.592728
597.000000	34.497316
596.000000	34.354211
595.000000	34.193077
594.000000	34.046823
593.000000	33.890236
592.000000	33.733926
591.000000	33.630778
590.000000	33.474883
589.000000	33.318197
588.000000	33.179468
587.000000	33.006319
586.000000	32.872116
585.000000	32.698243
584.000000	32.570078
583.000000	32.407551
582.000000	32.302616
581.000000	32.142986
580.000000	32.000898
579.000000	31.848087
578.000000	31.674837
577.000000	31.571734
576.000000	31.337487
575.000000	31.189839
574.000000	31.073199
573.000000	30.883114
572.000000	30.734565
571.000000	30.614587
570.000000	30.415789
569.000000	30.280741
568.000000	30.145739
567.000000	29.972253
566.000000	29.775561
565.000000	29.668761
564.000000	29.493100
563.000000	29.330164
562.000000	29.173248
561.000000	28.951620
560.000000	28.789539
559.000000	28.651604
558.000000	28.500173
557.000000	28.326283
556.000000	28.179936
555.000000	27.996197
554.000000	27.805243
553.000000	27.658815
552.000000	27.493388
551.000000	27.353605
550.000000	27.187439
549.000000	27.016836
548.000000	26.864763
547.000000	26.710009
546.000000	26.506792
545.000000	26.347566
544.000000	26.193270
543.000000	26.030798
542.000000	25.853167
541.000000	25.698367
540.000000	25.542641
539.000000	25.376498
538.000000	25.225324
537.000000	25.067182
536.000000	24.897778
535.000000	24.733033
534.000000	24.556786
533.000000	24.394626
532.000000	24.241791
531.000000	24.070703
530.000000	23.902893
529.000000	23.753599
528.000000	23.606089
527.000000	23.437337
526.000000	23.265736
525.000000	23.113810
524.000000	22.938834
523.000000	22.763621
522.000000	22.617498
521.000000	22.444771
520.000000	22.288848
519.000000	22.139761
518.000000	21.962968
517.000000	21.815517
516.000000	21.660814
515.000000	21.499405
514.000000	21.349899
513.000000	21.183676
512.000000	21.014945
511.000000	20.867710
510.000000	20.712340
509.000000	20.546223
508.000000	20.391339
507.000000	20.235906
506.000000	20.095583
505.000000	19.947431
504.000000	19.783161
503.000000	19.623147
502.000000	19.460608
501.000000	19.297149
500.000000	19.159541
499.000000	19.027710
498.000000	18.859093
497.000000	18.686462
496.000000	18.542673
495.000000	18.394037
494.000000	18.257445
493.000000	18.102935
492.000000	17.961557
491.000000	17.818694
490.000000	17.662392
489.000000	17.534983
488.000000	17.401076
487.000000	17.244154
486.000000	17.105531
485.000000	16.958976
484.000000	16.823041
483.000000	16.706775
482.000000	16.558586
481.000000	16.421311
480.000000	16.274432
479.000000	16.145690
478.000000	16.017113
477.000000	15.893860
476.000000	15.754300
475.000000	15.605574
474.000000	15.486093
473.000000	15.354923
472.000000	15.218745
471.000000	15.082669
470.000000	14.950598
469.000000	14.827218
468.000000	14.699873
467.000000	14.573655
466.000000	14.453468
465.000000	14.333272
464.000000	14.205586
463.000000	14.085702
462.000000	13.958733
461.000000	13.819534
460.000000	13.702261
459.000000	13.557094
458.000000	13.422461
457.000000	13.299568
456.000000	13.168280
455.000000	13.039397
454.000000	12.908024
453.000000	12.787209
452.000000	12.675435
451.000000	12.544697
450.000000	12.411016
449.000000	12.290101
448.000000	12.176599
447.000000	12.073657
446.000000	11.960759
445.000000	11.855895
444.000000	11.756190
443.000000	11.656840
442.000000	11.556984
441.000000	11.455282
440.000000	11.367881
439.000000	11.262104
438.000000	11.167489
437.000000	11.087566
436.000000	11.005321
435.000000	10.931345
434.000000	10.851966
433.000000	10.775885
432.000000	10.685799
431.000000	10.607208
430.000000	10.540047
429.000000	10.460554
428.000000	10.398249
427.000000	10.315554
426.000000	10.252923
425.000000	10.180853
424.000000	10.085167
423.000000	10.017141
422.000000	9.954578
421.000000	9.877957
420.000000	9.811638
419.000000	9.747231
418.000000	9.682135
417.000000	9.609300
416.000000	9.534744
415.000000	9.467489
414.000000	9.414670
413.000000	9.350062
412.000000	9.286365
411.000000	9.220139
410.000000	9.155219
409.000000	9.087034
408.000000	9.054108
407.000000	8.996686
406.000000	8.939077
405.000000	8.889053
404.000000	8.845669
403.000000	8.781198
402.000000	8.735529
401.000000	8.689490
400.000000	8.644752
399.000000	8.586473
398.000000	8.533013
397.000000	8.477219
396.000000	8.445465
395.000000	8.396231
394.000000	8.353489
393.000000	8.325521
392.000000	8.310104
391.000000	8.238785
390.000000	8.213112
389.000000	8.187337
388.000000	8.147700
387.000000	8.121011
386.000000	8.096092
385.000000	8.040934
384.000000	8.005309
383.000000	7.982392
382.000000	7.959034
381.000000	7.934480
380.000000	7.892437
379.000000	7.876400
378.000000	7.800081
377.000000	7.791570
376.000000	7.804441
375.000000	7.801633
374.000000	7.737516
373.000000	7.675488
372.000000	7.645724
371.000000	7.660783
370.000000	7.659302
369.000000	7.596176
368.000000	7.594116
367.000000	7.607011
366.000000	7.545460
365.000000	7.510802
364.000000	7.535169
363.000000	7.514821
362.000000	7.535938
361.000000	7.482291
360.000000	7.480397
359.000000	7.437438
358.000000	7.396976
357.000000	7.423954
356.000000	7.448915
355.000000	7.408505
354.000000	7.412965
353.000000	7.375216
352.000000	7.372376
351.000000	7.311351
350.000000	7.305191
349.000000	7.287843
348.000000	7.312016
347.000000	7.265367
346.000000	7.257650
345.000000	7.268377
344.000000	7.244622
343.000000	7.308773
342.000000	7.220638
341.000000	7.205802
340.000000	7.257104
339.000000	7.187515
338.000000	7.209986
337.000000	7.238903
336.000000	7.249878
335.000000	7.186130
334.000000	7.148572
333.000000	7.124094
332.000000	7.173398
331.000000	7.154666
330.000000	7.122740
329.000000	7.139333
328.000000	7.061223
327.000000	7.065463
326.000000	7.061395
325.000000	7.111130
324.000000	7.035027
323.000000	7.117332
322.000000	7.109890
321.000000	7.092414
320.000000	7.127916
319.000000	7.068885
318.000000	7.101180
317.000000	7.035593
316.000000	7.063522
315.000000	7.037923
314.000000	7.085925
313.000000	7.103662
312.000000	7.104340
311.000000	7.135497
310.000000	7.135578
309.000000	7.151122
308.000000	7.161329
307.000000	7.130511
306.000000	7.144132
305.000000	7.185224
304.000000	7.181430
303.000000	7.150518
302.000000	7.186753
301.000000	7.241110
300.000000	7.218116
299.000000	7.248599
298.000000	7.193366
297.000000	7.215638
296.000000	7.264751
295.000000	7.273359
294.000000	7.278205
293.000000	7.289225
292.000000	7.312113
291.000000	7.343857
290.000000	7.373918
289.000000	7.352983
288.000000	7.342145
287.000000	7.369236
286.000000	7.382127
285.000000	7.392163
284.000000	7.461461
283.000000	7.510655
282.000000	7.519250
281.000000	7.569911
280.000000	7.584474
279.000000	7.610771
278.000000	7.616667
277.000000	7.630684
276.000000	7.716968
275.000000	7.718670
274.000000	7.712845
273.000000	7.752835
272.000000	7.804195
271.000000	7.841812
270.000000	7.884090
269.000000	7.912090
268.000000	7.979884
267.000000	8.060871
266.000000	8.057203
265.000000	8.101107
264.000000	8.188975
263.000000	8.249140
262.000000	8.253382
261.000000	8.306906
260.000000	8.401127
259.000000	8.463106
258.000000	8.513375
257.000000	8.635866
256.000000	8.705454
255.000000	8.790155
254.000000	8.887794
253.000000	8.979320
252.000000	9.057742
251.000000	9.187657
250.000000	9.292208
249.000000	9.436295
248.000000	9.558272
247.000000	9.641267
246.000000	9.719272
245.000000	9.873388
244.000000	9.993861
243.000000	10.086861
242.000000	10.279886
241.000000	10.485298
240.000000	10.546192
239.000000	10.711258
238.000000	10.842027
237.000000	11.023756
236.000000	11.118772
235.000000	11.201591
234.000000	11.280859
233.000000	11.346804
232.000000	11.456858
231.000000	11.571038
230.000000	11.728784
229.000000	11.889109
228.000000	12.016394
227.000000	12.086670
226.000000	12.206231
225.000000	12.410393
224.000000	12.538251
223.000000	12.618961
222.000000	12.752644
221.000000	12.948267
220.000000	13.142977
219.000000	13.212597
218.000000	13.350724
217.000000	13.630512
216.000000	13.829268
215.000000	14.034960
214.000000	14.186760
213.000000	14.371626
212.000000	14.664915
211.000000	15.035698
210.000000	15.359972
209.000000	15.631642
208.000000	15.913591
207.000000	16.311235
206.000000	16.847501
205.000000	17.279413
204.000000	17.762665
203.000000	18.324509
202.000000	18.652760
201.000000	19.333466
200.000000	20.269413
