PE UV       SUBTECH     SPECTRUM    ASCII       PEDS        4.00        
   -1
RTmsmeh81.Sample.asc
18/03/14
10:38:53.00
18/03/14
10:38:53.00
Administrator

200.000000
1
Lambda 750
750N8071901
PerkinElmer UV WinLab 6.0.4.0738 / 1.61.00 Lambda 900

0
0
3350/servo 860.8/2
0
0
UV/VIS
1
1
1
CommonBeamDepol,150mm sphere / downward view
0
0
0
0
Program
Program
3350/servo 860.8/2
3350/0.2 860.8/0.2
3350/0.2 860.8/0.2
0
1
 
 
 
0
 
860.8
319.2
860.8
Front
100
on
 
 
0
0
0
 
0
 
 
 
0
 
 
0
0
0
0
0
 
 
 
 
0
0


0
0
#HDR
-1
-1
#GR
nm
%R
1.0
0.0
2350.000000
-1.000000
2151
8
52.724587
7.035149
#DATA
2350.000000	21.946838
2349.000000	22.052380
2348.000000	22.192074
2347.000000	22.725968
2346.000000	22.225903
2345.000000	22.058648
2344.000000	22.555666
2343.000000	22.114806
2342.000000	22.458225
2341.000000	22.331487
2340.000000	22.362328
2339.000000	22.975699
2338.000000	22.972526
2337.000000	22.643034
2336.000000	23.233172
2335.000000	23.471471
2334.000000	23.178211
2333.000000	23.526827
2332.000000	23.434582
2331.000000	23.353383
2330.000000	23.260508
2329.000000	23.078073
2328.000000	23.071978
2327.000000	23.038594
2326.000000	23.159203
2325.000000	23.046128
2324.000000	22.936736
2323.000000	22.747207
2322.000000	22.858026
2321.000000	22.949728
2320.000000	22.838902
2319.000000	22.422688
2318.000000	22.316628
2317.000000	22.423874
2316.000000	22.409328
2315.000000	22.158606
2314.000000	22.201272
2313.000000	22.187845
2312.000000	22.220558
2311.000000	22.347605
2310.000000	22.085982
2309.000000	21.851169
2308.000000	21.932550
2307.000000	21.849887
2306.000000	21.722463
2305.000000	21.884361
2304.000000	22.132707
2303.000000	21.951874
2302.000000	21.775559
2301.000000	21.464503
2300.000000	21.597961
2299.000000	21.510952
2298.000000	21.539434
2297.000000	21.586817
2296.000000	21.566064
2295.000000	21.569410
2294.000000	21.545818
2293.000000	21.519554
2292.000000	21.414639
2291.000000	21.298244
2290.000000	21.225383
2289.000000	21.529212
2288.000000	21.639196
2287.000000	21.512637
2286.000000	21.432093
2285.000000	21.469800
2284.000000	21.369378
2283.000000	21.290672
2282.000000	21.341388
2281.000000	21.284522
2280.000000	21.387149
2279.000000	21.643885
2278.000000	21.551664
2277.000000	21.474181
2276.000000	21.558000
2275.000000	21.555058
2274.000000	21.764456
2273.000000	21.796852
2272.000000	21.764696
2271.000000	21.734213
2270.000000	21.799175
2269.000000	21.860675
2268.000000	21.901174
2267.000000	22.044708
2266.000000	22.285572
2265.000000	22.304374
2264.000000	22.400204
2263.000000	22.668647
2262.000000	22.872265
2261.000000	22.998165
2260.000000	23.018321
2259.000000	23.215759
2258.000000	23.525902
2257.000000	23.556344
2256.000000	23.733963
2255.000000	23.961312
2254.000000	24.095635
2253.000000	24.244984
2252.000000	24.489096
2251.000000	24.645096
2250.000000	24.998558
2249.000000	25.368033
2248.000000	25.384199
2247.000000	25.421582
2246.000000	25.567895
2245.000000	25.659987
2244.000000	25.852555
2243.000000	26.179543
2242.000000	26.357578
2241.000000	26.378067
2240.000000	26.494777
2239.000000	26.649277
2238.000000	26.743482
2237.000000	26.867360
2236.000000	27.041358
2235.000000	27.167626
2234.000000	27.218536
2233.000000	27.273693
2232.000000	27.273673
2231.000000	27.335754
2230.000000	27.372543
2229.000000	27.405717
2228.000000	27.520229
2227.000000	27.534793
2226.000000	27.523742
2225.000000	27.406141
2224.000000	27.416959
2223.000000	27.416002
2222.000000	27.424593
2221.000000	27.385679
2220.000000	27.398690
2219.000000	27.447776
2218.000000	27.344107
2217.000000	27.217756
2216.000000	27.168038
2215.000000	27.193431
2214.000000	27.180502
2213.000000	27.167184
2212.000000	27.133272
2211.000000	27.094847
2210.000000	26.985451
2209.000000	26.962146
2208.000000	26.853086
2207.000000	26.738348
2206.000000	26.750341
2205.000000	26.778243
2204.000000	26.647813
2203.000000	26.644254
2202.000000	26.658119
2201.000000	26.525898
2200.000000	26.367393
2199.000000	26.493911
2198.000000	26.426946
2197.000000	26.259266
2196.000000	26.088012
2195.000000	26.037102
2194.000000	25.913528
2193.000000	25.835391
2192.000000	25.654016
2191.000000	25.696746
2190.000000	25.761312
2189.000000	25.671153
2188.000000	25.513597
2187.000000	25.450436
2186.000000	25.505526
2185.000000	25.384612
2184.000000	25.351408
2183.000000	25.398754
2182.000000	25.345706
2181.000000	25.402716
2180.000000	25.409106
2179.000000	25.379149
2178.000000	25.252049
2177.000000	25.250765
2176.000000	25.189581
2175.000000	25.356443
2174.000000	25.268635
2173.000000	25.385616
2172.000000	25.430565
2171.000000	25.552657
2170.000000	25.457559
2169.000000	25.509369
2168.000000	25.635501
2167.000000	25.767842
2166.000000	25.883481
2165.000000	25.770881
2164.000000	25.752929
2163.000000	25.926824
2162.000000	26.048240
2161.000000	26.183082
2160.000000	26.397654
2159.000000	26.503409
2158.000000	26.580349
2157.000000	26.589719
2156.000000	26.855901
2155.000000	26.855016
2154.000000	27.026352
2153.000000	27.323738
2152.000000	27.227517
2151.000000	27.548144
2150.000000	27.673523
2149.000000	27.717947
2148.000000	27.891313
2147.000000	27.985890
2146.000000	28.143731
2145.000000	28.205611
2144.000000	28.336727
2143.000000	28.259955
2142.000000	28.459403
2141.000000	28.679798
2140.000000	28.650839
2139.000000	28.958507
2138.000000	29.036396
2137.000000	29.055086
2136.000000	29.494355
2135.000000	29.291513
2134.000000	29.213059
2133.000000	29.158201
2132.000000	29.618758
2131.000000	29.675495
2130.000000	29.830911
2129.000000	29.875771
2128.000000	29.862256
2127.000000	29.788383
2126.000000	29.982871
2125.000000	29.936005
2124.000000	30.070499
2123.000000	30.037499
2122.000000	30.134687
2121.000000	30.172947
2120.000000	30.214314
2119.000000	30.254942
2118.000000	30.227148
2117.000000	30.312609
2116.000000	30.372577
2115.000000	30.535918
2114.000000	30.556236
2113.000000	30.398270
2112.000000	30.428177
2111.000000	30.456420
2110.000000	30.371072
2109.000000	30.455620
2108.000000	30.526492
2107.000000	30.586834
2106.000000	30.618108
2105.000000	30.537194
2104.000000	30.539591
2103.000000	30.747339
2102.000000	30.755039
2101.000000	30.788069
2100.000000	30.781983
2099.000000	30.739116
2098.000000	30.756781
2097.000000	30.709130
2096.000000	30.733621
2095.000000	30.642372
2094.000000	30.661683
2093.000000	30.545961
2092.000000	30.745667
2091.000000	30.584477
2090.000000	30.410978
2089.000000	30.341907
2088.000000	30.487689
2087.000000	30.484741
2086.000000	30.532991
2085.000000	30.579415
2084.000000	30.476282
2083.000000	30.373170
2082.000000	30.284543
2081.000000	30.189338
2080.000000	30.076139
2079.000000	30.054102
2078.000000	29.967762
2077.000000	29.939676
2076.000000	29.778913
2075.000000	29.648284
2074.000000	29.581382
2073.000000	29.484257
2072.000000	29.345502
2071.000000	29.285409
2070.000000	29.145778
2069.000000	28.968571
2068.000000	28.812484
2067.000000	28.739318
2066.000000	28.491357
2065.000000	28.417838
2064.000000	28.309441
2063.000000	28.159460
2062.000000	28.080161
2061.000000	27.908168
2060.000000	27.733641
2059.000000	27.661811
2058.000000	27.539928
2057.000000	27.432586
2056.000000	27.339440
2055.000000	27.163825
2054.000000	27.051492
2053.000000	26.926529
2052.000000	26.853215
2051.000000	26.752709
2050.000000	26.647985
2049.000000	26.620601
2048.000000	26.596362
2047.000000	26.549291
2046.000000	26.460274
2045.000000	26.466862
2044.000000	26.416735
2043.000000	26.392221
2042.000000	26.475672
2041.000000	26.498035
2040.000000	26.481671
2039.000000	26.503153
2038.000000	26.563154
2037.000000	26.614229
2036.000000	26.640321
2035.000000	26.758959
2034.000000	26.844098
2033.000000	26.876337
2032.000000	27.040415
2031.000000	27.148052
2030.000000	27.212097
2029.000000	27.335814
2028.000000	27.414834
2027.000000	27.491869
2026.000000	27.582827
2025.000000	27.670917
2024.000000	27.742953
2023.000000	27.776591
2022.000000	27.817213
2021.000000	27.896865
2020.000000	27.947470
2019.000000	27.925900
2018.000000	27.948117
2017.000000	27.958273
2016.000000	27.907980
2015.000000	27.908815
2014.000000	27.888574
2013.000000	27.854157
2012.000000	27.830556
2011.000000	27.763877
2010.000000	27.703430
2009.000000	27.617077
2008.000000	27.543498
2007.000000	27.478459
2006.000000	27.385007
2005.000000	27.286687
2004.000000	27.225244
2003.000000	27.119934
2002.000000	27.020385
2001.000000	26.916411
2000.000000	26.796893
1999.000000	26.726896
1998.000000	26.645737
1997.000000	26.540326
1996.000000	26.431421
1995.000000	26.336141
1994.000000	26.217022
1993.000000	26.078245
1992.000000	25.959175
1991.000000	25.846266
1990.000000	25.753438
1989.000000	25.643745
1988.000000	25.559435
1987.000000	25.462888
1986.000000	25.339358
1985.000000	25.213471
1984.000000	25.101914
1983.000000	24.996655
1982.000000	24.908697
1981.000000	24.831424
1980.000000	24.722768
1979.000000	24.579393
1978.000000	24.466538
1977.000000	24.340966
1976.000000	24.245613
1975.000000	24.192814
1974.000000	24.073931
1973.000000	23.996386
1972.000000	23.883758
1971.000000	23.769356
1970.000000	23.646741
1969.000000	23.552545
1968.000000	23.483100
1967.000000	23.403742
1966.000000	23.269852
1965.000000	23.178819
1964.000000	23.075870
1963.000000	22.964575
1962.000000	22.872430
1961.000000	22.791239
1960.000000	22.731903
1959.000000	22.650739
1958.000000	22.528266
1957.000000	22.475642
1956.000000	22.416062
1955.000000	22.365584
1954.000000	22.264689
1953.000000	22.216886
1952.000000	22.149337
1951.000000	22.091407
1950.000000	22.036882
1949.000000	21.981770
1948.000000	21.923816
1947.000000	21.909586
1946.000000	21.876920
1945.000000	21.910718
1944.000000	21.859697
1943.000000	21.897954
1942.000000	21.901305
1941.000000	21.902699
1940.000000	21.906711
1939.000000	22.073553
1938.000000	22.131341
1937.000000	22.131766
1936.000000	22.226101
1935.000000	22.330805
1934.000000	22.384562
1933.000000	22.511125
1932.000000	22.518792
1931.000000	22.701711
1930.000000	22.829773
1929.000000	23.002730
1928.000000	23.161301
1927.000000	23.354275
1926.000000	23.514771
1925.000000	23.802353
1924.000000	24.007860
1923.000000	24.270576
1922.000000	24.446728
1921.000000	24.766933
1920.000000	25.032577
1919.000000	25.291681
1918.000000	25.543768
1917.000000	25.920630
1916.000000	26.130047
1915.000000	26.589257
1914.000000	26.919511
1913.000000	27.242424
1912.000000	27.580439
1911.000000	28.070979
1910.000000	28.405779
1909.000000	28.834181
1908.000000	29.321559
1907.000000	29.733777
1906.000000	30.130834
1905.000000	30.593959
1904.000000	31.098723
1903.000000	31.523157
1902.000000	31.986300
1901.000000	32.513438
1900.000000	32.953898
1899.000000	33.509528
1898.000000	33.962304
1897.000000	34.354857
1896.000000	34.937946
1895.000000	35.387296
1894.000000	35.882727
1893.000000	36.265391
1892.000000	36.695071
1891.000000	37.141931
1890.000000	37.559619
1889.000000	37.997825
1888.000000	38.382105
1887.000000	38.737467
1886.000000	39.149315
1885.000000	39.479345
1884.000000	39.874521
1883.000000	40.198988
1882.000000	40.542957
1881.000000	40.881966
1880.000000	41.153189
1879.000000	41.348963
1878.000000	41.651084
1877.000000	41.922075
1876.000000	42.150850
1875.000000	42.375907
1874.000000	42.610336
1873.000000	42.759890
1872.000000	42.903158
1871.000000	43.081247
1870.000000	43.251066
1869.000000	43.375044
1868.000000	43.464875
1867.000000	43.571261
1866.000000	43.691926
1865.000000	43.782686
1864.000000	43.859387
1863.000000	43.910708
1862.000000	43.979510
1861.000000	44.059593
1860.000000	44.147694
1859.000000	44.160726
1858.000000	44.167917
1857.000000	44.241614
1856.000000	44.273653
1855.000000	44.302899
1854.000000	44.352138
1853.000000	44.377760
1852.000000	44.370853
1851.000000	44.406770
1850.000000	44.397944
1849.000000	44.397161
1848.000000	44.424553
1847.000000	44.450441
1846.000000	44.447353
1845.000000	44.406453
1844.000000	44.357992
1843.000000	44.379458
1842.000000	44.393068
1841.000000	44.340707
1840.000000	44.301466
1839.000000	44.262941
1838.000000	44.229615
1837.000000	44.179672
1836.000000	44.119265
1835.000000	44.081490
1834.000000	44.058931
1833.000000	44.047537
1832.000000	44.028299
1831.000000	43.975199
1830.000000	43.955709
1829.000000	43.916261
1828.000000	43.891750
1827.000000	43.836389
1826.000000	43.787552
1825.000000	43.774257
1824.000000	43.779395
1823.000000	43.730252
1822.000000	43.670245
1821.000000	43.662253
1820.000000	43.637505
1819.000000	43.592255
1818.000000	43.586024
1817.000000	43.570641
1816.000000	43.528912
1815.000000	43.501268
1814.000000	43.485477
1813.000000	43.457400
1812.000000	43.436522
1811.000000	43.411062
1810.000000	43.385981
1809.000000	43.375979
1808.000000	43.353996
1807.000000	43.317993
1806.000000	43.305346
1805.000000	43.288575
1804.000000	43.263149
1803.000000	43.240983
1802.000000	43.206516
1801.000000	43.199778
1800.000000	43.208853
1799.000000	43.189118
1798.000000	43.167198
1797.000000	43.149351
1796.000000	43.106448
1795.000000	43.092962
1794.000000	43.124513
1793.000000	43.116407
1792.000000	43.084690
1791.000000	43.078576
1790.000000	43.063690
1789.000000	43.044329
1788.000000	43.054249
1787.000000	43.049437
1786.000000	43.018547
1785.000000	42.991014
1784.000000	42.958711
1783.000000	42.930317
1782.000000	42.920722
1781.000000	42.903394
1780.000000	42.879544
1779.000000	42.849724
1778.000000	42.791560
1777.000000	42.741869
1776.000000	42.702176
1775.000000	42.660129
1774.000000	42.593618
1773.000000	42.525430
1772.000000	42.492156
1771.000000	42.445899
1770.000000	42.386663
1769.000000	42.339500
1768.000000	42.292826
1767.000000	42.242985
1766.000000	42.199504
1765.000000	42.163745
1764.000000	42.127802
1763.000000	42.079514
1762.000000	42.039604
1761.000000	41.999945
1760.000000	41.943052
1759.000000	41.924704
1758.000000	41.870993
1757.000000	41.833851
1756.000000	41.797251
1755.000000	41.758240
1754.000000	41.708371
1753.000000	41.660261
1752.000000	41.621044
1751.000000	41.583504
1750.000000	41.536909
1749.000000	41.524472
1748.000000	41.451553
1747.000000	41.358283
1746.000000	41.331238
1745.000000	41.243352
1744.000000	41.184315
1743.000000	41.129511
1742.000000	41.056839
1741.000000	40.988225
1740.000000	40.940487
1739.000000	40.892875
1738.000000	40.846646
1737.000000	40.804620
1736.000000	40.763157
1735.000000	40.721390
1734.000000	40.724578
1733.000000	40.717528
1732.000000	40.701462
1731.000000	40.707420
1730.000000	40.708682
1729.000000	40.747182
1728.000000	40.774196
1727.000000	40.800397
1726.000000	40.855193
1725.000000	40.961410
1724.000000	41.015959
1723.000000	41.098208
1722.000000	41.190790
1721.000000	41.267434
1720.000000	41.364979
1719.000000	41.460474
1718.000000	41.542288
1717.000000	41.651930
1716.000000	41.750491
1715.000000	41.810420
1714.000000	41.945689
1713.000000	42.006496
1712.000000	42.081372
1711.000000	42.155257
1710.000000	42.231154
1709.000000	42.282862
1708.000000	42.338898
1707.000000	42.412943
1706.000000	42.449457
1705.000000	42.498725
1704.000000	42.561104
1703.000000	42.579538
1702.000000	42.624299
1701.000000	42.626378
1700.000000	42.697694
1699.000000	42.685572
1698.000000	42.755577
1697.000000	42.805470
1696.000000	42.837263
1695.000000	42.870421
1694.000000	42.941274
1693.000000	42.990363
1692.000000	43.023160
1691.000000	43.092871
1690.000000	43.174821
1689.000000	43.248948
1688.000000	43.345485
1687.000000	43.456733
1686.000000	43.556478
1685.000000	43.672549
1684.000000	43.772031
1683.000000	43.940532
1682.000000	44.057417
1681.000000	44.162463
1680.000000	44.302832
1679.000000	44.474388
1678.000000	44.588902
1677.000000	44.709934
1676.000000	44.879367
1675.000000	45.033229
1674.000000	45.157037
1673.000000	45.284132
1672.000000	45.405904
1671.000000	45.517735
1670.000000	45.644875
1669.000000	45.819203
1668.000000	45.914301
1667.000000	46.029478
1666.000000	46.098573
1665.000000	46.184914
1664.000000	46.241121
1663.000000	46.296409
1662.000000	46.377352
1661.000000	46.447837
1660.000000	46.494321
1659.000000	46.548798
1658.000000	46.592048
1657.000000	46.631738
1656.000000	46.663931
1655.000000	46.693028
1654.000000	46.724451
1653.000000	46.741200
1652.000000	46.756945
1651.000000	46.745578
1650.000000	46.762174
1649.000000	46.767216
1648.000000	46.749582
1647.000000	46.741524
1646.000000	46.745465
1645.000000	46.731476
1644.000000	46.727360
1643.000000	46.735937
1642.000000	46.713264
1641.000000	46.693410
1640.000000	46.661764
1639.000000	46.660636
1638.000000	46.648512
1637.000000	46.627243
1636.000000	46.577641
1635.000000	46.561937
1634.000000	46.543242
1633.000000	46.504691
1632.000000	46.479341
1631.000000	46.461834
1630.000000	46.450378
1629.000000	46.414020
1628.000000	46.369495
1627.000000	46.331527
1626.000000	46.291377
1625.000000	46.263994
1624.000000	46.235709
1623.000000	46.199971
1622.000000	46.181845
1621.000000	46.136741
1620.000000	46.091616
1619.000000	46.066293
1618.000000	46.016757
1617.000000	45.985754
1616.000000	45.935895
1615.000000	45.884799
1614.000000	45.852694
1613.000000	45.819091
1612.000000	45.775094
1611.000000	45.734588
1610.000000	45.697445
1609.000000	45.650771
1608.000000	45.598924
1607.000000	45.553765
1606.000000	45.505053
1605.000000	45.467990
1604.000000	45.422008
1603.000000	45.357326
1602.000000	45.320924
1601.000000	45.275770
1600.000000	45.225122
1599.000000	45.176193
1598.000000	45.123509
1597.000000	45.087351
1596.000000	45.063963
1595.000000	45.017605
1594.000000	44.971740
1593.000000	44.936859
1592.000000	44.902649
1591.000000	44.852952
1590.000000	44.816857
1589.000000	44.777073
1588.000000	44.729229
1587.000000	44.697973
1586.000000	44.663167
1585.000000	44.624623
1584.000000	44.595066
1583.000000	44.563536
1582.000000	44.526377
1581.000000	44.487677
1580.000000	44.449890
1579.000000	44.416540
1578.000000	44.400813
1577.000000	44.359742
1576.000000	44.304905
1575.000000	44.280479
1574.000000	44.241180
1573.000000	44.200229
1572.000000	44.160053
1571.000000	44.120864
1570.000000	44.097140
1569.000000	44.073158
1568.000000	44.035016
1567.000000	44.011277
1566.000000	43.980137
1565.000000	43.943659
1564.000000	43.918514
1563.000000	43.921330
1562.000000	43.892326
1561.000000	43.850413
1560.000000	43.820833
1559.000000	43.803212
1558.000000	43.782345
1557.000000	43.748019
1556.000000	43.743247
1555.000000	43.711071
1554.000000	43.679899
1553.000000	43.666424
1552.000000	43.626719
1551.000000	43.581386
1550.000000	43.548759
1549.000000	43.523480
1548.000000	43.486132
1547.000000	43.442799
1546.000000	43.388051
1545.000000	43.318078
1544.000000	43.255806
1543.000000	43.204136
1542.000000	43.143385
1541.000000	43.070283
1540.000000	43.006484
1539.000000	42.925352
1538.000000	42.866658
1537.000000	42.775654
1536.000000	42.703555
1535.000000	42.642835
1534.000000	42.582940
1533.000000	42.523092
1532.000000	42.449865
1531.000000	42.386957
1530.000000	42.324199
1529.000000	42.251309
1528.000000	42.192140
1527.000000	42.130937
1526.000000	42.098360
1525.000000	42.039592
1524.000000	41.986037
1523.000000	41.952061
1522.000000	41.907089
1521.000000	41.866305
1520.000000	41.852287
1519.000000	41.807246
1518.000000	41.772611
1517.000000	41.755226
1516.000000	41.717768
1515.000000	41.686010
1514.000000	41.661139
1513.000000	41.643408
1512.000000	41.653348
1511.000000	41.683932
1510.000000	41.666397
1509.000000	41.642085
1508.000000	41.624030
1507.000000	41.582790
1506.000000	41.569907
1505.000000	41.556584
1504.000000	41.534408
1503.000000	41.539367
1502.000000	41.517828
1501.000000	41.505268
1500.000000	41.492266
1499.000000	41.487737
1498.000000	41.496085
1497.000000	41.513577
1496.000000	41.512398
1495.000000	41.508389
1494.000000	41.526762
1493.000000	41.540464
1492.000000	41.556778
1491.000000	41.585355
1490.000000	41.588028
1489.000000	41.607829
1488.000000	41.623544
1487.000000	41.653105
1486.000000	41.686254
1485.000000	41.707386
1484.000000	41.729361
1483.000000	41.765123
1482.000000	41.755794
1481.000000	41.818508
1480.000000	41.829174
1479.000000	41.845800
1478.000000	41.871323
1477.000000	41.895230
1476.000000	41.920896
1475.000000	41.947263
1474.000000	41.951582
1473.000000	41.964874
1472.000000	42.013236
1471.000000	42.024131
1470.000000	42.062500
1469.000000	42.092439
1468.000000	42.099638
1467.000000	42.128159
1466.000000	42.169284
1465.000000	42.193398
1464.000000	42.237130
1463.000000	42.243734
1462.000000	42.264277
1461.000000	42.301764
1460.000000	42.344466
1459.000000	42.383336
1458.000000	42.404631
1457.000000	42.436050
1456.000000	42.481962
1455.000000	42.507228
1454.000000	42.564056
1453.000000	42.588962
1452.000000	42.643042
1451.000000	42.701596
1450.000000	42.735782
1449.000000	42.770414
1448.000000	42.831237
1447.000000	42.865093
1446.000000	42.939231
1445.000000	43.012617
1444.000000	43.067490
1443.000000	43.114871
1442.000000	43.177451
1441.000000	43.243005
1440.000000	43.310654
1439.000000	43.394224
1438.000000	43.450338
1437.000000	43.546747
1436.000000	43.638279
1435.000000	43.703924
1434.000000	43.790642
1433.000000	43.890506
1432.000000	43.989592
1431.000000	44.075590
1430.000000	44.177352
1429.000000	44.273304
1428.000000	44.389943
1427.000000	44.495675
1426.000000	44.611649
1425.000000	44.744030
1424.000000	44.855243
1423.000000	44.985452
1422.000000	45.120310
1421.000000	45.266906
1420.000000	45.422846
1419.000000	45.558882
1418.000000	45.683982
1417.000000	45.831031
1416.000000	45.980770
1415.000000	46.139962
1414.000000	46.296468
1413.000000	46.450403
1412.000000	46.615227
1411.000000	46.778122
1410.000000	46.933401
1409.000000	47.112674
1408.000000	47.245332
1407.000000	47.387484
1406.000000	47.539444
1405.000000	47.688808
1404.000000	47.847677
1403.000000	48.006891
1402.000000	48.140801
1401.000000	48.285043
1400.000000	48.420287
1399.000000	48.543908
1398.000000	48.685403
1397.000000	48.823303
1396.000000	48.941710
1395.000000	49.056330
1394.000000	49.176577
1393.000000	49.280042
1392.000000	49.380523
1391.000000	49.489113
1390.000000	49.581850
1389.000000	49.674641
1388.000000	49.761299
1387.000000	49.858596
1386.000000	49.962067
1385.000000	50.046755
1384.000000	50.113323
1383.000000	50.172203
1382.000000	50.237542
1381.000000	50.315648
1380.000000	50.371848
1379.000000	50.428909
1378.000000	50.493390
1377.000000	50.534420
1376.000000	50.583791
1375.000000	50.640048
1374.000000	50.681668
1373.000000	50.734934
1372.000000	50.771815
1371.000000	50.800003
1370.000000	50.844512
1369.000000	50.877529
1368.000000	50.909433
1367.000000	50.959689
1366.000000	50.997830
1365.000000	51.017715
1364.000000	51.039181
1363.000000	51.070463
1362.000000	51.097435
1361.000000	51.121786
1360.000000	51.160264
1359.000000	51.191422
1358.000000	51.214504
1357.000000	51.250050
1356.000000	51.289213
1355.000000	51.328957
1354.000000	51.340278
1353.000000	51.394790
1352.000000	51.447196
1351.000000	51.462855
1350.000000	51.489589
1349.000000	51.539431
1348.000000	51.574940
1347.000000	51.609389
1346.000000	51.648908
1345.000000	51.677092
1344.000000	51.706298
1343.000000	51.750979
1342.000000	51.791372
1341.000000	51.806062
1340.000000	51.860098
1339.000000	51.894504
1338.000000	51.907043
1337.000000	51.927333
1336.000000	51.959989
1335.000000	51.968164
1334.000000	51.984042
1333.000000	52.041235
1332.000000	52.062283
1331.000000	52.066645
1330.000000	52.071584
1329.000000	52.082967
1328.000000	52.121847
1327.000000	52.128909
1326.000000	52.121488
1325.000000	52.142718
1324.000000	52.166346
1323.000000	52.174414
1322.000000	52.194246
1321.000000	52.215106
1320.000000	52.218692
1319.000000	52.191505
1318.000000	52.207522
1317.000000	52.221917
1316.000000	52.238954
1315.000000	52.243814
1314.000000	52.245912
1313.000000	52.244677
1312.000000	52.256635
1311.000000	52.270889
1310.000000	52.279188
1309.000000	52.277908
1308.000000	52.279958
1307.000000	52.271607
1306.000000	52.282242
1305.000000	52.311901
1304.000000	52.323987
1303.000000	52.324306
1302.000000	52.297611
1301.000000	52.297886
1300.000000	52.314911
1299.000000	52.344142
1298.000000	52.329214
1297.000000	52.318351
1296.000000	52.327937
1295.000000	52.332878
1294.000000	52.340206
1293.000000	52.321006
1292.000000	52.321920
1291.000000	52.327100
1290.000000	52.291301
1289.000000	52.275177
1288.000000	52.271935
1287.000000	52.287474
1286.000000	52.282350
1285.000000	52.284322
1284.000000	52.266939
1283.000000	52.274928
1282.000000	52.292054
1281.000000	52.275286
1280.000000	52.262524
1279.000000	52.226179
1278.000000	52.240409
1277.000000	52.244799
1276.000000	52.228590
1275.000000	52.233401
1274.000000	52.225438
1273.000000	52.232979
1272.000000	52.226546
1271.000000	52.217957
1270.000000	52.234267
1269.000000	52.215599
1268.000000	52.223267
1267.000000	52.245562
1266.000000	52.254190
1265.000000	52.244575
1264.000000	52.217628
1263.000000	52.230439
1262.000000	52.224054
1261.000000	52.241274
1260.000000	52.270329
1259.000000	52.241707
1258.000000	52.229664
1257.000000	52.223269
1256.000000	52.233857
1255.000000	52.210282
1254.000000	52.234297
1253.000000	52.256453
1252.000000	52.289292
1251.000000	52.252668
1250.000000	52.238052
1249.000000	52.243681
1248.000000	52.222388
1247.000000	52.230556
1246.000000	52.212913
1245.000000	52.204636
1244.000000	52.175479
1243.000000	52.162311
1242.000000	52.153538
1241.000000	52.149734
1240.000000	52.136664
1239.000000	52.125198
1238.000000	52.085858
1237.000000	52.095805
1236.000000	52.066017
1235.000000	52.021018
1234.000000	52.025709
1233.000000	51.995897
1232.000000	51.982077
1231.000000	51.968968
1230.000000	51.932760
1229.000000	51.917303
1228.000000	51.903026
1227.000000	51.878490
1226.000000	51.851960
1225.000000	51.798919
1224.000000	51.764126
1223.000000	51.756003
1222.000000	51.747102
1221.000000	51.726137
1220.000000	51.702535
1219.000000	51.670682
1218.000000	51.636158
1217.000000	51.606358
1216.000000	51.611955
1215.000000	51.618279
1214.000000	51.564125
1213.000000	51.521771
1212.000000	51.502026
1211.000000	51.510529
1210.000000	51.484457
1209.000000	51.448836
1208.000000	51.436686
1207.000000	51.439458
1206.000000	51.390890
1205.000000	51.355585
1204.000000	51.350930
1203.000000	51.321862
1202.000000	51.296651
1201.000000	51.302084
1200.000000	51.287994
1199.000000	51.250791
1198.000000	51.227033
1197.000000	51.219152
1196.000000	51.206668
1195.000000	51.203256
1194.000000	51.199697
1193.000000	51.190736
1192.000000	51.185421
1191.000000	51.176779
1190.000000	51.144164
1189.000000	51.112808
1188.000000	51.106281
1187.000000	51.121147
1186.000000	51.106892
1185.000000	51.113618
1184.000000	51.130607
1183.000000	51.135677
1182.000000	51.154206
1181.000000	51.178069
1180.000000	51.196399
1179.000000	51.207636
1178.000000	51.236023
1177.000000	51.263735
1176.000000	51.283430
1175.000000	51.315532
1174.000000	51.355120
1173.000000	51.388544
1172.000000	51.422183
1171.000000	51.443956
1170.000000	51.480380
1169.000000	51.519345
1168.000000	51.560995
1167.000000	51.595008
1166.000000	51.623400
1165.000000	51.660729
1164.000000	51.701847
1163.000000	51.745313
1162.000000	51.783614
1161.000000	51.829240
1160.000000	51.876332
1159.000000	51.916790
1158.000000	51.962422
1157.000000	51.996622
1156.000000	52.026227
1155.000000	52.056169
1154.000000	52.099941
1153.000000	52.139292
1152.000000	52.164504
1151.000000	52.200671
1150.000000	52.231189
1149.000000	52.245214
1148.000000	52.267818
1147.000000	52.278142
1146.000000	52.294081
1145.000000	52.327572
1144.000000	52.360518
1143.000000	52.374458
1142.000000	52.399395
1141.000000	52.441968
1140.000000	52.461496
1139.000000	52.473920
1138.000000	52.507373
1137.000000	52.511382
1136.000000	52.532622
1135.000000	52.561653
1134.000000	52.573672
1133.000000	52.581094
1132.000000	52.596325
1131.000000	52.600222
1130.000000	52.627117
1129.000000	52.642758
1128.000000	52.660228
1127.000000	52.677412
1126.000000	52.687150
1125.000000	52.681993
1124.000000	52.688900
1123.000000	52.697237
1122.000000	52.701686
1121.000000	52.702569
1120.000000	52.705195
1119.000000	52.707474
1118.000000	52.699637
1117.000000	52.706310
1116.000000	52.714881
1115.000000	52.713320
1114.000000	52.712913
1113.000000	52.720007
1112.000000	52.715563
1111.000000	52.701666
1110.000000	52.676065
1109.000000	52.685191
1108.000000	52.689889
1107.000000	52.701777
1106.000000	52.704752
1105.000000	52.715880
1104.000000	52.720018
1103.000000	52.713913
1102.000000	52.724587
1101.000000	52.707887
1100.000000	52.702059
1099.000000	52.706190
1098.000000	52.684662
1097.000000	52.687014
1096.000000	52.699526
1095.000000	52.687994
1094.000000	52.693612
1093.000000	52.699793
1092.000000	52.698719
1091.000000	52.691696
1090.000000	52.673484
1089.000000	52.656789
1088.000000	52.662006
1087.000000	52.674262
1086.000000	52.665003
1085.000000	52.667084
1084.000000	52.643979
1083.000000	52.644664
1082.000000	52.641105
1081.000000	52.642348
1080.000000	52.647614
1079.000000	52.632394
1078.000000	52.620547
1077.000000	52.606418
1076.000000	52.597992
1075.000000	52.592874
1074.000000	52.604603
1073.000000	52.586493
1072.000000	52.575308
1071.000000	52.580747
1070.000000	52.548440
1069.000000	52.543008
1068.000000	52.541233
1067.000000	52.552495
1066.000000	52.556835
1065.000000	52.537968
1064.000000	52.532473
1063.000000	52.531757
1062.000000	52.497927
1061.000000	52.495845
1060.000000	52.496714
1059.000000	52.489090
1058.000000	52.493851
1057.000000	52.480116
1056.000000	52.462426
1055.000000	52.448466
1054.000000	52.451623
1053.000000	52.453588
1052.000000	52.445726
1051.000000	52.418560
1050.000000	52.404640
1049.000000	52.415167
1048.000000	52.402102
1047.000000	52.399993
1046.000000	52.389725
1045.000000	52.375612
1044.000000	52.387886
1043.000000	52.390779
1042.000000	52.353599
1041.000000	52.345174
1040.000000	52.363315
1039.000000	52.355826
1038.000000	52.338341
1037.000000	52.351118
1036.000000	52.339107
1035.000000	52.320415
1034.000000	52.321366
1033.000000	52.310339
1032.000000	52.312833
1031.000000	52.305765
1030.000000	52.296124
1029.000000	52.299704
1028.000000	52.287576
1027.000000	52.286848
1026.000000	52.288313
1025.000000	52.280190
1024.000000	52.260337
1023.000000	52.264242
1022.000000	52.263536
1021.000000	52.264234
1020.000000	52.255621
1019.000000	52.249070
1018.000000	52.241892
1017.000000	52.226508
1016.000000	52.232149
1015.000000	52.240389
1014.000000	52.230572
1013.000000	52.232602
1012.000000	52.243620
1011.000000	52.243179
1010.000000	52.236528
1009.000000	52.232544
1008.000000	52.231920
1007.000000	52.217124
1006.000000	52.208584
1005.000000	52.225766
1004.000000	52.225824
1003.000000	52.219815
1002.000000	52.210198
1001.000000	52.196286
1000.000000	52.201195
999.000000	52.225292
998.000000	52.232487
997.000000	52.231882
996.000000	52.238164
995.000000	52.228735
994.000000	52.231234
993.000000	52.221907
992.000000	52.230307
991.000000	52.230117
990.000000	52.221119
989.000000	52.216508
988.000000	52.205329
987.000000	52.200132
986.000000	52.203009
985.000000	52.200620
984.000000	52.211506
983.000000	52.209620
982.000000	52.196786
981.000000	52.195354
980.000000	52.203769
979.000000	52.203555
978.000000	52.203626
977.000000	52.194472
976.000000	52.190753
975.000000	52.183594
974.000000	52.191641
973.000000	52.189952
972.000000	52.178690
971.000000	52.172782
970.000000	52.165991
969.000000	52.176961
968.000000	52.169298
967.000000	52.148984
966.000000	52.167754
965.000000	52.161553
964.000000	52.165199
963.000000	52.149864
962.000000	52.137556
961.000000	52.147899
960.000000	52.149736
959.000000	52.146449
958.000000	52.144752
957.000000	52.142344
956.000000	52.134297
955.000000	52.134848
954.000000	52.128804
953.000000	52.121800
952.000000	52.113822
951.000000	52.124447
950.000000	52.121939
949.000000	52.114993
948.000000	52.108592
947.000000	52.102606
946.000000	52.107525
945.000000	52.106208
944.000000	52.095777
943.000000	52.082475
942.000000	52.081171
941.000000	52.072855
940.000000	52.063841
939.000000	52.042935
938.000000	52.012951
937.000000	52.006292
936.000000	52.016138
935.000000	52.021589
934.000000	52.008742
933.000000	52.008997
932.000000	52.008093
931.000000	51.983104
930.000000	51.964883
929.000000	51.942751
928.000000	51.936287
927.000000	51.950495
926.000000	51.946640
925.000000	51.932920
924.000000	51.923635
923.000000	51.928152
922.000000	51.925496
921.000000	51.911220
920.000000	51.905530
919.000000	51.871484
918.000000	51.854710
917.000000	51.867919
916.000000	51.881204
915.000000	51.850424
914.000000	51.835169
913.000000	51.840460
912.000000	51.836926
911.000000	51.817040
910.000000	51.797212
909.000000	51.817030
908.000000	51.801894
907.000000	51.790243
906.000000	51.807541
905.000000	51.783475
904.000000	51.771384
903.000000	51.744730
902.000000	51.768972
901.000000	51.777401
900.000000	51.768704
899.000000	51.741298
898.000000	51.743361
897.000000	51.737611
896.000000	51.756857
895.000000	51.737571
894.000000	51.732560
893.000000	51.690955
892.000000	51.649940
891.000000	51.689306
890.000000	51.728600
889.000000	51.671065
888.000000	51.665135
887.000000	51.678223
886.000000	51.665189
885.000000	51.596837
884.000000	51.514392
883.000000	51.599795
882.000000	51.569871
881.000000	51.607189
880.000000	51.584534
879.000000	51.588541
878.000000	51.565506
877.000000	51.432370
876.000000	51.454372
875.000000	51.499592
874.000000	51.535780
873.000000	51.497762
872.000000	51.475405
871.000000	51.528271
870.000000	51.395303
869.000000	51.431942
868.000000	51.445593
867.000000	51.453627
866.000000	51.348473
865.000000	51.347996
864.000000	51.353061
863.000000	51.326201
862.000000	51.367085
861.000000	51.334783
860.000000	51.299364
859.000000	51.057773
858.000000	50.595035
857.000000	51.155698
856.000000	50.814936
855.000000	51.001391
854.000000	50.690995
853.000000	50.458013
852.000000	50.701703
851.000000	50.831892
850.000000	50.734074
849.000000	50.817492
848.000000	50.737263
847.000000	50.535387
846.000000	50.520157
845.000000	50.683932
844.000000	50.452138
843.000000	50.697222
842.000000	50.816082
841.000000	50.535402
840.000000	50.626062
839.000000	50.542735
838.000000	50.422059
837.000000	50.462275
836.000000	50.540214
835.000000	50.328625
834.000000	50.279352
833.000000	50.337510
832.000000	50.379153
831.000000	50.199031
830.000000	50.221983
829.000000	50.231332
828.000000	50.302046
827.000000	50.136181
826.000000	50.193062
825.000000	50.299364
824.000000	50.204864
823.000000	50.055692
822.000000	50.121497
821.000000	50.188374
820.000000	50.086443
819.000000	49.935496
818.000000	50.030411
817.000000	50.075150
816.000000	50.013632
815.000000	50.052812
814.000000	49.890027
813.000000	49.906483
812.000000	49.909097
811.000000	49.749035
810.000000	49.771421
809.000000	49.839200
808.000000	49.868085
807.000000	49.875402
806.000000	49.789557
805.000000	49.687483
804.000000	49.628991
803.000000	49.544641
802.000000	49.621755
801.000000	49.553915
800.000000	49.581156
799.000000	49.500997
798.000000	49.481286
797.000000	49.510325
796.000000	49.493266
795.000000	49.387747
794.000000	49.363081
793.000000	49.420517
792.000000	49.345838
791.000000	49.410767
790.000000	49.274391
789.000000	49.286901
788.000000	49.167718
787.000000	49.121543
786.000000	49.153596
785.000000	49.078190
784.000000	49.124153
783.000000	49.109198
782.000000	49.053017
781.000000	49.029573
780.000000	48.961624
779.000000	48.980346
778.000000	48.831469
777.000000	48.817020
776.000000	48.842093
775.000000	48.818393
774.000000	48.779256
773.000000	48.729611
772.000000	48.614567
771.000000	48.613637
770.000000	48.617896
769.000000	48.590740
768.000000	48.576045
767.000000	48.540719
766.000000	48.452845
765.000000	48.347914
764.000000	48.406493
763.000000	48.411739
762.000000	48.315246
761.000000	48.298439
760.000000	48.282668
759.000000	48.195033
758.000000	48.134068
757.000000	48.146939
756.000000	48.088409
755.000000	48.082024
754.000000	48.038705
753.000000	47.912523
752.000000	47.899124
751.000000	47.854441
750.000000	47.829964
749.000000	47.761210
748.000000	47.677811
747.000000	47.680121
746.000000	47.676901
745.000000	47.640980
744.000000	47.623613
743.000000	47.494085
742.000000	47.479136
741.000000	47.453617
740.000000	47.356026
739.000000	47.306029
738.000000	47.227087
737.000000	47.198110
736.000000	47.206651
735.000000	47.110221
734.000000	47.043384
733.000000	47.030158
732.000000	46.952779
731.000000	46.894691
730.000000	46.849134
729.000000	46.787479
728.000000	46.723517
727.000000	46.684187
726.000000	46.666184
725.000000	46.590694
724.000000	46.512152
723.000000	46.469512
722.000000	46.410568
721.000000	46.318085
720.000000	46.257340
719.000000	46.239196
718.000000	46.180126
717.000000	46.128649
716.000000	46.047455
715.000000	45.958260
714.000000	45.926825
713.000000	45.903879
712.000000	45.878061
711.000000	45.776745
710.000000	45.664256
709.000000	45.630622
708.000000	45.571955
707.000000	45.469180
706.000000	45.392814
705.000000	45.358103
704.000000	45.311871
703.000000	45.254553
702.000000	45.172440
701.000000	45.056162
700.000000	44.985147
699.000000	44.940378
698.000000	44.845717
697.000000	44.810349
696.000000	44.804245
695.000000	44.699467
694.000000	44.593404
693.000000	44.487287
692.000000	44.448494
691.000000	44.410926
690.000000	44.288080
689.000000	44.150959
688.000000	44.109148
687.000000	44.049200
686.000000	43.931082
685.000000	43.881845
684.000000	43.799544
683.000000	43.704675
682.000000	43.639419
681.000000	43.565551
680.000000	43.503203
679.000000	43.412708
678.000000	43.309382
677.000000	43.214007
676.000000	43.132677
675.000000	43.060226
674.000000	42.942614
673.000000	42.883571
672.000000	42.812070
671.000000	42.674540
670.000000	42.590013
669.000000	42.524126
668.000000	42.398019
667.000000	42.337929
666.000000	42.253240
665.000000	42.144286
664.000000	42.079456
663.000000	41.947247
662.000000	41.814773
661.000000	41.767221
660.000000	41.712950
659.000000	41.570781
658.000000	41.481554
657.000000	41.389053
656.000000	41.274477
655.000000	41.151793
654.000000	41.051032
653.000000	41.002870
652.000000	40.943691
651.000000	40.824261
650.000000	40.714465
649.000000	40.585574
648.000000	40.488747
647.000000	40.397621
646.000000	40.283916
645.000000	40.173235
644.000000	40.058913
643.000000	39.954363
642.000000	39.852301
641.000000	39.766620
640.000000	39.629066
639.000000	39.509084
638.000000	39.369807
637.000000	39.311393
636.000000	39.159532
635.000000	39.039733
634.000000	38.907882
633.000000	38.810834
632.000000	38.718837
631.000000	38.600134
630.000000	38.472434
629.000000	38.379598
628.000000	38.272270
627.000000	38.118414
626.000000	37.972033
625.000000	37.897471
624.000000	37.738721
623.000000	37.629732
622.000000	37.541619
621.000000	37.430283
620.000000	37.269122
619.000000	37.148719
618.000000	37.036715
617.000000	36.902344
616.000000	36.789569
615.000000	36.667148
614.000000	36.503281
613.000000	36.403305
612.000000	36.290326
611.000000	36.180525
610.000000	35.980136
609.000000	35.868212
608.000000	35.735969
607.000000	35.640320
606.000000	35.487684
605.000000	35.346058
604.000000	35.209398
603.000000	35.084042
602.000000	34.912244
601.000000	34.814112
600.000000	34.698708
599.000000	34.575268
598.000000	34.398688
597.000000	34.281467
596.000000	34.097887
595.000000	33.978975
594.000000	33.840661
593.000000	33.656289
592.000000	33.542742
591.000000	33.412516
590.000000	33.272802
589.000000	33.111257
588.000000	32.980357
587.000000	32.831318
586.000000	32.665180
585.000000	32.556199
584.000000	32.379489
583.000000	32.260960
582.000000	32.094672
581.000000	31.914035
580.000000	31.787105
579.000000	31.657699
578.000000	31.488203
577.000000	31.351433
576.000000	31.162212
575.000000	31.016985
574.000000	30.877407
573.000000	30.717575
572.000000	30.571578
571.000000	30.432256
570.000000	30.251339
569.000000	30.129674
568.000000	29.962578
567.000000	29.801967
566.000000	29.630932
565.000000	29.480325
564.000000	29.345514
563.000000	29.147895
562.000000	28.966721
561.000000	28.820449
560.000000	28.628816
559.000000	28.499031
558.000000	28.344425
557.000000	28.172633
556.000000	27.996201
555.000000	27.858935
554.000000	27.667463
553.000000	27.531446
552.000000	27.355442
551.000000	27.198250
550.000000	27.023826
549.000000	26.882153
548.000000	26.723022
547.000000	26.551305
546.000000	26.382651
545.000000	26.241807
544.000000	26.046340
543.000000	25.910972
542.000000	25.724198
541.000000	25.568779
540.000000	25.423178
539.000000	25.264458
538.000000	25.089141
537.000000	24.918890
536.000000	24.741020
535.000000	24.586689
534.000000	24.425597
533.000000	24.272888
532.000000	24.126958
531.000000	23.948388
530.000000	23.793291
529.000000	23.620683
528.000000	23.466334
527.000000	23.311908
526.000000	23.150436
525.000000	22.991301
524.000000	22.826020
523.000000	22.653178
522.000000	22.491139
521.000000	22.340913
520.000000	22.185085
519.000000	22.017664
518.000000	21.856297
517.000000	21.719746
516.000000	21.558935
515.000000	21.397812
514.000000	21.243272
513.000000	21.083123
512.000000	20.920817
511.000000	20.777546
510.000000	20.616806
509.000000	20.458986
508.000000	20.304561
507.000000	20.135305
506.000000	19.989999
505.000000	19.864095
504.000000	19.696073
503.000000	19.544408
502.000000	19.393683
501.000000	19.232309
500.000000	19.067292
499.000000	18.937435
498.000000	18.792713
497.000000	18.643061
496.000000	18.474194
495.000000	18.335491
494.000000	18.180550
493.000000	18.040551
492.000000	17.889336
491.000000	17.753261
490.000000	17.598550
489.000000	17.455627
488.000000	17.308597
487.000000	17.189607
486.000000	17.056102
485.000000	16.902960
484.000000	16.763582
483.000000	16.631828
482.000000	16.503414
481.000000	16.355809
480.000000	16.211733
479.000000	16.099710
478.000000	15.963949
477.000000	15.821034
476.000000	15.688457
475.000000	15.575010
474.000000	15.452535
473.000000	15.312324
472.000000	15.180154
471.000000	15.054987
470.000000	14.928785
469.000000	14.800561
468.000000	14.677596
467.000000	14.557061
466.000000	14.428948
465.000000	14.307162
464.000000	14.175736
463.000000	14.052384
462.000000	13.926997
461.000000	13.812536
460.000000	13.688732
459.000000	13.553176
458.000000	13.424607
457.000000	13.298728
456.000000	13.174344
455.000000	13.053581
454.000000	12.931258
453.000000	12.775083
452.000000	12.635959
451.000000	12.538445
450.000000	12.429958
449.000000	12.298502
448.000000	12.179585
447.000000	12.066285
446.000000	11.948722
445.000000	11.836302
444.000000	11.748909
443.000000	11.657120
442.000000	11.552314
441.000000	11.446409
440.000000	11.357324
439.000000	11.278734
438.000000	11.192900
437.000000	11.101761
436.000000	11.029138
435.000000	10.946672
434.000000	10.863275
433.000000	10.782428
432.000000	10.711318
431.000000	10.639840
430.000000	10.560158
429.000000	10.488333
428.000000	10.419759
427.000000	10.338276
426.000000	10.256197
425.000000	10.192451
424.000000	10.109022
423.000000	10.029023
422.000000	9.955608
421.000000	9.894523
420.000000	9.831005
419.000000	9.765197
418.000000	9.694302
417.000000	9.634092
416.000000	9.570314
415.000000	9.490607
414.000000	9.440597
413.000000	9.371314
412.000000	9.304810
411.000000	9.243464
410.000000	9.192337
409.000000	9.126476
408.000000	9.072560
407.000000	9.007075
406.000000	8.959788
405.000000	8.920454
404.000000	8.865826
403.000000	8.801430
402.000000	8.750054
401.000000	8.708973
400.000000	8.659738
399.000000	8.593588
398.000000	8.558309
397.000000	8.514443
396.000000	8.492972
395.000000	8.449067
394.000000	8.380468
393.000000	8.351651
392.000000	8.318352
391.000000	8.275523
390.000000	8.259513
389.000000	8.214900
388.000000	8.194384
387.000000	8.161130
386.000000	8.108736
385.000000	8.071371
384.000000	8.037065
383.000000	8.003193
382.000000	7.983771
381.000000	7.945259
380.000000	7.917260
379.000000	7.908183
378.000000	7.868778
377.000000	7.872700
376.000000	7.849691
375.000000	7.832267
374.000000	7.763780
373.000000	7.729358
372.000000	7.707422
371.000000	7.692049
370.000000	7.671073
369.000000	7.641025
368.000000	7.614359
367.000000	7.638150
366.000000	7.600897
365.000000	7.590663
364.000000	7.579046
363.000000	7.582640
362.000000	7.544048
361.000000	7.556512
360.000000	7.490657
359.000000	7.455796
358.000000	7.469018
357.000000	7.454526
356.000000	7.509600
355.000000	7.448582
354.000000	7.397493
353.000000	7.436168
352.000000	7.442169
351.000000	7.420459
350.000000	7.375820
349.000000	7.373193
348.000000	7.364969
347.000000	7.349321
346.000000	7.330603
345.000000	7.326757
344.000000	7.319210
343.000000	7.327203
342.000000	7.250270
341.000000	7.270283
340.000000	7.271619
339.000000	7.319494
338.000000	7.264299
337.000000	7.252477
336.000000	7.220195
335.000000	7.230386
334.000000	7.221716
333.000000	7.173585
332.000000	7.190478
331.000000	7.185933
330.000000	7.206291
329.000000	7.149461
328.000000	7.110386
327.000000	7.152748
326.000000	7.131212
325.000000	7.174930
324.000000	7.038453
323.000000	7.086270
322.000000	7.117495
321.000000	7.035149
320.000000	7.098418
319.000000	7.083031
318.000000	7.130146
317.000000	7.110048
316.000000	7.125917
315.000000	7.124145
314.000000	7.173943
313.000000	7.122984
312.000000	7.151066
311.000000	7.159021
310.000000	7.156605
309.000000	7.205697
308.000000	7.162526
307.000000	7.171906
306.000000	7.173205
305.000000	7.200176
304.000000	7.216008
303.000000	7.223958
302.000000	7.238603
301.000000	7.230121
300.000000	7.261595
299.000000	7.280619
298.000000	7.292618
297.000000	7.236179
296.000000	7.284759
295.000000	7.348014
294.000000	7.334882
293.000000	7.359780
292.000000	7.335761
291.000000	7.362839
290.000000	7.364540
289.000000	7.394432
288.000000	7.407367
287.000000	7.459255
286.000000	7.486112
285.000000	7.527772
284.000000	7.531406
283.000000	7.539628
282.000000	7.577616
281.000000	7.599084
280.000000	7.634440
279.000000	7.663167
278.000000	7.723615
277.000000	7.698885
276.000000	7.746680
275.000000	7.800311
274.000000	7.824425
273.000000	7.832533
272.000000	7.905692
271.000000	7.935882
270.000000	8.015050
269.000000	8.006644
268.000000	8.038858
267.000000	8.152975
266.000000	8.171128
265.000000	8.197564
264.000000	8.290520
263.000000	8.327781
262.000000	8.363291
261.000000	8.442653
260.000000	8.486368
259.000000	8.584056
258.000000	8.660708
257.000000	8.749942
256.000000	8.863806
255.000000	8.910245
254.000000	8.983366
253.000000	9.128828
252.000000	9.203698
251.000000	9.255159
250.000000	9.431456
249.000000	9.597789
248.000000	9.688210
247.000000	9.756026
246.000000	9.903621
245.000000	10.014328
244.000000	10.125826
243.000000	10.261970
242.000000	10.393040
241.000000	10.527386
240.000000	10.622477
239.000000	10.761842
238.000000	10.858880
237.000000	11.025786
236.000000	11.180117
235.000000	11.282395
234.000000	11.340017
233.000000	11.444875
232.000000	11.597084
231.000000	11.713290
230.000000	11.809498
229.000000	11.950666
228.000000	12.030367
227.000000	12.113805
226.000000	12.237995
225.000000	12.334092
224.000000	12.507811
223.000000	12.643210
222.000000	12.742905
221.000000	12.853175
220.000000	13.028436
219.000000	13.175427
218.000000	13.299737
217.000000	13.505464
216.000000	13.658320
215.000000	13.932721
214.000000	14.182191
213.000000	14.361761
212.000000	14.694358
211.000000	15.024252
210.000000	15.330646
209.000000	15.549655
208.000000	15.875778
207.000000	16.327997
206.000000	16.569369
205.000000	16.995812
204.000000	17.627911
203.000000	18.175966
202.000000	18.729236
201.000000	19.257850
200.000000	19.843839
