PE UV       SUBTECH     SPECTRUM    ASCII       PEDS        4.00        
   -1
TTms1240111.Sample.asc
18/03/14
12:15:33.00
18/03/14
12:15:33.00
Administrator

200.000000
1
Lambda 750
750N8071901
PerkinElmer UV WinLab 6.0.4.0738 / 1.61.00 Lambda 900

0
0
3350/servo 860.8/2
0
0
UV/VIS
1
1
1
CommonBeamDepol,150mm sphere / downward view
0
0
0
0
Program
Program
3350/servo 860.8/2
3350/0.2 860.8/0.2
3350/0.2 860.8/0.2
0
1
 
 
 
0
 
860.8
319.2
860.8
Front
100
on
 
 
0
0
0
 
0
 
 
 
0
 
 
0
0
0
0
0
 
 
 
 
0
0


0
0
#HDR
-1
-1
#GR
nm
%T
1.0
0.0
2350.000000
-1.000000
2151
8
24.297284
0.846643
#DATA
2350.000000	18.239460
2349.000000	18.762734
2348.000000	18.343659
2347.000000	19.098296
2346.000000	18.791570
2345.000000	18.713966
2344.000000	18.452617
2343.000000	18.331959
2342.000000	18.437749
2341.000000	18.733840
2340.000000	18.915020
2339.000000	18.997708
2338.000000	19.026147
2337.000000	19.231363
2336.000000	18.993248
2335.000000	19.506003
2334.000000	19.633362
2333.000000	19.550918
2332.000000	19.505811
2331.000000	19.394622
2330.000000	19.404519
2329.000000	19.284157
2328.000000	19.293059
2327.000000	19.159486
2326.000000	19.085826
2325.000000	19.233557
2324.000000	19.290961
2323.000000	19.208407
2322.000000	19.153522
2321.000000	19.040338
2320.000000	18.811505
2319.000000	18.843678
2318.000000	18.779619
2317.000000	19.077696
2316.000000	18.926731
2315.000000	18.345883
2314.000000	18.486199
2313.000000	18.525084
2312.000000	18.443968
2311.000000	18.467661
2310.000000	18.214410
2309.000000	18.477219
2308.000000	18.416868
2307.000000	18.494023
2306.000000	18.361643
2305.000000	18.335183
2304.000000	18.138191
2303.000000	18.211236
2302.000000	18.262883
2301.000000	18.179569
2300.000000	18.111104
2299.000000	18.057933
2298.000000	18.158412
2297.000000	18.188085
2296.000000	18.117484
2295.000000	18.129603
2294.000000	18.145694
2293.000000	18.059782
2292.000000	17.887138
2291.000000	18.055463
2290.000000	18.151467
2289.000000	18.190228
2288.000000	18.060436
2287.000000	18.067365
2286.000000	18.020208
2285.000000	17.948873
2284.000000	17.858162
2283.000000	17.822782
2282.000000	17.957110
2281.000000	17.910478
2280.000000	17.901125
2279.000000	18.035829
2278.000000	17.931297
2277.000000	17.903081
2276.000000	18.045964
2275.000000	18.004434
2274.000000	18.160112
2273.000000	18.403050
2272.000000	18.318874
2271.000000	18.176461
2270.000000	18.252689
2269.000000	18.297149
2268.000000	18.243227
2267.000000	18.252258
2266.000000	18.388464
2265.000000	18.410014
2264.000000	18.435658
2263.000000	18.626332
2262.000000	18.657260
2261.000000	18.650062
2260.000000	18.654784
2259.000000	18.794234
2258.000000	18.917128
2257.000000	18.957315
2256.000000	18.975233
2255.000000	19.064077
2254.000000	19.086659
2253.000000	19.107952
2252.000000	19.299528
2251.000000	19.409948
2250.000000	19.476037
2249.000000	19.687602
2248.000000	19.750291
2247.000000	19.796103
2246.000000	19.869338
2245.000000	19.887986
2244.000000	19.828048
2243.000000	19.911677
2242.000000	20.003944
2241.000000	20.044800
2240.000000	20.134277
2239.000000	20.223165
2238.000000	20.203624
2237.000000	20.155348
2236.000000	20.136721
2235.000000	20.260801
2234.000000	20.373158
2233.000000	20.301412
2232.000000	20.294131
2231.000000	20.362606
2230.000000	20.457617
2229.000000	20.577303
2228.000000	20.504349
2227.000000	20.360340
2226.000000	20.310855
2225.000000	20.320269
2224.000000	20.363616
2223.000000	20.376332
2222.000000	20.406757
2221.000000	20.437844
2220.000000	20.414262
2219.000000	20.416233
2218.000000	20.349305
2217.000000	20.243754
2216.000000	20.291878
2215.000000	20.247187
2214.000000	20.277596
2213.000000	20.310213
2212.000000	20.136822
2211.000000	20.179779
2210.000000	20.248298
2209.000000	20.090496
2208.000000	19.941457
2207.000000	19.987003
2206.000000	20.023540
2205.000000	19.997937
2204.000000	19.972782
2203.000000	19.954062
2202.000000	19.856771
2201.000000	19.880756
2200.000000	19.893821
2199.000000	19.841388
2198.000000	19.797004
2197.000000	19.719461
2196.000000	19.646685
2195.000000	19.520340
2194.000000	19.526688
2193.000000	19.543354
2192.000000	19.408472
2191.000000	19.414793
2190.000000	19.431253
2189.000000	19.526596
2188.000000	19.314759
2187.000000	19.320285
2186.000000	19.411945
2185.000000	19.463611
2184.000000	19.376646
2183.000000	19.406916
2182.000000	19.386304
2181.000000	19.481103
2180.000000	19.340078
2179.000000	19.356867
2178.000000	19.281850
2177.000000	19.189015
2176.000000	19.212712
2175.000000	19.421697
2174.000000	19.471266
2173.000000	19.337648
2172.000000	19.381039
2171.000000	19.519303
2170.000000	19.439908
2169.000000	19.487749
2168.000000	19.657386
2167.000000	19.469224
2166.000000	19.496222
2165.000000	19.529762
2164.000000	19.534238
2163.000000	19.640240
2162.000000	19.795997
2161.000000	19.762780
2160.000000	19.892758
2159.000000	19.977541
2158.000000	19.788807
2157.000000	19.786412
2156.000000	20.024551
2155.000000	20.113717
2154.000000	20.241788
2153.000000	20.356832
2152.000000	20.391929
2151.000000	20.306029
2150.000000	20.466050
2149.000000	20.411962
2148.000000	20.337122
2147.000000	20.524751
2146.000000	20.448564
2145.000000	20.606523
2144.000000	20.709606
2143.000000	20.653310
2142.000000	20.639508
2141.000000	20.716738
2140.000000	20.785901
2139.000000	20.927757
2138.000000	20.935637
2137.000000	20.873341
2136.000000	21.029738
2135.000000	21.091449
2134.000000	21.039744
2133.000000	20.772568
2132.000000	20.945970
2131.000000	21.006111
2130.000000	20.938397
2129.000000	21.039786
2128.000000	21.120250
2127.000000	21.060101
2126.000000	21.061562
2125.000000	21.121134
2124.000000	21.229203
2123.000000	21.087010
2122.000000	21.043155
2121.000000	21.225684
2120.000000	21.105827
2119.000000	21.030948
2118.000000	21.037797
2117.000000	21.126775
2116.000000	21.065352
2115.000000	21.182733
2114.000000	21.023978
2113.000000	21.128751
2112.000000	21.115035
2111.000000	21.002529
2110.000000	20.940174
2109.000000	20.952709
2108.000000	21.026681
2107.000000	20.966282
2106.000000	20.978805
2105.000000	21.008791
2104.000000	20.933913
2103.000000	20.998173
2102.000000	21.022668
2101.000000	20.990558
2100.000000	21.057422
2099.000000	21.015270
2098.000000	20.977293
2097.000000	20.945473
2096.000000	20.966565
2095.000000	20.886737
2094.000000	20.872213
2093.000000	20.834607
2092.000000	21.004975
2091.000000	20.964793
2090.000000	20.872874
2089.000000	20.901629
2088.000000	20.878192
2087.000000	20.822194
2086.000000	20.778020
2085.000000	20.831866
2084.000000	20.767318
2083.000000	20.719695
2082.000000	20.669085
2081.000000	20.558687
2080.000000	20.593664
2079.000000	20.541526
2078.000000	20.407906
2077.000000	20.416649
2076.000000	20.368279
2075.000000	20.382861
2074.000000	20.365029
2073.000000	20.320423
2072.000000	20.248281
2071.000000	20.265112
2070.000000	20.151106
2069.000000	20.013329
2068.000000	19.936564
2067.000000	19.923059
2066.000000	19.838605
2065.000000	19.809569
2064.000000	19.759277
2063.000000	19.658268
2062.000000	19.687728
2061.000000	19.576131
2060.000000	19.449789
2059.000000	19.443300
2058.000000	19.456260
2057.000000	19.384625
2056.000000	19.307044
2055.000000	19.239683
2054.000000	19.191749
2053.000000	19.146519
2052.000000	19.062147
2051.000000	18.959186
2050.000000	18.951527
2049.000000	18.938673
2048.000000	18.882643
2047.000000	18.841246
2046.000000	18.816172
2045.000000	18.798022
2044.000000	18.786875
2043.000000	18.817297
2042.000000	18.812569
2041.000000	18.754791
2040.000000	18.744703
2039.000000	18.752490
2038.000000	18.735706
2037.000000	18.716422
2036.000000	18.735047
2035.000000	18.784080
2034.000000	18.823253
2033.000000	18.866789
2032.000000	18.914759
2031.000000	18.959342
2030.000000	18.975110
2029.000000	19.009830
2028.000000	19.030213
2027.000000	19.051718
2026.000000	19.095243
2025.000000	19.108138
2024.000000	19.076746
2023.000000	19.089156
2022.000000	19.084082
2021.000000	19.075757
2020.000000	19.069501
2019.000000	19.030147
2018.000000	19.006323
2017.000000	19.010605
2016.000000	19.031887
2015.000000	18.985662
2014.000000	18.973255
2013.000000	18.971418
2012.000000	18.924167
2011.000000	18.872000
2010.000000	18.880294
2009.000000	18.851037
2008.000000	18.768564
2007.000000	18.680856
2006.000000	18.604319
2005.000000	18.587759
2004.000000	18.565568
2003.000000	18.524988
2002.000000	18.452640
2001.000000	18.398702
2000.000000	18.322755
1999.000000	18.274006
1998.000000	18.254201
1997.000000	18.226929
1996.000000	18.160720
1995.000000	18.086985
1994.000000	18.020028
1993.000000	17.999538
1992.000000	17.909597
1991.000000	17.846461
1990.000000	17.807975
1989.000000	17.753331
1988.000000	17.713250
1987.000000	17.625938
1986.000000	17.583144
1985.000000	17.538052
1984.000000	17.474848
1983.000000	17.401185
1982.000000	17.350959
1981.000000	17.323301
1980.000000	17.267479
1979.000000	17.209389
1978.000000	17.126485
1977.000000	17.054584
1976.000000	16.993621
1975.000000	16.994537
1974.000000	16.930958
1973.000000	16.884374
1972.000000	16.819577
1971.000000	16.771508
1970.000000	16.739608
1969.000000	16.702589
1968.000000	16.638548
1967.000000	16.591554
1966.000000	16.539957
1965.000000	16.484397
1964.000000	16.433937
1963.000000	16.408729
1962.000000	16.339101
1961.000000	16.276314
1960.000000	16.250685
1959.000000	16.237552
1958.000000	16.155112
1957.000000	16.168484
1956.000000	16.107385
1955.000000	16.081748
1954.000000	16.064110
1953.000000	16.051495
1952.000000	16.032342
1951.000000	15.996450
1950.000000	15.945013
1949.000000	15.954679
1948.000000	15.967267
1947.000000	15.895049
1946.000000	15.871160
1945.000000	15.870745
1944.000000	15.915673
1943.000000	15.949387
1942.000000	15.986968
1941.000000	15.973079
1940.000000	15.995132
1939.000000	16.044207
1938.000000	16.024116
1937.000000	16.104442
1936.000000	16.146203
1935.000000	16.144672
1934.000000	16.296967
1933.000000	16.296430
1932.000000	16.301646
1931.000000	16.375505
1930.000000	16.469100
1929.000000	16.554859
1928.000000	16.683230
1927.000000	16.815369
1926.000000	16.843548
1925.000000	16.905457
1924.000000	17.006802
1923.000000	17.092499
1922.000000	17.194723
1921.000000	17.336701
1920.000000	17.452217
1919.000000	17.592713
1918.000000	17.754506
1917.000000	17.871167
1916.000000	17.903071
1915.000000	18.065811
1914.000000	18.243886
1913.000000	18.390345
1912.000000	18.484446
1911.000000	18.682566
1910.000000	18.848968
1909.000000	18.980269
1908.000000	19.138065
1907.000000	19.281950
1906.000000	19.456915
1905.000000	19.689606
1904.000000	19.843138
1903.000000	19.979640
1902.000000	20.211268
1901.000000	20.354663
1900.000000	20.522653
1899.000000	20.712572
1898.000000	20.862999
1897.000000	21.012972
1896.000000	21.230742
1895.000000	21.389282
1894.000000	21.526214
1893.000000	21.681621
1892.000000	21.821309
1891.000000	21.985254
1890.000000	22.079800
1889.000000	22.225271
1888.000000	22.348158
1887.000000	22.515052
1886.000000	22.617809
1885.000000	22.732232
1884.000000	22.882509
1883.000000	22.985313
1882.000000	23.123509
1881.000000	23.268535
1880.000000	23.319753
1879.000000	23.412123
1878.000000	23.525947
1877.000000	23.619898
1876.000000	23.688795
1875.000000	23.799382
1874.000000	23.894472
1873.000000	23.947946
1872.000000	24.002815
1871.000000	24.066186
1870.000000	24.104006
1869.000000	24.143009
1868.000000	24.157882
1867.000000	24.199060
1866.000000	24.229750
1865.000000	24.240173
1864.000000	24.229209
1863.000000	24.215489
1862.000000	24.233679
1861.000000	24.250688
1860.000000	24.262122
1859.000000	24.255973
1858.000000	24.225015
1857.000000	24.226839
1856.000000	24.240685
1855.000000	24.213540
1854.000000	24.291762
1853.000000	24.273052
1852.000000	24.261429
1851.000000	24.268051
1850.000000	24.282781
1849.000000	24.297284
1848.000000	24.294431
1847.000000	24.287545
1846.000000	24.272080
1845.000000	24.291751
1844.000000	24.280084
1843.000000	24.252560
1842.000000	24.239282
1841.000000	24.215777
1840.000000	24.217189
1839.000000	24.211031
1838.000000	24.203696
1837.000000	24.166853
1836.000000	24.148346
1835.000000	24.098720
1834.000000	24.055129
1833.000000	24.055123
1832.000000	24.028846
1831.000000	23.993371
1830.000000	23.990341
1829.000000	23.977170
1828.000000	23.937477
1827.000000	23.917648
1826.000000	23.915248
1825.000000	23.887754
1824.000000	23.879109
1823.000000	23.860485
1822.000000	23.827634
1821.000000	23.808825
1820.000000	23.774651
1819.000000	23.742469
1818.000000	23.745475
1817.000000	23.743754
1816.000000	23.719030
1815.000000	23.692164
1814.000000	23.682707
1813.000000	23.660484
1812.000000	23.636321
1811.000000	23.631431
1810.000000	23.626808
1809.000000	23.615089
1808.000000	23.599309
1807.000000	23.561885
1806.000000	23.539322
1805.000000	23.548405
1804.000000	23.553760
1803.000000	23.544680
1802.000000	23.526561
1801.000000	23.502607
1800.000000	23.474679
1799.000000	23.484580
1798.000000	23.488822
1797.000000	23.460024
1796.000000	23.453731
1795.000000	23.452754
1794.000000	23.454228
1793.000000	23.456764
1792.000000	23.457878
1791.000000	23.439904
1790.000000	23.408266
1789.000000	23.409430
1788.000000	23.416629
1787.000000	23.408055
1786.000000	23.397260
1785.000000	23.392936
1784.000000	23.395784
1783.000000	23.388243
1782.000000	23.392650
1781.000000	23.395498
1780.000000	23.372180
1779.000000	23.376800
1778.000000	23.384826
1777.000000	23.369006
1776.000000	23.337887
1775.000000	23.336038
1774.000000	23.297107
1773.000000	23.275043
1772.000000	23.265292
1771.000000	23.252444
1770.000000	23.230901
1769.000000	23.208483
1768.000000	23.203218
1767.000000	23.194333
1766.000000	23.161578
1765.000000	23.144381
1764.000000	23.127701
1763.000000	23.117841
1762.000000	23.082705
1761.000000	23.074044
1760.000000	23.056222
1759.000000	23.037825
1758.000000	23.025755
1757.000000	23.010779
1756.000000	22.991476
1755.000000	22.980300
1754.000000	22.961097
1753.000000	22.954181
1752.000000	22.949282
1751.000000	22.924967
1750.000000	22.908313
1749.000000	22.894467
1748.000000	22.888015
1747.000000	22.830533
1746.000000	22.823491
1745.000000	22.786361
1744.000000	22.764755
1743.000000	22.776001
1742.000000	22.747060
1741.000000	22.722094
1740.000000	22.691369
1739.000000	22.677206
1738.000000	22.684435
1737.000000	22.663003
1736.000000	22.639550
1735.000000	22.643036
1734.000000	22.652299
1733.000000	22.614765
1732.000000	22.627650
1731.000000	22.638570
1730.000000	22.601368
1729.000000	22.637222
1728.000000	22.626699
1727.000000	22.653874
1726.000000	22.629465
1725.000000	22.679241
1724.000000	22.708008
1723.000000	22.720370
1722.000000	22.727411
1721.000000	22.727724
1720.000000	22.773476
1719.000000	22.820003
1718.000000	22.829548
1717.000000	22.853209
1716.000000	22.866099
1715.000000	22.881269
1714.000000	22.896013
1713.000000	22.909740
1712.000000	22.909510
1711.000000	22.968946
1710.000000	22.992993
1709.000000	22.994199
1708.000000	22.985436
1707.000000	23.010918
1706.000000	23.026563
1705.000000	23.023218
1704.000000	23.056365
1703.000000	23.019688
1702.000000	23.039046
1701.000000	23.032366
1700.000000	23.046833
1699.000000	23.030442
1698.000000	23.078560
1697.000000	23.055564
1696.000000	23.076058
1695.000000	23.066187
1694.000000	23.090269
1693.000000	23.110091
1692.000000	23.101642
1691.000000	23.110350
1690.000000	23.127522
1689.000000	23.151447
1688.000000	23.172391
1687.000000	23.211758
1686.000000	23.222121
1685.000000	23.265490
1684.000000	23.294355
1683.000000	23.326066
1682.000000	23.385771
1681.000000	23.415741
1680.000000	23.448840
1679.000000	23.463778
1678.000000	23.507281
1677.000000	23.548151
1676.000000	23.589847
1675.000000	23.623045
1674.000000	23.670887
1673.000000	23.684675
1672.000000	23.710501
1671.000000	23.744373
1670.000000	23.767547
1669.000000	23.742468
1668.000000	23.761765
1667.000000	23.806513
1666.000000	23.792717
1665.000000	23.802127
1664.000000	23.814589
1663.000000	23.839652
1662.000000	23.849218
1661.000000	23.857216
1660.000000	23.866075
1659.000000	23.891906
1658.000000	23.900294
1657.000000	23.913603
1656.000000	23.901932
1655.000000	23.912585
1654.000000	23.921803
1653.000000	23.913235
1652.000000	23.917580
1651.000000	23.897972
1650.000000	23.904296
1649.000000	23.915634
1648.000000	23.876008
1647.000000	23.870099
1646.000000	23.870609
1645.000000	23.872219
1644.000000	23.869346
1643.000000	23.861001
1642.000000	23.853528
1641.000000	23.826209
1640.000000	23.814154
1639.000000	23.813180
1638.000000	23.801419
1637.000000	23.796320
1636.000000	23.767179
1635.000000	23.748381
1634.000000	23.737933
1633.000000	23.724878
1632.000000	23.718303
1631.000000	23.703328
1630.000000	23.694753
1629.000000	23.659798
1628.000000	23.643341
1627.000000	23.636316
1626.000000	23.615054
1625.000000	23.603107
1624.000000	23.597991
1623.000000	23.579510
1622.000000	23.569534
1621.000000	23.551455
1620.000000	23.528512
1619.000000	23.517757
1618.000000	23.491977
1617.000000	23.468195
1616.000000	23.449933
1615.000000	23.435460
1614.000000	23.414909
1613.000000	23.409465
1612.000000	23.401179
1611.000000	23.378290
1610.000000	23.367015
1609.000000	23.352571
1608.000000	23.334370
1607.000000	23.310078
1606.000000	23.290281
1605.000000	23.278768
1604.000000	23.259218
1603.000000	23.233173
1602.000000	23.217285
1601.000000	23.201269
1600.000000	23.177303
1599.000000	23.155874
1598.000000	23.149091
1597.000000	23.139266
1596.000000	23.115641
1595.000000	23.102302
1594.000000	23.085206
1593.000000	23.077204
1592.000000	23.072054
1591.000000	23.046834
1590.000000	23.025929
1589.000000	23.004783
1588.000000	22.981246
1587.000000	22.974929
1586.000000	22.972271
1585.000000	22.961441
1584.000000	22.943011
1583.000000	22.931944
1582.000000	22.913027
1581.000000	22.888040
1580.000000	22.878513
1579.000000	22.872272
1578.000000	22.867419
1577.000000	22.843904
1576.000000	22.826050
1575.000000	22.815591
1574.000000	22.789870
1573.000000	22.765835
1572.000000	22.762998
1571.000000	22.755297
1570.000000	22.733722
1569.000000	22.720584
1568.000000	22.714526
1567.000000	22.692487
1566.000000	22.680353
1565.000000	22.679331
1564.000000	22.664706
1563.000000	22.657962
1562.000000	22.645178
1561.000000	22.624465
1560.000000	22.611802
1559.000000	22.600551
1558.000000	22.583925
1557.000000	22.559900
1556.000000	22.543084
1555.000000	22.534447
1554.000000	22.525914
1553.000000	22.524499
1552.000000	22.513672
1551.000000	22.488565
1550.000000	22.464528
1549.000000	22.445166
1548.000000	22.427175
1547.000000	22.412529
1546.000000	22.388368
1545.000000	22.348605
1544.000000	22.326273
1543.000000	22.304905
1542.000000	22.282822
1541.000000	22.252381
1540.000000	22.244126
1539.000000	22.212784
1538.000000	22.179593
1537.000000	22.160349
1536.000000	22.134302
1535.000000	22.098576
1534.000000	22.061415
1533.000000	22.044001
1532.000000	22.025580
1531.000000	22.011317
1530.000000	22.002094
1529.000000	22.010263
1528.000000	22.009901
1527.000000	22.000591
1526.000000	21.964811
1525.000000	21.904528
1524.000000	21.870909
1523.000000	21.850743
1522.000000	21.825636
1521.000000	21.810210
1520.000000	21.789048
1519.000000	21.779357
1518.000000	21.746972
1517.000000	21.715407
1516.000000	21.688718
1515.000000	21.670556
1514.000000	21.670456
1513.000000	21.654669
1512.000000	21.642207
1511.000000	21.635444
1510.000000	21.616547
1509.000000	21.597124
1508.000000	21.567216
1507.000000	21.553806
1506.000000	21.532297
1505.000000	21.513321
1504.000000	21.499593
1503.000000	21.505369
1502.000000	21.497974
1501.000000	21.483247
1500.000000	21.486715
1499.000000	21.463637
1498.000000	21.471315
1497.000000	21.453719
1496.000000	21.436688
1495.000000	21.423443
1494.000000	21.422467
1493.000000	21.437057
1492.000000	21.434583
1491.000000	21.431241
1490.000000	21.432166
1489.000000	21.431175
1488.000000	21.432940
1487.000000	21.425309
1486.000000	21.436666
1485.000000	21.442786
1484.000000	21.458746
1483.000000	21.457608
1482.000000	21.463837
1481.000000	21.455021
1480.000000	21.463550
1479.000000	21.456909
1478.000000	21.459376
1477.000000	21.456365
1476.000000	21.452307
1475.000000	21.457771
1474.000000	21.464203
1473.000000	21.449064
1472.000000	21.458320
1471.000000	21.456783
1470.000000	21.454914
1469.000000	21.455324
1468.000000	21.441613
1467.000000	21.470865
1466.000000	21.498831
1465.000000	21.487907
1464.000000	21.482855
1463.000000	21.460694
1462.000000	21.479546
1461.000000	21.487394
1460.000000	21.485791
1459.000000	21.493053
1458.000000	21.489353
1457.000000	21.520218
1456.000000	21.498426
1455.000000	21.494314
1454.000000	21.510322
1453.000000	21.513591
1452.000000	21.525140
1451.000000	21.518777
1450.000000	21.531775
1449.000000	21.534023
1448.000000	21.548591
1447.000000	21.566566
1446.000000	21.569988
1445.000000	21.605771
1444.000000	21.626834
1443.000000	21.631244
1442.000000	21.639723
1441.000000	21.646449
1440.000000	21.659273
1439.000000	21.665643
1438.000000	21.685206
1437.000000	21.706750
1436.000000	21.728943
1435.000000	21.734521
1434.000000	21.770588
1433.000000	21.802401
1432.000000	21.838335
1431.000000	21.867384
1430.000000	21.896727
1429.000000	21.907317
1428.000000	21.927973
1427.000000	21.970068
1426.000000	22.022150
1425.000000	22.044790
1424.000000	22.078202
1423.000000	22.134782
1422.000000	22.172550
1421.000000	22.195636
1420.000000	22.218202
1419.000000	22.266938
1418.000000	22.315019
1417.000000	22.362512
1416.000000	22.404983
1415.000000	22.456647
1414.000000	22.515897
1413.000000	22.544898
1412.000000	22.593216
1411.000000	22.649092
1410.000000	22.695256
1409.000000	22.750627
1408.000000	22.805134
1407.000000	22.860536
1406.000000	22.896255
1405.000000	22.938922
1404.000000	22.985816
1403.000000	23.041258
1402.000000	23.087955
1401.000000	23.113577
1400.000000	23.144784
1399.000000	23.189690
1398.000000	23.239650
1397.000000	23.279668
1396.000000	23.316344
1395.000000	23.356427
1394.000000	23.392516
1393.000000	23.417685
1392.000000	23.443196
1391.000000	23.483361
1390.000000	23.514255
1389.000000	23.538606
1388.000000	23.563006
1387.000000	23.578780
1386.000000	23.606713
1385.000000	23.641173
1384.000000	23.652145
1383.000000	23.650137
1382.000000	23.663091
1381.000000	23.689939
1380.000000	23.695205
1379.000000	23.695389
1378.000000	23.715382
1377.000000	23.718214
1376.000000	23.706017
1375.000000	23.695646
1374.000000	23.695321
1373.000000	23.718097
1372.000000	23.725129
1371.000000	23.706494
1370.000000	23.704972
1369.000000	23.705972
1368.000000	23.705814
1367.000000	23.721094
1366.000000	23.732036
1365.000000	23.739100
1364.000000	23.737950
1363.000000	23.736320
1362.000000	23.741334
1361.000000	23.756907
1360.000000	23.786722
1359.000000	23.786199
1358.000000	23.757776
1357.000000	23.753478
1356.000000	23.734004
1355.000000	23.734315
1354.000000	23.724065
1353.000000	23.727473
1352.000000	23.734340
1351.000000	23.701708
1350.000000	23.675918
1349.000000	23.675366
1348.000000	23.671965
1347.000000	23.651286
1346.000000	23.631667
1345.000000	23.646183
1344.000000	23.652691
1343.000000	23.630869
1342.000000	23.630601
1341.000000	23.619436
1340.000000	23.614814
1339.000000	23.608837
1338.000000	23.601613
1337.000000	23.610725
1336.000000	23.628260
1335.000000	23.624234
1334.000000	23.615392
1333.000000	23.613350
1332.000000	23.599412
1331.000000	23.612061
1330.000000	23.629009
1329.000000	23.611574
1328.000000	23.605226
1327.000000	23.591660
1326.000000	23.597364
1325.000000	23.594190
1324.000000	23.568555
1323.000000	23.570958
1322.000000	23.588714
1321.000000	23.600962
1320.000000	23.581312
1319.000000	23.551740
1318.000000	23.517915
1317.000000	23.520826
1316.000000	23.539767
1315.000000	23.533131
1314.000000	23.511499
1313.000000	23.486003
1312.000000	23.470880
1311.000000	23.470747
1310.000000	23.462644
1309.000000	23.451184
1308.000000	23.461010
1307.000000	23.441989
1306.000000	23.433665
1305.000000	23.413470
1304.000000	23.413553
1303.000000	23.428656
1302.000000	23.418122
1301.000000	23.385944
1300.000000	23.381684
1299.000000	23.372407
1298.000000	23.358003
1297.000000	23.353407
1296.000000	23.340287
1295.000000	23.341307
1294.000000	23.352044
1293.000000	23.339876
1292.000000	23.338603
1291.000000	23.339492
1290.000000	23.328859
1289.000000	23.327290
1288.000000	23.324766
1287.000000	23.318693
1286.000000	23.323260
1285.000000	23.270903
1284.000000	23.264174
1283.000000	23.268800
1282.000000	23.272528
1281.000000	23.266085
1280.000000	23.277729
1279.000000	23.269907
1278.000000	23.256624
1277.000000	23.248183
1276.000000	23.248698
1275.000000	23.253432
1274.000000	23.238237
1273.000000	23.234569
1272.000000	23.244467
1271.000000	23.227183
1270.000000	23.212203
1269.000000	23.212616
1268.000000	23.203885
1267.000000	23.193079
1266.000000	23.194261
1265.000000	23.188793
1264.000000	23.179110
1263.000000	23.199977
1262.000000	23.182534
1261.000000	23.180573
1260.000000	23.168047
1259.000000	23.138047
1258.000000	23.150117
1257.000000	23.171686
1256.000000	23.152608
1255.000000	23.126250
1254.000000	23.107693
1253.000000	23.099855
1252.000000	23.110672
1251.000000	23.085754
1250.000000	23.094002
1249.000000	23.073261
1248.000000	23.090362
1247.000000	23.086088
1246.000000	23.063260
1245.000000	23.055996
1244.000000	23.068071
1243.000000	23.060082
1242.000000	23.038168
1241.000000	23.030949
1240.000000	23.018886
1239.000000	23.012387
1238.000000	23.017815
1237.000000	22.994735
1236.000000	22.986854
1235.000000	22.987876
1234.000000	22.974896
1233.000000	22.957345
1232.000000	22.948398
1231.000000	22.957120
1230.000000	22.965137
1229.000000	22.964015
1228.000000	22.925849
1227.000000	22.924457
1226.000000	22.926281
1225.000000	22.909887
1224.000000	22.909420
1223.000000	22.913903
1222.000000	22.918063
1221.000000	22.889584
1220.000000	22.875278
1219.000000	22.867471
1218.000000	22.856312
1217.000000	22.837692
1216.000000	22.831608
1215.000000	22.823460
1214.000000	22.794382
1213.000000	22.796197
1212.000000	22.813499
1211.000000	22.790257
1210.000000	22.751185
1209.000000	22.756042
1208.000000	22.766050
1207.000000	22.768014
1206.000000	22.745262
1205.000000	22.717990
1204.000000	22.681239
1203.000000	22.674522
1202.000000	22.673575
1201.000000	22.647180
1200.000000	22.636080
1199.000000	22.638141
1198.000000	22.620835
1197.000000	22.597658
1196.000000	22.576203
1195.000000	22.570374
1194.000000	22.556606
1193.000000	22.548504
1192.000000	22.534068
1191.000000	22.525253
1190.000000	22.512444
1189.000000	22.467602
1188.000000	22.461034
1187.000000	22.461466
1186.000000	22.448054
1185.000000	22.451147
1184.000000	22.441906
1183.000000	22.432449
1182.000000	22.448653
1181.000000	22.466246
1180.000000	22.461924
1179.000000	22.466366
1178.000000	22.482758
1177.000000	22.488583
1176.000000	22.479810
1175.000000	22.480418
1174.000000	22.493545
1173.000000	22.506643
1172.000000	22.513830
1171.000000	22.510001
1170.000000	22.515341
1169.000000	22.527532
1168.000000	22.525064
1167.000000	22.532131
1166.000000	22.544065
1165.000000	22.549566
1164.000000	22.556946
1163.000000	22.551910
1162.000000	22.550202
1161.000000	22.568120
1160.000000	22.589121
1159.000000	22.598031
1158.000000	22.603984
1157.000000	22.615107
1156.000000	22.606717
1155.000000	22.588185
1154.000000	22.592391
1153.000000	22.604298
1152.000000	22.618414
1151.000000	22.630762
1150.000000	22.638302
1149.000000	22.641012
1148.000000	22.651729
1147.000000	22.657592
1146.000000	22.655336
1145.000000	22.661887
1144.000000	22.673631
1143.000000	22.674333
1142.000000	22.674574
1141.000000	22.659979
1140.000000	22.649285
1139.000000	22.658883
1138.000000	22.674191
1137.000000	22.677713
1136.000000	22.685219
1135.000000	22.693672
1134.000000	22.694035
1133.000000	22.698784
1132.000000	22.690695
1131.000000	22.699023
1130.000000	22.703797
1129.000000	22.690604
1128.000000	22.682258
1127.000000	22.680621
1126.000000	22.686371
1125.000000	22.685060
1124.000000	22.685823
1123.000000	22.690954
1122.000000	22.686655
1121.000000	22.686861
1120.000000	22.684496
1119.000000	22.680813
1118.000000	22.677431
1117.000000	22.671150
1116.000000	22.665953
1115.000000	22.662046
1114.000000	22.652788
1113.000000	22.650776
1112.000000	22.648736
1111.000000	22.642223
1110.000000	22.638253
1109.000000	22.636030
1108.000000	22.628001
1107.000000	22.619246
1106.000000	22.620659
1105.000000	22.625524
1104.000000	22.622895
1103.000000	22.612255
1102.000000	22.589175
1101.000000	22.567157
1100.000000	22.580719
1099.000000	22.584539
1098.000000	22.589342
1097.000000	22.596895
1096.000000	22.586877
1095.000000	22.577938
1094.000000	22.563167
1093.000000	22.553435
1092.000000	22.553084
1091.000000	22.563068
1090.000000	22.572872
1089.000000	22.566172
1088.000000	22.559969
1087.000000	22.559085
1086.000000	22.544910
1085.000000	22.518189
1084.000000	22.522142
1083.000000	22.530443
1082.000000	22.526953
1081.000000	22.536642
1080.000000	22.515397
1079.000000	22.500563
1078.000000	22.495095
1077.000000	22.524213
1076.000000	22.515502
1075.000000	22.514861
1074.000000	22.516615
1073.000000	22.496735
1072.000000	22.492207
1071.000000	22.484206
1070.000000	22.483298
1069.000000	22.491226
1068.000000	22.493343
1067.000000	22.500352
1066.000000	22.499812
1065.000000	22.462428
1064.000000	22.452531
1063.000000	22.451518
1062.000000	22.459677
1061.000000	22.465176
1060.000000	22.460386
1059.000000	22.471578
1058.000000	22.450785
1057.000000	22.439207
1056.000000	22.448030
1055.000000	22.447300
1054.000000	22.452048
1053.000000	22.434333
1052.000000	22.420057
1051.000000	22.411167
1050.000000	22.414101
1049.000000	22.438546
1048.000000	22.424192
1047.000000	22.426389
1046.000000	22.412228
1045.000000	22.413018
1044.000000	22.413165
1043.000000	22.392108
1042.000000	22.384009
1041.000000	22.399359
1040.000000	22.397873
1039.000000	22.411740
1038.000000	22.402680
1037.000000	22.385316
1036.000000	22.392263
1035.000000	22.393096
1034.000000	22.386694
1033.000000	22.388428
1032.000000	22.387104
1031.000000	22.384830
1030.000000	22.368974
1029.000000	22.372930
1028.000000	22.367409
1027.000000	22.373496
1026.000000	22.371499
1025.000000	22.381516
1024.000000	22.370990
1023.000000	22.369307
1022.000000	22.364300
1021.000000	22.363370
1020.000000	22.374591
1019.000000	22.370069
1018.000000	22.378232
1017.000000	22.358836
1016.000000	22.343964
1015.000000	22.357101
1014.000000	22.344581
1013.000000	22.343105
1012.000000	22.356172
1011.000000	22.367492
1010.000000	22.373566
1009.000000	22.362392
1008.000000	22.335963
1007.000000	22.332866
1006.000000	22.352329
1005.000000	22.375962
1004.000000	22.390602
1003.000000	22.355449
1002.000000	22.322828
1001.000000	22.326874
1000.000000	22.349302
999.000000	22.362590
998.000000	22.351183
997.000000	22.332895
996.000000	22.327893
995.000000	22.343896
994.000000	22.353445
993.000000	22.334192
992.000000	22.343854
991.000000	22.336706
990.000000	22.338955
989.000000	22.340761
988.000000	22.340175
987.000000	22.337103
986.000000	22.354056
985.000000	22.365968
984.000000	22.372856
983.000000	22.374366
982.000000	22.376515
981.000000	22.375416
980.000000	22.376789
979.000000	22.371810
978.000000	22.374193
977.000000	22.372236
976.000000	22.373940
975.000000	22.382068
974.000000	22.387308
973.000000	22.371817
972.000000	22.359648
971.000000	22.350767
970.000000	22.348765
969.000000	22.349127
968.000000	22.347738
967.000000	22.341461
966.000000	22.340384
965.000000	22.335438
964.000000	22.321064
963.000000	22.313471
962.000000	22.319478
961.000000	22.319939
960.000000	22.313796
959.000000	22.320326
958.000000	22.327489
957.000000	22.313002
956.000000	22.288714
955.000000	22.279723
954.000000	22.279776
953.000000	22.261878
952.000000	22.267142
951.000000	22.279502
950.000000	22.254637
949.000000	22.252976
948.000000	22.247205
947.000000	22.237795
946.000000	22.233303
945.000000	22.241302
944.000000	22.235647
943.000000	22.210544
942.000000	22.214204
941.000000	22.224572
940.000000	22.225934
939.000000	22.210236
938.000000	22.182268
937.000000	22.163911
936.000000	22.151745
935.000000	22.139283
934.000000	22.149067
933.000000	22.159916
932.000000	22.144206
931.000000	22.115730
930.000000	22.096431
929.000000	22.095705
928.000000	22.087150
927.000000	22.079119
926.000000	22.085600
925.000000	22.063269
924.000000	22.054228
923.000000	22.067576
922.000000	22.054397
921.000000	22.035699
920.000000	22.042822
919.000000	22.014718
918.000000	22.001774
917.000000	21.996618
916.000000	21.992494
915.000000	21.960163
914.000000	21.948885
913.000000	21.989745
912.000000	21.988756
911.000000	21.972993
910.000000	21.966743
909.000000	21.957127
908.000000	21.946174
907.000000	21.928526
906.000000	21.929424
905.000000	21.924019
904.000000	21.921397
903.000000	21.925926
902.000000	21.915273
901.000000	21.902481
900.000000	21.903774
899.000000	21.910216
898.000000	21.859585
897.000000	21.874664
896.000000	21.901903
895.000000	21.865565
894.000000	21.881515
893.000000	21.904779
892.000000	21.862652
891.000000	21.859270
890.000000	21.870511
889.000000	21.832052
888.000000	21.865792
887.000000	21.843074
886.000000	21.809795
885.000000	21.802694
884.000000	21.757562
883.000000	21.784154
882.000000	21.773414
881.000000	21.733067
880.000000	21.764507
879.000000	21.806633
878.000000	21.810303
877.000000	21.709665
876.000000	21.733285
875.000000	21.770737
874.000000	21.762434
873.000000	21.720872
872.000000	21.690037
871.000000	21.726258
870.000000	21.705796
869.000000	21.686042
868.000000	21.668626
867.000000	21.692279
866.000000	21.679593
865.000000	21.616373
864.000000	21.672073
863.000000	21.667524
862.000000	21.611046
861.000000	21.639485
860.000000	21.663571
859.000000	22.463550
858.000000	22.334719
857.000000	22.457935
856.000000	22.444224
855.000000	22.502909
854.000000	22.321922
853.000000	22.273411
852.000000	22.373598
851.000000	22.459569
850.000000	22.409030
849.000000	22.292175
848.000000	22.274696
847.000000	22.291408
846.000000	22.283942
845.000000	22.318693
844.000000	22.170719
843.000000	22.365316
842.000000	22.272312
841.000000	22.152902
840.000000	22.290213
839.000000	22.193207
838.000000	22.218449
837.000000	22.184903
836.000000	22.187896
835.000000	22.160118
834.000000	21.991189
833.000000	22.118812
832.000000	22.013036
831.000000	22.053016
830.000000	22.008043
829.000000	21.998499
828.000000	22.075950
827.000000	21.949045
826.000000	22.032481
825.000000	22.066811
824.000000	21.958873
823.000000	21.983176
822.000000	21.915564
821.000000	21.851980
820.000000	21.903540
819.000000	21.811023
818.000000	21.847517
817.000000	21.839285
816.000000	21.831839
815.000000	21.880780
814.000000	21.784624
813.000000	21.776158
812.000000	21.752139
811.000000	21.683861
810.000000	21.713706
809.000000	21.811507
808.000000	21.827057
807.000000	21.747651
806.000000	21.760306
805.000000	21.707755
804.000000	21.686636
803.000000	21.629752
802.000000	21.673452
801.000000	21.636879
800.000000	21.608427
799.000000	21.625910
798.000000	21.631561
797.000000	21.626876
796.000000	21.583836
795.000000	21.524162
794.000000	21.497254
793.000000	21.521364
792.000000	21.553979
791.000000	21.493047
790.000000	21.448717
789.000000	21.462138
788.000000	21.454437
787.000000	21.437706
786.000000	21.377480
785.000000	21.338439
784.000000	21.350709
783.000000	21.368189
782.000000	21.330293
781.000000	21.318930
780.000000	21.325210
779.000000	21.275498
778.000000	21.216401
777.000000	21.209601
776.000000	21.215120
775.000000	21.231026
774.000000	21.139089
773.000000	21.090079
772.000000	21.081219
771.000000	21.098066
770.000000	21.061481
769.000000	21.085072
768.000000	21.081163
767.000000	21.067461
766.000000	20.992942
765.000000	20.939448
764.000000	20.942421
763.000000	20.946095
762.000000	20.933481
761.000000	20.907880
760.000000	20.905012
759.000000	20.886601
758.000000	20.846269
757.000000	20.815784
756.000000	20.800261
755.000000	20.816691
754.000000	20.753112
753.000000	20.717276
752.000000	20.728826
751.000000	20.687250
750.000000	20.666366
749.000000	20.620594
748.000000	20.585723
747.000000	20.601285
746.000000	20.572538
745.000000	20.556493
744.000000	20.537462
743.000000	20.516908
742.000000	20.501931
741.000000	20.485295
740.000000	20.449332
739.000000	20.398651
738.000000	20.358226
737.000000	20.370352
736.000000	20.326139
735.000000	20.309051
734.000000	20.306574
733.000000	20.255506
732.000000	20.221119
731.000000	20.194605
730.000000	20.185078
729.000000	20.162944
728.000000	20.134661
727.000000	20.091260
726.000000	20.082058
725.000000	20.065712
724.000000	20.016672
723.000000	19.986235
722.000000	19.967408
721.000000	19.938006
720.000000	19.918675
719.000000	19.897146
718.000000	19.860749
717.000000	19.836648
716.000000	19.808717
715.000000	19.782479
714.000000	19.744547
713.000000	19.722647
712.000000	19.686287
711.000000	19.663024
710.000000	19.652795
709.000000	19.628750
708.000000	19.585940
707.000000	19.554416
706.000000	19.527758
705.000000	19.491539
704.000000	19.459389
703.000000	19.432908
702.000000	19.398631
701.000000	19.359394
700.000000	19.334962
699.000000	19.320755
698.000000	19.292385
697.000000	19.275548
696.000000	19.238812
695.000000	19.195505
694.000000	19.156148
693.000000	19.124259
692.000000	19.111730
691.000000	19.087685
690.000000	19.026511
689.000000	18.940875
688.000000	18.906324
687.000000	18.882945
686.000000	18.866822
685.000000	18.827724
684.000000	18.787034
683.000000	18.754399
682.000000	18.707576
681.000000	18.669329
680.000000	18.640161
679.000000	18.623393
678.000000	18.603349
677.000000	18.541342
676.000000	18.502293
675.000000	18.488036
674.000000	18.434815
673.000000	18.392320
672.000000	18.379869
671.000000	18.324789
670.000000	18.278013
669.000000	18.246890
668.000000	18.239048
667.000000	18.213265
666.000000	18.176626
665.000000	18.111171
664.000000	18.080834
663.000000	18.047187
662.000000	17.997905
661.000000	17.970516
660.000000	17.945794
659.000000	17.898624
658.000000	17.879809
657.000000	17.829604
656.000000	17.782944
655.000000	17.738983
654.000000	17.710803
653.000000	17.679534
652.000000	17.655173
651.000000	17.605839
650.000000	17.558467
649.000000	17.514511
648.000000	17.489788
647.000000	17.455682
646.000000	17.427247
645.000000	17.375691
644.000000	17.333127
643.000000	17.321071
642.000000	17.261977
641.000000	17.224402
640.000000	17.190978
639.000000	17.149139
638.000000	17.093636
637.000000	17.044308
636.000000	17.003369
635.000000	16.963320
634.000000	16.934532
633.000000	16.892008
632.000000	16.867262
631.000000	16.810944
630.000000	16.795834
629.000000	16.740837
628.000000	16.694255
627.000000	16.640479
626.000000	16.611703
625.000000	16.577603
624.000000	16.524152
623.000000	16.484024
622.000000	16.456393
621.000000	16.391529
620.000000	16.350607
619.000000	16.316063
618.000000	16.275109
617.000000	16.226900
616.000000	16.197487
615.000000	16.146756
614.000000	16.085430
613.000000	16.062969
612.000000	16.029977
611.000000	15.996631
610.000000	15.914837
609.000000	15.886145
608.000000	15.850157
607.000000	15.820830
606.000000	15.753762
605.000000	15.713432
604.000000	15.671875
603.000000	15.610180
602.000000	15.554705
601.000000	15.543080
600.000000	15.487084
599.000000	15.453556
598.000000	15.391804
597.000000	15.353147
596.000000	15.303158
595.000000	15.251007
594.000000	15.205666
593.000000	15.162577
592.000000	15.116656
591.000000	15.083897
590.000000	15.036578
589.000000	14.982911
588.000000	14.934907
587.000000	14.898721
586.000000	14.841345
585.000000	14.799149
584.000000	14.736220
583.000000	14.712877
582.000000	14.667402
581.000000	14.594532
580.000000	14.554467
579.000000	14.513347
578.000000	14.465352
577.000000	14.421052
576.000000	14.364846
575.000000	14.305559
574.000000	14.269242
573.000000	14.213418
572.000000	14.171455
571.000000	14.122747
570.000000	14.059996
569.000000	14.037779
568.000000	13.972004
567.000000	13.910820
566.000000	13.838455
565.000000	13.817661
564.000000	13.771824
563.000000	13.716411
562.000000	13.658596
561.000000	13.649523
560.000000	13.596533
559.000000	13.563265
558.000000	13.518420
557.000000	13.463603
556.000000	13.403396
555.000000	13.353521
554.000000	13.287852
553.000000	13.252119
552.000000	13.188974
551.000000	13.135703
550.000000	13.074731
549.000000	13.024366
548.000000	12.968732
547.000000	12.920704
546.000000	12.854854
545.000000	12.805900
544.000000	12.742807
543.000000	12.697873
542.000000	12.632645
541.000000	12.578265
540.000000	12.525201
539.000000	12.469182
538.000000	12.422637
537.000000	12.359066
536.000000	12.292874
535.000000	12.233776
534.000000	12.173897
533.000000	12.106915
532.000000	12.061110
531.000000	12.000988
530.000000	11.926415
529.000000	11.865654
528.000000	11.808992
527.000000	11.762755
526.000000	11.700320
525.000000	11.637866
524.000000	11.573681
523.000000	11.499545
522.000000	11.443981
521.000000	11.376175
520.000000	11.325149
519.000000	11.268032
518.000000	11.199983
517.000000	11.150536
516.000000	11.090960
515.000000	11.031940
514.000000	10.969871
513.000000	10.902881
512.000000	10.840590
511.000000	10.794185
510.000000	10.738909
509.000000	10.675853
508.000000	10.616043
507.000000	10.554168
506.000000	10.495640
505.000000	10.447596
504.000000	10.383348
503.000000	10.331515
502.000000	10.277922
501.000000	10.204357
500.000000	10.136330
499.000000	10.094319
498.000000	10.035932
497.000000	9.966776
496.000000	9.901127
495.000000	9.839166
494.000000	9.788283
493.000000	9.717011
492.000000	9.657115
491.000000	9.604848
490.000000	9.535603
489.000000	9.473565
488.000000	9.413787
487.000000	9.349826
486.000000	9.293776
485.000000	9.239600
484.000000	9.181238
483.000000	9.130107
482.000000	9.074966
481.000000	9.011433
480.000000	8.941733
479.000000	8.862384
478.000000	8.794436
477.000000	8.732045
476.000000	8.664660
475.000000	8.605747
474.000000	8.546201
473.000000	8.486329
472.000000	8.424574
471.000000	8.356052
470.000000	8.289668
469.000000	8.224812
468.000000	8.161470
467.000000	8.105321
466.000000	8.038987
465.000000	7.970876
464.000000	7.904171
463.000000	7.845320
462.000000	7.782646
461.000000	7.713591
460.000000	7.645469
459.000000	7.577370
458.000000	7.504417
457.000000	7.435160
456.000000	7.368079
455.000000	7.294014
454.000000	7.216732
453.000000	7.149920
452.000000	7.085697
451.000000	7.005513
450.000000	6.942950
449.000000	6.876278
448.000000	6.790030
447.000000	6.716897
446.000000	6.647811
445.000000	6.578315
444.000000	6.520524
443.000000	6.445528
442.000000	6.377591
441.000000	6.307817
440.000000	6.230609
439.000000	6.160097
438.000000	6.088011
437.000000	6.013318
436.000000	5.944579
435.000000	5.874305
434.000000	5.794170
433.000000	5.719352
432.000000	5.656929
431.000000	5.585600
430.000000	5.516367
429.000000	5.433659
428.000000	5.350859
427.000000	5.289340
426.000000	5.229629
425.000000	5.158658
424.000000	5.073174
423.000000	4.999167
422.000000	4.924898
421.000000	4.858959
420.000000	4.782315
419.000000	4.716921
418.000000	4.646684
417.000000	4.570297
416.000000	4.495120
415.000000	4.423440
414.000000	4.362318
413.000000	4.291604
412.000000	4.219509
411.000000	4.148060
410.000000	4.075620
409.000000	4.002383
408.000000	3.928970
407.000000	3.864187
406.000000	3.798555
405.000000	3.735774
404.000000	3.673422
403.000000	3.603054
402.000000	3.536307
401.000000	3.468528
400.000000	3.395708
399.000000	3.324035
398.000000	3.262137
397.000000	3.201694
396.000000	3.140180
395.000000	3.069416
394.000000	3.013064
393.000000	2.949906
392.000000	2.891445
391.000000	2.825018
390.000000	2.763076
389.000000	2.704112
388.000000	2.649437
387.000000	2.587520
386.000000	2.526674
385.000000	2.476086
384.000000	2.425133
383.000000	2.371761
382.000000	2.316216
381.000000	2.271038
380.000000	2.216698
379.000000	2.171284
378.000000	2.114940
377.000000	2.064464
376.000000	2.019149
375.000000	1.984344
374.000000	1.943048
373.000000	1.894038
372.000000	1.846372
371.000000	1.790552
370.000000	1.763859
369.000000	1.719741
368.000000	1.687778
367.000000	1.648546
366.000000	1.611305
365.000000	1.575165
364.000000	1.554458
363.000000	1.505632
362.000000	1.479744
361.000000	1.434900
360.000000	1.434129
359.000000	1.392510
358.000000	1.373559
357.000000	1.352640
356.000000	1.324795
355.000000	1.289088
354.000000	1.271689
353.000000	1.232651
352.000000	1.219601
351.000000	1.199256
350.000000	1.185454
349.000000	1.190901
348.000000	1.146497
347.000000	1.124400
346.000000	1.108140
345.000000	1.093705
344.000000	1.094175
343.000000	1.082805
342.000000	1.049368
341.000000	1.035594
340.000000	1.049556
339.000000	1.022629
338.000000	0.993368
337.000000	1.013941
336.000000	0.990887
335.000000	0.972983
334.000000	0.968873
333.000000	0.952572
332.000000	0.928190
331.000000	0.944016
330.000000	0.947900
329.000000	0.921465
328.000000	0.916690
327.000000	0.900712
326.000000	0.909468
325.000000	0.902763
324.000000	0.892327
323.000000	0.889388
322.000000	0.882371
321.000000	0.883169
320.000000	0.856181
319.000000	0.867985
318.000000	0.940114
317.000000	0.957444
316.000000	0.957368
315.000000	0.952300
314.000000	0.947429
313.000000	0.944266
312.000000	0.960044
311.000000	0.945557
310.000000	0.942772
309.000000	0.940155
308.000000	0.942268
307.000000	0.936078
306.000000	0.935855
305.000000	0.943508
304.000000	0.943374
303.000000	0.937848
302.000000	0.948799
301.000000	0.931805
300.000000	0.925134
299.000000	0.940390
298.000000	0.929610
297.000000	0.930601
296.000000	0.924160
295.000000	0.919518
294.000000	0.934514
293.000000	0.924595
292.000000	0.918960
291.000000	0.928660
290.000000	0.927280
289.000000	0.933563
288.000000	0.930255
287.000000	0.935186
286.000000	0.929156
285.000000	0.933364
284.000000	0.926151
283.000000	0.939132
282.000000	0.950284
281.000000	0.939557
280.000000	0.953900
279.000000	0.964642
278.000000	0.973389
277.000000	0.959930
276.000000	0.966041
275.000000	0.966070
274.000000	0.954784
273.000000	0.951779
272.000000	0.975196
271.000000	0.977237
270.000000	0.983149
269.000000	0.978008
268.000000	0.989853
267.000000	0.994191
266.000000	0.997752
265.000000	1.025712
264.000000	1.031748
263.000000	1.021084
262.000000	1.031275
261.000000	1.024102
260.000000	1.043837
259.000000	1.050603
258.000000	1.057351
257.000000	1.061943
256.000000	1.069420
255.000000	1.073023
254.000000	1.082060
253.000000	1.081646
252.000000	1.086538
251.000000	1.082330
250.000000	1.088044
249.000000	1.097856
248.000000	1.096736
247.000000	1.099637
246.000000	1.097051
245.000000	1.104698
244.000000	1.094882
243.000000	1.096546
242.000000	1.092973
241.000000	1.088667
240.000000	1.074415
239.000000	1.075594
238.000000	1.077421
237.000000	1.058610
236.000000	1.042562
235.000000	1.034379
234.000000	1.026046
233.000000	1.007662
232.000000	0.998172
231.000000	1.004088
230.000000	0.992867
229.000000	0.980684
228.000000	0.972691
227.000000	0.945731
226.000000	0.918551
225.000000	0.920428
224.000000	0.901687
223.000000	0.903187
222.000000	0.930178
221.000000	0.906475
220.000000	0.891029
219.000000	0.890663
218.000000	0.881404
217.000000	0.856033
216.000000	0.866391
215.000000	0.888319
214.000000	0.879403
213.000000	0.891743
212.000000	0.889014
211.000000	0.866107
210.000000	0.862785
209.000000	0.876253
208.000000	0.863754
207.000000	0.863925
206.000000	0.881305
205.000000	0.885243
204.000000	0.890852
203.000000	0.869401
202.000000	0.871370
201.000000	0.881532
200.000000	0.846643
