PE UV       SUBTECH     SPECTRUM    ASCII       PEDS        4.00        
   -1
S_aborted_grain.Sample.asc
23/09/07
16:21:58.00
23/09/07
16:21:58.00
Administrator

250.000000
1
Lambda 750
750N8071901
PerkinElmer UV WinLab 6.0.4.0738 / 1.61.00 Lambda 900

0
0
3350/servo 860.8/2
0
0
UV/VIS
1
1
1
CommonBeamDepol,150mm sphere / downward view
0
0
0
0
Program
Program
3350/servo 860.8/2
3350/0.2 860.8/0.2
3350/0.2 860.8/0.2
0
1
 
 
 
0
 
860.8
319.2
860.8
Front
100
on
 
 
0
0
0
 
0
 
 
 
0
 
 
0
0
0
0
0
 
 
 
 
0
0


0
0
#HDR
-1
-1
#GR
nm
%R
1.0
0.0
2500.000000
-10.000000
226
8
38.231544
1.221846
#DATA
2500.000000	6.590797
2490.000000	7.085207
2480.000000	8.866972
2470.000000	8.280569
2460.000000	6.841505
2450.000000	7.786855
2440.000000	8.383061
2430.000000	8.904207
2420.000000	7.769570
2410.000000	6.553920
2400.000000	9.685018
2390.000000	6.661970
2380.000000	8.902042
2370.000000	8.433483
2360.000000	9.344039
2350.000000	9.563882
2340.000000	6.806424
2330.000000	7.929546
2320.000000	8.279687
2310.000000	9.113288
2300.000000	8.390645
2290.000000	9.368154
2280.000000	10.223273
2270.000000	10.326988
2260.000000	10.848462
2250.000000	12.258373
2240.000000	12.457485
2230.000000	11.803031
2220.000000	12.649474
2210.000000	11.622973
2200.000000	11.684365
2190.000000	11.694046
2180.000000	12.725581
2170.000000	13.016803
2160.000000	13.244581
2150.000000	13.706233
2140.000000	13.617262
2130.000000	13.819095
2120.000000	14.266950
2110.000000	14.111559
2100.000000	13.664178
2090.000000	13.521240
2080.000000	12.893693
2070.000000	12.366952
2060.000000	12.212731
2050.000000	12.198010
2040.000000	12.749679
2030.000000	12.767366
2020.000000	12.319344
2010.000000	11.996356
2000.000000	11.522084
1990.000000	11.232410
1980.000000	10.371870
1970.000000	10.344046
1960.000000	10.121600
1950.000000	10.570479
1940.000000	10.968901
1930.000000	12.631376
1920.000000	14.410392
1910.000000	17.056016
1900.000000	19.487720
1890.000000	21.449901
1880.000000	22.825251
1870.000000	23.333260
1860.000000	23.235084
1850.000000	23.138468
1840.000000	22.955186
1830.000000	22.836317
1820.000000	22.629164
1810.000000	22.511844
1800.000000	22.282193
1790.000000	21.976372
1780.000000	21.694825
1770.000000	21.588721
1760.000000	21.223430
1750.000000	20.742103
1740.000000	20.814291
1730.000000	21.669453
1720.000000	22.427370
1710.000000	23.030427
1700.000000	23.769260
1690.000000	24.948383
1680.000000	25.636420
1670.000000	26.056355
1660.000000	26.287499
1650.000000	26.101547
1640.000000	25.971017
1630.000000	25.614036
1620.000000	25.329281
1610.000000	24.899299
1600.000000	24.632875
1590.000000	24.389107
1580.000000	24.154117
1570.000000	23.977208
1560.000000	23.751454
1550.000000	23.326081
1540.000000	22.921846
1530.000000	22.626745
1520.000000	22.522956
1510.000000	22.449863
1500.000000	22.466487
1490.000000	22.459708
1480.000000	22.677634
1470.000000	22.833128
1460.000000	23.246425
1450.000000	23.854604
1440.000000	24.754769
1430.000000	25.921929
1420.000000	27.487368
1410.000000	29.022751
1400.000000	30.327915
1390.000000	31.300116
1380.000000	31.787532
1370.000000	32.376651
1360.000000	32.905332
1350.000000	33.365760
1340.000000	33.551132
1330.000000	33.762877
1320.000000	34.129825
1310.000000	34.465232
1300.000000	34.553958
1290.000000	34.453477
1280.000000	34.469290
1270.000000	34.429584
1260.000000	34.361202
1250.000000	34.124537
1240.000000	33.948282
1230.000000	33.707849
1220.000000	33.488994
1210.000000	33.355435
1200.000000	33.480448
1190.000000	33.868163
1180.000000	34.375719
1170.000000	34.999892
1160.000000	35.438984
1150.000000	35.954118
1140.000000	36.254100
1130.000000	36.312642
1120.000000	36.502213
1110.000000	36.516747
1100.000000	36.515549
1090.000000	36.444121
1080.000000	36.497147
1070.000000	36.442899
1060.000000	36.540094
1050.000000	36.576152
1040.000000	36.412583
1030.000000	36.459792
1020.000000	36.679790
1010.000000	36.868358
1000.000000	36.951464
990.000000	36.994615
980.000000	37.130153
970.000000	37.283992
960.000000	37.389391
950.000000	37.515252
940.000000	37.566860
930.000000	37.601858
920.000000	37.732105
910.000000	37.750503
900.000000	37.951264
890.000000	37.675670
880.000000	38.157616
870.000000	38.231544
860.000000	37.940778
850.000000	36.891464
840.000000	36.977913
830.000000	37.064986
820.000000	37.296491
810.000000	37.302403
800.000000	37.054311
790.000000	37.024263
780.000000	37.065975
770.000000	36.989731
760.000000	36.867945
750.000000	36.800649
740.000000	36.728791
730.000000	36.618017
720.000000	36.526204
710.000000	36.359367
700.000000	36.231156
690.000000	36.019626
680.000000	35.884274
670.000000	35.609494
660.000000	35.302934
650.000000	34.978323
640.000000	34.595262
630.000000	34.328837
620.000000	33.859238
610.000000	33.538313
600.000000	33.195321
590.000000	32.909436
580.000000	32.576514
570.000000	32.224944
560.000000	31.892824
550.000000	31.524318
540.000000	31.055205
530.000000	30.600395
520.000000	30.115366
510.000000	29.548194
500.000000	29.010505
490.000000	28.188746
480.000000	27.355087
470.000000	26.438621
460.000000	25.353536
450.000000	24.197975
440.000000	22.847764
430.000000	21.255859
420.000000	19.667028
410.000000	18.384074
400.000000	17.609400
390.000000	16.491794
380.000000	15.420251
370.000000	14.201382
360.000000	12.753264
350.000000	10.910412
340.000000	9.745701
330.000000	8.125323
320.000000	7.087329
310.000000	6.029309
300.000000	4.132895
290.000000	2.207586
280.000000	1.443956
270.000000	1.221846
260.000000	1.293949
250.000000	1.348877
