PE UV       SUBTECH     SPECTRUM    ASCII       PEDS        4.00        
   -1
Empty Chamber.Sample.asc
18/03/01
08:50:07.00
18/03/01
08:50:07.00
Administrator

200.000000
1
Lambda 750
750N8071901
PerkinElmer UV WinLab 6.0.4.0738 / 1.61.00 Lambda 900

0
0
3350/servo 860.8/2
0
0
UV/VIS
1
1
1
CommonBeamDepol,150mm sphere / downward view
0
0
0
0
Program
Program
3350/servo 860.8/2
3350/0.2 860.8/0.2
3350/0.2 860.8/0.2
0
1
 
 
 
0
 
860.8
319.2
860.8
Front
100
on
 
 
0
0
0
 
0
 
 
 
0
 
 
0
0
0
0
0
 
 
 
 
0
0


0
0
#HDR
-1
-1
#GR
nm
%T
1.0
0.0
2350.000000
-1.000000
2151
8
100.703768
99.403798
#DATA
2350.000000	99.868882
2349.000000	99.773127
2348.000000	100.226316
2347.000000	100.191064
2346.000000	99.834385
2345.000000	100.050800
2344.000000	99.872981
2343.000000	99.786252
2342.000000	100.050225
2341.000000	99.871421
2340.000000	100.060267
2339.000000	100.161125
2338.000000	99.766891
2337.000000	99.956232
2336.000000	99.767407
2335.000000	99.637596
2334.000000	99.868990
2333.000000	99.819378
2332.000000	100.245908
2331.000000	100.082325
2330.000000	100.006581
2329.000000	99.627206
2328.000000	100.135232
2327.000000	100.365165
2326.000000	100.362776
2325.000000	100.272914
2324.000000	99.943719
2323.000000	99.739324
2322.000000	99.809115
2321.000000	99.750514
2320.000000	100.115214
2319.000000	100.114037
2318.000000	100.287341
2317.000000	99.953173
2316.000000	99.901167
2315.000000	100.372924
2314.000000	100.341992
2313.000000	100.203724
2312.000000	100.226929
2311.000000	99.957464
2310.000000	99.979412
2309.000000	100.124771
2308.000000	99.980546
2307.000000	100.012564
2306.000000	99.915194
2305.000000	100.024205
2304.000000	99.835228
2303.000000	100.261868
2302.000000	100.037084
2301.000000	100.014471
2300.000000	100.032518
2299.000000	100.049147
2298.000000	99.866838
2297.000000	99.899476
2296.000000	100.050240
2295.000000	99.989158
2294.000000	100.013766
2293.000000	99.975196
2292.000000	99.825305
2291.000000	99.786329
2290.000000	99.810640
2289.000000	100.124819
2288.000000	100.097964
2287.000000	100.180011
2286.000000	100.179852
2285.000000	100.108508
2284.000000	99.990483
2283.000000	99.958573
2282.000000	100.057253
2281.000000	100.006071
2280.000000	100.039679
2279.000000	100.055226
2278.000000	100.110550
2277.000000	99.822001
2276.000000	99.952854
2275.000000	99.981065
2274.000000	99.837812
2273.000000	100.080756
2272.000000	100.040283
2271.000000	99.892570
2270.000000	99.862328
2269.000000	99.951601
2268.000000	99.963040
2267.000000	99.939567
2266.000000	99.910137
2265.000000	100.055189
2264.000000	100.156644
2263.000000	100.157789
2262.000000	99.969827
2261.000000	99.811818
2260.000000	99.805956
2259.000000	99.996457
2258.000000	100.149172
2257.000000	100.124096
2256.000000	99.965005
2255.000000	99.992510
2254.000000	100.025234
2253.000000	99.944073
2252.000000	100.109115
2251.000000	100.148087
2250.000000	99.951368
2249.000000	99.972955
2248.000000	99.964962
2247.000000	99.947858
2246.000000	100.033320
2245.000000	99.932855
2244.000000	99.823810
2243.000000	99.990787
2242.000000	100.224698
2241.000000	100.091112
2240.000000	100.086799
2239.000000	99.994632
2238.000000	99.948874
2237.000000	100.061043
2236.000000	100.068821
2235.000000	99.942488
2234.000000	99.911752
2233.000000	99.836003
2232.000000	99.827747
2231.000000	99.908217
2230.000000	99.909207
2229.000000	99.960318
2228.000000	100.054570
2227.000000	99.992913
2226.000000	99.949955
2225.000000	100.066377
2224.000000	100.130486
2223.000000	100.120170
2222.000000	100.046114
2221.000000	99.891955
2220.000000	99.968584
2219.000000	99.979020
2218.000000	99.976814
2217.000000	99.991398
2216.000000	100.005264
2215.000000	99.932328
2214.000000	99.913744
2213.000000	100.023897
2212.000000	100.011034
2211.000000	100.012255
2210.000000	100.133827
2209.000000	100.064977
2208.000000	100.042773
2207.000000	100.032323
2206.000000	99.929425
2205.000000	99.948528
2204.000000	99.956682
2203.000000	99.945371
2202.000000	100.016883
2201.000000	99.930517
2200.000000	99.851455
2199.000000	99.960886
2198.000000	100.230872
2197.000000	99.916663
2196.000000	99.774738
2195.000000	99.950022
2194.000000	99.966697
2193.000000	99.915489
2192.000000	100.076804
2191.000000	100.118870
2190.000000	100.174155
2189.000000	100.232553
2188.000000	99.999596
2187.000000	99.996157
2186.000000	100.114795
2185.000000	99.994043
2184.000000	99.981817
2183.000000	100.169829
2182.000000	99.824834
2181.000000	99.828550
2180.000000	100.005661
2179.000000	99.902024
2178.000000	100.135327
2177.000000	100.092043
2176.000000	100.052846
2175.000000	100.042529
2174.000000	99.923564
2173.000000	100.010796
2172.000000	100.009281
2171.000000	100.114463
2170.000000	100.039466
2169.000000	99.908759
2168.000000	100.046914
2167.000000	100.049319
2166.000000	99.983966
2165.000000	100.152242
2164.000000	100.007766
2163.000000	100.020789
2162.000000	100.074246
2161.000000	100.133270
2160.000000	99.851704
2159.000000	100.021974
2158.000000	100.309975
2157.000000	100.017339
2156.000000	100.057465
2155.000000	100.085005
2154.000000	100.078838
2153.000000	100.009985
2152.000000	100.090918
2151.000000	100.073227
2150.000000	99.985991
2149.000000	99.934706
2148.000000	99.812554
2147.000000	100.115146
2146.000000	100.068870
2145.000000	99.938231
2144.000000	100.104802
2143.000000	99.856035
2142.000000	99.666786
2141.000000	99.935844
2140.000000	99.913439
2139.000000	99.887158
2138.000000	100.031049
2137.000000	100.050614
2136.000000	100.252379
2135.000000	100.288960
2134.000000	99.834853
2133.000000	100.022653
2132.000000	99.836704
2131.000000	100.004130
2130.000000	100.053835
2129.000000	99.869509
2128.000000	99.986087
2127.000000	99.971587
2126.000000	99.688789
2125.000000	99.905217
2124.000000	99.918110
2123.000000	99.924644
2122.000000	99.883519
2121.000000	100.070686
2120.000000	100.017349
2119.000000	99.936011
2118.000000	99.963276
2117.000000	99.979737
2116.000000	99.978934
2115.000000	100.256997
2114.000000	99.890128
2113.000000	100.047947
2112.000000	100.006864
2111.000000	99.908663
2110.000000	100.007775
2109.000000	100.027659
2108.000000	100.166624
2107.000000	99.888602
2106.000000	99.942768
2105.000000	99.834850
2104.000000	99.786063
2103.000000	99.986871
2102.000000	100.034832
2101.000000	99.914192
2100.000000	100.147599
2099.000000	100.115841
2098.000000	99.913872
2097.000000	100.069482
2096.000000	99.916602
2095.000000	100.135046
2094.000000	100.000808
2093.000000	99.988785
2092.000000	99.976242
2091.000000	100.094671
2090.000000	99.900686
2089.000000	99.921402
2088.000000	100.026576
2087.000000	100.000505
2086.000000	100.077508
2085.000000	100.097819
2084.000000	99.973620
2083.000000	100.043580
2082.000000	100.028511
2081.000000	99.894208
2080.000000	99.983216
2079.000000	100.067248
2078.000000	100.092565
2077.000000	99.942354
2076.000000	99.998281
2075.000000	100.056833
2074.000000	99.941898
2073.000000	100.014757
2072.000000	99.910061
2071.000000	99.939184
2070.000000	100.011728
2069.000000	99.976741
2068.000000	100.067295
2067.000000	100.011640
2066.000000	99.947612
2065.000000	100.015072
2064.000000	100.071616
2063.000000	99.949748
2062.000000	99.988774
2061.000000	100.042790
2060.000000	100.010825
2059.000000	99.886001
2058.000000	99.925788
2057.000000	99.920116
2056.000000	99.972081
2055.000000	100.064784
2054.000000	100.029442
2053.000000	99.998178
2052.000000	99.949305
2051.000000	99.913838
2050.000000	100.011941
2049.000000	100.105397
2048.000000	100.042820
2047.000000	100.016803
2046.000000	100.012551
2045.000000	99.956988
2044.000000	99.938077
2043.000000	100.056173
2042.000000	100.046951
2041.000000	100.047868
2040.000000	100.098859
2039.000000	100.030277
2038.000000	100.006481
2037.000000	100.045899
2036.000000	100.021278
2035.000000	99.959800
2034.000000	99.972761
2033.000000	100.011144
2032.000000	99.979031
2031.000000	99.956748
2030.000000	99.973054
2029.000000	99.939852
2028.000000	99.954833
2027.000000	99.983691
2026.000000	100.004661
2025.000000	99.974871
2024.000000	99.988346
2023.000000	100.035583
2022.000000	100.033859
2021.000000	99.995336
2020.000000	99.994219
2019.000000	100.004259
2018.000000	99.974147
2017.000000	100.000913
2016.000000	99.981743
2015.000000	99.971906
2014.000000	99.980936
2013.000000	99.992800
2012.000000	100.003448
2011.000000	99.970287
2010.000000	99.970888
2009.000000	100.011362
2008.000000	100.024858
2007.000000	100.030132
2006.000000	100.044335
2005.000000	100.026176
2004.000000	100.055516
2003.000000	100.010860
2002.000000	99.990460
2001.000000	99.967828
2000.000000	99.927248
1999.000000	99.967826
1998.000000	99.956361
1997.000000	99.945202
1996.000000	99.991473
1995.000000	100.020917
1994.000000	99.982637
1993.000000	99.965680
1992.000000	99.972591
1991.000000	100.009748
1990.000000	100.029761
1989.000000	100.000000
1988.000000	100.027021
1987.000000	100.046534
1986.000000	100.031692
1985.000000	99.966085
1984.000000	99.956343
1983.000000	99.997969
1982.000000	99.999492
1981.000000	100.026011
1980.000000	99.985474
1979.000000	100.039729
1978.000000	100.032208
1977.000000	99.998680
1976.000000	99.982526
1975.000000	100.010668
1974.000000	99.985576
1973.000000	99.993803
1972.000000	100.025398
1971.000000	99.997258
1970.000000	99.978067
1969.000000	99.955733
1968.000000	99.947407
1967.000000	99.983651
1966.000000	99.991876
1965.000000	99.957662
1964.000000	99.984867
1963.000000	99.984061
1962.000000	99.982028
1961.000000	100.037376
1960.000000	100.068573
1959.000000	100.026919
1958.000000	99.987306
1957.000000	100.012595
1956.000000	99.981113
1955.000000	100.043982
1954.000000	100.032481
1953.000000	99.982546
1952.000000	99.975746
1951.000000	99.969448
1950.000000	99.945100
1949.000000	99.949471
1948.000000	99.974621
1947.000000	99.981334
1946.000000	99.947761
1945.000000	99.941541
1944.000000	100.019085
1943.000000	100.020401
1942.000000	99.989548
1941.000000	99.978080
1940.000000	99.953655
1939.000000	99.956381
1938.000000	99.981947
1937.000000	100.028619
1936.000000	100.089082
1935.000000	99.997059
1934.000000	100.063798
1933.000000	100.071733
1932.000000	99.980535
1931.000000	100.035390
1930.000000	100.096180
1929.000000	100.055083
1928.000000	99.996148
1927.000000	100.067562
1926.000000	99.969581
1925.000000	100.011868
1924.000000	99.989865
1923.000000	99.903131
1922.000000	99.881930
1921.000000	99.987527
1920.000000	99.866993
1919.000000	100.006086
1918.000000	100.016844
1917.000000	99.930868
1916.000000	100.045566
1915.000000	100.004869
1914.000000	100.074879
1913.000000	99.999899
1912.000000	99.969774
1911.000000	99.984379
1910.000000	99.999087
1909.000000	99.879365
1908.000000	100.055099
1907.000000	99.964090
1906.000000	99.969967
1905.000000	100.006695
1904.000000	99.951313
1903.000000	100.009841
1902.000000	99.925849
1901.000000	99.969969
1900.000000	99.999899
1899.000000	99.924151
1898.000000	99.994927
1897.000000	99.978490
1896.000000	100.023753
1895.000000	100.017766
1894.000000	100.040207
1893.000000	100.015528
1892.000000	99.975030
1891.000000	99.983255
1890.000000	100.037759
1889.000000	100.021106
1888.000000	99.976967
1887.000000	99.982449
1886.000000	100.004973
1885.000000	99.939758
1884.000000	99.984894
1883.000000	100.015416
1882.000000	99.950426
1881.000000	100.001622
1880.000000	99.951852
1879.000000	99.991685
1878.000000	100.022504
1877.000000	100.062680
1876.000000	100.062255
1875.000000	100.017833
1874.000000	100.055546
1873.000000	100.017840
1872.000000	99.932137
1871.000000	99.943076
1870.000000	99.988448
1869.000000	99.962411
1868.000000	99.994122
1867.000000	99.938183
1866.000000	99.990270
1865.000000	99.995034
1864.000000	99.982063
1863.000000	100.043088
1862.000000	100.004765
1861.000000	99.996958
1860.000000	100.023116
1859.000000	100.002129
1858.000000	99.985098
1857.000000	99.958739
1856.000000	99.969990
1855.000000	100.020380
1854.000000	100.000608
1853.000000	99.984797
1852.000000	99.963622
1851.000000	100.000000
1850.000000	100.047163
1849.000000	100.018450
1848.000000	100.012264
1847.000000	100.005170
1846.000000	99.995641
1845.000000	99.967365
1844.000000	99.970001
1843.000000	99.970404
1842.000000	99.978820
1841.000000	99.990068
1840.000000	99.983174
1839.000000	100.026055
1838.000000	100.049695
1837.000000	100.013691
1836.000000	100.005883
1835.000000	100.023125
1834.000000	100.001521
1833.000000	99.996450
1832.000000	100.000812
1831.000000	100.007913
1830.000000	100.035713
1829.000000	100.023029
1828.000000	99.996145
1827.000000	99.985896
1826.000000	99.987215
1825.000000	99.988534
1824.000000	99.996955
1823.000000	99.999797
1822.000000	100.008322
1821.000000	99.988734
1820.000000	99.984572
1819.000000	99.988733
1818.000000	99.974726
1817.000000	99.996548
1816.000000	100.009951
1815.000000	100.026198
1814.000000	100.007616
1813.000000	99.989643
1812.000000	99.985786
1811.000000	99.960712
1810.000000	100.006804
1809.000000	100.034536
1808.000000	100.025087
1807.000000	100.012187
1806.000000	99.998781
1805.000000	99.995532
1804.000000	99.989946
1803.000000	100.000711
1802.000000	100.019911
1801.000000	100.011580
1800.000000	100.017778
1799.000000	99.993398
1798.000000	99.982025
1797.000000	99.987000
1796.000000	99.968720
1795.000000	100.028137
1794.000000	100.049172
1793.000000	100.017881
1792.000000	100.020623
1791.000000	100.015847
1790.000000	99.984967
1789.000000	99.987912
1788.000000	99.988114
1787.000000	99.988114
1786.000000	100.007722
1785.000000	100.015343
1784.000000	99.998984
1783.000000	99.960596
1782.000000	99.972479
1781.000000	99.994515
1780.000000	99.994515
1779.000000	99.983749
1778.000000	99.978667
1777.000000	99.974101
1776.000000	99.997765
1775.000000	99.962328
1774.000000	99.957454
1773.000000	99.979281
1772.000000	100.007516
1771.000000	100.005688
1770.000000	100.014627
1769.000000	100.013813
1768.000000	100.021430
1767.000000	100.011071
1766.000000	100.016760
1765.000000	100.016759
1764.000000	100.017675
1763.000000	99.963134
1762.000000	99.991163
1761.000000	99.992483
1760.000000	99.966587
1759.000000	99.992890
1758.000000	100.004571
1757.000000	99.998375
1756.000000	100.013711
1755.000000	100.028443
1754.000000	100.002946
1753.000000	100.032808
1752.000000	99.974001
1751.000000	99.986697
1750.000000	99.996649
1749.000000	99.978878
1748.000000	100.006296
1747.000000	100.001117
1746.000000	100.002844
1745.000000	99.989542
1744.000000	100.027830
1743.000000	99.989234
1742.000000	99.989947
1741.000000	99.992892
1740.000000	100.005179
1739.000000	99.988727
1738.000000	99.975428
1737.000000	99.995431
1736.000000	99.952902
1735.000000	100.023153
1734.000000	100.015436
1733.000000	100.023970
1732.000000	100.016147
1731.000000	99.992585
1730.000000	99.957056
1729.000000	99.974719
1728.000000	100.000914
1727.000000	100.017571
1726.000000	99.989441
1725.000000	100.011374
1724.000000	99.988120
1723.000000	100.021931
1722.000000	99.999594
1721.000000	100.003656
1720.000000	99.990660
1719.000000	100.033010
1718.000000	100.016451
1717.000000	99.981825
1716.000000	99.981725
1715.000000	100.002538
1714.000000	99.983252
1713.000000	99.999289
1712.000000	99.996852
1711.000000	99.989541
1710.000000	99.989846
1709.000000	99.989338
1708.000000	99.996548
1707.000000	100.007108
1706.000000	100.007715
1705.000000	100.017770
1704.000000	99.980708
1703.000000	99.999797
1702.000000	99.986294
1701.000000	100.009341
1700.000000	100.013603
1699.000000	100.003554
1698.000000	100.039400
1697.000000	100.000000
1696.000000	99.990659
1695.000000	99.987918
1694.000000	99.990153
1693.000000	99.991269
1692.000000	100.001117
1691.000000	100.004264
1690.000000	100.023660
1689.000000	99.991270
1688.000000	99.996548
1687.000000	99.987004
1686.000000	99.977459
1685.000000	99.997970
1684.000000	99.975946
1683.000000	99.988935
1682.000000	99.998376
1681.000000	99.980610
1680.000000	100.029345
1679.000000	100.017259
1678.000000	100.025687
1677.000000	100.007208
1676.000000	100.017463
1675.000000	100.046107
1674.000000	99.991372
1673.000000	99.998477
1672.000000	100.033512
1671.000000	99.993096
1670.000000	99.968025
1669.000000	99.986910
1668.000000	100.011162
1667.000000	100.000913
1666.000000	100.000812
1665.000000	99.994116
1664.000000	100.029330
1663.000000	100.009641
1662.000000	100.016440
1661.000000	99.996144
1660.000000	99.999696
1659.000000	99.998173
1658.000000	100.013903
1657.000000	100.019381
1656.000000	100.006291
1655.000000	99.983359
1654.000000	99.991781
1653.000000	100.022627
1652.000000	100.017453
1651.000000	100.014004
1650.000000	100.034306
1649.000000	100.010149
1648.000000	100.006495
1647.000000	100.019586
1646.000000	99.985593
1645.000000	100.013293
1644.000000	100.009945
1643.000000	100.022223
1642.000000	100.013698
1641.000000	100.020499
1640.000000	99.986303
1639.000000	99.989145
1638.000000	100.002232
1637.000000	99.999594
1636.000000	99.982754
1635.000000	99.985492
1634.000000	100.000913
1633.000000	99.998884
1632.000000	99.994319
1631.000000	99.995637
1630.000000	99.989650
1629.000000	100.003653
1628.000000	99.994216
1627.000000	100.000710
1626.000000	99.994014
1625.000000	99.996144
1624.000000	100.012279
1623.000000	100.009944
1622.000000	100.004261
1621.000000	100.012278
1620.000000	100.020192
1619.000000	100.001015
1618.000000	99.994318
1617.000000	100.001218
1616.000000	100.006088
1615.000000	99.998478
1614.000000	100.004565
1613.000000	100.006493
1612.000000	100.017655
1611.000000	100.014813
1610.000000	100.001217
1609.000000	100.003449
1608.000000	100.012174
1607.000000	99.992290
1606.000000	99.989348
1605.000000	100.002029
1604.000000	99.995638
1603.000000	100.004971
1602.000000	99.999493
1601.000000	100.002942
1600.000000	100.012784
1599.000000	99.998783
1598.000000	99.977482
1597.000000	99.986915
1596.000000	99.988133
1595.000000	99.984075
1594.000000	99.999087
1593.000000	99.992291
1592.000000	99.990871
1591.000000	100.002333
1590.000000	99.993406
1589.000000	99.995131
1588.000000	100.013797
1587.000000	100.007507
1586.000000	100.010145
1585.000000	100.002333
1584.000000	99.986812
1583.000000	100.001116
1582.000000	99.993711
1581.000000	99.994523
1580.000000	100.001927
1579.000000	100.004361
1578.000000	100.003043
1577.000000	99.998174
1576.000000	100.015520
1575.000000	99.995232
1574.000000	99.988944
1573.000000	99.996957
1572.000000	99.995233
1571.000000	99.997565
1570.000000	99.990364
1569.000000	99.991987
1568.000000	99.984077
1567.000000	99.987223
1566.000000	99.995437
1565.000000	99.993307
1564.000000	100.014706
1563.000000	99.997667
1562.000000	99.981645
1561.000000	100.002231
1560.000000	100.014300
1559.000000	100.019268
1558.000000	100.014097
1557.000000	100.014707
1556.000000	100.004260
1555.000000	100.016328
1554.000000	100.007201
1553.000000	100.010852
1552.000000	100.008417
1551.000000	99.981847
1550.000000	99.988641
1549.000000	100.008214
1548.000000	100.005983
1547.000000	99.998276
1546.000000	99.993206
1545.000000	100.020285
1544.000000	100.011156
1543.000000	100.006085
1542.000000	99.988541
1541.000000	99.996045
1540.000000	100.011763
1539.000000	100.015617
1538.000000	100.015515
1537.000000	100.002535
1536.000000	99.990672
1535.000000	100.021095
1534.000000	100.002941
1533.000000	100.002028
1532.000000	99.993511
1531.000000	99.987226
1530.000000	99.995741
1529.000000	99.990470
1528.000000	99.988845
1527.000000	100.007404
1526.000000	100.009128
1525.000000	100.000710
1524.000000	99.990265
1523.000000	99.991481
1522.000000	99.995741
1521.000000	100.015518
1520.000000	100.009227
1519.000000	100.015820
1518.000000	100.012372
1517.000000	100.026977
1516.000000	100.002738
1515.000000	99.976577
1514.000000	100.000304
1513.000000	99.988540
1512.000000	100.021605
1511.000000	99.988643
1510.000000	99.985801
1509.000000	100.009634
1508.000000	100.001420
1507.000000	100.001116
1506.000000	100.013795
1505.000000	100.030837
1504.000000	100.023837
1503.000000	100.008215
1502.000000	99.997972
1501.000000	100.004463
1500.000000	100.009026
1499.000000	100.011257
1498.000000	100.016937
1497.000000	100.004158
1496.000000	100.003651
1495.000000	100.001623
1494.000000	100.017241
1493.000000	100.010242
1492.000000	99.988440
1491.000000	100.020790
1490.000000	100.015718
1489.000000	99.987934
1488.000000	100.001014
1487.000000	100.034786
1486.000000	100.011562
1485.000000	99.979723
1484.000000	99.999189
1483.000000	100.032957
1482.000000	100.005069
1481.000000	100.021088
1480.000000	100.001419
1479.000000	100.002839
1478.000000	99.977191
1477.000000	99.984793
1476.000000	100.000608
1475.000000	99.993208
1474.000000	99.999493
1473.000000	99.980432
1472.000000	99.987733
1471.000000	99.978510
1470.000000	100.019060
1469.000000	100.036608
1468.000000	100.003954
1467.000000	100.010746
1466.000000	99.983068
1465.000000	100.010646
1464.000000	99.978715
1463.000000	100.022002
1462.000000	100.006083
1461.000000	99.947896
1460.000000	100.000608
1459.000000	100.023930
1458.000000	100.039851
1457.000000	100.009631
1456.000000	99.975568
1455.000000	100.019264
1454.000000	100.034172
1453.000000	99.989662
1452.000000	99.985606
1451.000000	100.006487
1450.000000	99.983071
1449.000000	100.040660
1448.000000	99.996148
1447.000000	99.997466
1446.000000	99.988241
1445.000000	100.000304
1444.000000	100.002838
1443.000000	100.037009
1442.000000	100.012064
1441.000000	100.018754
1440.000000	100.006589
1439.000000	99.964732
1438.000000	99.991183
1437.000000	99.994831
1436.000000	99.985913
1435.000000	99.992500
1434.000000	100.011455
1433.000000	100.015508
1432.000000	100.014900
1431.000000	100.015609
1430.000000	100.006386
1429.000000	100.000203
1428.000000	100.001115
1427.000000	99.998581
1426.000000	99.991386
1425.000000	100.002736
1424.000000	99.998987
1423.000000	100.000101
1422.000000	100.002128
1421.000000	100.005471
1420.000000	100.004255
1419.000000	100.008104
1418.000000	99.991695
1417.000000	99.990582
1416.000000	100.011749
1415.000000	100.005569
1414.000000	100.000405
1413.000000	99.998684
1412.000000	100.001316
1411.000000	100.007187
1410.000000	100.002834
1409.000000	99.993827
1408.000000	99.996458
1407.000000	100.002024
1406.000000	100.004957
1405.000000	100.000303
1404.000000	100.001416
1403.000000	100.011633
1402.000000	100.017398
1401.000000	100.012341
1400.000000	99.993022
1399.000000	99.998483
1398.000000	100.006067
1397.000000	99.984734
1396.000000	99.976646
1395.000000	99.989486
1394.000000	99.993126
1393.000000	99.992216
1392.000000	100.017693
1391.000000	100.022952
1390.000000	100.004347
1389.000000	99.995855
1388.000000	100.002932
1387.000000	100.042360
1386.000000	100.044583
1385.000000	100.000708
1384.000000	99.984536
1383.000000	100.024264
1382.000000	100.026287
1381.000000	99.989690
1380.000000	100.004549
1379.000000	99.995754
1378.000000	99.979582
1377.000000	100.012233
1376.000000	100.019512
1375.000000	100.004145
1374.000000	100.001314
1373.000000	100.002831
1372.000000	100.011929
1371.000000	100.032453
1370.000000	100.013747
1369.000000	99.990399
1368.000000	99.980698
1367.000000	99.986255
1366.000000	99.992117
1365.000000	99.988076
1364.000000	99.998585
1363.000000	100.007175
1362.000000	100.011824
1361.000000	100.012634
1360.000000	100.000505
1359.000000	99.989085
1358.000000	100.008795
1357.000000	100.010211
1356.000000	99.999596
1355.000000	99.993023
1354.000000	99.975833
1353.000000	99.985335
1352.000000	99.994437
1351.000000	99.986852
1350.000000	100.004654
1349.000000	100.021347
1348.000000	100.007385
1347.000000	100.001821
1346.000000	99.984217
1345.000000	99.975417
1344.000000	99.994840
1343.000000	99.978658
1342.000000	99.950348
1341.000000	99.984929
1340.000000	99.994740
1339.000000	100.013152
1338.000000	100.021244
1337.000000	100.004551
1336.000000	100.008396
1335.000000	100.003641
1334.000000	100.004753
1333.000000	99.980483
1332.000000	99.986752
1331.000000	100.001416
1330.000000	100.023365
1329.000000	100.003944
1328.000000	99.972495
1327.000000	99.990393
1326.000000	100.021137
1325.000000	100.015776
1324.000000	99.985742
1323.000000	100.031762
1322.000000	100.027105
1321.000000	99.986145
1320.000000	100.013148
1319.000000	99.984123
1318.000000	99.997067
1317.000000	100.020330
1316.000000	100.023567
1315.000000	99.974515
1314.000000	99.983919
1313.000000	100.004653
1312.000000	99.991000
1311.000000	100.016893
1310.000000	100.000607
1309.000000	99.991706
1308.000000	99.983110
1307.000000	100.010420
1306.000000	99.998988
1305.000000	99.963281
1304.000000	99.976837
1303.000000	99.988772
1302.000000	100.012444
1301.000000	100.011532
1300.000000	99.990795
1299.000000	100.007485
1298.000000	100.007789
1297.000000	100.024584
1296.000000	100.006676
1295.000000	100.015678
1294.000000	99.994437
1293.000000	99.998483
1292.000000	100.022962
1291.000000	100.018611
1290.000000	100.017296
1289.000000	100.019115
1288.000000	99.999798
1287.000000	99.993933
1286.000000	99.973516
1285.000000	99.997270
1284.000000	99.988476
1283.000000	100.004145
1282.000000	100.009098
1281.000000	100.017085
1280.000000	99.998383
1279.000000	100.023854
1278.000000	100.026277
1277.000000	99.990098
1276.000000	100.005759
1275.000000	99.979290
1274.000000	100.007375
1273.000000	99.996464
1272.000000	99.984444
1271.000000	99.983533
1270.000000	99.974244
1269.000000	100.028994
1268.000000	99.999596
1267.000000	100.013636
1266.000000	100.001414
1265.000000	99.960109
1264.000000	99.985963
1263.000000	100.000606
1262.000000	100.042530
1261.000000	100.012725
1260.000000	99.998586
1259.000000	99.968895
1258.000000	99.984145
1257.000000	99.988185
1256.000000	100.021515
1255.000000	100.011615
1254.000000	100.002121
1253.000000	100.002323
1252.000000	100.026765
1251.000000	100.006766
1250.000000	100.030298
1249.000000	100.026865
1248.000000	100.012825
1247.000000	100.017166
1246.000000	99.987482
1245.000000	99.990409
1244.000000	100.013530
1243.000000	100.005553
1242.000000	99.982538
1241.000000	99.979107
1240.000000	99.993741
1239.000000	100.000000
1238.000000	100.005551
1237.000000	100.000000
1236.000000	100.019074
1235.000000	100.015640
1234.000000	99.996772
1233.000000	99.997680
1232.000000	99.988301
1231.000000	100.001009
1230.000000	100.004034
1229.000000	100.002219
1228.000000	99.992438
1227.000000	99.987499
1226.000000	100.020467
1225.000000	99.987703
1224.000000	99.997278
1223.000000	100.009575
1222.000000	100.008768
1221.000000	100.008969
1220.000000	99.999395
1219.000000	100.000000
1218.000000	99.986702
1217.000000	100.007556
1216.000000	100.003626
1215.000000	100.007454
1214.000000	99.979150
1213.000000	99.982982
1212.000000	100.017427
1211.000000	100.015210
1210.000000	99.984792
1209.000000	100.008461
1208.000000	99.984993
1207.000000	100.020849
1206.000000	100.003626
1205.000000	99.995770
1204.000000	99.980864
1203.000000	100.030321
1202.000000	100.019438
1201.000000	100.000101
1200.000000	99.957910
1199.000000	99.979862
1198.000000	99.999698
1197.000000	99.997986
1196.000000	100.009668
1195.000000	100.003827
1194.000000	99.993656
1193.000000	100.000806
1192.000000	99.992549
1191.000000	99.986609
1190.000000	100.002115
1189.000000	100.011381
1188.000000	100.000101
1187.000000	100.009061
1186.000000	99.997081
1185.000000	99.993658
1184.000000	99.985405
1183.000000	99.997081
1182.000000	100.001912
1181.000000	100.000503
1180.000000	100.005333
1179.000000	100.007950
1178.000000	99.996881
1177.000000	100.004528
1176.000000	100.007244
1175.000000	99.994870
1174.000000	99.999698
1173.000000	100.010460
1172.000000	100.009153
1171.000000	100.005632
1170.000000	100.005329
1169.000000	99.990952
1168.000000	99.986831
1167.000000	99.995276
1166.000000	99.992562
1165.000000	100.008946
1164.000000	99.992362
1163.000000	99.986234
1162.000000	99.995780
1161.000000	99.985031
1160.000000	99.985736
1159.000000	99.994877
1158.000000	100.009041
1157.000000	100.015770
1156.000000	100.009039
1155.000000	100.013156
1154.000000	100.009941
1153.000000	100.011446
1152.000000	100.015059
1151.000000	100.013049
1150.000000	100.002208
1149.000000	99.991570
1148.000000	99.992074
1147.000000	100.010534
1146.000000	100.009329
1145.000000	99.987864
1144.000000	100.000301
1143.000000	100.007921
1142.000000	99.996190
1141.000000	99.996591
1140.000000	100.008220
1139.000000	100.008119
1138.000000	99.998096
1137.000000	100.003608
1136.000000	99.991884
1135.000000	99.987177
1134.000000	99.990683
1133.000000	99.969752
1132.000000	99.985179
1131.000000	99.991889
1130.000000	99.993491
1129.000000	99.994093
1128.000000	99.998398
1127.000000	100.003202
1126.000000	100.019616
1125.000000	100.020117
1124.000000	100.009405
1123.000000	99.995298
1122.000000	99.995298
1121.000000	99.995199
1120.000000	100.009001
1119.000000	99.999600
1118.000000	99.997500
1117.000000	99.993002
1116.000000	99.999700
1115.000000	100.002699
1114.000000	100.003498
1113.000000	100.007495
1112.000000	100.001099
1111.000000	99.998002
1110.000000	100.011090
1109.000000	100.001498
1108.000000	100.003495
1107.000000	100.003196
1106.000000	100.003594
1105.000000	100.002596
1104.000000	100.008186
1103.000000	100.007186
1102.000000	100.006187
1101.000000	100.006087
1100.000000	100.009078
1099.000000	99.991323
1098.000000	100.001695
1097.000000	100.012464
1096.000000	99.988935
1095.000000	100.009370
1094.000000	100.005282
1093.000000	99.981368
1092.000000	99.992329
1091.000000	100.014045
1090.000000	100.003486
1089.000000	100.011750
1088.000000	100.007567
1087.000000	100.024691
1086.000000	100.006668
1085.000000	99.988658
1084.000000	100.011443
1083.000000	100.000696
1082.000000	99.996419
1081.000000	99.971862
1080.000000	99.985187
1079.000000	100.015906
1078.000000	100.011727
1077.000000	99.998112
1076.000000	100.001689
1075.000000	99.993345
1074.000000	99.988182
1073.000000	99.996724
1072.000000	100.026805
1071.000000	100.004962
1070.000000	100.005954
1069.000000	99.997123
1068.000000	99.988792
1067.000000	100.006447
1066.000000	99.998711
1065.000000	100.005453
1064.000000	99.991278
1063.000000	100.012883
1062.000000	99.985932
1061.000000	99.991879
1060.000000	99.998019
1059.000000	100.002079
1058.000000	100.015939
1057.000000	100.006630
1056.000000	100.014247
1055.000000	99.990802
1054.000000	100.026109
1053.000000	100.008999
1052.000000	100.000593
1051.000000	99.998617
1050.000000	99.988636
1049.000000	99.987949
1048.000000	99.966824
1047.000000	100.000790
1046.000000	100.022212
1045.000000	99.996842
1044.000000	99.990332
1043.000000	99.989051
1042.000000	100.007001
1041.000000	100.006113
1040.000000	100.033516
1039.000000	100.002956
1038.000000	100.012511
1037.000000	100.006894
1036.000000	99.986906
1035.000000	99.996358
1034.000000	99.994194
1033.000000	99.971082
1032.000000	100.022724
1031.000000	100.004621
1030.000000	99.999803
1029.000000	100.018182
1028.000000	100.029577
1027.000000	100.003830
1026.000000	100.014138
1025.000000	100.017668
1024.000000	100.007850
1023.000000	99.998921
1022.000000	99.997843
1021.000000	99.996961
1020.000000	99.982067
1019.000000	99.997943
1018.000000	99.999706
1017.000000	100.005581
1016.000000	99.979055
1015.000000	100.011254
1014.000000	100.026904
1013.000000	100.005378
1012.000000	100.003226
1011.000000	100.013681
1010.000000	99.994140
1009.000000	99.982718
1008.000000	100.017279
1007.000000	99.996975
1006.000000	100.001756
1005.000000	100.002926
1004.000000	100.008774
1003.000000	100.019199
1002.000000	100.006040
1001.000000	99.996787
1000.000000	100.011486
999.000000	100.005255
998.000000	100.017120
997.000000	99.999125
996.000000	99.986978
995.000000	100.001360
994.000000	100.002233
993.000000	100.019998
992.000000	100.015234
991.000000	100.012902
990.000000	99.994861
989.000000	99.997189
988.000000	99.999613
987.000000	100.004358
986.000000	100.017038
985.000000	100.013743
984.000000	100.006965
983.000000	100.003094
982.000000	100.004544
981.000000	100.030054
980.000000	100.006953
979.000000	99.993533
978.000000	100.002412
977.000000	100.006559
976.000000	99.994891
975.000000	100.004240
974.000000	100.014833
973.000000	100.017714
972.000000	100.020305
971.000000	100.018565
970.000000	100.014997
969.000000	100.008168
968.000000	100.008356
967.000000	99.999424
966.000000	100.012665
965.000000	100.006234
964.000000	99.992044
963.000000	100.001437
962.000000	99.986978
961.000000	99.991674
960.000000	100.006984
959.000000	100.010901
958.000000	99.996274
957.000000	99.998376
956.000000	99.995323
955.000000	100.006868
954.000000	100.009821
953.000000	100.024204
952.000000	100.014286
951.000000	99.984678
950.000000	99.980978
949.000000	100.013215
948.000000	100.025086
947.000000	100.009686
946.000000	100.007402
945.000000	100.008915
944.000000	100.017723
943.000000	100.001989
942.000000	99.994038
941.000000	99.989217
940.000000	100.022786
939.000000	100.051026
938.000000	100.010951
937.000000	99.993774
936.000000	99.993872
935.000000	100.014324
934.000000	100.005462
933.000000	99.989838
932.000000	99.993889
931.000000	99.996335
930.000000	99.997840
929.000000	100.001408
928.000000	99.987623
927.000000	99.983510
926.000000	100.007585
925.000000	100.004211
924.000000	99.962800
923.000000	99.989072
922.000000	100.003641
921.000000	99.999067
920.000000	100.022932
919.000000	100.016859
918.000000	100.021965
917.000000	100.034692
916.000000	100.001858
915.000000	99.997214
914.000000	100.014659
913.000000	100.010751
912.000000	99.992684
911.000000	99.970482
910.000000	99.980959
909.000000	99.972199
908.000000	100.007754
907.000000	99.983679
906.000000	99.970427
905.000000	100.012612
904.000000	99.988134
903.000000	100.004044
902.000000	99.990175
901.000000	100.014218
900.000000	100.028231
899.000000	99.954034
898.000000	99.939447
897.000000	100.007313
896.000000	99.955813
895.000000	99.993431
894.000000	99.970564
893.000000	99.986888
892.000000	99.993812
891.000000	99.961272
890.000000	99.949245
889.000000	99.965977
888.000000	100.023117
887.000000	100.023910
886.000000	100.009226
885.000000	99.971990
884.000000	99.967589
883.000000	100.072638
882.000000	100.015773
881.000000	99.963548
880.000000	100.004679
879.000000	99.929131
878.000000	99.925176
877.000000	99.881287
876.000000	99.921645
875.000000	100.034188
874.000000	99.998658
873.000000	99.980258
872.000000	99.933449
871.000000	100.113988
870.000000	100.040553
869.000000	99.934590
868.000000	99.968689
867.000000	100.075816
866.000000	99.998490
865.000000	100.003992
864.000000	99.971551
863.000000	99.904761
862.000000	99.992834
861.000000	100.047950
860.000000	100.019257
859.000000	100.008360
858.000000	99.515378
857.000000	100.150182
856.000000	99.710342
855.000000	99.765414
854.000000	99.785937
853.000000	100.358382
852.000000	100.409635
851.000000	100.164636
850.000000	100.314846
849.000000	100.033718
848.000000	100.399981
847.000000	99.962963
846.000000	100.014227
845.000000	100.041180
844.000000	100.085877
843.000000	99.896478
842.000000	99.632302
841.000000	99.889202
840.000000	99.965382
839.000000	99.963714
838.000000	100.181785
837.000000	100.047976
836.000000	100.076181
835.000000	100.114385
834.000000	100.070887
833.000000	100.149251
832.000000	99.958025
831.000000	99.944591
830.000000	100.080597
829.000000	99.760745
828.000000	99.749961
827.000000	99.993075
826.000000	100.049128
825.000000	99.796480
824.000000	100.117519
823.000000	99.999825
822.000000	100.129324
821.000000	100.016762
820.000000	99.938986
819.000000	99.999211
818.000000	99.920393
817.000000	99.909465
816.000000	100.129143
815.000000	99.923547
814.000000	99.934306
813.000000	99.980297
812.000000	99.671847
811.000000	99.934694
810.000000	99.987463
809.000000	99.768035
808.000000	99.914009
807.000000	99.976264
806.000000	100.044868
805.000000	99.999649
804.000000	99.931589
803.000000	100.146130
802.000000	100.096545
801.000000	100.227179
800.000000	100.060881
799.000000	100.084919
798.000000	99.813497
797.000000	100.064132
796.000000	99.857550
795.000000	100.108862
794.000000	99.850623
793.000000	99.947988
792.000000	100.006086
791.000000	99.938266
790.000000	99.918201
789.000000	99.949070
788.000000	100.010695
787.000000	100.092615
786.000000	99.972239
785.000000	100.169579
784.000000	99.929062
783.000000	99.896796
782.000000	99.911115
781.000000	99.816045
780.000000	99.912904
779.000000	100.103274
778.000000	100.039292
777.000000	99.965408
776.000000	99.967055
775.000000	99.916208
774.000000	99.794595
773.000000	99.973486
772.000000	99.964058
771.000000	100.052746
770.000000	99.968825
769.000000	100.006240
768.000000	99.964866
767.000000	100.022388
766.000000	99.869661
765.000000	99.927880
764.000000	99.909097
763.000000	100.076630
762.000000	99.977840
761.000000	99.951289
760.000000	99.984337
759.000000	100.034216
758.000000	100.023123
757.000000	100.115329
756.000000	100.113328
755.000000	99.985553
754.000000	100.005297
753.000000	99.953612
752.000000	99.922575
751.000000	99.928063
750.000000	99.982563
749.000000	100.044537
748.000000	100.074663
747.000000	100.055600
746.000000	100.035956
745.000000	100.031002
744.000000	100.068252
743.000000	100.086867
742.000000	99.952482
741.000000	99.903704
740.000000	100.020043
739.000000	99.992144
738.000000	100.037763
737.000000	100.063982
736.000000	100.096780
735.000000	100.050368
734.000000	99.895048
733.000000	100.018104
732.000000	100.046626
731.000000	99.991124
730.000000	100.021578
729.000000	100.006887
728.000000	100.018230
727.000000	99.983492
726.000000	99.992021
725.000000	100.040730
724.000000	99.994643
723.000000	100.006997
722.000000	99.981197
721.000000	99.964399
720.000000	99.991185
719.000000	99.968097
718.000000	99.921892
717.000000	99.980719
716.000000	99.967995
715.000000	99.965694
714.000000	99.958214
713.000000	99.929383
712.000000	99.989434
711.000000	100.058247
710.000000	100.025511
709.000000	100.047936
708.000000	100.021058
707.000000	99.972458
706.000000	100.026924
705.000000	100.034946
704.000000	99.987957
703.000000	99.957366
702.000000	99.907623
701.000000	99.935891
700.000000	100.005757
699.000000	99.956973
698.000000	99.930834
697.000000	100.008045
696.000000	100.048196
695.000000	99.966249
694.000000	99.971175
693.000000	99.999726
692.000000	99.944836
691.000000	99.976653
690.000000	100.027025
689.000000	100.015839
688.000000	100.007412
687.000000	100.038916
686.000000	100.000916
685.000000	99.960827
684.000000	99.966868
683.000000	100.065244
682.000000	99.982868
681.000000	100.001191
680.000000	100.008889
679.000000	99.982681
678.000000	100.079957
677.000000	100.025947
676.000000	99.988167
675.000000	100.007156
674.000000	99.922617
673.000000	99.909564
672.000000	99.956144
671.000000	99.985777
670.000000	99.940794
669.000000	99.922506
668.000000	99.939000
667.000000	100.030234
666.000000	100.041889
665.000000	99.986131
664.000000	99.919048
663.000000	100.010022
662.000000	100.043774
661.000000	99.975078
660.000000	99.944223
659.000000	99.957813
658.000000	99.929100
657.000000	100.001288
656.000000	100.015459
655.000000	99.958775
654.000000	99.963100
653.000000	99.988958
652.000000	100.008745
651.000000	99.958102
650.000000	100.028925
649.000000	99.980106
648.000000	100.042184
647.000000	100.007276
646.000000	99.973011
645.000000	100.040276
644.000000	99.948483
643.000000	99.870148
642.000000	99.973726
641.000000	100.005531
640.000000	99.947439
639.000000	100.024916
638.000000	99.996680
637.000000	99.957006
636.000000	99.890914
635.000000	100.041736
634.000000	99.960600
633.000000	99.977838
632.000000	99.972940
631.000000	99.970071
630.000000	99.978301
629.000000	99.955206
628.000000	99.938374
627.000000	99.989373
626.000000	100.013219
625.000000	99.914736
624.000000	99.933092
623.000000	99.907339
622.000000	99.934539
621.000000	100.086259
620.000000	99.962917
619.000000	99.892955
618.000000	99.968090
617.000000	99.970510
616.000000	99.981498
615.000000	99.956792
614.000000	99.995096
613.000000	100.028606
612.000000	100.015726
611.000000	100.030917
610.000000	100.074836
609.000000	100.128539
608.000000	100.075672
607.000000	99.972307
606.000000	99.969264
605.000000	100.091896
604.000000	99.966659
603.000000	99.944316
602.000000	100.016779
601.000000	100.019278
600.000000	99.994630
599.000000	100.046050
598.000000	100.005375
597.000000	100.026512
596.000000	99.957173
595.000000	99.882742
594.000000	100.011402
593.000000	99.955034
592.000000	99.971815
591.000000	100.078382
590.000000	100.021243
589.000000	99.926562
588.000000	99.923803
587.000000	100.057717
586.000000	99.956301
585.000000	99.989149
584.000000	99.975605
583.000000	99.850554
582.000000	100.024876
581.000000	100.002876
580.000000	100.008351
579.000000	100.059806
578.000000	100.043155
577.000000	99.978837
576.000000	99.947095
575.000000	100.039454
574.000000	99.920421
573.000000	100.092690
572.000000	99.928623
571.000000	99.994986
570.000000	99.959803
569.000000	100.062437
568.000000	99.926106
567.000000	99.917828
566.000000	99.980683
565.000000	99.898014
564.000000	99.995914
563.000000	100.082255
562.000000	100.066564
561.000000	100.054746
560.000000	100.027773
559.000000	100.058542
558.000000	99.966656
557.000000	100.007526
556.000000	99.954397
555.000000	99.957635
554.000000	99.929406
553.000000	99.928488
552.000000	100.019611
551.000000	99.989030
550.000000	99.958380
549.000000	99.987075
548.000000	99.956584
547.000000	100.025486
546.000000	99.964771
545.000000	100.052082
544.000000	100.023532
543.000000	100.013484
542.000000	99.992093
541.000000	99.947076
540.000000	99.950069
539.000000	99.953498
538.000000	100.093139
537.000000	99.986697
536.000000	99.988741
535.000000	99.977384
534.000000	100.034898
533.000000	99.992836
532.000000	100.024467
531.000000	100.094027
530.000000	100.035190
529.000000	99.965468
528.000000	100.026534
527.000000	100.020204
526.000000	100.027640
525.000000	99.994415
524.000000	99.967326
523.000000	100.007078
522.000000	99.964911
521.000000	100.012107
520.000000	99.964625
519.000000	99.965474
518.000000	99.955592
517.000000	99.978396
516.000000	99.993667
515.000000	100.002887
514.000000	100.005214
513.000000	100.004283
512.000000	99.934446
511.000000	100.005588
510.000000	100.064574
509.000000	100.010993
508.000000	99.957823
507.000000	99.989289
506.000000	99.953332
505.000000	99.945885
504.000000	99.918247
503.000000	99.949892
502.000000	100.042950
501.000000	100.000652
500.000000	99.962260
499.000000	99.912882
498.000000	99.937687
497.000000	100.042865
496.000000	99.990217
495.000000	99.983598
494.000000	99.956863
493.000000	99.955924
492.000000	99.882981
491.000000	99.960121
490.000000	100.027862
489.000000	100.050161
488.000000	100.028347
487.000000	100.059498
486.000000	100.028811
485.000000	100.000373
484.000000	100.006716
483.000000	99.985625
482.000000	99.930928
481.000000	99.938755
480.000000	99.945386
479.000000	99.929224
478.000000	99.938172
477.000000	99.983650
476.000000	100.004861
475.000000	99.953358
474.000000	99.921401
473.000000	99.925216
472.000000	99.960358
471.000000	99.967371
470.000000	100.013845
469.000000	100.039763
468.000000	100.056605
467.000000	100.013288
466.000000	99.998597
465.000000	99.997287
464.000000	99.976048
463.000000	99.980719
462.000000	100.019098
461.000000	100.021248
460.000000	100.011136
459.000000	100.038281
458.000000	100.018440
457.000000	99.935431
456.000000	99.880722
455.000000	99.979305
454.000000	100.041879
453.000000	100.072617
452.000000	100.056235
451.000000	100.019679
450.000000	100.037754
449.000000	99.971809
448.000000	99.972561
447.000000	99.993068
446.000000	99.978450
445.000000	100.004217
444.000000	99.978166
443.000000	99.960268
442.000000	99.966355
441.000000	100.010785
440.000000	99.984990
439.000000	100.022796
438.000000	99.986875
437.000000	100.018379
436.000000	100.019039
435.000000	100.009286
434.000000	100.055473
433.000000	99.987805
432.000000	99.921860
431.000000	99.932089
430.000000	99.928148
429.000000	99.995777
428.000000	99.905045
427.000000	99.933117
426.000000	100.013337
425.000000	100.043313
424.000000	99.959270
423.000000	99.958032
422.000000	99.987784
421.000000	100.004791
420.000000	100.062684
419.000000	100.038453
418.000000	99.999812
417.000000	100.004604
416.000000	99.964937
415.000000	99.937300
414.000000	99.998026
413.000000	100.129295
412.000000	100.005734
411.000000	100.009313
410.000000	99.998024
409.000000	99.920859
408.000000	99.955900
407.000000	99.944239
406.000000	100.039772
405.000000	100.058331
404.000000	99.908548
403.000000	100.084577
402.000000	100.081184
401.000000	100.124270
400.000000	99.966049
399.000000	99.956442
398.000000	100.021370
397.000000	99.985696
396.000000	100.087142
395.000000	100.057417
394.000000	99.992003
393.000000	99.961320
392.000000	99.988148
391.000000	100.045269
390.000000	100.095082
389.000000	99.989364
388.000000	100.051490
387.000000	99.880454
386.000000	100.059142
385.000000	100.060231
384.000000	100.036354
383.000000	100.060840
382.000000	100.020609
381.000000	100.059861
380.000000	100.015152
379.000000	99.945902
378.000000	99.810806
377.000000	99.993058
376.000000	100.043641
375.000000	99.799547
374.000000	99.932301
373.000000	100.007227
372.000000	99.761909
371.000000	100.075630
370.000000	100.290241
369.000000	99.961735
368.000000	99.819368
367.000000	99.963064
366.000000	100.039206
365.000000	99.581544
364.000000	100.000936
363.000000	99.819988
362.000000	100.014797
361.000000	99.773441
360.000000	99.852807
359.000000	100.021167
358.000000	100.058130
357.000000	99.925023
356.000000	100.074816
355.000000	99.976272
354.000000	100.022305
353.000000	99.791187
352.000000	99.682455
351.000000	100.078962
350.000000	99.928968
349.000000	100.028066
348.000000	100.039360
347.000000	99.685208
346.000000	99.831617
345.000000	99.966807
344.000000	99.758074
343.000000	100.094604
342.000000	100.045295
341.000000	99.834579
340.000000	99.682220
339.000000	100.309490
338.000000	100.002623
337.000000	100.191606
336.000000	99.914766
335.000000	99.668926
334.000000	100.299514
333.000000	99.986923
332.000000	99.403798
331.000000	99.859794
330.000000	99.882862
329.000000	99.688627
328.000000	99.793828
327.000000	99.740120
326.000000	99.576657
325.000000	99.802938
324.000000	99.799844
323.000000	99.667291
322.000000	100.042208
321.000000	99.904585
320.000000	100.059497
319.000000	100.223475
318.000000	100.112535
317.000000	100.160705
316.000000	100.081069
315.000000	99.888844
314.000000	99.915370
313.000000	100.295325
312.000000	99.981065
311.000000	100.017296
310.000000	100.173388
309.000000	100.151603
308.000000	99.999721
307.000000	100.064383
306.000000	100.065573
305.000000	100.088985
304.000000	100.102055
303.000000	100.151473
302.000000	99.872633
301.000000	99.703480
300.000000	100.057123
299.000000	99.926032
298.000000	99.962749
297.000000	99.941797
296.000000	99.885525
295.000000	100.040755
294.000000	99.952900
293.000000	100.115136
292.000000	99.869855
291.000000	99.945974
290.000000	99.750390
289.000000	99.702689
288.000000	100.265405
287.000000	100.063521
286.000000	99.917720
285.000000	99.948335
284.000000	99.724728
283.000000	99.830224
282.000000	99.872997
281.000000	100.071534
280.000000	100.270972
279.000000	100.173698
278.000000	99.902292
277.000000	99.890478
276.000000	99.847930
275.000000	100.079463
274.000000	100.315300
273.000000	100.151569
272.000000	100.068192
271.000000	100.113351
270.000000	100.209793
269.000000	99.976089
268.000000	99.958856
267.000000	99.815224
266.000000	99.966337
265.000000	99.897075
264.000000	99.974422
263.000000	100.191756
262.000000	99.756599
261.000000	99.869378
260.000000	100.090344
259.000000	99.893345
258.000000	99.802813
257.000000	100.181810
256.000000	100.215283
255.000000	100.103959
254.000000	99.933949
253.000000	99.980623
252.000000	99.832301
251.000000	99.874101
250.000000	99.967644
249.000000	99.885773
248.000000	99.857990
247.000000	99.827537
246.000000	99.923855
245.000000	99.820807
244.000000	99.720765
243.000000	99.903114
242.000000	99.971944
241.000000	100.039688
240.000000	99.999379
239.000000	100.271732
238.000000	100.137215
237.000000	99.966858
236.000000	99.970958
235.000000	99.992517
234.000000	99.903208
233.000000	100.262273
232.000000	100.296888
231.000000	99.920132
230.000000	99.796700
229.000000	99.949645
228.000000	99.836297
227.000000	99.894941
226.000000	100.104184
225.000000	100.360164
224.000000	100.096707
223.000000	99.859305
222.000000	100.019759
221.000000	100.275066
220.000000	100.110396
219.000000	99.913749
218.000000	100.116629
217.000000	100.245175
216.000000	100.081512
215.000000	100.023811
214.000000	100.027289
213.000000	99.565758
212.000000	99.439233
211.000000	99.975608
210.000000	100.221227
209.000000	100.137044
208.000000	100.127808
207.000000	99.969658
206.000000	99.939027
205.000000	99.594380
204.000000	100.064837
203.000000	99.835957
202.000000	99.593247
201.000000	100.478393
200.000000	100.703768
