PE UV       SUBTECH     SPECTRUM    ASCII       PEDS        4.00        
   -1
Empty Chamber2.Sample.asc
18/03/01
15:23:19.00
18/03/01
15:23:19.00
Administrator

200.000000
1
Lambda 750
750N8071901
PerkinElmer UV WinLab 6.0.4.0738 / 1.61.00 Lambda 900

0
0
3350/servo 860.8/2
0
0
UV/VIS
1
1
1
CommonBeamDepol,150mm sphere / downward view
0
0
0
0
Program
Program
3350/servo 860.8/2
3350/0.2 860.8/0.2
3350/0.2 860.8/0.2
0
1
 
 
 
0
 
860.8
319.2
860.8
Front
100
on
 
 
0
0
0
 
0
 
 
 
0
 
 
0
0
0
0
0
 
 
 
 
0
0


0
0
#HDR
-1
-1
#GR
nm
%T
1.0
0.0
2350.000000
-1.000000
2151
8
100.587793
99.287441
#DATA
2350.000000	99.955002
2349.000000	99.465810
2348.000000	99.941753
2347.000000	100.189699
2346.000000	99.962636
2345.000000	99.766722
2344.000000	100.427002
2343.000000	99.526282
2342.000000	100.384161
2341.000000	100.587793
2340.000000	99.949897
2339.000000	100.291044
2338.000000	99.973475
2337.000000	99.676021
2336.000000	99.863539
2335.000000	99.890927
2334.000000	100.118137
2333.000000	99.964652
2332.000000	100.000504
2331.000000	99.850030
2330.000000	99.835766
2329.000000	99.712523
2328.000000	100.161341
2327.000000	100.037317
2326.000000	100.415744
2325.000000	99.782917
2324.000000	100.222609
2323.000000	99.988999
2322.000000	99.818190
2321.000000	100.291211
2320.000000	100.201847
2319.000000	100.205448
2318.000000	100.255663
2317.000000	100.328473
2316.000000	99.909272
2315.000000	100.226689
2314.000000	100.530163
2313.000000	100.116938
2312.000000	100.046239
2311.000000	100.142863
2310.000000	100.352212
2309.000000	100.101564
2308.000000	99.963932
2307.000000	100.026079
2306.000000	99.804935
2305.000000	99.987375
2304.000000	100.026162
2303.000000	100.103239
2302.000000	99.999192
2301.000000	99.764896
2300.000000	99.810714
2299.000000	99.950264
2298.000000	100.115477
2297.000000	99.872687
2296.000000	100.116278
2295.000000	100.107378
2294.000000	100.206922
2293.000000	99.974544
2292.000000	99.967024
2291.000000	100.211660
2290.000000	100.124989
2289.000000	99.938529
2288.000000	100.184801
2287.000000	100.150242
2286.000000	100.039397
2285.000000	99.855566
2284.000000	100.224336
2283.000000	100.202154
2282.000000	100.160807
2281.000000	100.189896
2280.000000	100.144194
2279.000000	100.152744
2278.000000	100.121768
2277.000000	100.088516
2276.000000	100.073720
2275.000000	100.136462
2274.000000	100.202617
2273.000000	100.116318
2272.000000	99.996665
2271.000000	99.832233
2270.000000	99.890404
2269.000000	100.054365
2268.000000	100.024568
2267.000000	99.933088
2266.000000	100.162442
2265.000000	100.112870
2264.000000	99.992115
2263.000000	99.993224
2262.000000	100.080751
2261.000000	100.079998
2260.000000	100.003130
2259.000000	99.993938
2258.000000	100.130543
2257.000000	100.103495
2256.000000	100.060108
2255.000000	99.937299
2254.000000	99.978784
2253.000000	99.949514
2252.000000	99.971929
2251.000000	100.093923
2250.000000	99.949480
2249.000000	100.075150
2248.000000	100.031360
2247.000000	99.815744
2246.000000	99.850432
2245.000000	99.851532
2244.000000	99.788969
2243.000000	99.946529
2242.000000	100.071095
2241.000000	99.993732
2240.000000	100.043782
2239.000000	99.992926
2238.000000	99.955340
2237.000000	99.993630
2236.000000	100.089779
2235.000000	100.063249
2234.000000	100.006874
2233.000000	99.926349
2232.000000	99.912742
2231.000000	100.015661
2230.000000	100.226805
2229.000000	100.208473
2228.000000	100.240967
2227.000000	100.036998
2226.000000	99.807407
2225.000000	99.925652
2224.000000	100.078553
2223.000000	100.121307
2222.000000	100.074154
2221.000000	100.062535
2220.000000	100.103721
2219.000000	100.076549
2218.000000	100.000505
2217.000000	100.019399
2216.000000	100.052833
2215.000000	99.961438
2214.000000	100.062434
2213.000000	99.986562
2212.000000	99.871216
2211.000000	99.838995
2210.000000	99.968760
2209.000000	99.854273
2208.000000	99.899811
2207.000000	99.972009
2206.000000	99.979077
2205.000000	100.019108
2204.000000	100.024362
2203.000000	99.808052
2202.000000	100.008889
2201.000000	100.143981
2200.000000	99.972257
2199.000000	99.909638
2198.000000	100.226693
2197.000000	100.176793
2196.000000	99.950433
2195.000000	100.057151
2194.000000	99.971046
2193.000000	99.997678
2192.000000	100.079081
2191.000000	100.014130
2190.000000	99.868924
2189.000000	99.866770
2188.000000	99.858785
2187.000000	99.820448
2186.000000	100.014219
2185.000000	100.072314
2184.000000	99.900456
2183.000000	100.077910
2182.000000	100.077221
2181.000000	99.997077
2180.000000	100.079160
2179.000000	99.926846
2178.000000	99.790700
2177.000000	100.120868
2176.000000	100.163433
2175.000000	100.227089
2174.000000	100.306937
2173.000000	100.181363
2172.000000	100.049505
2171.000000	99.918810
2170.000000	100.030991
2169.000000	99.914594
2168.000000	100.280225
2167.000000	100.047818
2166.000000	100.248058
2165.000000	100.223917
2164.000000	99.893818
2163.000000	100.031414
2162.000000	100.029598
2161.000000	99.944175
2160.000000	100.027697
2159.000000	100.033599
2158.000000	100.212132
2157.000000	100.059058
2156.000000	99.959755
2155.000000	99.923596
2154.000000	100.047755
2153.000000	100.099353
2152.000000	99.831488
2151.000000	99.944144
2150.000000	100.141543
2149.000000	99.913904
2148.000000	100.112305
2147.000000	100.059464
2146.000000	99.989646
2145.000000	99.802732
2144.000000	100.174872
2143.000000	99.976790
2142.000000	99.847983
2141.000000	99.987450
2140.000000	99.942811
2139.000000	99.859789
2138.000000	100.170978
2137.000000	100.193199
2136.000000	100.007130
2135.000000	100.033250
2134.000000	99.853247
2133.000000	100.104761
2132.000000	100.065734
2131.000000	100.138729
2130.000000	100.138387
2129.000000	99.957220
2128.000000	100.028108
2127.000000	100.111043
2126.000000	99.898096
2125.000000	100.075261
2124.000000	100.000604
2123.000000	99.817026
2122.000000	100.022065
2121.000000	100.068234
2120.000000	99.847019
2119.000000	99.941550
2118.000000	99.902426
2117.000000	100.077026
2116.000000	100.076635
2115.000000	100.193146
2114.000000	100.105030
2113.000000	99.989530
2112.000000	100.043837
2111.000000	100.022951
2110.000000	99.935403
2109.000000	100.120355
2108.000000	100.008462
2107.000000	99.943202
2106.000000	99.909708
2105.000000	100.191864
2104.000000	100.062659
2103.000000	100.018628
2102.000000	99.999093
2101.000000	99.943107
2100.000000	100.077867
2099.000000	99.873049
2098.000000	100.061115
2097.000000	100.000907
2096.000000	99.907329
2095.000000	100.093603
2094.000000	100.122424
2093.000000	100.100244
2092.000000	100.062337
2091.000000	99.984573
2090.000000	99.989309
2089.000000	99.896045
2088.000000	99.941578
2087.000000	99.961310
2086.000000	99.988409
2085.000000	100.059325
2084.000000	99.955325
2083.000000	99.990823
2082.000000	100.006455
2081.000000	99.927828
2080.000000	99.973884
2079.000000	100.093499
2078.000000	100.035807
2077.000000	99.864269
2076.000000	99.915771
2075.000000	99.891680
2074.000000	99.947566
2073.000000	100.003226
2072.000000	100.070029
2071.000000	100.027851
2070.000000	100.121285
2069.000000	100.081067
2068.000000	100.038652
2067.000000	100.050695
2066.000000	100.003634
2065.000000	100.097676
2064.000000	99.994347
2063.000000	99.933422
2062.000000	100.030804
2061.000000	100.002423
2060.000000	100.017461
2059.000000	99.928786
2058.000000	99.900294
2057.000000	99.954618
2056.000000	100.005449
2055.000000	100.048761
2054.000000	99.970630
2053.000000	99.971330
2052.000000	99.987883
2051.000000	99.953361
2050.000000	99.998080
2049.000000	100.055479
2048.000000	99.980004
2047.000000	99.990809
2046.000000	99.992222
2045.000000	99.948501
2044.000000	99.954663
2043.000000	99.974653
2042.000000	99.977282
2041.000000	100.070215
2040.000000	100.049200
2039.000000	99.979301
2038.000000	100.008485
2037.000000	100.022030
2036.000000	100.000000
2035.000000	100.025465
2034.000000	100.018090
2033.000000	99.970086
2032.000000	100.043993
2031.000000	100.002831
2030.000000	99.944223
2029.000000	99.978884
2028.000000	100.001516
2027.000000	100.017692
2026.000000	100.078274
2025.000000	100.054204
2024.000000	100.020628
2023.000000	99.992617
2022.000000	99.902228
2021.000000	99.964312
2020.000000	100.027608
2019.000000	100.035918
2018.000000	100.063662
2017.000000	100.050807
2016.000000	100.012143
2015.000000	99.983101
2014.000000	99.967621
2013.000000	99.970157
2012.000000	100.019938
2011.000000	100.076139
2010.000000	100.025915
2009.000000	99.944333
2008.000000	100.027040
2007.000000	100.035444
2006.000000	99.997468
2005.000000	100.017522
2004.000000	100.024818
2003.000000	99.994124
2002.000000	99.988348
2001.000000	100.017628
2000.000000	99.982378
1999.000000	99.997367
1998.000000	100.042544
1997.000000	100.019247
1996.000000	99.981263
1995.000000	99.965049
1994.000000	99.972241
1993.000000	100.005369
1992.000000	99.944787
1991.000000	99.947518
1990.000000	99.977699
1989.000000	99.998378
1988.000000	99.981457
1987.000000	99.999189
1986.000000	99.984596
1985.000000	99.962200
1984.000000	99.960481
1983.000000	99.988956
1982.000000	100.019767
1981.000000	100.045019
1980.000000	100.018961
1979.000000	99.964526
1978.000000	100.025548
1977.000000	99.997770
1976.000000	99.949419
1975.000000	100.013587
1974.000000	100.031232
1973.000000	100.034587
1972.000000	100.050702
1971.000000	100.050389
1970.000000	99.972845
1969.000000	99.999797
1968.000000	100.001723
1967.000000	100.000000
1966.000000	100.025744
1965.000000	100.031837
1964.000000	100.024431
1963.000000	100.017239
1962.000000	100.038328
1961.000000	100.000811
1960.000000	99.997567
1959.000000	99.994223
1958.000000	100.020481
1957.000000	99.970405
1956.000000	100.009222
1955.000000	99.971222
1954.000000	100.013276
1953.000000	99.988041
1952.000000	100.001317
1951.000000	100.012663
1950.000000	99.966570
1949.000000	100.016213
1948.000000	100.084024
1947.000000	99.945202
1946.000000	99.975685
1945.000000	100.044897
1944.000000	99.978125
1943.000000	100.017830
1942.000000	100.007496
1941.000000	99.978335
1940.000000	99.956352
1939.000000	99.989772
1938.000000	100.032702
1937.000000	99.982291
1936.000000	100.017504
1935.000000	99.992109
1934.000000	99.983911
1933.000000	100.072061
1932.000000	99.908180
1931.000000	99.958832
1930.000000	100.019529
1929.000000	100.012547
1928.000000	100.016589
1927.000000	100.042695
1926.000000	99.987055
1925.000000	99.977648
1924.000000	99.933166
1923.000000	100.010721
1922.000000	100.042110
1921.000000	100.047144
1920.000000	99.913736
1919.000000	99.992209
1918.000000	99.985031
1917.000000	100.000506
1916.000000	99.932550
1915.000000	99.928637
1914.000000	99.960858
1913.000000	100.045632
1912.000000	99.954467
1911.000000	100.048899
1910.000000	99.970047
1909.000000	99.885890
1908.000000	99.949110
1907.000000	99.996052
1906.000000	100.005974
1905.000000	99.984407
1904.000000	100.063527
1903.000000	99.994736
1902.000000	99.939252
1901.000000	100.037782
1900.000000	100.100118
1899.000000	99.989059
1898.000000	100.061408
1897.000000	99.974874
1896.000000	99.978826
1895.000000	100.001722
1894.000000	100.004660
1893.000000	99.986530
1892.000000	100.068299
1891.000000	100.055135
1890.000000	100.056161
1889.000000	100.039719
1888.000000	100.028866
1887.000000	99.971042
1886.000000	100.002632
1885.000000	99.923725
1884.000000	99.968925
1883.000000	99.961636
1882.000000	99.952048
1881.000000	99.971987
1880.000000	100.006575
1879.000000	99.937398
1878.000000	100.032479
1877.000000	100.093322
1876.000000	100.027215
1875.000000	100.014667
1874.000000	99.982605
1873.000000	99.993429
1872.000000	99.991408
1871.000000	100.077185
1870.000000	100.029627
1869.000000	100.006979
1868.000000	99.995753
1867.000000	100.022156
1866.000000	99.988167
1865.000000	100.039252
1864.000000	99.963386
1863.000000	100.002833
1862.000000	100.031473
1861.000000	100.017707
1860.000000	100.030662
1859.000000	100.037241
1858.000000	99.993525
1857.000000	99.985435
1856.000000	99.988268
1855.000000	99.975928
1854.000000	99.995852
1853.000000	99.991402
1852.000000	99.958836
1851.000000	99.959447
1850.000000	99.978661
1849.000000	100.002933
1848.000000	100.046226
1847.000000	100.053427
1846.000000	100.001012
1845.000000	100.018111
1844.000000	100.021649
1843.000000	99.995246
1842.000000	99.960761
1841.000000	99.916697
1840.000000	99.957327
1839.000000	100.006574
1838.000000	100.002832
1837.000000	99.985533
1836.000000	99.995041
1835.000000	100.012956
1834.000000	100.002024
1833.000000	100.038771
1832.000000	100.041204
1831.000000	99.987247
1830.000000	99.979349
1829.000000	99.992305
1828.000000	99.976513
1827.000000	99.966587
1826.000000	99.986633
1825.000000	100.002228
1824.000000	100.013266
1823.000000	100.018833
1822.000000	100.027341
1821.000000	100.017115
1820.000000	99.993317
1819.000000	99.988861
1818.000000	100.000709
1817.000000	99.965972
1816.000000	99.986531
1815.000000	100.017421
1814.000000	99.985517
1813.000000	99.966075
1812.000000	99.966078
1811.000000	99.964661
1810.000000	99.979440
1809.000000	99.995238
1808.000000	100.004661
1807.000000	100.016718
1806.000000	100.022798
1805.000000	99.999899
1804.000000	99.983486
1803.000000	100.004561
1802.000000	100.003952
1801.000000	99.991792
1800.000000	99.994933
1799.000000	100.004966
1798.000000	99.984901
1797.000000	99.979936
1796.000000	99.992703
1795.000000	99.999899
1794.000000	100.019766
1793.000000	100.019462
1792.000000	100.008616
1791.000000	99.988952
1790.000000	99.974053
1789.000000	100.010035
1788.000000	100.019364
1787.000000	100.001723
1786.000000	100.016524
1785.000000	100.014194
1784.000000	99.991788
1783.000000	99.956525
1782.000000	99.986721
1781.000000	100.003142
1780.000000	100.008312
1779.000000	100.024025
1778.000000	100.045727
1777.000000	100.033864
1776.000000	100.005779
1775.000000	99.992195
1774.000000	99.992195
1773.000000	100.000811
1772.000000	99.974664
1771.000000	99.982464
1770.000000	99.987836
1769.000000	99.990269
1768.000000	99.989966
1767.000000	100.017433
1766.000000	100.001419
1765.000000	100.012974
1764.000000	99.990979
1763.000000	99.964735
1762.000000	99.972536
1761.000000	99.985402
1760.000000	100.007807
1759.000000	99.993210
1758.000000	100.010845
1757.000000	100.016725
1756.000000	99.976284
1755.000000	99.982668
1754.000000	99.997466
1753.000000	99.991691
1752.000000	100.011857
1751.000000	99.990373
1750.000000	100.002128
1749.000000	100.002533
1748.000000	99.985308
1747.000000	99.983785
1746.000000	99.999696
1745.000000	99.961595
1744.000000	100.035579
1743.000000	99.977303
1742.000000	99.979833
1741.000000	100.009326
1740.000000	100.040249
1739.000000	100.011349
1738.000000	99.963125
1737.000000	99.993008
1736.000000	99.984803
1735.000000	99.978216
1734.000000	100.006890
1733.000000	99.992298
1732.000000	99.985814
1731.000000	100.021085
1730.000000	100.003547
1729.000000	99.980852
1728.000000	99.961396
1727.000000	100.011755
1726.000000	100.009729
1725.000000	99.988550
1724.000000	99.979231
1723.000000	99.982066
1722.000000	99.979228
1721.000000	100.011957
1720.000000	100.011450
1719.000000	100.007803
1718.000000	99.994021
1717.000000	100.043471
1716.000000	100.014083
1715.000000	99.967480
1714.000000	100.014894
1713.000000	100.014793
1712.000000	100.018342
1711.000000	100.001925
1710.000000	100.003850
1709.000000	100.013377
1708.000000	100.014086
1707.000000	99.994629
1706.000000	99.993819
1705.000000	99.960285
1704.000000	99.992805
1703.000000	99.973354
1702.000000	100.001013
1701.000000	100.000608
1700.000000	99.973964
1699.000000	100.004356
1698.000000	100.020063
1697.000000	99.997163
1696.000000	99.985005
1695.000000	100.018139
1694.000000	100.035569
1693.000000	99.998075
1692.000000	99.996758
1691.000000	100.043168
1690.000000	99.994934
1689.000000	100.000101
1688.000000	99.990071
1687.000000	100.025633
1686.000000	99.980957
1685.000000	100.013575
1684.000000	99.981061
1683.000000	99.972248
1682.000000	100.003646
1681.000000	100.005471
1680.000000	99.999392
1679.000000	100.020670
1678.000000	100.004155
1677.000000	99.980346
1676.000000	99.986323
1675.000000	99.993213
1674.000000	100.006382
1673.000000	100.003647
1672.000000	99.988045
1671.000000	99.987235
1670.000000	99.985313
1669.000000	100.011344
1668.000000	99.985115
1667.000000	100.001215
1666.000000	100.029270
1665.000000	100.007190
1664.000000	100.006786
1663.000000	99.987342
1662.000000	100.008911
1661.000000	100.006685
1660.000000	100.002633
1659.000000	99.991189
1658.000000	100.003747
1657.000000	99.971852
1656.000000	99.984104
1655.000000	99.989773
1654.000000	99.999595
1653.000000	99.990888
1652.000000	100.005670
1651.000000	99.996760
1650.000000	100.011142
1649.000000	100.021370
1648.000000	99.983595
1647.000000	100.006076
1646.000000	100.013674
1645.000000	100.001823
1644.000000	100.016609
1643.000000	99.982991
1642.000000	99.993520
1641.000000	100.000405
1640.000000	99.974889
1639.000000	99.989368
1638.000000	100.006480
1637.000000	100.018938
1636.000000	99.995038
1635.000000	100.013571
1634.000000	99.998683
1633.000000	100.004253
1632.000000	100.013267
1631.000000	99.985722
1630.000000	99.975597
1629.000000	99.992708
1628.000000	100.016103
1627.000000	99.983192
1626.000000	99.995747
1625.000000	99.996050
1624.000000	99.989469
1623.000000	100.021165
1622.000000	100.007189
1621.000000	100.007190
1620.000000	100.016101
1619.000000	100.016001
1618.000000	100.006177
1617.000000	100.009620
1616.000000	99.989469
1615.000000	99.983090
1614.000000	100.007595
1613.000000	100.014077
1612.000000	100.006886
1611.000000	100.009924
1610.000000	100.006278
1609.000000	99.983396
1608.000000	99.985724
1607.000000	100.003139
1606.000000	100.006379
1605.000000	100.019543
1604.000000	100.012253
1603.000000	100.013164
1602.000000	100.020050
1601.000000	99.998886
1600.000000	100.006076
1599.000000	99.994026
1598.000000	99.979750
1597.000000	100.003341
1596.000000	100.005164
1595.000000	99.994735
1594.000000	100.013062
1593.000000	100.009721
1592.000000	99.999393
1591.000000	99.995140
1590.000000	100.006683
1589.000000	99.991900
1588.000000	99.993824
1587.000000	100.006582
1586.000000	99.989268
1585.000000	100.001114
1584.000000	100.017721
1583.000000	100.002633
1582.000000	99.997874
1581.000000	99.991090
1580.000000	99.981170
1579.000000	99.989978
1578.000000	99.994432
1577.000000	99.987953
1576.000000	99.985929
1575.000000	100.019238
1574.000000	100.010125
1573.000000	99.999190
1572.000000	100.010125
1571.000000	99.981677
1570.000000	99.993623
1569.000000	100.004859
1568.000000	99.989877
1567.000000	100.011338
1566.000000	100.008402
1565.000000	99.999595
1564.000000	99.999798
1563.000000	99.991497
1562.000000	99.988562
1561.000000	99.998279
1560.000000	100.001721
1559.000000	100.002530
1558.000000	100.007491
1557.000000	100.010933
1556.000000	100.017717
1555.000000	100.017715
1554.000000	100.013362
1553.000000	99.999798
1552.000000	100.004959
1551.000000	99.981784
1550.000000	100.001822
1549.000000	99.997470
1548.000000	99.995850
1547.000000	99.985831
1546.000000	100.002733
1545.000000	100.008604
1544.000000	100.000911
1543.000000	100.009109
1542.000000	100.000708
1541.000000	100.008704
1540.000000	99.985124
1539.000000	100.009818
1538.000000	100.004048
1537.000000	99.990386
1536.000000	99.979965
1535.000000	99.995042
1534.000000	100.003542
1533.000000	100.016800
1532.000000	99.985832
1531.000000	99.988666
1530.000000	99.998583
1529.000000	99.992107
1528.000000	100.001620
1527.000000	100.019943
1526.000000	100.019033
1525.000000	99.997469
1524.000000	99.989776
1523.000000	99.980466
1522.000000	99.998482
1521.000000	100.001316
1520.000000	99.987552
1519.000000	99.998178
1518.000000	99.982088
1517.000000	99.996964
1516.000000	100.002227
1515.000000	99.992410
1514.000000	99.999089
1513.000000	100.010427
1512.000000	99.993117
1511.000000	100.004151
1510.000000	100.016703
1509.000000	99.998684
1508.000000	99.981376
1507.000000	100.008300
1506.000000	100.001113
1505.000000	99.980364
1504.000000	99.990685
1503.000000	100.019340
1502.000000	99.990585
1501.000000	99.980768
1500.000000	99.981982
1499.000000	99.985727
1498.000000	99.970648
1497.000000	99.995040
1496.000000	100.007593
1495.000000	100.011643
1494.000000	99.993218
1493.000000	100.005567
1492.000000	100.009920
1491.000000	100.004049
1490.000000	99.980771
1489.000000	99.991802
1488.000000	100.008300
1487.000000	100.006478
1486.000000	99.994030
1485.000000	99.996356
1484.000000	100.002834
1483.000000	100.012752
1482.000000	100.004858
1481.000000	99.990286
1480.000000	99.974502
1479.000000	99.983203
1478.000000	100.020646
1477.000000	100.004351
1476.000000	100.002428
1475.000000	100.011131
1474.000000	100.016496
1473.000000	100.006577
1472.000000	99.995244
1471.000000	100.000101
1470.000000	100.017809
1469.000000	99.996863
1468.000000	100.013662
1467.000000	99.999393
1466.000000	100.013055
1465.000000	99.997572
1464.000000	100.005464
1463.000000	99.997774
1462.000000	99.991804
1461.000000	100.002935
1460.000000	99.991298
1459.000000	99.996560
1458.000000	100.009715
1457.000000	100.012145
1456.000000	99.983510
1455.000000	100.002833
1454.000000	100.003642
1453.000000	99.999595
1452.000000	99.995041
1451.000000	99.997774
1450.000000	99.985330
1449.000000	99.988063
1448.000000	100.009309
1447.000000	99.972074
1446.000000	99.998179
1445.000000	99.984322
1444.000000	100.012444
1443.000000	100.007688
1442.000000	99.988368
1441.000000	99.998381
1440.000000	100.005767
1439.000000	99.996155
1438.000000	99.993930
1437.000000	99.989884
1436.000000	100.008498
1435.000000	99.999393
1434.000000	99.991604
1433.000000	99.983311
1432.000000	99.990998
1431.000000	100.004451
1430.000000	100.004249
1429.000000	100.005362
1428.000000	99.996460
1427.000000	99.990795
1426.000000	100.002023
1425.000000	99.980482
1424.000000	99.975934
1423.000000	99.989382
1422.000000	99.987764
1421.000000	99.994641
1420.000000	100.014965
1419.000000	100.023561
1418.000000	99.986857
1417.000000	99.994946
1416.000000	100.011017
1415.000000	100.008590
1414.000000	100.001112
1413.000000	100.001213
1412.000000	99.999091
1411.000000	100.003738
1410.000000	100.005657
1409.000000	99.998990
1408.000000	100.005151
1407.000000	99.998788
1406.000000	99.993436
1405.000000	100.010199
1404.000000	100.011207
1403.000000	100.004341
1402.000000	99.996063
1401.000000	99.994751
1400.000000	99.998789
1399.000000	100.000303
1398.000000	99.992128
1397.000000	99.992432
1396.000000	99.984967
1395.000000	99.976393
1394.000000	99.997074
1393.000000	100.015639
1392.000000	100.009080
1391.000000	99.996873
1390.000000	99.998083
1389.000000	100.003631
1388.000000	100.000605
1387.000000	99.996973
1386.000000	99.991830
1385.000000	99.992032
1384.000000	99.998285
1383.000000	99.994855
1382.000000	99.999798
1381.000000	99.995260
1380.000000	99.998487
1379.000000	99.997277
1378.000000	99.981138
1377.000000	100.010392
1376.000000	100.024617
1375.000000	100.007766
1374.000000	100.013922
1373.000000	99.997377
1372.000000	100.007868
1371.000000	100.015029
1370.000000	99.987595
1369.000000	99.978921
1368.000000	99.999395
1367.000000	100.009078
1366.000000	99.989815
1365.000000	99.984271
1364.000000	99.992640
1363.000000	99.994858
1362.000000	99.982558
1361.000000	100.005446
1360.000000	100.018658
1359.000000	100.006152
1358.000000	100.007464
1357.000000	100.020074
1356.000000	100.018361
1355.000000	100.007971
1354.000000	99.995054
1353.000000	99.992026
1352.000000	99.994549
1351.000000	99.981124
1350.000000	99.988489
1349.000000	100.003333
1348.000000	100.003838
1347.000000	99.994748
1346.000000	99.988082
1345.000000	99.982929
1344.000000	100.003839
1343.000000	99.995657
1342.000000	100.007980
1341.000000	100.007273
1340.000000	100.004242
1339.000000	99.992829
1338.000000	99.995354
1337.000000	100.012221
1336.000000	99.985660
1335.000000	99.989698
1334.000000	99.985963
1333.000000	99.990307
1332.000000	99.981624
1331.000000	99.993034
1330.000000	100.015145
1329.000000	100.022923
1328.000000	99.978291
1327.000000	99.992225
1326.000000	100.008280
1325.000000	99.991113
1324.000000	99.990409
1323.000000	99.994145
1322.000000	100.015246
1321.000000	100.006160
1320.000000	99.986165
1319.000000	100.025753
1318.000000	100.018277
1317.000000	100.004341
1316.000000	100.034036
1315.000000	100.002424
1314.000000	99.962642
1313.000000	99.996768
1312.000000	99.998485
1311.000000	99.991418
1310.000000	99.998283
1309.000000	99.977579
1308.000000	100.009292
1307.000000	99.998687
1306.000000	99.982222
1305.000000	100.022525
1304.000000	99.998586
1303.000000	99.988688
1302.000000	99.974855
1301.000000	99.982426
1300.000000	100.006162
1299.000000	100.006668
1298.000000	100.002727
1297.000000	99.989800
1296.000000	99.994950
1295.000000	99.994142
1294.000000	100.008283
1293.000000	100.015758
1292.000000	99.986467
1291.000000	100.010806
1290.000000	100.006767
1289.000000	99.975159
1288.000000	100.023025
1287.000000	99.986269
1286.000000	99.976478
1285.000000	100.000000
1284.000000	99.998284
1283.000000	99.981123
1282.000000	99.998789
1281.000000	99.990410
1280.000000	99.996770
1279.000000	99.988395
1278.000000	100.014632
1277.000000	99.976190
1276.000000	100.006458
1275.000000	99.986480
1274.000000	100.001312
1273.000000	100.000202
1272.000000	100.001816
1271.000000	100.023506
1270.000000	100.008777
1269.000000	100.016643
1268.000000	100.016240
1267.000000	99.991827
1266.000000	99.995965
1265.000000	100.014019
1264.000000	100.000101
1263.000000	99.994151
1262.000000	99.975196
1261.000000	99.996572
1260.000000	100.006255
1259.000000	100.012505
1258.000000	100.019466
1257.000000	99.999798
1256.000000	99.992640
1255.000000	100.001916
1254.000000	100.000504
1253.000000	100.006858
1252.000000	99.994151
1251.000000	100.019766
1250.000000	100.009985
1249.000000	100.020977
1248.000000	99.982555
1247.000000	100.023096
1246.000000	100.005143
1245.000000	99.991328
1244.000000	99.998588
1243.000000	99.996471
1242.000000	99.984474
1241.000000	99.986392
1240.000000	99.973695
1239.000000	99.980646
1238.000000	100.021979
1237.000000	99.996876
1236.000000	100.013102
1235.000000	100.005039
1234.000000	100.007456
1233.000000	100.004836
1232.000000	100.018236
1231.000000	100.015415
1230.000000	100.012290
1229.000000	100.024677
1228.000000	100.030416
1227.000000	100.012589
1226.000000	100.019738
1225.000000	100.001711
1224.000000	99.983994
1223.000000	99.991646
1222.000000	99.995169
1221.000000	99.992251
1220.000000	99.999296
1219.000000	100.003219
1218.000000	100.003722
1217.000000	99.999598
1216.000000	100.019115
1215.000000	100.024151
1214.000000	100.008047
1213.000000	100.004828
1212.000000	99.999799
1211.000000	99.970834
1210.000000	100.028368
1209.000000	99.998190
1208.000000	100.020421
1207.000000	99.982198
1206.000000	99.995374
1205.000000	100.015890
1204.000000	100.012674
1203.000000	100.007140
1202.000000	99.980191
1201.000000	99.992960
1200.000000	100.020418
1199.000000	100.012268
1198.000000	100.008245
1197.000000	99.993062
1196.000000	99.990950
1195.000000	100.011164
1194.000000	99.994972
1193.000000	99.993264
1192.000000	100.003217
1191.000000	99.989544
1190.000000	99.989845
1189.000000	99.992358
1188.000000	99.995073
1187.000000	99.992760
1186.000000	100.000302
1185.000000	100.030266
1184.000000	100.008043
1183.000000	99.989848
1182.000000	99.990251
1181.000000	99.981709
1180.000000	99.990453
1179.000000	99.986233
1178.000000	99.995478
1177.000000	99.995881
1176.000000	99.992565
1175.000000	99.999498
1174.000000	100.006731
1173.000000	100.011049
1172.000000	100.006026
1171.000000	99.998895
1170.000000	99.997289
1169.000000	99.988655
1168.000000	99.997791
1167.000000	100.011746
1166.000000	100.003413
1165.000000	99.999097
1164.000000	100.000100
1163.000000	100.000301
1162.000000	99.991270
1161.000000	99.987759
1160.000000	100.002909
1159.000000	100.019061
1158.000000	100.018858
1157.000000	100.001805
1156.000000	99.998195
1155.000000	99.992682
1154.000000	99.982259
1153.000000	99.988374
1152.000000	99.987773
1151.000000	99.984066
1150.000000	99.990479
1149.000000	99.995992
1148.000000	100.000301
1147.000000	99.997195
1146.000000	99.986278
1145.000000	99.982976
1144.000000	100.003305
1143.000000	100.011215
1142.000000	99.997897
1141.000000	99.996596
1140.000000	100.001201
1139.000000	99.995996
1138.000000	99.988291
1137.000000	99.997898
1136.000000	99.990295
1135.000000	99.984897
1134.000000	99.990398
1133.000000	99.989499
1132.000000	100.001700
1131.000000	100.006199
1130.000000	100.017998
1129.000000	100.010797
1128.000000	100.005897
1127.000000	100.002898
1126.000000	100.011894
1125.000000	100.008994
1124.000000	99.994705
1123.000000	99.987114
1122.000000	99.985915
1121.000000	99.995405
1120.000000	99.994607
1119.000000	99.998902
1118.000000	99.997903
1117.000000	99.991814
1116.000000	100.005290
1115.000000	100.000699
1114.000000	99.997405
1113.000000	100.000798
1112.000000	100.014966
1111.000000	100.020056
1110.000000	100.005487
1109.000000	99.995612
1108.000000	99.998305
1107.000000	99.999801
1106.000000	100.023936
1105.000000	99.999202
1104.000000	99.983456
1103.000000	100.004684
1102.000000	100.010462
1101.000000	100.003885
1100.000000	100.032976
1099.000000	100.011156
1098.000000	100.005378
1097.000000	99.996714
1096.000000	100.017723
1095.000000	100.009755
1094.000000	100.006071
1093.000000	99.996418
1092.000000	99.990748
1091.000000	99.991644
1090.000000	100.000298
1089.000000	99.983793
1088.000000	99.991450
1087.000000	100.020478
1086.000000	100.004273
1085.000000	100.018584
1084.000000	100.003477
1083.000000	100.010232
1082.000000	100.005165
1081.000000	100.000199
1080.000000	99.998114
1079.000000	100.006651
1078.000000	100.016872
1077.000000	100.000695
1076.000000	100.012502
1075.000000	100.005357
1074.000000	99.968669
1073.000000	99.990978
1072.000000	99.989196
1071.000000	99.971957
1070.000000	100.002973
1069.000000	99.997226
1068.000000	99.992173
1067.000000	100.026649
1066.000000	99.996040
1065.000000	99.999109
1064.000000	99.980701
1063.000000	100.004255
1062.000000	99.966070
1061.000000	99.984768
1060.000000	99.989815
1059.000000	100.011173
1058.000000	99.988931
1057.000000	100.001977
1056.000000	99.976684
1055.000000	100.009978
1054.000000	100.012345
1053.000000	100.019747
1052.000000	100.014116
1051.000000	100.014410
1050.000000	100.016379
1049.000000	100.025749
1048.000000	100.011932
1047.000000	99.978017
1046.000000	100.005126
1045.000000	99.979897
1044.000000	99.987980
1043.000000	99.972033
1042.000000	100.002757
1041.000000	100.000689
1040.000000	99.998720
1039.000000	100.005412
1038.000000	99.999508
1037.000000	99.989772
1036.000000	99.991349
1035.000000	99.986927
1034.000000	100.005798
1033.000000	100.009137
1032.000000	100.016403
1031.000000	99.999018
1030.000000	99.990676
1029.000000	99.991856
1028.000000	99.990974
1027.000000	100.001177
1026.000000	99.982747
1025.000000	100.001372
1024.000000	99.993338
1023.000000	99.990892
1022.000000	100.005386
1021.000000	99.992658
1020.000000	100.006361
1019.000000	99.993544
1018.000000	100.010954
1017.000000	99.984456
1016.000000	99.990031
1015.000000	100.004006
1014.000000	100.010256
1013.000000	100.014453
1012.000000	100.007517
1011.000000	99.998341
1010.000000	99.996391
1009.000000	99.985182
1008.000000	100.013645
1007.000000	99.995713
1006.000000	99.998149
1005.000000	100.004479
1004.000000	99.990072
1003.000000	100.004962
1002.000000	99.989303
1001.000000	100.002236
1000.000000	99.993878
999.000000	99.997960
998.000000	99.996892
997.000000	100.006310
996.000000	99.988356
995.000000	99.984869
994.000000	99.993407
993.000000	100.009887
992.000000	100.011628
991.000000	99.995351
990.000000	99.977251
989.000000	99.977357
988.000000	100.003773
987.000000	100.016923
986.000000	100.006573
985.000000	99.994493
984.000000	99.984355
983.000000	99.995270
982.000000	100.001448
981.000000	99.993923
980.000000	99.979945
979.000000	99.984002
978.000000	99.990174
977.000000	99.985364
976.000000	99.999711
975.000000	100.015493
974.000000	100.023087
973.000000	100.007306
972.000000	99.996349
971.000000	100.014983
970.000000	100.014112
969.000000	100.005277
968.000000	99.998849
967.000000	99.974601
966.000000	99.965323
965.000000	99.985157
964.000000	99.999138
963.000000	100.011768
962.000000	100.030507
961.000000	100.012231
960.000000	99.984625
959.000000	99.993509
958.000000	99.994752
957.000000	99.989702
956.000000	99.993710
955.000000	99.986664
954.000000	99.970109
953.000000	99.976405
952.000000	99.979366
951.000000	99.976622
950.000000	99.996960
949.000000	100.001234
948.000000	100.001613
947.000000	99.994026
946.000000	99.993651
945.000000	99.986931
944.000000	99.949001
943.000000	99.943934
942.000000	99.983460
941.000000	100.023621
940.000000	99.988578
939.000000	99.979341
938.000000	100.007449
937.000000	99.991331
936.000000	99.964034
935.000000	99.973184
934.000000	100.017681
933.000000	100.015039
932.000000	99.986945
931.000000	100.000751
930.000000	100.016697
929.000000	100.024279
928.000000	100.008898
927.000000	99.981845
926.000000	100.023855
925.000000	100.062463
924.000000	100.033635
923.000000	100.015776
922.000000	100.023509
921.000000	99.994034
920.000000	99.972615
919.000000	100.009683
918.000000	100.002512
917.000000	100.034678
916.000000	100.016999
915.000000	100.006405
914.000000	99.999165
913.000000	99.988789
912.000000	99.994259
911.000000	99.989640
910.000000	99.991774
909.000000	99.999446
908.000000	99.968346
907.000000	100.000553
906.000000	100.008107
905.000000	100.014360
904.000000	100.029248
903.000000	100.020584
902.000000	99.994951
901.000000	99.956529
900.000000	100.010726
899.000000	100.011080
898.000000	99.962132
897.000000	99.947816
896.000000	100.005662
895.000000	99.959850
894.000000	99.976934
893.000000	99.969773
892.000000	99.996451
891.000000	100.008636
890.000000	99.991647
889.000000	100.028860
888.000000	100.036725
887.000000	99.982796
886.000000	99.952592
885.000000	99.971251
884.000000	100.026735
883.000000	100.008119
882.000000	99.963233
881.000000	100.042165
880.000000	100.051037
879.000000	99.990294
878.000000	99.962016
877.000000	99.984301
876.000000	100.023324
875.000000	99.978405
874.000000	100.022290
873.000000	99.991148
872.000000	99.994191
871.000000	100.094756
870.000000	99.959253
869.000000	100.049360
868.000000	100.000089
867.000000	100.065019
866.000000	99.958061
865.000000	99.987126
864.000000	99.980931
863.000000	99.975907
862.000000	99.956004
861.000000	100.077336
860.000000	99.963243
859.000000	99.864616
858.000000	99.557707
857.000000	99.580128
856.000000	99.994124
855.000000	99.800232
854.000000	100.223484
853.000000	99.817735
852.000000	99.287441
851.000000	99.610097
850.000000	100.069559
849.000000	99.494731
848.000000	99.744128
847.000000	100.287924
846.000000	99.962425
845.000000	99.445187
844.000000	100.018576
843.000000	99.881600
842.000000	100.137965
841.000000	100.095829
840.000000	99.707008
839.000000	99.962318
838.000000	99.940496
837.000000	100.004754
836.000000	99.970519
835.000000	100.160069
834.000000	99.890383
833.000000	99.843735
832.000000	100.093004
831.000000	100.291373
830.000000	100.121451
829.000000	100.017922
828.000000	100.255803
827.000000	99.912146
826.000000	100.176270
825.000000	99.930676
824.000000	99.820228
823.000000	99.810002
822.000000	99.830171
821.000000	99.865805
820.000000	100.064452
819.000000	99.978912
818.000000	99.928956
817.000000	99.966220
816.000000	99.974747
815.000000	99.859183
814.000000	99.945741
813.000000	99.929473
812.000000	100.132613
811.000000	99.727068
810.000000	99.661544
809.000000	99.906878
808.000000	100.031362
807.000000	99.946222
806.000000	100.042355
805.000000	99.957624
804.000000	99.818939
803.000000	100.076844
802.000000	99.933131
801.000000	99.824693
800.000000	99.765621
799.000000	99.861831
798.000000	100.005729
797.000000	100.040282
796.000000	100.055037
795.000000	100.024790
794.000000	100.046817
793.000000	100.016000
792.000000	100.108898
791.000000	99.956712
790.000000	99.923773
789.000000	99.806074
788.000000	99.971412
787.000000	100.068424
786.000000	99.965576
785.000000	99.939795
784.000000	99.908907
783.000000	99.996100
782.000000	99.988385
781.000000	100.074281
780.000000	99.989439
779.000000	99.967253
778.000000	99.891261
777.000000	99.954129
776.000000	99.959207
775.000000	99.861772
774.000000	99.886059
773.000000	99.974889
772.000000	100.095865
771.000000	99.958713
770.000000	100.081252
769.000000	99.977187
768.000000	100.094651
767.000000	99.851052
766.000000	99.889309
765.000000	100.066323
764.000000	100.007955
763.000000	99.985610
762.000000	99.883488
761.000000	99.947527
760.000000	99.957906
759.000000	100.143357
758.000000	99.976957
757.000000	99.990399
756.000000	99.991115
755.000000	99.915208
754.000000	99.963443
753.000000	99.908786
752.000000	99.832464
751.000000	100.000810
750.000000	99.967890
749.000000	99.991993
748.000000	99.982086
747.000000	100.025131
746.000000	100.101177
745.000000	99.958800
744.000000	99.927580
743.000000	99.935950
742.000000	100.021845
741.000000	100.004425
740.000000	99.896485
739.000000	99.973731
738.000000	99.912270
737.000000	99.980738
736.000000	100.057731
735.000000	100.041837
734.000000	99.985967
733.000000	99.998190
732.000000	99.968959
731.000000	99.968489
730.000000	99.889866
729.000000	99.926618
728.000000	99.918421
727.000000	99.962188
726.000000	99.957567
725.000000	99.972149
724.000000	100.028064
723.000000	99.985380
722.000000	99.920930
721.000000	100.001544
720.000000	100.063911
719.000000	100.037916
718.000000	100.021186
717.000000	99.980625
716.000000	99.940956
715.000000	99.956496
714.000000	100.054999
713.000000	100.085652
712.000000	100.076587
711.000000	100.058177
710.000000	99.940849
709.000000	99.940660
708.000000	100.003102
707.000000	100.007573
706.000000	100.012686
705.000000	100.003195
704.000000	99.998265
703.000000	100.017988
702.000000	100.023747
701.000000	99.916887
700.000000	99.903629
699.000000	99.972397
698.000000	99.962696
697.000000	99.946607
696.000000	99.992224
695.000000	99.985449
694.000000	99.983252
693.000000	99.920143
692.000000	99.917813
691.000000	99.946352
690.000000	99.946608
689.000000	99.983242
688.000000	99.970166
687.000000	99.994690
686.000000	99.952400
685.000000	99.944244
684.000000	99.982152
683.000000	99.975827
682.000000	99.944590
681.000000	99.982682
680.000000	100.053554
679.000000	100.058324
678.000000	99.961503
677.000000	100.008526
676.000000	99.991840
675.000000	99.929378
674.000000	99.871071
673.000000	99.868121
672.000000	99.926124
671.000000	100.008355
670.000000	100.006245
669.000000	99.947301
668.000000	99.949412
667.000000	99.945646
666.000000	99.987787
665.000000	100.001654
664.000000	99.953062
663.000000	99.990993
662.000000	99.971034
661.000000	99.979306
660.000000	99.993379
659.000000	99.984644
658.000000	99.991078
657.000000	99.976176
656.000000	99.938833
655.000000	99.943331
654.000000	99.969728
653.000000	100.028356
652.000000	99.936389
651.000000	99.978727
650.000000	99.992264
649.000000	100.054269
648.000000	100.040459
647.000000	100.045430
646.000000	100.023407
645.000000	99.970141
644.000000	100.025906
643.000000	99.960549
642.000000	99.967279
641.000000	100.049716
640.000000	99.979254
639.000000	99.944563
638.000000	100.005538
637.000000	99.979244
636.000000	100.051051
635.000000	99.976553
634.000000	99.899716
633.000000	99.968616
632.000000	99.881422
631.000000	99.905834
630.000000	99.918297
629.000000	99.981436
628.000000	99.926031
627.000000	100.008133
626.000000	99.989097
625.000000	99.986787
624.000000	99.953727
623.000000	100.040831
622.000000	99.958962
621.000000	100.030526
620.000000	99.939445
619.000000	100.060044
618.000000	99.990656
617.000000	100.010729
616.000000	99.970680
615.000000	99.953910
614.000000	99.936709
613.000000	100.040540
612.000000	100.042944
611.000000	99.996207
610.000000	99.986299
609.000000	99.948437
608.000000	100.059021
607.000000	100.143689
606.000000	100.160528
605.000000	100.060101
604.000000	99.902331
603.000000	99.978694
602.000000	99.994441
601.000000	99.927776
600.000000	100.023522
599.000000	99.904206
598.000000	99.953396
597.000000	99.935489
596.000000	99.913904
595.000000	99.959214
594.000000	99.900965
593.000000	99.975070
592.000000	99.947375
591.000000	100.013539
590.000000	99.953640
589.000000	99.911109
588.000000	99.961453
587.000000	100.058254
586.000000	99.926816
585.000000	99.926213
584.000000	99.940642
583.000000	99.980992
582.000000	100.061050
581.000000	100.085585
580.000000	100.023009
579.000000	100.009561
578.000000	99.890520
577.000000	99.937479
576.000000	100.018372
575.000000	99.973095
574.000000	99.921266
573.000000	100.054490
572.000000	99.924362
571.000000	99.973827
570.000000	99.965007
569.000000	99.993966
568.000000	99.914686
567.000000	100.081131
566.000000	99.976233
565.000000	99.967586
564.000000	99.944998
563.000000	99.983649
562.000000	99.907327
561.000000	99.950497
560.000000	100.035208
559.000000	100.015328
558.000000	100.006503
557.000000	99.930353
556.000000	100.041345
555.000000	99.981328
554.000000	99.906424
553.000000	99.889224
552.000000	100.013758
551.000000	99.974996
550.000000	99.926781
549.000000	99.898737
548.000000	99.873775
547.000000	99.948030
546.000000	99.947949
545.000000	99.987636
544.000000	100.040346
543.000000	100.022698
542.000000	99.896320
541.000000	99.886951
540.000000	99.920037
539.000000	99.957314
538.000000	100.042319
537.000000	100.002606
536.000000	99.942518
535.000000	99.955440
534.000000	99.929561
533.000000	99.999348
532.000000	99.966780
531.000000	99.986693
530.000000	99.978217
529.000000	99.958573
528.000000	99.983616
527.000000	99.942217
526.000000	100.001117
525.000000	100.035947
524.000000	99.932405
523.000000	99.958281
522.000000	100.001863
521.000000	100.033626
520.000000	99.963402
519.000000	99.992456
518.000000	99.891441
517.000000	99.926826
516.000000	99.951206
515.000000	100.003446
514.000000	100.000373
513.000000	100.029534
512.000000	100.011368
511.000000	99.974655
510.000000	99.909833
509.000000	99.947175
508.000000	99.935066
507.000000	100.007362
506.000000	100.037850
505.000000	99.997576
504.000000	99.972136
503.000000	99.979778
502.000000	99.994038
501.000000	99.960939
500.000000	99.940771
499.000000	100.048518
498.000000	100.023968
497.000000	99.990022
496.000000	99.989744
495.000000	100.080579
494.000000	100.020884
493.000000	99.988163
492.000000	99.972966
491.000000	99.974180
490.000000	99.988535
489.000000	99.984527
488.000000	99.969056
487.000000	99.922488
486.000000	99.979872
485.000000	99.995154
484.000000	99.952644
483.000000	99.916208
482.000000	99.989170
481.000000	99.995984
480.000000	99.953418
479.000000	99.948834
478.000000	99.990379
477.000000	99.981035
476.000000	100.061991
475.000000	100.041714
474.000000	99.972143
473.000000	99.959635
472.000000	100.025616
471.000000	100.016741
470.000000	100.027970
469.000000	99.976247
468.000000	99.910051
467.000000	99.996444
466.000000	99.964446
465.000000	99.898033
464.000000	99.946175
463.000000	100.005056
462.000000	100.006742
461.000000	100.028094
460.000000	100.036227
459.000000	99.986056
458.000000	100.008053
457.000000	100.012824
456.000000	100.038577
455.000000	100.057242
454.000000	100.001967
453.000000	99.938686
452.000000	99.904016
451.000000	99.984443
450.000000	99.994473
449.000000	99.975543
448.000000	99.983226
447.000000	99.963173
446.000000	99.986876
445.000000	99.942547
444.000000	99.982939
443.000000	100.062726
442.000000	100.097194
441.000000	100.066176
440.000000	100.073811
439.000000	100.037653
438.000000	100.021593
437.000000	99.952327
436.000000	99.956155
435.000000	99.960003
434.000000	99.999718
433.000000	100.065874
432.000000	100.025652
431.000000	99.972200
430.000000	99.987319
429.000000	99.968147
428.000000	99.982514
427.000000	99.971425
426.000000	99.996616
425.000000	99.990786
424.000000	99.999436
423.000000	99.961525
422.000000	99.960476
421.000000	99.950032
420.000000	99.971962
419.000000	99.991628
418.000000	99.977332
417.000000	99.947780
416.000000	99.969772
415.000000	100.003862
414.000000	99.958088
413.000000	99.994914
412.000000	99.952063
411.000000	99.971165
410.000000	99.963807
409.000000	99.975120
408.000000	99.992085
407.000000	100.041099
406.000000	100.025179
405.000000	99.998774
404.000000	99.888372
403.000000	99.955413
402.000000	100.024054
401.000000	99.989439
400.000000	100.098033
399.000000	99.925312
398.000000	100.003211
397.000000	99.981788
396.000000	99.957067
395.000000	99.919848
394.000000	99.911531
393.000000	99.952037
392.000000	100.036347
391.000000	100.023334
390.000000	100.009820
389.000000	100.020503
388.000000	100.061154
387.000000	100.063708
386.000000	99.940589
385.000000	99.992064
384.000000	100.088028
383.000000	99.929513
382.000000	100.057008
381.000000	100.054374
380.000000	99.997826
379.000000	100.104589
378.000000	99.992740
377.000000	99.987772
376.000000	100.043727
375.000000	100.156394
374.000000	100.085028
373.000000	100.086655
372.000000	100.041729
371.000000	99.911507
370.000000	99.898274
369.000000	100.034206
368.000000	99.779734
367.000000	99.942923
366.000000	99.869575
365.000000	99.845474
364.000000	100.135503
363.000000	100.042377
362.000000	99.931679
361.000000	100.113649
360.000000	99.914566
359.000000	100.223840
358.000000	100.040176
357.000000	99.683919
356.000000	99.860085
355.000000	100.088704
354.000000	99.943111
353.000000	100.080646
352.000000	99.936519
351.000000	100.132833
350.000000	100.360134
349.000000	100.125029
348.000000	99.853209
347.000000	100.022414
346.000000	100.240793
345.000000	99.763891
344.000000	100.045773
343.000000	99.818628
342.000000	99.901453
341.000000	100.119369
340.000000	100.040515
339.000000	99.751714
338.000000	99.812474
337.000000	99.660222
336.000000	99.989066
335.000000	100.122933
334.000000	99.889968
333.000000	99.939809
332.000000	99.760065
331.000000	99.951624
330.000000	99.897723
329.000000	100.514543
328.000000	99.531752
327.000000	99.845667
326.000000	100.026618
325.000000	99.581275
324.000000	99.752554
323.000000	100.282535
322.000000	99.817480
321.000000	99.973830
320.000000	100.215226
319.000000	99.880801
318.000000	99.795206
317.000000	99.861186
316.000000	100.019432
315.000000	100.035857
314.000000	99.859867
313.000000	100.152011
312.000000	100.150621
311.000000	100.090138
310.000000	100.057458
309.000000	99.822002
308.000000	100.183154
307.000000	100.313688
306.000000	99.883306
305.000000	99.821991
304.000000	99.981804
303.000000	100.101635
302.000000	100.126368
301.000000	99.870653
300.000000	99.980473
299.000000	99.951522
298.000000	99.758191
297.000000	99.794239
296.000000	100.229485
295.000000	99.979673
294.000000	100.092841
293.000000	100.206489
292.000000	100.064883
291.000000	100.025514
290.000000	99.721504
289.000000	100.165539
288.000000	100.136710
287.000000	99.998206
286.000000	99.906019
285.000000	100.169831
284.000000	100.093604
283.000000	100.261632
282.000000	100.350918
281.000000	99.968296
280.000000	99.886183
279.000000	99.814253
278.000000	100.193916
277.000000	99.796629
276.000000	100.070741
275.000000	100.062387
274.000000	99.820018
273.000000	99.837854
272.000000	99.922889
271.000000	99.908731
270.000000	100.099274
269.000000	100.126045
268.000000	99.873488
267.000000	100.009520
266.000000	99.871177
265.000000	99.940913
264.000000	99.887010
263.000000	100.017889
262.000000	100.120463
261.000000	99.948080
260.000000	99.682301
259.000000	100.017618
258.000000	100.191736
257.000000	99.996552
256.000000	100.063764
255.000000	99.818333
254.000000	100.026411
253.000000	100.005246
252.000000	99.902475
251.000000	99.962335
250.000000	99.741297
249.000000	99.607769
248.000000	99.889859
247.000000	100.063628
246.000000	100.094226
245.000000	99.992504
244.000000	99.983604
243.000000	99.866619
242.000000	99.921013
241.000000	99.767369
240.000000	99.640497
239.000000	99.779343
238.000000	99.995249
237.000000	100.338188
236.000000	100.338285
235.000000	100.204163
234.000000	99.999685
233.000000	100.099533
232.000000	100.257025
231.000000	100.169284
230.000000	99.968422
229.000000	100.026847
228.000000	99.916572
227.000000	100.019368
226.000000	100.213378
225.000000	99.898530
224.000000	99.619371
223.000000	99.970748
222.000000	100.346483
221.000000	100.020394
220.000000	100.013691
219.000000	99.938092
218.000000	100.034302
217.000000	100.355920
216.000000	100.089751
215.000000	100.356976
214.000000	100.399657
213.000000	99.987395
212.000000	100.063158
211.000000	100.172511
210.000000	100.042196
209.000000	100.285120
208.000000	100.208121
207.000000	99.721243
206.000000	100.121645
205.000000	100.231935
204.000000	99.320404
203.000000	99.677966
202.000000	100.384237
201.000000	100.180912
200.000000	100.090845
