PE UV       SUBTECH     SPECTRUM    ASCII       PEDS        4.00        
   -1
TDVeauUK 42.Sample.asc
18/03/01
09:47:42.00
18/03/01
09:47:42.00
Administrator

200.000000
1
Lambda 750
750N8071901
PerkinElmer UV WinLab 6.0.4.0738 / 1.61.00 Lambda 900

0
0
3350/servo 860.8/2
0
0
UV/VIS
1
1
1
CommonBeamDepol,150mm sphere / downward view
0
0
0
0
Program
Program
3350/servo 860.8/2
3350/0.2 860.8/0.2
3350/0.2 860.8/0.2
0
1
 
 
 
0
 
860.8
319.2
860.8
Front
100
on
 
 
0
0
0
 
0
 
 
 
0
 
 
0
0
0
0
0
 
 
 
 
0
0


0
0
#HDR
-1
-1
#GR
nm
%T
1.0
0.0
2350.000000
-1.000000
2151
8
54.485897
0.251359
#DATA
2350.000000	17.799851
2349.000000	17.854021
2348.000000	17.565531
2347.000000	18.593166
2346.000000	17.966639
2345.000000	17.852475
2344.000000	17.973390
2343.000000	17.690367
2342.000000	17.496914
2341.000000	17.825456
2340.000000	18.054022
2339.000000	18.504123
2338.000000	18.204572
2337.000000	18.276669
2336.000000	18.431596
2335.000000	18.482723
2334.000000	18.469641
2333.000000	18.403890
2332.000000	18.556970
2331.000000	18.398325
2330.000000	18.332221
2329.000000	18.393217
2328.000000	18.282408
2327.000000	18.321719
2326.000000	18.559834
2325.000000	18.492926
2324.000000	18.391096
2323.000000	18.218812
2322.000000	18.024463
2321.000000	18.122940
2320.000000	18.220557
2319.000000	18.125673
2318.000000	18.205476
2317.000000	18.127010
2316.000000	17.791443
2315.000000	17.938092
2314.000000	17.811659
2313.000000	17.927956
2312.000000	17.585538
2311.000000	17.409239
2310.000000	17.310261
2309.000000	17.660748
2308.000000	17.188705
2307.000000	17.195115
2306.000000	16.945641
2305.000000	17.023375
2304.000000	16.873685
2303.000000	16.722135
2302.000000	16.738098
2301.000000	16.467098
2300.000000	16.279944
2299.000000	16.208485
2298.000000	16.107336
2297.000000	15.930907
2296.000000	15.823507
2295.000000	15.866108
2294.000000	15.556745
2293.000000	15.550118
2292.000000	15.499605
2291.000000	15.520455
2290.000000	15.464271
2289.000000	15.294363
2288.000000	15.326331
2287.000000	15.191583
2286.000000	15.123025
2285.000000	15.010734
2284.000000	15.081269
2283.000000	15.138375
2282.000000	14.958125
2281.000000	15.058915
2280.000000	15.246440
2279.000000	15.073962
2278.000000	14.985900
2277.000000	15.187419
2276.000000	15.218126
2275.000000	15.281980
2274.000000	15.331561
2273.000000	15.464507
2272.000000	15.507862
2271.000000	15.406359
2270.000000	15.439115
2269.000000	15.471117
2268.000000	15.466566
2267.000000	15.578777
2266.000000	15.808211
2265.000000	15.952600
2264.000000	16.177079
2263.000000	16.363122
2262.000000	16.526263
2261.000000	16.739888
2260.000000	16.932167
2259.000000	17.205541
2258.000000	17.466302
2257.000000	17.675043
2256.000000	17.809379
2255.000000	17.992056
2254.000000	18.280240
2253.000000	18.431195
2252.000000	18.605031
2251.000000	18.833337
2250.000000	19.086708
2249.000000	19.458406
2248.000000	19.800711
2247.000000	19.959927
2246.000000	20.152238
2245.000000	20.280836
2244.000000	20.562920
2243.000000	20.929981
2242.000000	21.231342
2241.000000	21.379747
2240.000000	21.481101
2239.000000	21.577424
2238.000000	21.637218
2237.000000	21.809819
2236.000000	22.083353
2235.000000	22.147969
2234.000000	22.207407
2233.000000	22.297292
2232.000000	22.373368
2231.000000	22.512143
2230.000000	22.510818
2229.000000	22.505788
2228.000000	22.597461
2227.000000	22.510641
2226.000000	22.360033
2225.000000	22.360685
2224.000000	22.343174
2223.000000	22.340760
2222.000000	22.461034
2221.000000	22.457519
2220.000000	22.374649
2219.000000	22.241603
2218.000000	22.162104
2217.000000	22.069655
2216.000000	22.114380
2215.000000	22.136422
2214.000000	21.974453
2213.000000	21.881519
2212.000000	21.925389
2211.000000	21.855723
2210.000000	21.814772
2209.000000	21.686089
2208.000000	21.461180
2207.000000	21.434275
2206.000000	21.412399
2205.000000	21.308736
2204.000000	21.170377
2203.000000	21.000994
2202.000000	20.906110
2201.000000	20.869280
2200.000000	20.793090
2199.000000	20.694859
2198.000000	20.719045
2197.000000	20.576465
2196.000000	20.405714
2195.000000	20.278684
2194.000000	20.294846
2193.000000	20.139929
2192.000000	20.028253
2191.000000	19.943623
2190.000000	19.914228
2189.000000	19.844067
2188.000000	19.742997
2187.000000	19.663262
2186.000000	19.533645
2185.000000	19.463971
2184.000000	19.556332
2183.000000	19.476158
2182.000000	19.205839
2181.000000	19.192913
2180.000000	19.150581
2179.000000	19.054584
2178.000000	19.169894
2177.000000	19.325004
2176.000000	19.301142
2175.000000	19.303172
2174.000000	19.171421
2173.000000	19.133254
2172.000000	19.305456
2171.000000	19.426755
2170.000000	19.388099
2169.000000	19.441325
2168.000000	19.633368
2167.000000	19.789633
2166.000000	19.757506
2165.000000	19.819188
2164.000000	20.138283
2163.000000	20.137309
2162.000000	20.230729
2161.000000	20.339884
2160.000000	20.501204
2159.000000	20.680135
2158.000000	20.783842
2157.000000	21.075499
2156.000000	21.163073
2155.000000	21.271511
2154.000000	21.666411
2153.000000	21.860644
2152.000000	22.088743
2151.000000	22.112986
2150.000000	22.126724
2149.000000	22.250469
2148.000000	22.555425
2147.000000	22.693379
2146.000000	22.792719
2145.000000	23.002535
2144.000000	23.133735
2143.000000	23.362126
2142.000000	23.478324
2141.000000	23.649026
2140.000000	24.017179
2139.000000	23.980299
2138.000000	24.352512
2137.000000	24.282983
2136.000000	24.571218
2135.000000	24.555054
2134.000000	24.680280
2133.000000	24.588051
2132.000000	24.806961
2131.000000	25.111747
2130.000000	25.284824
2129.000000	25.164828
2128.000000	25.359593
2127.000000	25.220375
2126.000000	25.333908
2125.000000	25.350295
2124.000000	25.494493
2123.000000	25.456667
2122.000000	25.793559
2121.000000	25.816673
2120.000000	25.751813
2119.000000	25.786558
2118.000000	25.921431
2117.000000	25.922002
2116.000000	25.906630
2115.000000	26.015357
2114.000000	26.108328
2113.000000	26.113473
2112.000000	25.956821
2111.000000	26.060084
2110.000000	26.154079
2109.000000	26.272861
2108.000000	26.212468
2107.000000	26.234816
2106.000000	26.201736
2105.000000	26.071231
2104.000000	26.306532
2103.000000	26.372064
2102.000000	26.369926
2101.000000	26.446488
2100.000000	26.485171
2099.000000	26.369502
2098.000000	26.307792
2097.000000	26.353991
2096.000000	26.364227
2095.000000	26.448436
2094.000000	26.381044
2093.000000	26.356541
2092.000000	26.242329
2091.000000	26.288395
2090.000000	26.253746
2089.000000	26.282047
2088.000000	26.186836
2087.000000	26.101456
2086.000000	26.086196
2085.000000	26.165896
2084.000000	26.079275
2083.000000	25.972851
2082.000000	25.890934
2081.000000	25.811025
2080.000000	25.745127
2079.000000	25.686765
2078.000000	25.513333
2077.000000	25.421144
2076.000000	25.351167
2075.000000	25.227991
2074.000000	25.083288
2073.000000	24.943045
2072.000000	24.756786
2071.000000	24.602168
2070.000000	24.517819
2069.000000	24.324281
2068.000000	24.069691
2067.000000	24.038075
2066.000000	23.854943
2065.000000	23.636443
2064.000000	23.457296
2063.000000	23.293782
2062.000000	23.112801
2061.000000	22.833472
2060.000000	22.703954
2059.000000	22.562861
2058.000000	22.306713
2057.000000	22.171404
2056.000000	22.047539
2055.000000	21.864957
2054.000000	21.668296
2053.000000	21.483784
2052.000000	21.389831
2051.000000	21.223365
2050.000000	21.056919
2049.000000	20.958329
2048.000000	20.843937
2047.000000	20.758816
2046.000000	20.688102
2045.000000	20.685356
2044.000000	20.647302
2043.000000	20.569318
2042.000000	20.595018
2041.000000	20.577514
2040.000000	20.606968
2039.000000	20.660949
2038.000000	20.738627
2037.000000	20.846412
2036.000000	20.945370
2035.000000	21.062374
2034.000000	21.200433
2033.000000	21.355526
2032.000000	21.512057
2031.000000	21.612259
2030.000000	21.753920
2029.000000	21.925589
2028.000000	22.120242
2027.000000	22.303868
2026.000000	22.463335
2025.000000	22.639234
2024.000000	22.775829
2023.000000	22.854264
2022.000000	22.964593
2021.000000	23.068423
2020.000000	23.144309
2019.000000	23.170759
2018.000000	23.273723
2017.000000	23.364289
2016.000000	23.398847
2015.000000	23.418517
2014.000000	23.428195
2013.000000	23.471331
2012.000000	23.432597
2011.000000	23.408758
2010.000000	23.358804
2009.000000	23.282945
2008.000000	23.253192
2007.000000	23.206253
2006.000000	23.118675
2005.000000	23.017430
2004.000000	22.940923
2003.000000	22.854678
2002.000000	22.756053
2001.000000	22.654404
2000.000000	22.565248
1999.000000	22.480607
1998.000000	22.325975
1997.000000	22.236170
1996.000000	22.163255
1995.000000	22.051026
1994.000000	21.923671
1993.000000	21.818475
1992.000000	21.683804
1991.000000	21.573185
1990.000000	21.454858
1989.000000	21.340844
1988.000000	21.246914
1987.000000	21.105182
1986.000000	20.964662
1985.000000	20.879095
1984.000000	20.739779
1983.000000	20.623422
1982.000000	20.542088
1981.000000	20.440136
1980.000000	20.327389
1979.000000	20.204011
1978.000000	20.074983
1977.000000	19.976028
1976.000000	19.846312
1975.000000	19.721482
1974.000000	19.582702
1973.000000	19.504710
1972.000000	19.399566
1971.000000	19.261725
1970.000000	19.194280
1969.000000	19.078619
1968.000000	18.995190
1967.000000	18.901105
1966.000000	18.804985
1965.000000	18.682698
1964.000000	18.560029
1963.000000	18.475935
1962.000000	18.379469
1961.000000	18.295360
1960.000000	18.201287
1959.000000	18.098502
1958.000000	18.027380
1957.000000	17.947718
1956.000000	17.867148
1955.000000	17.807088
1954.000000	17.721556
1953.000000	17.653022
1952.000000	17.591428
1951.000000	17.586797
1950.000000	17.542571
1949.000000	17.530231
1948.000000	17.440540
1947.000000	17.461456
1946.000000	17.485956
1945.000000	17.482272
1944.000000	17.451624
1943.000000	17.494948
1942.000000	17.546384
1941.000000	17.578737
1940.000000	17.631143
1939.000000	17.798979
1938.000000	17.948721
1937.000000	18.011186
1936.000000	18.093041
1935.000000	18.256607
1934.000000	18.430058
1933.000000	18.640771
1932.000000	18.763147
1931.000000	19.027121
1930.000000	19.191619
1929.000000	19.372647
1928.000000	19.628608
1927.000000	19.911074
1926.000000	20.166735
1925.000000	20.556089
1924.000000	20.840043
1923.000000	21.133571
1922.000000	21.440074
1921.000000	21.866732
1920.000000	22.028130
1919.000000	22.488683
1918.000000	22.802946
1917.000000	23.214782
1916.000000	23.539041
1915.000000	24.004443
1914.000000	24.430876
1913.000000	24.824019
1912.000000	25.211607
1911.000000	25.762131
1910.000000	26.246345
1909.000000	26.599449
1908.000000	27.030000
1907.000000	27.621998
1906.000000	28.120799
1905.000000	28.606439
1904.000000	29.104634
1903.000000	29.555076
1902.000000	30.103497
1901.000000	30.659183
1900.000000	31.148707
1899.000000	31.743720
1898.000000	32.283454
1897.000000	32.771767
1896.000000	33.272734
1895.000000	33.765411
1894.000000	34.320007
1893.000000	34.743005
1892.000000	35.262753
1891.000000	35.691880
1890.000000	36.224486
1889.000000	36.618133
1888.000000	37.039232
1887.000000	37.530347
1886.000000	37.927168
1885.000000	38.302017
1884.000000	38.669011
1883.000000	38.996954
1882.000000	39.371013
1881.000000	39.651399
1880.000000	39.997344
1879.000000	40.343066
1878.000000	40.600522
1877.000000	40.905168
1876.000000	41.130897
1875.000000	41.364454
1874.000000	41.586439
1873.000000	41.795506
1872.000000	41.967932
1871.000000	42.146418
1870.000000	42.357652
1869.000000	42.477637
1868.000000	42.572036
1867.000000	42.648689
1866.000000	42.744341
1865.000000	42.849310
1864.000000	42.922117
1863.000000	43.010102
1862.000000	43.071457
1861.000000	43.132097
1860.000000	43.184254
1859.000000	43.207229
1858.000000	43.237563
1857.000000	43.321888
1856.000000	43.356338
1855.000000	43.357610
1854.000000	43.380975
1853.000000	43.374591
1852.000000	43.350442
1851.000000	43.359432
1850.000000	43.391524
1849.000000	43.368240
1848.000000	43.348851
1847.000000	43.360071
1846.000000	43.323426
1845.000000	43.294492
1844.000000	43.271086
1843.000000	43.251045
1842.000000	43.214429
1841.000000	43.173100
1840.000000	43.143985
1839.000000	43.090003
1838.000000	43.072745
1837.000000	43.028926
1836.000000	42.995879
1835.000000	42.953803
1834.000000	42.857577
1833.000000	42.803317
1832.000000	42.783754
1831.000000	42.723407
1830.000000	42.665285
1829.000000	42.614261
1828.000000	42.562692
1827.000000	42.544733
1826.000000	42.503843
1825.000000	42.474303
1824.000000	42.434483
1823.000000	42.368351
1822.000000	42.308208
1821.000000	42.258624
1820.000000	42.215286
1819.000000	42.179289
1818.000000	42.131766
1817.000000	42.096586
1816.000000	42.057584
1815.000000	42.003554
1814.000000	41.956480
1813.000000	41.924521
1812.000000	41.881879
1811.000000	41.842784
1810.000000	41.824210
1809.000000	41.795957
1808.000000	41.740955
1807.000000	41.673530
1806.000000	41.631189
1805.000000	41.595478
1804.000000	41.550610
1803.000000	41.507263
1802.000000	41.458769
1801.000000	41.439172
1800.000000	41.421970
1799.000000	41.370085
1798.000000	41.331012
1797.000000	41.298415
1796.000000	41.258989
1795.000000	41.256239
1794.000000	41.240500
1793.000000	41.198947
1792.000000	41.162977
1791.000000	41.137229
1790.000000	41.109185
1789.000000	41.055175
1788.000000	41.025336
1787.000000	41.001846
1786.000000	40.976503
1785.000000	40.945472
1784.000000	40.894984
1783.000000	40.856632
1782.000000	40.811475
1781.000000	40.783181
1780.000000	40.716327
1779.000000	40.684220
1778.000000	40.665228
1777.000000	40.581915
1776.000000	40.518431
1775.000000	40.461513
1774.000000	40.399606
1773.000000	40.332627
1772.000000	40.272479
1771.000000	40.217307
1770.000000	40.152387
1769.000000	40.066992
1768.000000	40.013934
1767.000000	39.957807
1766.000000	39.889485
1765.000000	39.829505
1764.000000	39.756465
1763.000000	39.662901
1762.000000	39.589739
1761.000000	39.525780
1760.000000	39.456189
1759.000000	39.427909
1758.000000	39.369446
1757.000000	39.257956
1756.000000	39.205271
1755.000000	39.146357
1754.000000	39.083799
1753.000000	39.005438
1752.000000	38.916970
1751.000000	38.857996
1750.000000	38.793765
1749.000000	38.759648
1748.000000	38.667154
1747.000000	38.562675
1746.000000	38.511337
1745.000000	38.426571
1744.000000	38.389027
1743.000000	38.322190
1742.000000	38.251129
1741.000000	38.171143
1740.000000	38.118818
1739.000000	38.069975
1738.000000	38.062113
1737.000000	38.000018
1736.000000	37.942386
1735.000000	37.914654
1734.000000	37.906168
1733.000000	37.911586
1732.000000	37.908136
1731.000000	37.929276
1730.000000	37.932680
1729.000000	37.954383
1728.000000	38.004848
1727.000000	38.069822
1726.000000	38.130845
1725.000000	38.195756
1724.000000	38.275560
1723.000000	38.346495
1722.000000	38.470913
1721.000000	38.535355
1720.000000	38.639506
1719.000000	38.786266
1718.000000	38.856500
1717.000000	38.947284
1716.000000	39.050469
1715.000000	39.139282
1714.000000	39.188302
1713.000000	39.274280
1712.000000	39.361916
1711.000000	39.438216
1710.000000	39.495767
1709.000000	39.554323
1708.000000	39.585516
1707.000000	39.632134
1706.000000	39.682875
1705.000000	39.705893
1704.000000	39.740334
1703.000000	39.731946
1702.000000	39.738957
1701.000000	39.770998
1700.000000	39.745077
1699.000000	39.781858
1698.000000	39.815573
1697.000000	39.846950
1696.000000	39.887723
1695.000000	39.924602
1694.000000	39.964877
1693.000000	39.992731
1692.000000	40.087264
1691.000000	40.169449
1690.000000	40.278555
1689.000000	40.346678
1688.000000	40.466046
1687.000000	40.577244
1686.000000	40.732080
1685.000000	40.887747
1684.000000	41.029464
1683.000000	41.212264
1682.000000	41.389658
1681.000000	41.585334
1680.000000	41.750514
1679.000000	41.929134
1678.000000	42.139377
1677.000000	42.320594
1676.000000	42.520463
1675.000000	42.742804
1674.000000	42.896587
1673.000000	43.101302
1672.000000	43.291467
1671.000000	43.457349
1670.000000	43.632885
1669.000000	43.796797
1668.000000	43.935352
1667.000000	44.080576
1666.000000	44.154561
1665.000000	44.271295
1664.000000	44.382943
1663.000000	44.477382
1662.000000	44.559444
1661.000000	44.643078
1660.000000	44.720250
1659.000000	44.806420
1658.000000	44.843501
1657.000000	44.876872
1656.000000	44.937372
1655.000000	44.949616
1654.000000	44.963848
1653.000000	44.992426
1652.000000	45.019157
1651.000000	45.007733
1650.000000	45.013712
1649.000000	45.012397
1648.000000	44.999564
1647.000000	44.983362
1646.000000	44.949868
1645.000000	44.924005
1644.000000	44.909196
1643.000000	44.897089
1642.000000	44.873416
1641.000000	44.849979
1640.000000	44.799541
1639.000000	44.768200
1638.000000	44.741717
1637.000000	44.711526
1636.000000	44.654965
1635.000000	44.604788
1634.000000	44.583778
1633.000000	44.524644
1632.000000	44.482321
1631.000000	44.426778
1630.000000	44.393664
1629.000000	44.350453
1628.000000	44.291315
1627.000000	44.234293
1626.000000	44.194837
1625.000000	44.142440
1624.000000	44.090165
1623.000000	44.033669
1622.000000	43.987127
1621.000000	43.936168
1620.000000	43.867953
1619.000000	43.801750
1618.000000	43.740406
1617.000000	43.684603
1616.000000	43.614428
1615.000000	43.552080
1614.000000	43.480502
1613.000000	43.411096
1612.000000	43.362893
1611.000000	43.297497
1610.000000	43.223231
1609.000000	43.148831
1608.000000	43.100337
1607.000000	43.037812
1606.000000	42.957053
1605.000000	42.889797
1604.000000	42.816577
1603.000000	42.754961
1602.000000	42.685868
1601.000000	42.613779
1600.000000	42.540699
1599.000000	42.467160
1598.000000	42.397990
1597.000000	42.332782
1596.000000	42.275860
1595.000000	42.223599
1594.000000	42.158109
1593.000000	42.095819
1592.000000	42.034248
1591.000000	41.969496
1590.000000	41.908121
1589.000000	41.855062
1588.000000	41.818016
1587.000000	41.775338
1586.000000	41.711855
1585.000000	41.653672
1584.000000	41.603425
1583.000000	41.549174
1582.000000	41.490698
1581.000000	41.441308
1580.000000	41.391799
1579.000000	41.355377
1578.000000	41.303799
1577.000000	41.237653
1576.000000	41.187903
1575.000000	41.148306
1574.000000	41.089809
1573.000000	41.049810
1572.000000	41.003152
1571.000000	40.944738
1570.000000	40.906348
1569.000000	40.851396
1568.000000	40.801999
1567.000000	40.757281
1566.000000	40.727228
1565.000000	40.693880
1564.000000	40.660047
1563.000000	40.643126
1562.000000	40.611173
1561.000000	40.579006
1560.000000	40.555600
1559.000000	40.521993
1558.000000	40.486402
1557.000000	40.490692
1556.000000	40.465604
1555.000000	40.422444
1554.000000	40.396339
1553.000000	40.367542
1552.000000	40.342453
1551.000000	40.305537
1550.000000	40.273520
1549.000000	40.230691
1548.000000	40.176394
1547.000000	40.120387
1546.000000	40.048309
1545.000000	39.995963
1544.000000	39.916980
1543.000000	39.836883
1542.000000	39.758275
1541.000000	39.674004
1540.000000	39.590598
1539.000000	39.486366
1538.000000	39.400233
1537.000000	39.297238
1536.000000	39.201269
1535.000000	39.128345
1534.000000	39.022046
1533.000000	38.930400
1532.000000	38.831559
1531.000000	38.736096
1530.000000	38.648160
1529.000000	38.564431
1528.000000	38.476991
1527.000000	38.404360
1526.000000	38.335773
1525.000000	38.261232
1524.000000	38.167024
1523.000000	38.101951
1522.000000	38.042944
1521.000000	38.002876
1520.000000	37.942751
1519.000000	37.883935
1518.000000	37.845246
1517.000000	37.792885
1516.000000	37.748270
1515.000000	37.697360
1514.000000	37.652552
1513.000000	37.616079
1512.000000	37.602421
1511.000000	37.559257
1510.000000	37.539378
1509.000000	37.504855
1508.000000	37.480959
1507.000000	37.458876
1506.000000	37.433119
1505.000000	37.426051
1504.000000	37.404309
1503.000000	37.388844
1502.000000	37.382936
1501.000000	37.377639
1500.000000	37.371610
1499.000000	37.373202
1498.000000	37.366429
1497.000000	37.388296
1496.000000	37.418436
1495.000000	37.426322
1494.000000	37.469777
1493.000000	37.479428
1492.000000	37.519063
1491.000000	37.563791
1490.000000	37.604134
1489.000000	37.647834
1488.000000	37.694388
1487.000000	37.759473
1486.000000	37.821948
1485.000000	37.872041
1484.000000	37.945593
1483.000000	38.027611
1482.000000	38.084192
1481.000000	38.160420
1480.000000	38.241616
1479.000000	38.306022
1478.000000	38.388237
1477.000000	38.438417
1476.000000	38.518521
1475.000000	38.596678
1474.000000	38.659416
1473.000000	38.736705
1472.000000	38.813402
1471.000000	38.874928
1470.000000	38.930884
1469.000000	39.011084
1468.000000	39.083190
1467.000000	39.130087
1466.000000	39.180384
1465.000000	39.254126
1464.000000	39.300139
1463.000000	39.373351
1462.000000	39.422286
1461.000000	39.463718
1460.000000	39.535947
1459.000000	39.592588
1458.000000	39.626839
1457.000000	39.675572
1456.000000	39.746762
1455.000000	39.823498
1454.000000	39.890224
1453.000000	39.927712
1452.000000	40.022362
1451.000000	40.097472
1450.000000	40.150433
1449.000000	40.226659
1448.000000	40.285511
1447.000000	40.366242
1446.000000	40.457084
1445.000000	40.522560
1444.000000	40.587370
1443.000000	40.684057
1442.000000	40.757611
1441.000000	40.833233
1440.000000	40.945079
1439.000000	41.035188
1438.000000	41.123658
1437.000000	41.222957
1436.000000	41.310603
1435.000000	41.416623
1434.000000	41.529882
1433.000000	41.641182
1432.000000	41.746997
1431.000000	41.867400
1430.000000	41.976216
1429.000000	42.105653
1428.000000	42.248996
1427.000000	42.386788
1426.000000	42.502995
1425.000000	42.669486
1424.000000	42.822979
1423.000000	42.980201
1422.000000	43.138107
1421.000000	43.292709
1420.000000	43.457766
1419.000000	43.631794
1418.000000	43.800545
1417.000000	43.970020
1416.000000	44.158969
1415.000000	44.335712
1414.000000	44.507554
1413.000000	44.700953
1412.000000	44.890165
1411.000000	45.074087
1410.000000	45.260126
1409.000000	45.432484
1408.000000	45.619553
1407.000000	45.810242
1406.000000	45.987479
1405.000000	46.163129
1404.000000	46.350017
1403.000000	46.535223
1402.000000	46.699891
1401.000000	46.865656
1400.000000	47.032850
1399.000000	47.187067
1398.000000	47.339034
1397.000000	47.505882
1396.000000	47.667781
1395.000000	47.818817
1394.000000	47.956144
1393.000000	48.097991
1392.000000	48.252556
1391.000000	48.389996
1390.000000	48.514440
1389.000000	48.657255
1388.000000	48.800133
1387.000000	48.937003
1386.000000	49.039639
1385.000000	49.137251
1384.000000	49.253071
1383.000000	49.360397
1382.000000	49.445395
1381.000000	49.521509
1380.000000	49.631073
1379.000000	49.725093
1378.000000	49.780612
1377.000000	49.840824
1376.000000	49.901229
1375.000000	49.951878
1374.000000	50.011424
1373.000000	50.077536
1372.000000	50.136581
1371.000000	50.190624
1370.000000	50.232643
1369.000000	50.270347
1368.000000	50.318485
1367.000000	50.383788
1366.000000	50.460624
1365.000000	50.530260
1364.000000	50.579286
1363.000000	50.627214
1362.000000	50.684655
1361.000000	50.744200
1360.000000	50.799882
1359.000000	50.853256
1358.000000	50.921069
1357.000000	50.972074
1356.000000	51.039169
1355.000000	51.113857
1354.000000	51.179689
1353.000000	51.250699
1352.000000	51.309593
1351.000000	51.354369
1350.000000	51.414316
1349.000000	51.468178
1348.000000	51.539918
1347.000000	51.615912
1346.000000	51.677801
1345.000000	51.728722
1344.000000	51.789168
1343.000000	51.826910
1342.000000	51.862189
1341.000000	51.926664
1340.000000	51.987372
1339.000000	52.054821
1338.000000	52.114732
1337.000000	52.169260
1336.000000	52.214933
1335.000000	52.233882
1334.000000	52.267312
1333.000000	52.306591
1332.000000	52.337047
1331.000000	52.362828
1330.000000	52.426397
1329.000000	52.450770
1328.000000	52.474647
1327.000000	52.495192
1326.000000	52.538816
1325.000000	52.552605
1324.000000	52.546706
1323.000000	52.578719
1322.000000	52.613667
1321.000000	52.609000
1320.000000	52.626298
1319.000000	52.645471
1318.000000	52.654060
1317.000000	52.669678
1316.000000	52.698196
1315.000000	52.691778
1314.000000	52.719914
1313.000000	52.729246
1312.000000	52.717118
1311.000000	52.729139
1310.000000	52.758127
1309.000000	52.783515
1308.000000	52.763810
1307.000000	52.769078
1306.000000	52.786308
1305.000000	52.803353
1304.000000	52.800233
1303.000000	52.793661
1302.000000	52.824907
1301.000000	52.848413
1300.000000	52.829307
1299.000000	52.827610
1298.000000	52.819648
1297.000000	52.829996
1296.000000	52.807506
1295.000000	52.801441
1294.000000	52.801972
1293.000000	52.794635
1292.000000	52.774805
1291.000000	52.777269
1290.000000	52.765888
1289.000000	52.763054
1288.000000	52.747337
1287.000000	52.702991
1286.000000	52.688517
1285.000000	52.700178
1284.000000	52.690169
1283.000000	52.685590
1282.000000	52.687466
1281.000000	52.690878
1280.000000	52.669369
1279.000000	52.664759
1278.000000	52.664702
1277.000000	52.655790
1276.000000	52.658975
1275.000000	52.644154
1274.000000	52.649520
1273.000000	52.635147
1272.000000	52.642563
1271.000000	52.660636
1270.000000	52.649759
1269.000000	52.665609
1268.000000	52.658745
1267.000000	52.639734
1266.000000	52.662503
1265.000000	52.661169
1264.000000	52.674095
1263.000000	52.680641
1262.000000	52.714050
1261.000000	52.722458
1260.000000	52.720112
1259.000000	52.709649
1258.000000	52.713094
1257.000000	52.718623
1256.000000	52.742604
1255.000000	52.773847
1254.000000	52.755541
1253.000000	52.760337
1252.000000	52.749647
1251.000000	52.736596
1250.000000	52.737883
1249.000000	52.743930
1248.000000	52.714321
1247.000000	52.698851
1246.000000	52.666338
1245.000000	52.678239
1244.000000	52.671313
1243.000000	52.645709
1242.000000	52.575405
1241.000000	52.555403
1240.000000	52.565688
1239.000000	52.542525
1238.000000	52.519578
1237.000000	52.473497
1236.000000	52.459008
1235.000000	52.413933
1234.000000	52.363249
1233.000000	52.335603
1232.000000	52.315174
1231.000000	52.308892
1230.000000	52.283780
1229.000000	52.237161
1228.000000	52.216536
1227.000000	52.190219
1226.000000	52.178095
1225.000000	52.157579
1224.000000	52.137950
1223.000000	52.112889
1222.000000	52.091129
1221.000000	52.062583
1220.000000	52.034384
1219.000000	52.003018
1218.000000	51.961762
1217.000000	51.927692
1216.000000	51.900487
1215.000000	51.863574
1214.000000	51.829816
1213.000000	51.774502
1212.000000	51.760378
1211.000000	51.728969
1210.000000	51.675303
1209.000000	51.649640
1208.000000	51.606386
1207.000000	51.542992
1206.000000	51.485851
1205.000000	51.460520
1204.000000	51.423855
1203.000000	51.388997
1202.000000	51.351471
1201.000000	51.282495
1200.000000	51.234314
1199.000000	51.184943
1198.000000	51.140623
1197.000000	51.104143
1196.000000	51.081814
1195.000000	51.038834
1194.000000	51.002624
1193.000000	50.974864
1192.000000	50.952491
1191.000000	50.925653
1190.000000	50.887316
1189.000000	50.818944
1188.000000	50.804377
1187.000000	50.801574
1186.000000	50.793724
1185.000000	50.799776
1184.000000	50.803705
1183.000000	50.824031
1182.000000	50.843643
1181.000000	50.858171
1180.000000	50.887100
1179.000000	50.932410
1178.000000	50.981941
1177.000000	51.029004
1176.000000	51.065497
1175.000000	51.123888
1174.000000	51.185692
1173.000000	51.246286
1172.000000	51.313943
1171.000000	51.366960
1170.000000	51.434366
1169.000000	51.506411
1168.000000	51.583213
1167.000000	51.683604
1166.000000	51.771240
1165.000000	51.843620
1164.000000	51.915464
1163.000000	51.997580
1162.000000	52.073981
1161.000000	52.155223
1160.000000	52.238236
1159.000000	52.329380
1158.000000	52.410141
1157.000000	52.468832
1156.000000	52.538048
1155.000000	52.621536
1154.000000	52.678895
1153.000000	52.737724
1152.000000	52.800846
1151.000000	52.827545
1150.000000	52.865690
1149.000000	52.927948
1148.000000	52.974092
1147.000000	53.038393
1146.000000	53.091505
1145.000000	53.134042
1144.000000	53.195059
1143.000000	53.242201
1142.000000	53.289087
1141.000000	53.326530
1140.000000	53.366543
1139.000000	53.418790
1138.000000	53.462190
1137.000000	53.503159
1136.000000	53.534710
1135.000000	53.574602
1134.000000	53.628083
1133.000000	53.654596
1132.000000	53.690629
1131.000000	53.716761
1130.000000	53.739659
1129.000000	53.769630
1128.000000	53.803363
1127.000000	53.818748
1126.000000	53.859650
1125.000000	53.895079
1124.000000	53.895765
1123.000000	53.907595
1122.000000	53.922945
1121.000000	53.936177
1120.000000	53.940714
1119.000000	53.953468
1118.000000	53.974030
1117.000000	53.971472
1116.000000	53.978491
1115.000000	53.985328
1114.000000	53.965367
1113.000000	53.963198
1112.000000	53.965629
1111.000000	53.967777
1110.000000	53.982844
1109.000000	53.965173
1108.000000	53.975463
1107.000000	53.980313
1106.000000	53.982122
1105.000000	53.992706
1104.000000	53.992677
1103.000000	53.993575
1102.000000	53.975382
1101.000000	53.975069
1100.000000	53.976719
1099.000000	53.980187
1098.000000	53.982411
1097.000000	53.986023
1096.000000	53.976696
1095.000000	53.969727
1094.000000	53.952047
1093.000000	53.945246
1092.000000	53.946471
1091.000000	53.943950
1090.000000	53.946747
1089.000000	53.948109
1088.000000	53.949047
1087.000000	53.924379
1086.000000	53.918607
1085.000000	53.904763
1084.000000	53.922188
1083.000000	53.907085
1082.000000	53.900837
1081.000000	53.874980
1080.000000	53.876666
1079.000000	53.880909
1078.000000	53.881497
1077.000000	53.869740
1076.000000	53.861461
1075.000000	53.855323
1074.000000	53.842350
1073.000000	53.812015
1072.000000	53.813132
1071.000000	53.781433
1070.000000	53.796117
1069.000000	53.774530
1068.000000	53.765929
1067.000000	53.768767
1066.000000	53.737472
1065.000000	53.729535
1064.000000	53.732204
1063.000000	53.728378
1062.000000	53.727826
1061.000000	53.703054
1060.000000	53.694474
1059.000000	53.667397
1058.000000	53.662967
1057.000000	53.660023
1056.000000	53.644726
1055.000000	53.643904
1054.000000	53.617048
1053.000000	53.595754
1052.000000	53.582832
1051.000000	53.568510
1050.000000	53.584599
1049.000000	53.554111
1048.000000	53.507302
1047.000000	53.554263
1046.000000	53.542873
1045.000000	53.520472
1044.000000	53.496132
1043.000000	53.501968
1042.000000	53.480745
1041.000000	53.504534
1040.000000	53.465805
1039.000000	53.475210
1038.000000	53.468138
1037.000000	53.460346
1036.000000	53.433154
1035.000000	53.458374
1034.000000	53.424450
1033.000000	53.427307
1032.000000	53.436441
1031.000000	53.420535
1030.000000	53.428559
1029.000000	53.434871
1028.000000	53.426806
1027.000000	53.400365
1026.000000	53.400161
1025.000000	53.392102
1024.000000	53.389446
1023.000000	53.385712
1022.000000	53.389094
1021.000000	53.389693
1020.000000	53.376196
1019.000000	53.374698
1018.000000	53.394766
1017.000000	53.398956
1016.000000	53.398472
1015.000000	53.401156
1014.000000	53.412442
1013.000000	53.408813
1012.000000	53.397732
1011.000000	53.415304
1010.000000	53.404674
1009.000000	53.406551
1008.000000	53.435689
1007.000000	53.433581
1006.000000	53.444560
1005.000000	53.458645
1004.000000	53.465842
1003.000000	53.482387
1002.000000	53.478426
1001.000000	53.493555
1000.000000	53.510152
999.000000	53.509671
998.000000	53.515670
997.000000	53.510415
996.000000	53.525355
995.000000	53.531764
994.000000	53.522530
993.000000	53.528302
992.000000	53.532258
991.000000	53.544617
990.000000	53.546504
989.000000	53.546570
988.000000	53.549736
987.000000	53.554903
986.000000	53.557647
985.000000	53.578455
984.000000	53.580000
983.000000	53.601823
982.000000	53.603637
981.000000	53.610004
980.000000	53.599349
979.000000	53.588024
978.000000	53.584353
977.000000	53.600008
976.000000	53.610654
975.000000	53.618369
974.000000	53.625094
973.000000	53.619321
972.000000	53.626340
971.000000	53.644495
970.000000	53.634385
969.000000	53.665193
968.000000	53.667998
967.000000	53.661426
966.000000	53.671366
965.000000	53.674205
964.000000	53.674788
963.000000	53.678727
962.000000	53.679331
961.000000	53.691615
960.000000	53.709820
959.000000	53.722202
958.000000	53.703143
957.000000	53.716310
956.000000	53.724720
955.000000	53.714658
954.000000	53.730445
953.000000	53.737872
952.000000	53.733187
951.000000	53.736271
950.000000	53.736776
949.000000	53.740966
948.000000	53.743282
947.000000	53.738260
946.000000	53.746937
945.000000	53.746336
944.000000	53.752320
943.000000	53.738504
942.000000	53.718941
941.000000	53.734678
940.000000	53.759942
939.000000	53.773911
938.000000	53.764580
937.000000	53.747649
936.000000	53.745158
935.000000	53.732750
934.000000	53.726975
933.000000	53.729287
932.000000	53.706005
931.000000	53.689423
930.000000	53.719890
929.000000	53.737893
928.000000	53.703518
927.000000	53.689848
926.000000	53.720673
925.000000	53.720641
924.000000	53.698309
923.000000	53.684218
922.000000	53.661219
921.000000	53.688726
920.000000	53.685673
919.000000	53.647332
918.000000	53.672609
917.000000	53.668486
916.000000	53.631961
915.000000	53.631092
914.000000	53.604445
913.000000	53.604503
912.000000	53.617132
911.000000	53.628806
910.000000	53.611053
909.000000	53.603428
908.000000	53.597667
907.000000	53.590341
906.000000	53.604631
905.000000	53.597942
904.000000	53.602095
903.000000	53.621804
902.000000	53.640063
901.000000	53.614185
900.000000	53.597650
899.000000	53.606371
898.000000	53.594943
897.000000	53.627746
896.000000	53.652235
895.000000	53.658870
894.000000	53.640443
893.000000	53.591572
892.000000	53.628962
891.000000	53.694845
890.000000	53.662884
889.000000	53.687240
888.000000	53.680951
887.000000	53.652035
886.000000	53.646369
885.000000	53.694914
884.000000	53.666625
883.000000	53.700365
882.000000	53.685268
881.000000	53.673280
880.000000	53.693125
879.000000	53.684226
878.000000	53.630556
877.000000	53.592442
876.000000	53.651427
875.000000	53.622794
874.000000	53.625054
873.000000	53.660397
872.000000	53.711196
871.000000	53.697113
870.000000	53.605055
869.000000	53.658906
868.000000	53.654224
867.000000	53.732337
866.000000	53.698810
865.000000	53.723226
864.000000	53.625301
863.000000	53.599980
862.000000	53.625264
861.000000	53.674396
860.000000	53.532363
859.000000	53.867226
858.000000	53.791097
857.000000	54.078774
856.000000	54.045783
855.000000	53.901490
854.000000	54.266548
853.000000	54.061305
852.000000	54.018952
851.000000	54.250436
850.000000	54.485897
849.000000	54.314433
848.000000	54.216627
847.000000	54.055343
846.000000	54.141895
845.000000	54.008793
844.000000	54.034206
843.000000	53.996513
842.000000	53.952934
841.000000	54.019126
840.000000	54.073750
839.000000	54.120789
838.000000	54.133597
837.000000	53.958118
836.000000	54.071631
835.000000	53.960763
834.000000	53.901047
833.000000	53.954546
832.000000	54.007845
831.000000	53.901563
830.000000	53.755873
829.000000	53.811873
828.000000	53.909667
827.000000	53.922589
826.000000	53.848347
825.000000	53.701360
824.000000	53.900960
823.000000	53.803917
822.000000	53.879417
821.000000	53.737646
820.000000	53.812714
819.000000	53.896468
818.000000	53.742187
817.000000	53.758424
816.000000	53.804981
815.000000	53.717964
814.000000	53.774077
813.000000	53.657097
812.000000	53.732037
811.000000	53.707119
810.000000	53.634630
809.000000	53.613104
808.000000	53.764132
807.000000	53.788037
806.000000	53.701479
805.000000	53.747157
804.000000	53.688067
803.000000	53.610205
802.000000	53.697163
801.000000	53.688294
800.000000	53.681851
799.000000	53.547958
798.000000	53.504485
797.000000	53.652748
796.000000	53.606346
795.000000	53.640488
794.000000	53.592089
793.000000	53.620408
792.000000	53.513829
791.000000	53.491931
790.000000	53.487672
789.000000	53.517595
788.000000	53.493865
787.000000	53.702572
786.000000	53.561201
785.000000	53.518752
784.000000	53.419043
783.000000	53.397599
782.000000	53.310309
781.000000	53.337762
780.000000	53.403152
779.000000	53.439304
778.000000	53.344125
777.000000	53.234720
776.000000	53.362306
775.000000	53.425466
774.000000	53.308552
773.000000	53.346460
772.000000	53.284847
771.000000	53.337408
770.000000	53.312615
769.000000	53.305945
768.000000	53.276525
767.000000	53.208734
766.000000	53.137997
765.000000	53.257762
764.000000	53.182054
763.000000	53.233152
762.000000	53.164699
761.000000	53.196502
760.000000	53.210043
759.000000	53.161058
758.000000	53.112615
757.000000	53.140999
756.000000	53.106600
755.000000	53.089267
754.000000	53.085302
753.000000	52.954994
752.000000	52.940897
751.000000	53.014588
750.000000	53.030170
749.000000	52.998940
748.000000	53.040146
747.000000	53.046266
746.000000	52.933426
745.000000	52.932186
744.000000	52.953311
743.000000	52.956405
742.000000	52.863336
741.000000	52.782206
740.000000	52.823687
739.000000	52.862196
738.000000	52.845468
737.000000	52.781827
736.000000	52.773474
735.000000	52.734413
734.000000	52.723785
733.000000	52.769015
732.000000	52.700372
731.000000	52.671911
730.000000	52.712378
729.000000	52.618620
728.000000	52.617731
727.000000	52.624237
726.000000	52.570156
725.000000	52.578011
724.000000	52.573802
723.000000	52.535903
722.000000	52.473891
721.000000	52.437714
720.000000	52.453415
719.000000	52.459279
718.000000	52.442797
717.000000	52.386344
716.000000	52.373259
715.000000	52.384735
714.000000	52.364887
713.000000	52.318816
712.000000	52.308111
711.000000	52.320123
710.000000	52.281244
709.000000	52.240108
708.000000	52.171646
707.000000	52.156244
706.000000	52.162064
705.000000	52.077973
704.000000	52.085017
703.000000	52.114247
702.000000	52.027009
701.000000	51.985238
700.000000	51.982517
699.000000	51.955570
698.000000	51.962279
697.000000	51.984118
696.000000	51.926091
695.000000	51.845463
694.000000	51.844853
693.000000	51.796499
692.000000	51.741135
691.000000	51.762087
690.000000	51.739396
689.000000	51.651378
688.000000	51.586923
687.000000	51.568871
686.000000	51.511109
685.000000	51.480882
684.000000	51.460406
683.000000	51.449022
682.000000	51.395316
681.000000	51.392524
680.000000	51.341952
679.000000	51.289446
678.000000	51.286516
677.000000	51.234175
676.000000	51.223904
675.000000	51.172097
674.000000	51.066348
673.000000	51.044046
672.000000	51.022318
671.000000	51.047152
670.000000	50.996404
669.000000	50.940484
668.000000	50.921152
667.000000	50.897462
666.000000	50.840848
665.000000	50.770371
664.000000	50.768585
663.000000	50.727495
662.000000	50.674996
661.000000	50.661438
660.000000	50.578259
659.000000	50.533813
658.000000	50.485219
657.000000	50.475608
656.000000	50.428887
655.000000	50.421036
654.000000	50.364259
653.000000	50.307021
652.000000	50.237314
651.000000	50.218514
650.000000	50.159872
649.000000	50.099285
648.000000	50.061664
647.000000	50.033019
646.000000	49.962879
645.000000	49.941752
644.000000	49.865032
643.000000	49.835082
642.000000	49.781601
641.000000	49.736843
640.000000	49.685695
639.000000	49.655508
638.000000	49.594645
637.000000	49.575413
636.000000	49.484076
635.000000	49.494094
634.000000	49.409692
633.000000	49.359850
632.000000	49.306458
631.000000	49.279723
630.000000	49.207576
629.000000	49.171910
628.000000	49.091966
627.000000	49.037226
626.000000	49.002208
625.000000	48.979460
624.000000	48.910343
623.000000	48.822058
622.000000	48.750786
621.000000	48.747212
620.000000	48.694735
619.000000	48.618728
618.000000	48.628463
617.000000	48.534575
616.000000	48.484448
615.000000	48.480643
614.000000	48.395099
613.000000	48.394416
612.000000	48.295253
611.000000	48.263896
610.000000	48.233749
609.000000	48.209306
608.000000	48.118303
607.000000	48.089229
606.000000	48.019960
605.000000	48.001730
604.000000	47.879827
603.000000	47.880385
602.000000	47.847803
601.000000	47.790445
600.000000	47.688127
599.000000	47.661599
598.000000	47.589376
597.000000	47.566479
596.000000	47.545754
595.000000	47.433850
594.000000	47.415213
593.000000	47.378946
592.000000	47.286286
591.000000	47.255572
590.000000	47.250464
589.000000	47.151401
588.000000	47.084588
587.000000	47.039894
586.000000	46.975879
585.000000	46.919682
584.000000	46.848019
583.000000	46.821496
582.000000	46.782604
581.000000	46.690596
580.000000	46.638879
579.000000	46.667230
578.000000	46.514125
577.000000	46.494446
576.000000	46.444075
575.000000	46.390891
574.000000	46.291286
573.000000	46.277370
572.000000	46.223260
571.000000	46.173196
570.000000	46.084949
569.000000	46.075536
568.000000	46.000032
567.000000	45.939956
566.000000	45.887936
565.000000	45.824831
564.000000	45.793932
563.000000	45.756729
562.000000	45.704126
561.000000	45.670505
560.000000	45.598960
559.000000	45.549683
558.000000	45.470031
557.000000	45.440862
556.000000	45.352270
555.000000	45.314172
554.000000	45.240313
553.000000	45.160416
552.000000	45.136433
551.000000	45.086152
550.000000	45.012653
549.000000	44.972086
548.000000	44.904146
547.000000	44.841869
546.000000	44.761993
545.000000	44.728932
544.000000	44.661457
543.000000	44.558688
542.000000	44.510653
541.000000	44.421408
540.000000	44.345492
539.000000	44.311191
538.000000	44.269405
537.000000	44.185811
536.000000	44.103799
535.000000	44.043124
534.000000	43.984697
533.000000	43.916770
532.000000	43.831565
531.000000	43.817849
530.000000	43.731951
529.000000	43.622786
528.000000	43.585499
527.000000	43.516996
526.000000	43.444713
525.000000	43.376052
524.000000	43.303160
523.000000	43.241028
522.000000	43.144128
521.000000	43.113649
520.000000	43.024284
519.000000	42.932125
518.000000	42.876521
517.000000	42.811181
516.000000	42.734868
515.000000	42.667778
514.000000	42.578312
513.000000	42.501990
512.000000	42.417380
511.000000	42.371933
510.000000	42.308853
509.000000	42.213209
508.000000	42.094198
507.000000	42.019681
506.000000	41.921704
505.000000	41.825015
504.000000	41.743206
503.000000	41.679559
502.000000	41.581030
501.000000	41.479080
500.000000	41.399140
499.000000	41.279132
498.000000	41.169633
497.000000	41.115692
496.000000	40.991422
495.000000	40.852686
494.000000	40.734647
493.000000	40.667567
492.000000	40.510709
491.000000	40.424955
490.000000	40.340068
489.000000	40.225592
488.000000	40.084294
487.000000	39.946769
486.000000	39.865119
485.000000	39.756692
484.000000	39.623013
483.000000	39.530822
482.000000	39.409078
481.000000	39.279829
480.000000	39.106434
479.000000	38.956983
478.000000	38.830480
477.000000	38.709111
476.000000	38.572950
475.000000	38.422842
474.000000	38.280688
473.000000	38.138092
472.000000	38.005830
471.000000	37.828228
470.000000	37.684237
469.000000	37.550873
468.000000	37.381433
467.000000	37.217409
466.000000	37.056761
465.000000	36.895827
464.000000	36.744952
463.000000	36.591940
462.000000	36.426335
461.000000	36.245554
460.000000	36.040726
459.000000	35.858022
458.000000	35.680341
457.000000	35.483008
456.000000	35.289330
455.000000	35.136117
454.000000	34.950358
453.000000	34.736505
452.000000	34.550563
451.000000	34.360780
450.000000	34.131716
449.000000	33.907544
448.000000	33.710739
447.000000	33.503607
446.000000	33.292888
445.000000	33.085780
444.000000	32.844669
443.000000	32.619370
442.000000	32.397124
441.000000	32.194872
440.000000	31.981823
439.000000	31.707026
438.000000	31.445288
437.000000	31.235829
436.000000	31.001987
435.000000	30.745146
434.000000	30.538890
433.000000	30.273348
432.000000	30.011538
431.000000	29.733469
430.000000	29.466506
429.000000	29.233501
428.000000	28.947322
427.000000	28.649930
426.000000	28.441404
425.000000	28.190172
424.000000	27.882068
423.000000	27.597859
422.000000	27.356790
421.000000	27.097021
420.000000	26.826213
419.000000	26.568951
418.000000	26.264298
417.000000	26.003937
416.000000	25.791172
415.000000	25.559154
414.000000	25.313291
413.000000	25.118105
412.000000	24.936670
411.000000	24.767409
410.000000	24.610803
409.000000	24.423547
408.000000	24.309280
407.000000	24.185313
406.000000	24.053786
405.000000	23.972995
404.000000	23.881670
403.000000	23.796993
402.000000	23.710472
401.000000	23.611356
400.000000	23.503040
399.000000	23.408008
398.000000	23.357136
397.000000	23.208391
396.000000	23.119292
395.000000	23.020990
394.000000	22.915628
393.000000	22.815460
392.000000	22.681555
391.000000	22.570623
390.000000	22.451462
389.000000	22.296787
388.000000	22.159290
387.000000	21.985367
386.000000	21.876036
385.000000	21.679505
384.000000	21.521717
383.000000	21.372601
382.000000	21.159454
381.000000	20.989036
380.000000	20.827408
379.000000	20.539415
378.000000	20.242559
377.000000	20.291266
376.000000	19.959081
375.000000	19.758443
374.000000	19.530775
373.000000	19.261430
372.000000	19.046529
371.000000	18.890211
370.000000	18.655681
369.000000	18.410196
368.000000	18.188453
367.000000	17.939593
366.000000	17.700724
365.000000	17.395940
364.000000	17.248603
363.000000	17.058456
362.000000	16.827125
361.000000	16.567518
360.000000	16.428731
359.000000	16.120654
358.000000	15.873776
357.000000	15.677026
356.000000	15.520487
355.000000	15.304306
354.000000	15.047224
353.000000	14.830768
352.000000	14.639269
351.000000	14.449318
350.000000	14.231782
349.000000	14.010761
348.000000	13.907827
347.000000	13.610678
346.000000	13.420841
345.000000	13.243169
344.000000	12.997667
343.000000	12.928039
342.000000	12.732301
341.000000	12.471288
340.000000	12.385307
339.000000	12.195607
338.000000	12.078072
337.000000	11.834147
336.000000	11.704381
335.000000	11.408925
334.000000	11.411708
333.000000	11.168701
332.000000	10.986527
331.000000	10.862653
330.000000	10.692810
329.000000	10.524566
328.000000	10.441245
327.000000	10.292500
326.000000	10.094830
325.000000	10.056295
324.000000	9.849720
323.000000	9.700878
322.000000	9.570856
321.000000	9.439576
320.000000	9.342923
319.000000	9.084723
318.000000	9.071202
317.000000	8.893245
316.000000	8.726098
315.000000	8.557516
314.000000	8.374937
313.000000	8.238989
312.000000	8.017004
311.000000	7.839784
310.000000	7.671782
309.000000	7.437937
308.000000	7.254667
307.000000	7.060870
306.000000	6.852801
305.000000	6.638316
304.000000	6.408389
303.000000	6.176383
302.000000	5.893129
301.000000	5.596506
300.000000	5.329938
299.000000	5.037124
298.000000	4.698690
297.000000	4.328956
296.000000	3.947349
295.000000	3.486581
294.000000	3.017308
293.000000	2.545677
292.000000	2.105218
291.000000	1.742048
290.000000	1.472033
289.000000	1.261621
288.000000	1.146055
287.000000	1.075407
286.000000	1.016763
285.000000	1.024199
284.000000	1.017446
283.000000	1.033019
282.000000	1.045374
281.000000	1.048919
280.000000	1.035869
279.000000	1.058705
278.000000	1.073855
277.000000	1.090618
276.000000	1.121925
275.000000	1.154007
274.000000	1.175969
273.000000	1.208465
272.000000	1.218706
271.000000	1.234369
270.000000	1.280435
269.000000	1.270262
268.000000	1.293932
267.000000	1.320420
266.000000	1.347291
265.000000	1.366256
264.000000	1.388778
263.000000	1.429135
262.000000	1.449552
261.000000	1.469446
260.000000	1.506843
259.000000	1.539375
258.000000	1.571055
257.000000	1.600544
256.000000	1.622319
255.000000	1.612260
254.000000	1.619305
253.000000	1.595508
252.000000	1.570446
251.000000	1.538813
250.000000	1.490709
249.000000	1.422471
248.000000	1.341396
247.000000	1.245543
246.000000	1.153829
245.000000	1.054929
244.000000	0.963371
243.000000	0.883671
242.000000	0.805536
241.000000	0.738426
240.000000	0.701216
239.000000	0.662555
238.000000	0.619276
237.000000	0.582665
236.000000	0.566481
235.000000	0.558369
234.000000	0.541565
233.000000	0.513994
232.000000	0.491027
231.000000	0.476039
230.000000	0.452038
229.000000	0.432668
228.000000	0.425648
227.000000	0.383167
226.000000	0.353136
225.000000	0.338953
224.000000	0.312445
223.000000	0.297561
222.000000	0.284794
221.000000	0.271227
220.000000	0.282642
219.000000	0.281566
218.000000	0.261788
217.000000	0.251359
216.000000	0.265097
215.000000	0.281115
214.000000	0.263337
213.000000	0.260103
212.000000	0.279698
211.000000	0.302522
210.000000	0.306558
209.000000	0.284394
208.000000	0.280410
207.000000	0.318272
206.000000	0.333797
205.000000	0.292663
204.000000	0.327310
203.000000	0.367604
202.000000	0.372007
201.000000	0.413420
200.000000	0.457965
