PE UV       SUBTECH     SPECTRUM    ASCII       PEDS        4.00        
   -1
TDVeauUK 22.Sample.asc
18/03/01
09:25:40.00
18/03/01
09:25:40.00
Administrator

200.000000
1
Lambda 750
750N8071901
PerkinElmer UV WinLab 6.0.4.0738 / 1.61.00 Lambda 900

0
0
3350/servo 860.8/2
0
0
UV/VIS
1
1
1
CommonBeamDepol,150mm sphere / downward view
0
0
0
0
Program
Program
3350/servo 860.8/2
3350/0.2 860.8/0.2
3350/0.2 860.8/0.2
0
1
 
 
 
0
 
860.8
319.2
860.8
Front
100
on
 
 
0
0
0
 
0
 
 
 
0
 
 
0
0
0
0
0
 
 
 
 
0
0


0
0
#HDR
-1
-1
#GR
nm
%T
1.0
0.0
2350.000000
-1.000000
2151
8
50.334988
0.213701
#DATA
2350.000000	15.331076
2349.000000	15.657181
2348.000000	15.777233
2347.000000	16.218927
2346.000000	15.493390
2345.000000	15.786029
2344.000000	15.469453
2343.000000	15.686996
2342.000000	15.650236
2341.000000	15.787255
2340.000000	15.720899
2339.000000	15.957761
2338.000000	16.193422
2337.000000	16.015182
2336.000000	16.298336
2335.000000	16.319291
2334.000000	16.149404
2333.000000	16.321844
2332.000000	16.463262
2331.000000	16.374942
2330.000000	16.343174
2329.000000	16.472556
2328.000000	16.309984
2327.000000	16.206739
2326.000000	16.551119
2325.000000	16.287292
2324.000000	16.348618
2323.000000	16.197790
2322.000000	15.958297
2321.000000	16.101451
2320.000000	16.129489
2319.000000	16.167638
2318.000000	16.001210
2317.000000	16.060137
2316.000000	15.825508
2315.000000	15.716379
2314.000000	15.725023
2313.000000	15.564022
2312.000000	15.555370
2311.000000	15.482160
2310.000000	15.277095
2309.000000	15.349897
2308.000000	15.079848
2307.000000	14.920753
2306.000000	14.881869
2305.000000	15.043138
2304.000000	14.953674
2303.000000	14.843254
2302.000000	14.639123
2301.000000	14.560930
2300.000000	14.217928
2299.000000	14.234801
2298.000000	14.080843
2297.000000	14.135441
2296.000000	13.929881
2295.000000	13.827533
2294.000000	13.836496
2293.000000	13.717185
2292.000000	13.612960
2291.000000	13.650629
2290.000000	13.540861
2289.000000	13.352729
2288.000000	13.405720
2287.000000	13.286282
2286.000000	13.242888
2285.000000	13.205414
2284.000000	13.180595
2283.000000	13.105313
2282.000000	13.159988
2281.000000	13.291409
2280.000000	13.430520
2279.000000	13.430254
2278.000000	13.187608
2277.000000	13.270773
2276.000000	13.253678
2275.000000	13.443258
2274.000000	13.487931
2273.000000	13.476177
2272.000000	13.585421
2271.000000	13.577118
2270.000000	13.594550
2269.000000	13.746468
2268.000000	13.699476
2267.000000	13.791812
2266.000000	14.062661
2265.000000	14.184016
2264.000000	14.300088
2263.000000	14.396233
2262.000000	14.617346
2261.000000	14.863124
2260.000000	14.948956
2259.000000	15.132174
2258.000000	15.328270
2257.000000	15.542932
2256.000000	15.720202
2255.000000	15.885037
2254.000000	16.094792
2253.000000	16.409019
2252.000000	16.595630
2251.000000	16.763059
2250.000000	16.923286
2249.000000	17.175158
2248.000000	17.441747
2247.000000	17.701220
2246.000000	18.025854
2245.000000	18.252833
2244.000000	18.382223
2243.000000	18.551222
2242.000000	18.765335
2241.000000	18.891971
2240.000000	19.055273
2239.000000	19.214641
2238.000000	19.271666
2237.000000	19.497200
2236.000000	19.721149
2235.000000	19.764239
2234.000000	19.764538
2233.000000	19.723149
2232.000000	19.782589
2231.000000	20.047561
2230.000000	20.096258
2229.000000	20.047234
2228.000000	20.084011
2227.000000	20.101065
2226.000000	20.060885
2225.000000	19.973247
2224.000000	19.901224
2223.000000	19.933106
2222.000000	20.000588
2221.000000	19.931669
2220.000000	19.955755
2219.000000	20.011351
2218.000000	19.875649
2217.000000	19.803851
2216.000000	19.745734
2215.000000	19.663017
2214.000000	19.730370
2213.000000	19.647841
2212.000000	19.485501
2211.000000	19.388002
2210.000000	19.271354
2209.000000	19.245460
2208.000000	19.141192
2207.000000	19.034900
2206.000000	18.949854
2205.000000	18.952593
2204.000000	18.805799
2203.000000	18.717482
2202.000000	18.648518
2201.000000	18.647735
2200.000000	18.472956
2199.000000	18.440687
2198.000000	18.445462
2197.000000	18.256062
2196.000000	18.165316
2195.000000	18.096440
2194.000000	17.967296
2193.000000	17.809808
2192.000000	17.721286
2191.000000	17.664641
2190.000000	17.522804
2189.000000	17.497882
2188.000000	17.331218
2187.000000	17.233038
2186.000000	17.254014
2185.000000	17.136578
2184.000000	17.247785
2183.000000	17.382813
2182.000000	17.311600
2181.000000	17.027775
2180.000000	17.086524
2179.000000	17.004464
2178.000000	17.082138
2177.000000	17.198112
2176.000000	17.070908
2175.000000	16.862458
2174.000000	16.973555
2173.000000	16.989747
2172.000000	17.043507
2171.000000	17.222782
2170.000000	17.310511
2169.000000	17.424754
2168.000000	17.514288
2167.000000	17.558981
2166.000000	17.627744
2165.000000	17.581013
2164.000000	17.619535
2163.000000	17.841735
2162.000000	17.982253
2161.000000	17.982083
2160.000000	18.241706
2159.000000	18.413355
2158.000000	18.627449
2157.000000	18.712406
2156.000000	18.938066
2155.000000	18.871798
2154.000000	19.126246
2153.000000	19.307183
2152.000000	19.357052
2151.000000	19.495961
2150.000000	19.708613
2149.000000	19.823807
2148.000000	20.030398
2147.000000	20.332742
2146.000000	20.395693
2145.000000	20.492983
2144.000000	20.796920
2143.000000	20.944528
2142.000000	21.083370
2141.000000	21.212313
2140.000000	21.396089
2139.000000	21.493153
2138.000000	21.678085
2137.000000	21.617273
2136.000000	21.881226
2135.000000	21.872256
2134.000000	22.213249
2133.000000	21.968816
2132.000000	22.345033
2131.000000	22.456412
2130.000000	22.459213
2129.000000	22.447304
2128.000000	22.482647
2127.000000	22.759345
2126.000000	22.787553
2125.000000	22.895105
2124.000000	22.862306
2123.000000	22.841890
2122.000000	23.010820
2121.000000	22.992675
2120.000000	23.010640
2119.000000	23.130874
2118.000000	23.391507
2117.000000	23.284658
2116.000000	23.263242
2115.000000	23.400108
2114.000000	23.372328
2113.000000	23.366078
2112.000000	23.522625
2111.000000	23.427169
2110.000000	23.566470
2109.000000	23.548413
2108.000000	23.466764
2107.000000	23.400818
2106.000000	23.543852
2105.000000	23.550266
2104.000000	23.619700
2103.000000	23.693127
2102.000000	23.677273
2101.000000	23.619685
2100.000000	23.789238
2099.000000	23.622159
2098.000000	23.596539
2097.000000	23.623084
2096.000000	23.596144
2095.000000	23.621664
2094.000000	23.537142
2093.000000	23.567225
2092.000000	23.592276
2091.000000	23.576932
2090.000000	23.484180
2089.000000	23.493019
2088.000000	23.504411
2087.000000	23.400780
2086.000000	23.402525
2085.000000	23.372495
2084.000000	23.329034
2083.000000	23.235269
2082.000000	23.194349
2081.000000	23.124180
2080.000000	23.006979
2079.000000	22.893692
2078.000000	22.892065
2077.000000	22.876430
2076.000000	22.737991
2075.000000	22.548425
2074.000000	22.335002
2073.000000	22.301071
2072.000000	22.185539
2071.000000	22.058081
2070.000000	21.888321
2069.000000	21.662965
2068.000000	21.557125
2067.000000	21.460998
2066.000000	21.265266
2065.000000	21.064344
2064.000000	20.921602
2063.000000	20.704135
2062.000000	20.630044
2061.000000	20.443179
2060.000000	20.231909
2059.000000	20.090249
2058.000000	19.914545
2057.000000	19.761542
2056.000000	19.654920
2055.000000	19.488109
2054.000000	19.311350
2053.000000	19.131779
2052.000000	18.994520
2051.000000	18.800704
2050.000000	18.705871
2049.000000	18.634745
2048.000000	18.510071
2047.000000	18.394425
2046.000000	18.352523
2045.000000	18.340451
2044.000000	18.268614
2043.000000	18.284456
2042.000000	18.302433
2041.000000	18.310813
2040.000000	18.362390
2039.000000	18.378734
2038.000000	18.417671
2037.000000	18.496122
2036.000000	18.606871
2035.000000	18.718521
2034.000000	18.804022
2033.000000	18.949887
2032.000000	19.102244
2031.000000	19.256794
2030.000000	19.426841
2029.000000	19.564524
2028.000000	19.690332
2027.000000	19.831603
2026.000000	20.005755
2025.000000	20.182792
2024.000000	20.308565
2023.000000	20.406049
2022.000000	20.503442
2021.000000	20.571827
2020.000000	20.658357
2019.000000	20.746339
2018.000000	20.771992
2017.000000	20.816649
2016.000000	20.864003
2015.000000	20.866359
2014.000000	20.869318
2013.000000	20.874774
2012.000000	20.862297
2011.000000	20.836912
2010.000000	20.814504
2009.000000	20.733295
2008.000000	20.687846
2007.000000	20.638974
2006.000000	20.559921
2005.000000	20.470253
2004.000000	20.364845
2003.000000	20.310973
2002.000000	20.260090
2001.000000	20.177483
2000.000000	20.088236
1999.000000	20.027668
1998.000000	19.903507
1997.000000	19.765608
1996.000000	19.697536
1995.000000	19.605639
1994.000000	19.471563
1993.000000	19.371016
1992.000000	19.204582
1991.000000	19.138380
1990.000000	19.075364
1989.000000	18.912595
1988.000000	18.829069
1987.000000	18.728981
1986.000000	18.607096
1985.000000	18.517417
1984.000000	18.408679
1983.000000	18.283406
1982.000000	18.201294
1981.000000	18.131246
1980.000000	18.010879
1979.000000	17.917089
1978.000000	17.819085
1977.000000	17.689487
1976.000000	17.583145
1975.000000	17.508441
1974.000000	17.389657
1973.000000	17.292798
1972.000000	17.226596
1971.000000	17.101653
1970.000000	17.020965
1969.000000	16.926092
1968.000000	16.840301
1967.000000	16.744196
1966.000000	16.666785
1965.000000	16.582328
1964.000000	16.489215
1963.000000	16.372043
1962.000000	16.286640
1961.000000	16.239870
1960.000000	16.146729
1959.000000	16.029374
1958.000000	15.975876
1957.000000	15.874491
1956.000000	15.795385
1955.000000	15.741450
1954.000000	15.723566
1953.000000	15.692556
1952.000000	15.649860
1951.000000	15.646287
1950.000000	15.532768
1949.000000	15.530264
1948.000000	15.473567
1947.000000	15.496463
1946.000000	15.465272
1945.000000	15.469892
1944.000000	15.460239
1943.000000	15.528002
1942.000000	15.620589
1941.000000	15.678281
1940.000000	15.698539
1939.000000	15.852467
1938.000000	15.934033
1937.000000	16.027669
1936.000000	16.111326
1935.000000	16.338740
1934.000000	16.408093
1933.000000	16.566305
1932.000000	16.709127
1931.000000	16.904309
1930.000000	17.124960
1929.000000	17.330837
1928.000000	17.538619
1927.000000	17.772032
1926.000000	18.050004
1925.000000	18.381517
1924.000000	18.611022
1923.000000	18.857147
1922.000000	19.162581
1921.000000	19.484136
1920.000000	19.814764
1919.000000	20.105550
1918.000000	20.473905
1917.000000	20.840066
1916.000000	21.144432
1915.000000	21.622513
1914.000000	21.987271
1913.000000	22.417447
1912.000000	22.708024
1911.000000	23.159819
1910.000000	23.592529
1909.000000	24.045541
1908.000000	24.455482
1907.000000	24.916768
1906.000000	25.391016
1905.000000	25.855956
1904.000000	26.327267
1903.000000	26.796459
1902.000000	27.272174
1901.000000	27.784660
1900.000000	28.225999
1899.000000	28.784301
1898.000000	29.342534
1897.000000	29.788439
1896.000000	30.300105
1895.000000	30.751831
1894.000000	31.171235
1893.000000	31.682350
1892.000000	32.130140
1891.000000	32.575725
1890.000000	33.040770
1889.000000	33.497512
1888.000000	33.861936
1887.000000	34.270407
1886.000000	34.685792
1885.000000	35.024528
1884.000000	35.398361
1883.000000	35.793431
1882.000000	36.078166
1881.000000	36.344802
1880.000000	36.655456
1879.000000	36.967978
1878.000000	37.238349
1877.000000	37.514973
1876.000000	37.761100
1875.000000	37.941058
1874.000000	38.180064
1873.000000	38.374235
1872.000000	38.493538
1871.000000	38.705861
1870.000000	38.839535
1869.000000	39.000726
1868.000000	39.121178
1867.000000	39.197904
1866.000000	39.324708
1865.000000	39.377293
1864.000000	39.428982
1863.000000	39.512669
1862.000000	39.567136
1861.000000	39.627212
1860.000000	39.666403
1859.000000	39.710201
1858.000000	39.775979
1857.000000	39.791405
1856.000000	39.822129
1855.000000	39.836902
1854.000000	39.869070
1853.000000	39.889891
1852.000000	39.877996
1851.000000	39.871380
1850.000000	39.882103
1849.000000	39.855441
1848.000000	39.848716
1847.000000	39.841296
1846.000000	39.835610
1845.000000	39.818113
1844.000000	39.759525
1843.000000	39.738925
1842.000000	39.707204
1841.000000	39.664607
1840.000000	39.646772
1839.000000	39.608645
1838.000000	39.589315
1837.000000	39.539028
1836.000000	39.499422
1835.000000	39.448581
1834.000000	39.364652
1833.000000	39.337153
1832.000000	39.281439
1831.000000	39.194166
1830.000000	39.203736
1829.000000	39.161165
1828.000000	39.101670
1827.000000	39.052458
1826.000000	38.988965
1825.000000	38.947470
1824.000000	38.921043
1823.000000	38.890580
1822.000000	38.854259
1821.000000	38.804108
1820.000000	38.765530
1819.000000	38.725794
1818.000000	38.675216
1817.000000	38.624813
1816.000000	38.576595
1815.000000	38.540516
1814.000000	38.505326
1813.000000	38.464522
1812.000000	38.431954
1811.000000	38.397449
1810.000000	38.354829
1809.000000	38.323761
1808.000000	38.268450
1807.000000	38.208378
1806.000000	38.175566
1805.000000	38.139123
1804.000000	38.102937
1803.000000	38.077095
1802.000000	38.045751
1801.000000	38.009660
1800.000000	37.970867
1799.000000	37.927910
1798.000000	37.906395
1797.000000	37.889524
1796.000000	37.856302
1795.000000	37.831425
1794.000000	37.803529
1793.000000	37.777462
1792.000000	37.732399
1791.000000	37.707662
1790.000000	37.698012
1789.000000	37.674518
1788.000000	37.638364
1787.000000	37.601068
1786.000000	37.583452
1785.000000	37.538624
1784.000000	37.501181
1783.000000	37.472351
1782.000000	37.437862
1781.000000	37.407869
1780.000000	37.357934
1779.000000	37.295011
1778.000000	37.235774
1777.000000	37.167166
1776.000000	37.137689
1775.000000	37.072517
1774.000000	36.997865
1773.000000	36.961766
1772.000000	36.910929
1771.000000	36.834194
1770.000000	36.781020
1769.000000	36.701161
1768.000000	36.635429
1767.000000	36.566226
1766.000000	36.510645
1765.000000	36.437173
1764.000000	36.385938
1763.000000	36.325634
1762.000000	36.255400
1761.000000	36.171315
1760.000000	36.125036
1759.000000	36.054538
1758.000000	35.992923
1757.000000	35.903806
1756.000000	35.867018
1755.000000	35.784770
1754.000000	35.739665
1753.000000	35.675572
1752.000000	35.615028
1751.000000	35.526220
1750.000000	35.467622
1749.000000	35.399977
1748.000000	35.305641
1747.000000	35.260050
1746.000000	35.197463
1745.000000	35.088865
1744.000000	35.038799
1743.000000	34.975893
1742.000000	34.903492
1741.000000	34.846769
1740.000000	34.804540
1739.000000	34.717992
1738.000000	34.696748
1737.000000	34.654397
1736.000000	34.632398
1735.000000	34.622809
1734.000000	34.614682
1733.000000	34.590766
1732.000000	34.599585
1731.000000	34.602836
1730.000000	34.600582
1729.000000	34.643098
1728.000000	34.673129
1727.000000	34.739479
1726.000000	34.795441
1725.000000	34.880218
1724.000000	34.964101
1723.000000	35.033516
1722.000000	35.113518
1721.000000	35.212349
1720.000000	35.305476
1719.000000	35.431282
1718.000000	35.477709
1717.000000	35.562241
1716.000000	35.698853
1715.000000	35.742122
1714.000000	35.817509
1713.000000	35.918523
1712.000000	36.001206
1711.000000	36.062474
1710.000000	36.108657
1709.000000	36.171487
1708.000000	36.227757
1707.000000	36.247931
1706.000000	36.271125
1705.000000	36.293055
1704.000000	36.351194
1703.000000	36.338432
1702.000000	36.372672
1701.000000	36.404398
1700.000000	36.387797
1699.000000	36.395999
1698.000000	36.456440
1697.000000	36.454191
1696.000000	36.505609
1695.000000	36.540719
1694.000000	36.583697
1693.000000	36.639529
1692.000000	36.689720
1691.000000	36.770411
1690.000000	36.848508
1689.000000	36.942943
1688.000000	37.075017
1687.000000	37.189174
1686.000000	37.339322
1685.000000	37.447420
1684.000000	37.604717
1683.000000	37.783357
1682.000000	37.965867
1681.000000	38.156385
1680.000000	38.301495
1679.000000	38.491815
1678.000000	38.693790
1677.000000	38.868708
1676.000000	39.064362
1675.000000	39.264866
1674.000000	39.431114
1673.000000	39.604889
1672.000000	39.798886
1671.000000	39.970819
1670.000000	40.129931
1669.000000	40.297306
1668.000000	40.415056
1667.000000	40.571517
1666.000000	40.657384
1665.000000	40.755576
1664.000000	40.864589
1663.000000	40.942521
1662.000000	41.041126
1661.000000	41.092734
1660.000000	41.169904
1659.000000	41.236300
1658.000000	41.285885
1657.000000	41.347876
1656.000000	41.375815
1655.000000	41.405972
1654.000000	41.423779
1653.000000	41.440830
1652.000000	41.443163
1651.000000	41.447336
1650.000000	41.462301
1649.000000	41.449917
1648.000000	41.424460
1647.000000	41.413684
1646.000000	41.397203
1645.000000	41.405960
1644.000000	41.373257
1643.000000	41.353287
1642.000000	41.323376
1641.000000	41.286430
1640.000000	41.252006
1639.000000	41.208170
1638.000000	41.190948
1637.000000	41.158077
1636.000000	41.086638
1635.000000	41.052350
1634.000000	41.027962
1633.000000	40.970355
1632.000000	40.931702
1631.000000	40.882535
1630.000000	40.827795
1629.000000	40.787958
1628.000000	40.740587
1627.000000	40.698021
1626.000000	40.632840
1625.000000	40.580622
1624.000000	40.539677
1623.000000	40.506758
1622.000000	40.437824
1621.000000	40.373829
1620.000000	40.323167
1619.000000	40.270590
1618.000000	40.215760
1617.000000	40.149551
1616.000000	40.094096
1615.000000	40.035347
1614.000000	39.986141
1613.000000	39.916506
1612.000000	39.854603
1611.000000	39.787054
1610.000000	39.720010
1609.000000	39.669888
1608.000000	39.608276
1607.000000	39.535212
1606.000000	39.462538
1605.000000	39.394096
1604.000000	39.317414
1603.000000	39.252465
1602.000000	39.200899
1601.000000	39.132116
1600.000000	39.060263
1599.000000	38.988412
1598.000000	38.932166
1597.000000	38.876689
1596.000000	38.811184
1595.000000	38.744610
1594.000000	38.683126
1593.000000	38.638761
1592.000000	38.582433
1591.000000	38.518054
1590.000000	38.463333
1589.000000	38.405961
1588.000000	38.358196
1587.000000	38.313486
1586.000000	38.262964
1585.000000	38.212960
1584.000000	38.159399
1583.000000	38.106982
1582.000000	38.056080
1581.000000	38.019190
1580.000000	37.968946
1579.000000	37.915562
1578.000000	37.869685
1577.000000	37.814198
1576.000000	37.766737
1575.000000	37.727996
1574.000000	37.667509
1573.000000	37.613093
1572.000000	37.572892
1571.000000	37.551037
1570.000000	37.491416
1569.000000	37.438306
1568.000000	37.403675
1567.000000	37.364940
1566.000000	37.329287
1565.000000	37.291814
1564.000000	37.262853
1563.000000	37.225063
1562.000000	37.197331
1561.000000	37.173159
1560.000000	37.149328
1559.000000	37.115226
1558.000000	37.100653
1557.000000	37.081916
1556.000000	37.066316
1555.000000	37.041898
1554.000000	37.006871
1553.000000	36.980964
1552.000000	36.940337
1551.000000	36.897760
1550.000000	36.856805
1549.000000	36.812925
1548.000000	36.768486
1547.000000	36.717784
1546.000000	36.662597
1545.000000	36.601613
1544.000000	36.530264
1543.000000	36.461263
1542.000000	36.377188
1541.000000	36.293778
1540.000000	36.211570
1539.000000	36.127410
1538.000000	36.029534
1537.000000	35.936134
1536.000000	35.837970
1535.000000	35.761641
1534.000000	35.667895
1533.000000	35.594731
1532.000000	35.500139
1531.000000	35.404287
1530.000000	35.323618
1529.000000	35.219651
1528.000000	35.156874
1527.000000	35.082670
1526.000000	34.992023
1525.000000	34.927987
1524.000000	34.861591
1523.000000	34.801287
1522.000000	34.742004
1521.000000	34.697833
1520.000000	34.625544
1519.000000	34.581038
1518.000000	34.541044
1517.000000	34.504179
1516.000000	34.439628
1515.000000	34.394199
1514.000000	34.365017
1513.000000	34.341068
1512.000000	34.302952
1511.000000	34.263264
1510.000000	34.249494
1509.000000	34.224423
1508.000000	34.215047
1507.000000	34.180598
1506.000000	34.164015
1505.000000	34.154447
1504.000000	34.138724
1503.000000	34.135091
1502.000000	34.123497
1501.000000	34.114572
1500.000000	34.106278
1499.000000	34.116148
1498.000000	34.121169
1497.000000	34.131372
1496.000000	34.170461
1495.000000	34.186304
1494.000000	34.218661
1493.000000	34.238238
1492.000000	34.259327
1491.000000	34.307127
1490.000000	34.338059
1489.000000	34.370437
1488.000000	34.421240
1487.000000	34.501783
1486.000000	34.547092
1485.000000	34.597533
1484.000000	34.661700
1483.000000	34.748678
1482.000000	34.808987
1481.000000	34.890193
1480.000000	34.954760
1479.000000	35.017403
1478.000000	35.076862
1477.000000	35.160263
1476.000000	35.219169
1475.000000	35.285495
1474.000000	35.353323
1473.000000	35.418073
1472.000000	35.478302
1471.000000	35.534482
1470.000000	35.636062
1469.000000	35.712736
1468.000000	35.748590
1467.000000	35.800112
1466.000000	35.868865
1465.000000	35.931450
1464.000000	35.957633
1463.000000	36.018368
1462.000000	36.053574
1461.000000	36.136893
1460.000000	36.204614
1459.000000	36.251261
1458.000000	36.292728
1457.000000	36.362659
1456.000000	36.436931
1455.000000	36.501206
1454.000000	36.542607
1453.000000	36.611400
1452.000000	36.684977
1451.000000	36.733986
1450.000000	36.789307
1449.000000	36.869055
1448.000000	36.921129
1447.000000	37.011267
1446.000000	37.093171
1445.000000	37.154862
1444.000000	37.232577
1443.000000	37.322177
1442.000000	37.413487
1441.000000	37.505613
1440.000000	37.573171
1439.000000	37.663712
1438.000000	37.744597
1437.000000	37.828354
1436.000000	37.916689
1435.000000	38.014365
1434.000000	38.131293
1433.000000	38.243812
1432.000000	38.355887
1431.000000	38.470248
1430.000000	38.585483
1429.000000	38.708265
1428.000000	38.863056
1427.000000	38.995492
1426.000000	39.124681
1425.000000	39.256248
1424.000000	39.401389
1423.000000	39.535381
1422.000000	39.669446
1421.000000	39.813492
1420.000000	39.983831
1419.000000	40.161810
1418.000000	40.316989
1417.000000	40.483014
1416.000000	40.671893
1415.000000	40.837720
1414.000000	40.999816
1413.000000	41.183676
1412.000000	41.377827
1411.000000	41.557732
1410.000000	41.742593
1409.000000	41.917578
1408.000000	42.077936
1407.000000	42.253843
1406.000000	42.432968
1405.000000	42.608283
1404.000000	42.772765
1403.000000	42.950525
1402.000000	43.122227
1401.000000	43.287349
1400.000000	43.433454
1399.000000	43.581571
1398.000000	43.736274
1397.000000	43.885545
1396.000000	44.042728
1395.000000	44.183209
1394.000000	44.330709
1393.000000	44.462685
1392.000000	44.606111
1391.000000	44.746141
1390.000000	44.876433
1389.000000	45.016250
1388.000000	45.136191
1387.000000	45.249647
1386.000000	45.366721
1385.000000	45.473079
1384.000000	45.568151
1383.000000	45.659464
1382.000000	45.752075
1381.000000	45.848933
1380.000000	45.929777
1379.000000	45.998203
1378.000000	46.065730
1377.000000	46.137577
1376.000000	46.202318
1375.000000	46.262961
1374.000000	46.318516
1373.000000	46.366517
1372.000000	46.417646
1371.000000	46.464892
1370.000000	46.519752
1369.000000	46.579987
1368.000000	46.636019
1367.000000	46.680122
1366.000000	46.721770
1365.000000	46.771806
1364.000000	46.829315
1363.000000	46.885254
1362.000000	46.951268
1361.000000	47.013697
1360.000000	47.070132
1359.000000	47.118233
1358.000000	47.183721
1357.000000	47.238763
1356.000000	47.306837
1355.000000	47.387452
1354.000000	47.451380
1353.000000	47.503709
1352.000000	47.563679
1351.000000	47.617945
1350.000000	47.678045
1349.000000	47.729140
1348.000000	47.799683
1347.000000	47.877000
1346.000000	47.928536
1345.000000	47.973446
1344.000000	48.022253
1343.000000	48.063953
1342.000000	48.111721
1341.000000	48.171551
1340.000000	48.230204
1339.000000	48.292387
1338.000000	48.356085
1337.000000	48.397847
1336.000000	48.438309
1335.000000	48.473609
1334.000000	48.509596
1333.000000	48.542668
1332.000000	48.568181
1331.000000	48.606613
1330.000000	48.664791
1329.000000	48.689666
1328.000000	48.689340
1327.000000	48.710893
1326.000000	48.757949
1325.000000	48.776990
1324.000000	48.769498
1323.000000	48.797555
1322.000000	48.837466
1321.000000	48.853670
1320.000000	48.878287
1319.000000	48.879113
1318.000000	48.870058
1317.000000	48.893087
1316.000000	48.931554
1315.000000	48.956439
1314.000000	48.950153
1313.000000	48.947404
1312.000000	48.931992
1311.000000	48.950222
1310.000000	48.973016
1309.000000	48.977689
1308.000000	48.991080
1307.000000	49.008724
1306.000000	49.007505
1305.000000	49.005060
1304.000000	48.998515
1303.000000	49.020598
1302.000000	49.044841
1301.000000	49.035490
1300.000000	49.042837
1299.000000	49.029378
1298.000000	49.036852
1297.000000	49.036198
1296.000000	49.028157
1295.000000	49.011869
1294.000000	49.009905
1293.000000	49.008071
1292.000000	48.993536
1291.000000	48.996360
1290.000000	48.987547
1289.000000	48.989171
1288.000000	48.962582
1287.000000	48.946660
1286.000000	48.908329
1285.000000	48.905087
1284.000000	48.900692
1283.000000	48.897356
1282.000000	48.908031
1281.000000	48.898800
1280.000000	48.884790
1279.000000	48.886782
1278.000000	48.881504
1277.000000	48.876830
1276.000000	48.874324
1275.000000	48.869865
1274.000000	48.879531
1273.000000	48.878142
1272.000000	48.857314
1271.000000	48.863595
1270.000000	48.858718
1269.000000	48.867656
1268.000000	48.879715
1267.000000	48.888310
1266.000000	48.879183
1265.000000	48.863769
1264.000000	48.897673
1263.000000	48.891461
1262.000000	48.940989
1261.000000	48.937294
1260.000000	48.930809
1259.000000	48.934662
1258.000000	48.923246
1257.000000	48.957840
1256.000000	49.000311
1255.000000	48.972198
1254.000000	48.952831
1253.000000	48.972732
1252.000000	48.967336
1251.000000	48.954571
1250.000000	48.945477
1249.000000	48.953724
1248.000000	48.925844
1247.000000	48.911422
1246.000000	48.908076
1245.000000	48.898669
1244.000000	48.901164
1243.000000	48.883477
1242.000000	48.838721
1241.000000	48.780409
1240.000000	48.780828
1239.000000	48.761795
1238.000000	48.727317
1237.000000	48.684025
1236.000000	48.659810
1235.000000	48.653814
1234.000000	48.613930
1233.000000	48.554194
1232.000000	48.528193
1231.000000	48.506444
1230.000000	48.498559
1229.000000	48.459226
1228.000000	48.424711
1227.000000	48.416893
1226.000000	48.395377
1225.000000	48.377658
1224.000000	48.363929
1223.000000	48.338969
1222.000000	48.324909
1221.000000	48.288932
1220.000000	48.261957
1219.000000	48.230118
1218.000000	48.200736
1217.000000	48.161263
1216.000000	48.120667
1215.000000	48.086262
1214.000000	48.046696
1213.000000	48.011911
1212.000000	48.008135
1211.000000	47.951526
1210.000000	47.901302
1209.000000	47.881768
1208.000000	47.853855
1207.000000	47.798617
1206.000000	47.746952
1205.000000	47.732192
1204.000000	47.672633
1203.000000	47.627922
1202.000000	47.587475
1201.000000	47.532291
1200.000000	47.477399
1199.000000	47.430845
1198.000000	47.401019
1197.000000	47.372545
1196.000000	47.346424
1195.000000	47.304327
1194.000000	47.257561
1193.000000	47.232700
1192.000000	47.195089
1191.000000	47.173706
1190.000000	47.147528
1189.000000	47.094896
1188.000000	47.082403
1187.000000	47.079688
1186.000000	47.061121
1185.000000	47.066415
1184.000000	47.077071
1183.000000	47.097118
1182.000000	47.119716
1181.000000	47.142298
1180.000000	47.172872
1179.000000	47.217562
1178.000000	47.250595
1177.000000	47.297545
1176.000000	47.345488
1175.000000	47.393521
1174.000000	47.438226
1173.000000	47.496666
1172.000000	47.567895
1171.000000	47.633337
1170.000000	47.702531
1169.000000	47.769337
1168.000000	47.838469
1167.000000	47.927485
1166.000000	48.018174
1165.000000	48.091543
1164.000000	48.167749
1163.000000	48.245178
1162.000000	48.316441
1161.000000	48.399331
1160.000000	48.478377
1159.000000	48.555965
1158.000000	48.637392
1157.000000	48.708782
1156.000000	48.764017
1155.000000	48.833372
1154.000000	48.899011
1153.000000	48.955834
1152.000000	49.014348
1151.000000	49.068961
1150.000000	49.119944
1149.000000	49.160999
1148.000000	49.205959
1147.000000	49.242132
1146.000000	49.273682
1145.000000	49.326976
1144.000000	49.380484
1143.000000	49.422491
1142.000000	49.466983
1141.000000	49.518236
1140.000000	49.558549
1139.000000	49.598394
1138.000000	49.652217
1137.000000	49.695205
1136.000000	49.727914
1135.000000	49.760418
1134.000000	49.800797
1133.000000	49.844553
1132.000000	49.863202
1131.000000	49.899812
1130.000000	49.954039
1129.000000	49.947286
1128.000000	49.959758
1127.000000	49.985389
1126.000000	50.012560
1125.000000	50.045688
1124.000000	50.050678
1123.000000	50.076182
1122.000000	50.098688
1121.000000	50.114520
1120.000000	50.120458
1119.000000	50.124099
1118.000000	50.147290
1117.000000	50.145218
1116.000000	50.152813
1115.000000	50.157086
1114.000000	50.158155
1113.000000	50.167698
1112.000000	50.129206
1111.000000	50.112543
1110.000000	50.127983
1109.000000	50.127406
1108.000000	50.134668
1107.000000	50.143550
1106.000000	50.155211
1105.000000	50.163582
1104.000000	50.162618
1103.000000	50.165827
1102.000000	50.177438
1101.000000	50.142236
1100.000000	50.125942
1099.000000	50.118034
1098.000000	50.117820
1097.000000	50.136352
1096.000000	50.131435
1095.000000	50.141895
1094.000000	50.145604
1093.000000	50.114133
1092.000000	50.088014
1091.000000	50.090348
1090.000000	50.109458
1089.000000	50.112775
1088.000000	50.103793
1087.000000	50.105486
1086.000000	50.078375
1085.000000	50.065218
1084.000000	50.072487
1083.000000	50.076007
1082.000000	50.073107
1081.000000	50.058116
1080.000000	50.059052
1079.000000	50.036334
1078.000000	50.014709
1077.000000	49.995380
1076.000000	50.006607
1075.000000	50.012962
1074.000000	50.009980
1073.000000	49.999653
1072.000000	49.971457
1071.000000	49.938867
1070.000000	49.957379
1069.000000	49.941273
1068.000000	49.937514
1067.000000	49.930521
1066.000000	49.935594
1065.000000	49.887873
1064.000000	49.870756
1063.000000	49.876076
1062.000000	49.865165
1061.000000	49.858478
1060.000000	49.856856
1059.000000	49.856338
1058.000000	49.833978
1057.000000	49.803669
1056.000000	49.819879
1055.000000	49.784588
1054.000000	49.792910
1053.000000	49.750612
1052.000000	49.750989
1051.000000	49.724245
1050.000000	49.758201
1049.000000	49.735132
1048.000000	49.694062
1047.000000	49.711299
1046.000000	49.709906
1045.000000	49.693261
1044.000000	49.652725
1043.000000	49.634653
1042.000000	49.659311
1041.000000	49.656370
1040.000000	49.659916
1039.000000	49.615661
1038.000000	49.613042
1037.000000	49.603470
1036.000000	49.618068
1035.000000	49.594933
1034.000000	49.588027
1033.000000	49.583003
1032.000000	49.589787
1031.000000	49.562945
1030.000000	49.563179
1029.000000	49.579308
1028.000000	49.570353
1027.000000	49.565275
1026.000000	49.576845
1025.000000	49.577392
1024.000000	49.534955
1023.000000	49.540653
1022.000000	49.540859
1021.000000	49.528194
1020.000000	49.520710
1019.000000	49.548482
1018.000000	49.555271
1017.000000	49.541613
1016.000000	49.513176
1015.000000	49.533804
1014.000000	49.549280
1013.000000	49.557604
1012.000000	49.569406
1011.000000	49.551203
1010.000000	49.544692
1009.000000	49.553731
1008.000000	49.568501
1007.000000	49.569351
1006.000000	49.580362
1005.000000	49.593178
1004.000000	49.596655
1003.000000	49.612765
1002.000000	49.629084
1001.000000	49.621142
1000.000000	49.645578
999.000000	49.648970
998.000000	49.656818
997.000000	49.648574
996.000000	49.649909
995.000000	49.659783
994.000000	49.654894
993.000000	49.665328
992.000000	49.671396
991.000000	49.679737
990.000000	49.672875
989.000000	49.681540
988.000000	49.676733
987.000000	49.676554
986.000000	49.691759
985.000000	49.713389
984.000000	49.718744
983.000000	49.719240
982.000000	49.722990
981.000000	49.739420
980.000000	49.716122
979.000000	49.721043
978.000000	49.728459
977.000000	49.744072
976.000000	49.738963
975.000000	49.739319
974.000000	49.738935
973.000000	49.748873
972.000000	49.758597
971.000000	49.766538
970.000000	49.761483
969.000000	49.765289
968.000000	49.764988
967.000000	49.771986
966.000000	49.786035
965.000000	49.789185
964.000000	49.796348
963.000000	49.789933
962.000000	49.780488
961.000000	49.799645
960.000000	49.822048
959.000000	49.831604
958.000000	49.817650
957.000000	49.816534
956.000000	49.818682
955.000000	49.827768
954.000000	49.836526
953.000000	49.843910
952.000000	49.840810
951.000000	49.835977
950.000000	49.838168
949.000000	49.849213
948.000000	49.852811
947.000000	49.839568
946.000000	49.840184
945.000000	49.843569
944.000000	49.843148
943.000000	49.841512
942.000000	49.833525
941.000000	49.835653
940.000000	49.845983
939.000000	49.847207
938.000000	49.850508
937.000000	49.836050
936.000000	49.830342
935.000000	49.844508
934.000000	49.841639
933.000000	49.831287
932.000000	49.825780
931.000000	49.834202
930.000000	49.831913
929.000000	49.816674
928.000000	49.788412
927.000000	49.772049
926.000000	49.791868
925.000000	49.801212
924.000000	49.768619
923.000000	49.772792
922.000000	49.770319
921.000000	49.764819
920.000000	49.764760
919.000000	49.741625
918.000000	49.733486
917.000000	49.740832
916.000000	49.755986
915.000000	49.754101
914.000000	49.718039
913.000000	49.692017
912.000000	49.691399
911.000000	49.729431
910.000000	49.701948
909.000000	49.699133
908.000000	49.690260
907.000000	49.686263
906.000000	49.672993
905.000000	49.689293
904.000000	49.704873
903.000000	49.701802
902.000000	49.692040
901.000000	49.709715
900.000000	49.693031
899.000000	49.677001
898.000000	49.684064
897.000000	49.691910
896.000000	49.667091
895.000000	49.724507
894.000000	49.749199
893.000000	49.737300
892.000000	49.732602
891.000000	49.726543
890.000000	49.721026
889.000000	49.748728
888.000000	49.738140
887.000000	49.711083
886.000000	49.726649
885.000000	49.712627
884.000000	49.716876
883.000000	49.719105
882.000000	49.718112
881.000000	49.755859
880.000000	49.820923
879.000000	49.777421
878.000000	49.688097
877.000000	49.666393
876.000000	49.690162
875.000000	49.689979
874.000000	49.731655
873.000000	49.768361
872.000000	49.734554
871.000000	49.727259
870.000000	49.736894
869.000000	49.743922
868.000000	49.679685
867.000000	49.668470
866.000000	49.704442
865.000000	49.678854
864.000000	49.760263
863.000000	49.696933
862.000000	49.682092
861.000000	49.704206
860.000000	49.653950
859.000000	49.927470
858.000000	49.809448
857.000000	49.977214
856.000000	50.136687
855.000000	50.015787
854.000000	49.958074
853.000000	50.334988
852.000000	50.174772
851.000000	50.199788
850.000000	50.175550
849.000000	49.982168
848.000000	50.150580
847.000000	49.937214
846.000000	50.115583
845.000000	50.054672
844.000000	50.188188
843.000000	50.054404
842.000000	49.843715
841.000000	49.942097
840.000000	49.954195
839.000000	49.987758
838.000000	49.998370
837.000000	49.830941
836.000000	50.018561
835.000000	49.955072
834.000000	49.812855
833.000000	50.031204
832.000000	49.843736
831.000000	49.903495
830.000000	49.863291
829.000000	49.878752
828.000000	49.796274
827.000000	49.822719
826.000000	49.717207
825.000000	49.608047
824.000000	49.888489
823.000000	49.737453
822.000000	49.694664
821.000000	49.895131
820.000000	49.694623
819.000000	49.682731
818.000000	49.730099
817.000000	49.688036
816.000000	49.745090
815.000000	49.650093
814.000000	49.702622
813.000000	49.546272
812.000000	49.592917
811.000000	49.679254
810.000000	49.623584
809.000000	49.525077
808.000000	49.627606
807.000000	49.722022
806.000000	49.538676
805.000000	49.560581
804.000000	49.487009
803.000000	49.599130
802.000000	49.570075
801.000000	49.624684
800.000000	49.524697
799.000000	49.491452
798.000000	49.372860
797.000000	49.492802
796.000000	49.451256
795.000000	49.563096
794.000000	49.498320
793.000000	49.555829
792.000000	49.425740
791.000000	49.357704
790.000000	49.328002
789.000000	49.375992
788.000000	49.361104
787.000000	49.536658
786.000000	49.373217
785.000000	49.314686
784.000000	49.206459
783.000000	49.291820
782.000000	49.245228
781.000000	49.190580
780.000000	49.221146
779.000000	49.328322
778.000000	49.244981
777.000000	49.155298
776.000000	49.185175
775.000000	49.098061
774.000000	49.179137
773.000000	49.221163
772.000000	49.101933
771.000000	49.122602
770.000000	49.033885
769.000000	49.027920
768.000000	49.009124
767.000000	48.973681
766.000000	48.981579
765.000000	49.030620
764.000000	49.007656
763.000000	49.080669
762.000000	48.966635
761.000000	48.981363
760.000000	48.961430
759.000000	48.973245
758.000000	48.950302
757.000000	48.921373
756.000000	48.941466
755.000000	48.869864
754.000000	48.862152
753.000000	48.810878
752.000000	48.802199
751.000000	48.776571
750.000000	48.755863
749.000000	48.803069
748.000000	48.791120
747.000000	48.745836
746.000000	48.756348
745.000000	48.690989
744.000000	48.641185
743.000000	48.628757
742.000000	48.586726
741.000000	48.576393
740.000000	48.574975
739.000000	48.541519
738.000000	48.570084
737.000000	48.505590
736.000000	48.476979
735.000000	48.438873
734.000000	48.420022
733.000000	48.456519
732.000000	48.404891
731.000000	48.363923
730.000000	48.335493
729.000000	48.281003
728.000000	48.326528
727.000000	48.300775
726.000000	48.211622
725.000000	48.177899
724.000000	48.194657
723.000000	48.201284
722.000000	48.135259
721.000000	48.081951
720.000000	48.104562
719.000000	48.081522
718.000000	48.019030
717.000000	47.971355
716.000000	47.946152
715.000000	47.968512
714.000000	47.940175
713.000000	47.870468
712.000000	47.852834
711.000000	47.858902
710.000000	47.805310
709.000000	47.765360
708.000000	47.750413
707.000000	47.708418
706.000000	47.687343
705.000000	47.632421
704.000000	47.581424
703.000000	47.578279
702.000000	47.517768
701.000000	47.503441
700.000000	47.485382
699.000000	47.426617
698.000000	47.380323
697.000000	47.374075
696.000000	47.373470
695.000000	47.325398
694.000000	47.261660
693.000000	47.177597
692.000000	47.138483
691.000000	47.157432
690.000000	47.121345
689.000000	47.032024
688.000000	46.968715
687.000000	46.934550
686.000000	46.893860
685.000000	46.824981
684.000000	46.775831
683.000000	46.806892
682.000000	46.777274
681.000000	46.722885
680.000000	46.649610
679.000000	46.580401
678.000000	46.586911
677.000000	46.529530
676.000000	46.477991
675.000000	46.405640
674.000000	46.328225
673.000000	46.348638
672.000000	46.296855
671.000000	46.238501
670.000000	46.188974
669.000000	46.157356
668.000000	46.128717
667.000000	46.095223
666.000000	46.029361
665.000000	45.944427
664.000000	45.942246
663.000000	45.885407
662.000000	45.877651
661.000000	45.841790
660.000000	45.718969
659.000000	45.666999
658.000000	45.601487
657.000000	45.574393
656.000000	45.516422
655.000000	45.473234
654.000000	45.426588
653.000000	45.355215
652.000000	45.274614
651.000000	45.237161
650.000000	45.200465
649.000000	45.147362
648.000000	45.074471
647.000000	45.048534
646.000000	44.948077
645.000000	44.883632
644.000000	44.851812
643.000000	44.780179
642.000000	44.766435
641.000000	44.655416
640.000000	44.566451
639.000000	44.511749
638.000000	44.469275
637.000000	44.394757
636.000000	44.325020
635.000000	44.294779
634.000000	44.212863
633.000000	44.171794
632.000000	44.120801
631.000000	44.107396
630.000000	44.005019
629.000000	43.973670
628.000000	43.872801
627.000000	43.803118
626.000000	43.764993
625.000000	43.669326
624.000000	43.635522
623.000000	43.552847
622.000000	43.507619
621.000000	43.522263
620.000000	43.381844
619.000000	43.332689
618.000000	43.276613
617.000000	43.186865
616.000000	43.148700
615.000000	43.102962
614.000000	43.066800
613.000000	43.028275
612.000000	42.894476
611.000000	42.885587
610.000000	42.833022
609.000000	42.796031
608.000000	42.696061
607.000000	42.675107
606.000000	42.576389
605.000000	42.549589
604.000000	42.494307
603.000000	42.432503
602.000000	42.401702
601.000000	42.322560
600.000000	42.241502
599.000000	42.208433
598.000000	42.144921
597.000000	42.126374
596.000000	42.049088
595.000000	41.966171
594.000000	41.931585
593.000000	41.871216
592.000000	41.838923
591.000000	41.759109
590.000000	41.729314
589.000000	41.696122
588.000000	41.593498
587.000000	41.562206
586.000000	41.498134
585.000000	41.425033
584.000000	41.364402
583.000000	41.269844
582.000000	41.251037
581.000000	41.185824
580.000000	41.118543
579.000000	41.088406
578.000000	41.008427
577.000000	40.955989
576.000000	40.880677
575.000000	40.827048
574.000000	40.729583
573.000000	40.716366
572.000000	40.604583
571.000000	40.591083
570.000000	40.508397
569.000000	40.512521
568.000000	40.406472
567.000000	40.335076
566.000000	40.284548
565.000000	40.247814
564.000000	40.198378
563.000000	40.158487
562.000000	40.079951
561.000000	40.058055
560.000000	39.985045
559.000000	39.944785
558.000000	39.847323
557.000000	39.827978
556.000000	39.719250
555.000000	39.662583
554.000000	39.606696
553.000000	39.529782
552.000000	39.496668
551.000000	39.443632
550.000000	39.363102
549.000000	39.295411
548.000000	39.241890
547.000000	39.190117
546.000000	39.083017
545.000000	39.053391
544.000000	38.975941
543.000000	38.912240
542.000000	38.843733
541.000000	38.781615
540.000000	38.698655
539.000000	38.640657
538.000000	38.591566
537.000000	38.501812
536.000000	38.435391
535.000000	38.370711
534.000000	38.297298
533.000000	38.232514
532.000000	38.165964
531.000000	38.134086
530.000000	38.034021
529.000000	37.961805
528.000000	37.907162
527.000000	37.854237
526.000000	37.774285
525.000000	37.714737
524.000000	37.644637
523.000000	37.570384
522.000000	37.491414
521.000000	37.461968
520.000000	37.378956
519.000000	37.290445
518.000000	37.224939
517.000000	37.175633
516.000000	37.106016
515.000000	37.045002
514.000000	36.964551
513.000000	36.888225
512.000000	36.801894
511.000000	36.723844
510.000000	36.673463
509.000000	36.590942
508.000000	36.494568
507.000000	36.420093
506.000000	36.313793
505.000000	36.230749
504.000000	36.132775
503.000000	36.049177
502.000000	35.966862
501.000000	35.867727
500.000000	35.745496
499.000000	35.643121
498.000000	35.539423
497.000000	35.444327
496.000000	35.334059
495.000000	35.217971
494.000000	35.092031
493.000000	34.996692
492.000000	34.878057
491.000000	34.788487
490.000000	34.671837
489.000000	34.559314
488.000000	34.436213
487.000000	34.300345
486.000000	34.167518
485.000000	34.045576
484.000000	33.936584
483.000000	33.814099
482.000000	33.685975
481.000000	33.542587
480.000000	33.390219
479.000000	33.262060
478.000000	33.118118
477.000000	32.959400
476.000000	32.814251
475.000000	32.656111
474.000000	32.521454
473.000000	32.393957
472.000000	32.241688
471.000000	32.082281
470.000000	31.920367
469.000000	31.744524
468.000000	31.567656
467.000000	31.409824
466.000000	31.247772
465.000000	31.069515
464.000000	30.906849
463.000000	30.741311
462.000000	30.556637
461.000000	30.368228
460.000000	30.178878
459.000000	29.994702
458.000000	29.780809
457.000000	29.573275
456.000000	29.385697
455.000000	29.202812
454.000000	29.010326
453.000000	28.803119
452.000000	28.583506
451.000000	28.345753
450.000000	28.122160
449.000000	27.892148
448.000000	27.662886
447.000000	27.433145
446.000000	27.197123
445.000000	26.995130
444.000000	26.789058
443.000000	26.557572
442.000000	26.318211
441.000000	26.079271
440.000000	25.843271
439.000000	25.579788
438.000000	25.307633
437.000000	25.050590
436.000000	24.784033
435.000000	24.539930
434.000000	24.293020
433.000000	24.017204
432.000000	23.758771
431.000000	23.483616
430.000000	23.215034
429.000000	22.929000
428.000000	22.650354
427.000000	22.354863
426.000000	22.091215
425.000000	21.831484
424.000000	21.533968
423.000000	21.244137
422.000000	20.990323
421.000000	20.720146
420.000000	20.457681
419.000000	20.187096
418.000000	19.904242
417.000000	19.646302
416.000000	19.406149
415.000000	19.176251
414.000000	18.979798
413.000000	18.802282
412.000000	18.626436
411.000000	18.486660
410.000000	18.361626
409.000000	18.238119
408.000000	18.167620
407.000000	18.098199
406.000000	18.019395
405.000000	17.979746
404.000000	17.934021
403.000000	17.942823
402.000000	17.919935
401.000000	17.861430
400.000000	17.809001
399.000000	17.767632
398.000000	17.729179
397.000000	17.680638
396.000000	17.652772
395.000000	17.565794
394.000000	17.497512
393.000000	17.424280
392.000000	17.358064
391.000000	17.294755
390.000000	17.255206
389.000000	17.138321
388.000000	17.035507
387.000000	16.910634
386.000000	16.814144
385.000000	16.663671
384.000000	16.566991
383.000000	16.414672
382.000000	16.290141
381.000000	16.130635
380.000000	15.979465
379.000000	15.809964
378.000000	15.583113
377.000000	15.444896
376.000000	15.327120
375.000000	15.148109
374.000000	14.926942
373.000000	14.760607
372.000000	14.637812
371.000000	14.465861
370.000000	14.230636
369.000000	14.065558
368.000000	13.849540
367.000000	13.643267
366.000000	13.431501
365.000000	13.235045
364.000000	13.048746
363.000000	12.852559
362.000000	12.635422
361.000000	12.459702
360.000000	12.325976
359.000000	12.152633
358.000000	11.963063
357.000000	11.735375
356.000000	11.573800
355.000000	11.396261
354.000000	11.183617
353.000000	10.942167
352.000000	10.728242
351.000000	10.644379
350.000000	10.524661
349.000000	10.305948
348.000000	10.202978
347.000000	10.007442
346.000000	9.821434
345.000000	9.726703
344.000000	9.526321
343.000000	9.443627
342.000000	9.250091
341.000000	9.053501
340.000000	8.961409
339.000000	8.837145
338.000000	8.696088
337.000000	8.520451
336.000000	8.429374
335.000000	8.266573
334.000000	8.186147
333.000000	8.035875
332.000000	7.841240
331.000000	7.723158
330.000000	7.639490
329.000000	7.540546
328.000000	7.354266
327.000000	7.313581
326.000000	7.218204
325.000000	7.027881
324.000000	6.937336
323.000000	6.809624
322.000000	6.741723
321.000000	6.632284
320.000000	6.450754
319.000000	6.403487
318.000000	6.355356
317.000000	6.224091
316.000000	6.106688
315.000000	5.961127
314.000000	5.835294
313.000000	5.679690
312.000000	5.549641
311.000000	5.398587
310.000000	5.267527
309.000000	5.087950
308.000000	4.916972
307.000000	4.733422
306.000000	4.602297
305.000000	4.414797
304.000000	4.270644
303.000000	4.089300
302.000000	3.819062
301.000000	3.651654
300.000000	3.433144
299.000000	3.231883
298.000000	2.951826
297.000000	2.697681
296.000000	2.409855
295.000000	2.118994
294.000000	1.813500
293.000000	1.510569
292.000000	1.269703
291.000000	1.070205
290.000000	0.923689
289.000000	0.810451
288.000000	0.759816
287.000000	0.721581
286.000000	0.699888
285.000000	0.695251
284.000000	0.695149
283.000000	0.707461
282.000000	0.697631
281.000000	0.701707
280.000000	0.713512
279.000000	0.733924
278.000000	0.741684
277.000000	0.750780
276.000000	0.778803
275.000000	0.805317
274.000000	0.823653
273.000000	0.821281
272.000000	0.836089
271.000000	0.852942
270.000000	0.867181
269.000000	0.876354
268.000000	0.890275
267.000000	0.899397
266.000000	0.912285
265.000000	0.938452
264.000000	0.970005
263.000000	0.986328
262.000000	1.010765
261.000000	1.025725
260.000000	1.035893
259.000000	1.046664
258.000000	1.063563
257.000000	1.078712
256.000000	1.088609
255.000000	1.097875
254.000000	1.089590
253.000000	1.075447
252.000000	1.057645
251.000000	1.026078
250.000000	0.982102
249.000000	0.941939
248.000000	0.901309
247.000000	0.839045
246.000000	0.789098
245.000000	0.747534
244.000000	0.701808
243.000000	0.656051
242.000000	0.621984
241.000000	0.579674
240.000000	0.540903
239.000000	0.519233
238.000000	0.495400
237.000000	0.490958
236.000000	0.482946
235.000000	0.460677
234.000000	0.454698
233.000000	0.452626
232.000000	0.451524
231.000000	0.440804
230.000000	0.418240
229.000000	0.390586
228.000000	0.357532
227.000000	0.341287
226.000000	0.339266
225.000000	0.324539
224.000000	0.302878
223.000000	0.289116
222.000000	0.283760
221.000000	0.262511
220.000000	0.249066
219.000000	0.248128
218.000000	0.243917
217.000000	0.228718
216.000000	0.230583
215.000000	0.228773
214.000000	0.224083
213.000000	0.219804
212.000000	0.213701
211.000000	0.219632
210.000000	0.234477
209.000000	0.222352
208.000000	0.221242
207.000000	0.239211
206.000000	0.230282
205.000000	0.257898
204.000000	0.259672
203.000000	0.229617
202.000000	0.257668
201.000000	0.293631
200.000000	0.318131
