PE UV       SUBTECH     SPECTRUM    ASCII       PEDS        4.00        
   -1
Empty Chamber.Sample.asc
18/03/20
08:55:05.00
18/03/20
08:55:05.00
Administrator

200.000000
1
Lambda 750
750N8071901
PerkinElmer UV WinLab 6.0.4.0738 / 1.61.00 Lambda 900

0
0
3350/servo 860.8/2
0
0
UV/VIS
1
1
1
CommonBeamDepol,150mm sphere / downward view
0
0
0
0
Program
Program
3350/servo 860.8/2
3350/0.2 860.8/0.2
3350/0.2 860.8/0.2
0
1
 
 
 
0
 
860.8
319.2
860.8
Front
100
on
 
 
0
0
0
 
0
 
 
 
0
 
 
0
0
0
0
0
 
 
 
 
0
0


0
0
#HDR
-1
-1
#GR
nm
%T
1.0
0.0
2350.000000
-1.000000
2151
8
100.612525
99.096155
#DATA
2350.000000	100.222207
2349.000000	100.073900
2348.000000	99.587065
2347.000000	99.958384
2346.000000	99.853910
2345.000000	100.116819
2344.000000	99.939672
2343.000000	100.044866
2342.000000	99.863702
2341.000000	100.370557
2340.000000	100.023459
2339.000000	99.963688
2338.000000	100.552146
2337.000000	100.273642
2336.000000	99.871383
2335.000000	99.552399
2334.000000	100.040737
2333.000000	100.273469
2332.000000	100.342916
2331.000000	100.024364
2330.000000	99.735553
2329.000000	99.885252
2328.000000	99.992097
2327.000000	100.081103
2326.000000	100.119925
2325.000000	100.101302
2324.000000	100.124395
2323.000000	100.020064
2322.000000	100.075492
2321.000000	100.177065
2320.000000	99.965660
2319.000000	99.965986
2318.000000	100.111638
2317.000000	99.974459
2316.000000	100.094612
2315.000000	99.701829
2314.000000	100.131811
2313.000000	100.198856
2312.000000	99.853072
2311.000000	100.068660
2310.000000	99.995234
2309.000000	100.340569
2308.000000	99.780627
2307.000000	99.937996
2306.000000	99.902276
2305.000000	100.092958
2304.000000	100.071035
2303.000000	100.099007
2302.000000	100.109416
2301.000000	99.925831
2300.000000	100.009734
2299.000000	99.908118
2298.000000	99.948295
2297.000000	99.850719
2296.000000	100.229488
2295.000000	100.102623
2294.000000	99.879274
2293.000000	99.837823
2292.000000	99.826832
2291.000000	100.241917
2290.000000	100.062432
2289.000000	99.879147
2288.000000	100.237381
2287.000000	100.215515
2286.000000	99.940635
2285.000000	100.088166
2284.000000	100.034268
2283.000000	100.039795
2282.000000	100.386315
2281.000000	100.030756
2280.000000	99.897528
2279.000000	100.178314
2278.000000	100.235464
2277.000000	99.951806
2276.000000	100.063510
2275.000000	100.096685
2274.000000	100.235196
2273.000000	100.252502
2272.000000	100.065477
2271.000000	99.991287
2270.000000	99.847921
2269.000000	99.761546
2268.000000	99.832127
2267.000000	99.953482
2266.000000	100.077951
2265.000000	100.109453
2264.000000	100.088013
2263.000000	99.939015
2262.000000	99.861686
2261.000000	99.989260
2260.000000	100.112305
2259.000000	100.074340
2258.000000	100.078095
2257.000000	100.047992
2256.000000	100.038262
2255.000000	100.121922
2254.000000	100.052508
2253.000000	100.086192
2252.000000	100.102873
2251.000000	100.017237
2250.000000	99.837442
2249.000000	99.997971
2248.000000	100.101108
2247.000000	99.885881
2246.000000	99.902169
2245.000000	99.899540
2244.000000	99.997973
2243.000000	100.164275
2242.000000	100.222302
2241.000000	100.155016
2240.000000	100.137262
2239.000000	100.001419
2238.000000	99.908803
2237.000000	99.988137
2236.000000	99.998175
2235.000000	99.984491
2234.000000	100.061384
2233.000000	100.052230
2232.000000	99.946099
2231.000000	99.979422
2230.000000	99.963900
2229.000000	99.931202
2228.000000	99.997568
2227.000000	99.971342
2226.000000	99.926472
2225.000000	100.125292
2224.000000	100.154982
2223.000000	100.072356
2222.000000	99.949549
2221.000000	100.007602
2220.000000	100.002840
2219.000000	100.037148
2218.000000	99.970088
2217.000000	99.942054
2216.000000	100.123798
2215.000000	100.070954
2214.000000	100.044519
2213.000000	100.097697
2212.000000	99.914611
2211.000000	99.891737
2210.000000	99.887951
2209.000000	99.926664
2208.000000	100.041661
2207.000000	100.078602
2206.000000	100.099993
2205.000000	100.145899
2204.000000	99.992290
2203.000000	99.982570
2202.000000	99.956463
2201.000000	99.918297
2200.000000	99.874687
2199.000000	99.945190
2198.000000	100.088890
2197.000000	99.962922
2196.000000	99.778741
2195.000000	100.003443
2194.000000	99.883690
2193.000000	100.013671
2192.000000	100.110481
2191.000000	100.120934
2190.000000	100.135494
2189.000000	100.072443
2188.000000	100.052529
2187.000000	99.946882
2186.000000	99.866123
2185.000000	99.950474
2184.000000	99.952689
2183.000000	100.147699
2182.000000	99.894196
2181.000000	99.939818
2180.000000	99.987362
2179.000000	99.971702
2178.000000	100.048624
2177.000000	99.934308
2176.000000	100.070380
2175.000000	99.886120
2174.000000	99.891410
2173.000000	100.002829
2172.000000	100.099395
2171.000000	100.009388
2170.000000	100.019979
2169.000000	100.008583
2168.000000	100.239932
2167.000000	99.976574
2166.000000	100.022514
2165.000000	100.122353
2164.000000	99.994852
2163.000000	100.200184
2162.000000	100.126950
2161.000000	99.975047
2160.000000	100.107782
2159.000000	100.194360
2158.000000	99.897546
2157.000000	99.918358
2156.000000	100.079086
2155.000000	100.047780
2154.000000	100.060601
2153.000000	100.129500
2152.000000	99.893048
2151.000000	99.948935
2150.000000	100.130664
2149.000000	100.102746
2148.000000	100.002420
2147.000000	100.366492
2146.000000	100.099412
2145.000000	100.009183
2144.000000	100.059328
2143.000000	99.897005
2142.000000	99.995265
2141.000000	99.843175
2140.000000	100.060338
2139.000000	99.967444
2138.000000	100.217294
2137.000000	100.074577
2136.000000	100.027549
2135.000000	100.034314
2134.000000	99.974064
2133.000000	100.106248
2132.000000	99.961167
2131.000000	100.094988
2130.000000	100.211380
2129.000000	99.895487
2128.000000	100.168924
2127.000000	99.714510
2126.000000	99.828967
2125.000000	100.050694
2124.000000	99.979009
2123.000000	100.092734
2122.000000	99.897975
2121.000000	99.932946
2120.000000	100.164827
2119.000000	99.838037
2118.000000	99.867501
2117.000000	99.902476
2116.000000	100.075071
2115.000000	100.127308
2114.000000	100.090453
2113.000000	100.059532
2112.000000	99.924561
2111.000000	99.956652
2110.000000	100.120944
2109.000000	100.105172
2108.000000	100.220674
2107.000000	99.927300
2106.000000	100.076510
2105.000000	100.095990
2104.000000	100.091067
2103.000000	100.074970
2102.000000	100.070250
2101.000000	100.055695
2100.000000	100.185041
2099.000000	99.985532
2098.000000	100.061304
2097.000000	100.077614
2096.000000	99.860904
2095.000000	100.031067
2094.000000	100.014574
2093.000000	100.153212
2092.000000	100.107147
2091.000000	100.059918
2090.000000	99.866130
2089.000000	99.938470
2088.000000	100.006982
2087.000000	100.058873
2086.000000	100.034915
2085.000000	100.083625
2084.000000	100.008505
2083.000000	99.985826
2082.000000	100.010834
2081.000000	99.891028
2080.000000	99.953017
2079.000000	100.042126
2078.000000	100.027539
2077.000000	99.904780
2076.000000	99.982079
2075.000000	99.927555
2074.000000	99.902064
2073.000000	99.994232
2072.000000	100.045259
2071.000000	100.016603
2070.000000	99.961323
2069.000000	99.857294
2068.000000	100.071835
2067.000000	100.003848
2066.000000	99.943413
2065.000000	99.980961
2064.000000	100.083569
2063.000000	100.124469
2062.000000	100.089918
2061.000000	100.082302
2060.000000	100.030797
2059.000000	99.895818
2058.000000	99.948845
2057.000000	100.126510
2056.000000	100.084393
2055.000000	99.999696
2054.000000	99.949164
2053.000000	99.979236
2052.000000	99.993718
2051.000000	99.974066
2050.000000	100.003344
2049.000000	99.985205
2048.000000	99.972641
2047.000000	100.000000
2046.000000	100.104170
2045.000000	100.021680
2044.000000	99.974677
2043.000000	100.008917
2042.000000	100.030310
2041.000000	100.006385
2040.000000	100.018854
2039.000000	100.025551
2038.000000	100.037926
2037.000000	100.040259
2036.000000	100.094949
2035.000000	100.085300
2034.000000	100.047460
2033.000000	100.019975
2032.000000	100.012474
2031.000000	100.019981
2030.000000	99.961262
2029.000000	99.930831
2028.000000	99.990060
2027.000000	100.068383
2026.000000	100.049005
2025.000000	100.035306
2024.000000	99.996957
2023.000000	100.009843
2022.000000	100.018978
2021.000000	100.010246
2020.000000	100.051962
2019.000000	100.024875
2018.000000	99.977977
2017.000000	100.010352
2016.000000	99.968529
2015.000000	99.944158
2014.000000	99.973806
2013.000000	99.984266
2012.000000	100.017462
2011.000000	100.034623
2010.000000	100.017573
2009.000000	99.969428
2008.000000	100.007313
2007.000000	100.036062
2006.000000	100.062682
2005.000000	100.049778
2004.000000	100.000609
2003.000000	99.968110
2002.000000	100.011073
2001.000000	99.980092
2000.000000	99.972879
1999.000000	100.001829
1998.000000	99.982630
1997.000000	99.963534
1996.000000	100.010464
1995.000000	99.973479
1994.000000	99.985060
1993.000000	100.021652
1992.000000	99.982317
1991.000000	100.015249
1990.000000	100.021454
1989.000000	100.021556
1988.000000	100.002338
1987.000000	100.025320
1986.000000	100.033859
1985.000000	100.009354
1984.000000	99.974692
1983.000000	100.005286
1982.000000	99.981294
1981.000000	100.029891
1980.000000	99.975294
1979.000000	99.943584
1978.000000	100.031226
1977.000000	100.000305
1976.000000	100.013523
1975.000000	100.019931
1974.000000	99.990951
1973.000000	100.042104
1972.000000	100.054114
1971.000000	100.050842
1970.000000	99.991357
1969.000000	100.015558
1968.000000	99.964729
1967.000000	100.008236
1966.000000	100.074049
1965.000000	99.978040
1964.000000	100.005794
1963.000000	100.064782
1962.000000	100.006101
1961.000000	100.037211
1960.000000	100.074751
1959.000000	100.029382
1958.000000	99.990041
1957.000000	100.006912
1956.000000	99.987808
1955.000000	99.912328
1954.000000	99.960984
1953.000000	100.033444
1952.000000	99.975818
1951.000000	99.997967
1950.000000	99.920772
1949.000000	99.970636
1948.000000	99.983640
1947.000000	100.015551
1946.000000	99.992482
1945.000000	100.010163
1944.000000	100.046445
1943.000000	100.005789
1942.000000	100.002640
1941.000000	100.008535
1940.000000	100.000305
1939.000000	100.006704
1938.000000	99.908054
1937.000000	100.062947
1936.000000	100.069360
1935.000000	99.978072
1934.000000	100.038591
1933.000000	100.018678
1932.000000	99.962846
1931.000000	100.002233
1930.000000	100.100334
1929.000000	100.098582
1928.000000	100.070886
1927.000000	100.104522
1926.000000	99.943595
1925.000000	99.974127
1924.000000	99.939451
1923.000000	99.955285
1922.000000	99.952444
1921.000000	100.048200
1920.000000	99.968141
1919.000000	100.036837
1918.000000	100.120937
1917.000000	100.055540
1916.000000	99.976567
1915.000000	99.991780
1914.000000	99.964786
1913.000000	99.976045
1912.000000	99.977368
1911.000000	100.074227
1910.000000	100.058574
1909.000000	100.045901
1908.000000	100.081351
1907.000000	100.046102
1906.000000	100.074299
1905.000000	99.935257
1904.000000	100.018680
1903.000000	99.994620
1902.000000	99.883207
1901.000000	99.948652
1900.000000	100.015434
1899.000000	100.075082
1898.000000	99.999086
1897.000000	100.012595
1896.000000	100.035946
1895.000000	100.003452
1894.000000	100.000203
1893.000000	99.990558
1892.000000	99.976647
1891.000000	100.019807
1890.000000	99.962839
1889.000000	100.052510
1888.000000	100.008224
1887.000000	99.908578
1886.000000	99.972293
1885.000000	100.008827
1884.000000	100.004363
1883.000000	100.058034
1882.000000	99.966122
1881.000000	99.970486
1880.000000	100.010955
1879.000000	99.995639
1878.000000	100.013890
1877.000000	100.012371
1876.000000	100.014397
1875.000000	100.013994
1874.000000	100.006084
1873.000000	99.985804
1872.000000	100.050998
1871.000000	100.000507
1870.000000	100.064887
1869.000000	100.017840
1868.000000	100.039636
1867.000000	99.962396
1866.000000	99.983170
1865.000000	99.997161
1864.000000	99.957623
1863.000000	99.951750
1862.000000	99.955281
1861.000000	100.021607
1860.000000	100.020897
1859.000000	99.993002
1858.000000	100.001217
1857.000000	100.002130
1856.000000	100.020799
1855.000000	100.016738
1854.000000	100.013692
1853.000000	99.993916
1852.000000	99.992293
1851.000000	100.004259
1850.000000	100.002941
1849.000000	100.000608
1848.000000	99.973843
1847.000000	99.986106
1846.000000	100.043417
1845.000000	100.025967
1844.000000	99.998377
1843.000000	99.961268
1842.000000	99.982456
1841.000000	99.970395
1840.000000	99.988642
1839.000000	100.000304
1838.000000	100.012174
1837.000000	99.999797
1836.000000	100.005784
1835.000000	99.977776
1834.000000	100.022328
1833.000000	100.042628
1832.000000	100.038980
1831.000000	100.010455
1830.000000	100.013603
1829.000000	99.993402
1828.000000	99.992691
1827.000000	99.991066
1826.000000	100.001523
1825.000000	100.009544
1824.000000	100.005281
1823.000000	100.018584
1822.000000	100.011781
1821.000000	100.018285
1820.000000	100.004470
1819.000000	99.989031
1818.000000	99.989030
1817.000000	99.982626
1816.000000	100.001626
1815.000000	100.023271
1814.000000	100.014836
1813.000000	99.991362
1812.000000	99.989838
1811.000000	99.984350
1810.000000	100.004167
1809.000000	100.011894
1808.000000	99.994104
1807.000000	99.997865
1806.000000	100.003355
1805.000000	100.001119
1804.000000	100.021661
1803.000000	100.002542
1802.000000	99.981394
1801.000000	100.005186
1800.000000	100.009558
1799.000000	100.000813
1798.000000	99.992476
1797.000000	99.986375
1796.000000	99.968582
1795.000000	100.002237
1794.000000	100.011796
1793.000000	100.004475
1792.000000	100.011595
1791.000000	99.996440
1790.000000	99.980168
1789.000000	100.009967
1788.000000	100.031024
1787.000000	100.016784
1786.000000	99.994305
1785.000000	99.978545
1784.000000	100.017900
1783.000000	100.038554
1782.000000	100.015053
1781.000000	100.025629
1780.000000	100.025017
1779.000000	100.008136
1778.000000	99.999085
1777.000000	100.011086
1776.000000	100.011593
1775.000000	100.005390
1774.000000	100.011492
1773.000000	100.019831
1772.000000	99.996442
1771.000000	100.004373
1770.000000	100.012102
1769.000000	99.993491
1768.000000	100.003254
1767.000000	99.980884
1766.000000	100.000915
1765.000000	99.975901
1764.000000	99.990543
1763.000000	100.000814
1762.000000	100.031939
1761.000000	100.017901
1760.000000	99.973666
1759.000000	100.008542
1758.000000	100.011799
1757.000000	100.013121
1756.000000	100.015152
1755.000000	100.020239
1754.000000	99.996847
1753.000000	100.005186
1752.000000	99.985662
1751.000000	100.012101
1750.000000	100.010778
1749.000000	100.007424
1748.000000	99.966347
1747.000000	99.992781
1746.000000	100.000407
1745.000000	100.014439
1744.000000	100.018204
1743.000000	100.024413
1742.000000	99.971632
1741.000000	99.977324
1740.000000	100.023999
1739.000000	100.008846
1738.000000	100.000508
1737.000000	99.987802
1736.000000	99.957916
1735.000000	99.973976
1734.000000	100.009049
1733.000000	100.020746
1732.000000	100.009151
1731.000000	99.985256
1730.000000	100.013015
1729.000000	99.989022
1728.000000	100.027357
1727.000000	99.961476
1726.000000	100.010978
1725.000000	100.005388
1724.000000	100.019623
1723.000000	100.008844
1722.000000	99.984448
1721.000000	100.004270
1720.000000	99.997967
1719.000000	100.018913
1718.000000	100.014640
1717.000000	99.977845
1716.000000	99.958424
1715.000000	100.014541
1714.000000	99.994714
1713.000000	99.973064
1712.000000	100.002338
1711.000000	99.960460
1710.000000	100.001830
1709.000000	99.953653
1708.000000	100.012301
1707.000000	99.997662
1706.000000	100.013217
1705.000000	99.999593
1704.000000	99.999797
1703.000000	100.013013
1702.000000	100.000203
1701.000000	99.983024
1700.000000	100.023077
1699.000000	100.032228
1698.000000	100.025616
1697.000000	99.996138
1696.000000	99.978049
1695.000000	100.028566
1694.000000	100.015555
1693.000000	100.015149
1692.000000	99.990242
1691.000000	99.992070
1690.000000	99.973367
1689.000000	100.008540
1688.000000	99.994715
1687.000000	100.000610
1686.000000	99.971037
1685.000000	99.999492
1684.000000	99.997560
1683.000000	100.005184
1682.000000	100.000407
1681.000000	100.010062
1680.000000	100.017383
1679.000000	100.031616
1678.000000	100.013724
1677.000000	99.980288
1676.000000	100.019312
1675.000000	100.053378
1674.000000	99.976117
1673.000000	99.976320
1672.000000	99.995730
1671.000000	99.995832
1670.000000	100.006404
1669.000000	99.986182
1668.000000	99.999695
1667.000000	100.013005
1666.000000	100.007316
1665.000000	100.014731
1664.000000	100.007925
1663.000000	99.981209
1662.000000	99.999086
1661.000000	99.979073
1660.000000	99.969529
1659.000000	99.995631
1658.000000	100.022965
1657.000000	100.008230
1656.000000	99.995632
1655.000000	99.990451
1654.000000	99.992177
1653.000000	99.978262
1652.000000	99.988014
1651.000000	99.987506
1650.000000	100.019406
1649.000000	100.005384
1648.000000	99.992788
1647.000000	100.005080
1646.000000	100.002641
1645.000000	100.000610
1644.000000	100.012394
1643.000000	99.993803
1642.000000	99.986591
1641.000000	99.979279
1640.000000	99.987709
1639.000000	99.979076
1638.000000	99.999695
1637.000000	99.983646
1636.000000	99.984764
1635.000000	99.995632
1634.000000	99.992584
1633.000000	99.985473
1632.000000	100.007416
1631.000000	99.985881
1630.000000	100.002235
1629.000000	100.003657
1628.000000	100.003555
1627.000000	100.014933
1626.000000	100.007009
1625.000000	99.996546
1624.000000	99.994921
1623.000000	99.996547
1622.000000	99.996750
1621.000000	99.995124
1620.000000	100.003454
1619.000000	100.010361
1618.000000	100.013004
1617.000000	100.013919
1616.000000	100.000305
1615.000000	99.997968
1614.000000	100.019607
1613.000000	100.007416
1612.000000	100.003758
1611.000000	99.995124
1610.000000	99.985882
1609.000000	99.986693
1608.000000	99.979685
1607.000000	99.990147
1606.000000	99.991671
1605.000000	99.996953
1604.000000	100.001422
1603.000000	100.001524
1602.000000	100.016762
1601.000000	100.011784
1600.000000	100.001016
1599.000000	100.009447
1598.000000	100.002743
1597.000000	99.990756
1596.000000	100.003454
1595.000000	100.006196
1594.000000	99.998578
1593.000000	100.000711
1592.000000	99.999289
1591.000000	99.990554
1590.000000	99.986491
1589.000000	99.987812
1588.000000	99.993297
1587.000000	99.998070
1586.000000	100.003352
1585.000000	100.008127
1584.000000	100.004368
1583.000000	100.008127
1582.000000	100.005079
1581.000000	99.990960
1580.000000	99.994617
1579.000000	99.997766
1578.000000	99.999289
1577.000000	99.989029
1576.000000	99.990046
1575.000000	100.008431
1574.000000	99.990758
1573.000000	99.998070
1572.000000	100.011173
1571.000000	100.005180
1570.000000	99.989641
1569.000000	100.006094
1568.000000	100.003758
1567.000000	99.985581
1566.000000	99.988728
1565.000000	100.000203
1564.000000	99.983246
1563.000000	99.985173
1562.000000	99.990250
1561.000000	100.001726
1560.000000	100.018992
1559.000000	100.003961
1558.000000	99.997360
1557.000000	99.989033
1556.000000	99.981014
1555.000000	99.994720
1554.000000	100.012492
1553.000000	99.989948
1552.000000	99.984871
1551.000000	99.985581
1550.000000	99.998172
1549.000000	99.992182
1548.000000	99.997563
1547.000000	99.987002
1546.000000	100.006905
1545.000000	100.024882
1544.000000	100.004569
1543.000000	100.009748
1542.000000	100.015029
1541.000000	99.999594
1540.000000	100.019801
1539.000000	100.014724
1538.000000	99.990252
1537.000000	99.985382
1536.000000	100.007514
1535.000000	99.992487
1534.000000	100.022949
1533.000000	100.020307
1532.000000	100.017463
1531.000000	100.000609
1530.000000	99.994618
1529.000000	99.995329
1528.000000	99.998375
1527.000000	99.997664
1526.000000	100.012997
1525.000000	100.028847
1524.000000	100.020313
1523.000000	99.997969
1522.000000	100.002640
1521.000000	100.006194
1520.000000	99.991369
1519.000000	100.018584
1518.000000	100.000812
1517.000000	100.001625
1516.000000	100.002234
1515.000000	99.998984
1514.000000	99.989437
1513.000000	100.013508
1512.000000	99.993399
1511.000000	99.995531
1510.000000	100.006501
1509.000000	99.977964
1508.000000	99.994109
1507.000000	100.007211
1506.000000	99.997766
1505.000000	100.012290
1504.000000	100.004977
1503.000000	100.009345
1502.000000	99.997460
1501.000000	99.993907
1500.000000	99.969532
1499.000000	99.995125
1498.000000	100.017675
1497.000000	99.989133
1496.000000	99.983546
1495.000000	100.017472
1494.000000	99.988524
1493.000000	100.004570
1492.000000	100.000102
1491.000000	100.010764
1490.000000	100.007718
1489.000000	100.009952
1488.000000	100.001930
1487.000000	100.011375
1486.000000	99.995938
1485.000000	100.021326
1484.000000	100.001726
1483.000000	99.997969
1482.000000	100.008123
1481.000000	100.005178
1480.000000	99.977565
1479.000000	99.970357
1478.000000	99.988223
1477.000000	100.005787
1476.000000	99.994924
1475.000000	100.018783
1474.000000	99.995635
1473.000000	100.037468
1472.000000	100.033203
1471.000000	99.978583
1470.000000	100.021625
1469.000000	100.004771
1468.000000	99.987008
1467.000000	100.001523
1466.000000	100.014110
1465.000000	99.996040
1464.000000	100.015331
1463.000000	99.989443
1462.000000	99.985689
1461.000000	100.003959
1460.000000	100.001726
1459.000000	100.001726
1458.000000	100.014214
1457.000000	100.002233
1456.000000	99.991981
1455.000000	99.996447
1454.000000	100.006091
1453.000000	100.021927
1452.000000	100.008933
1451.000000	99.986906
1450.000000	99.999188
1449.000000	99.995839
1448.000000	100.000609
1447.000000	99.969962
1446.000000	99.995027
1445.000000	99.990155
1444.000000	99.985787
1443.000000	99.994925
1442.000000	99.997259
1441.000000	100.006395
1440.000000	99.984166
1439.000000	100.013601
1438.000000	100.013499
1437.000000	99.986197
1436.000000	100.009847
1435.000000	99.998274
1434.000000	99.994823
1433.000000	100.006700
1432.000000	100.007511
1431.000000	100.013804
1430.000000	99.995332
1429.000000	99.996752
1428.000000	100.000101
1427.000000	99.996955
1426.000000	99.994825
1425.000000	99.992796
1424.000000	100.000913
1423.000000	99.991782
1422.000000	99.985392
1421.000000	99.991886
1420.000000	99.995132
1419.000000	100.000101
1418.000000	99.998986
1417.000000	99.995843
1416.000000	100.010951
1415.000000	100.017033
1414.000000	100.001115
1413.000000	99.991386
1412.000000	100.012060
1411.000000	100.001621
1410.000000	100.019859
1409.000000	100.023908
1408.000000	100.016613
1407.000000	99.973265
1406.000000	99.989670
1405.000000	100.003646
1404.000000	100.016911
1403.000000	100.011239
1402.000000	99.995444
1401.000000	99.986436
1400.000000	99.978946
1399.000000	99.978341
1398.000000	99.998280
1397.000000	100.004251
1396.000000	99.986237
1395.000000	99.979964
1394.000000	99.991603
1393.000000	100.002934
1392.000000	99.998179
1391.000000	99.992312
1390.000000	100.003339
1389.000000	100.006678
1388.000000	99.999798
1387.000000	99.992212
1386.000000	99.999090
1385.000000	99.996156
1384.000000	99.991806
1383.000000	99.995448
1382.000000	100.010217
1381.000000	100.005767
1380.000000	99.993223
1379.000000	100.001821
1378.000000	100.001619
1377.000000	100.013761
1376.000000	100.020439
1375.000000	100.011634
1374.000000	99.999393
1373.000000	100.002428
1372.000000	99.998887
1371.000000	99.998179
1370.000000	100.003439
1369.000000	100.009813
1368.000000	100.000101
1367.000000	100.006878
1366.000000	100.019825
1365.000000	100.000101
1364.000000	100.002326
1363.000000	99.998281
1362.000000	99.995246
1361.000000	100.007789
1360.000000	100.010723
1359.000000	100.013455
1358.000000	100.018415
1357.000000	99.996762
1356.000000	100.009818
1355.000000	100.018325
1354.000000	99.998583
1353.000000	100.006277
1352.000000	100.010533
1351.000000	100.005773
1350.000000	100.001519
1349.000000	100.005368
1348.000000	99.995644
1347.000000	100.002735
1346.000000	100.007496
1345.000000	99.987338
1344.000000	99.988047
1343.000000	99.992098
1342.000000	100.011042
1341.000000	100.018948
1340.000000	100.002837
1339.000000	100.020159
1338.000000	100.018538
1337.000000	100.009420
1336.000000	99.996961
1335.000000	99.997367
1334.000000	100.005469
1333.000000	100.024307
1332.000000	99.984911
1331.000000	99.996557
1330.000000	99.979955
1329.000000	99.991901
1328.000000	99.994735
1327.000000	99.987342
1326.000000	100.001519
1325.000000	100.020656
1324.000000	100.021470
1323.000000	100.011240
1322.000000	100.016907
1321.000000	100.009924
1320.000000	100.010531
1319.000000	100.004050
1318.000000	100.009519
1317.000000	100.008708
1316.000000	100.016708
1315.000000	100.002937
1314.000000	99.996658
1313.000000	99.993115
1312.000000	100.003039
1311.000000	99.977216
1310.000000	99.979345
1309.000000	99.989568
1308.000000	99.971850
1307.000000	100.007798
1306.000000	99.992405
1305.000000	99.993620
1304.000000	99.988959
1303.000000	99.987540
1302.000000	100.001418
1301.000000	100.001924
1300.000000	100.006685
1299.000000	99.987441
1298.000000	100.006179
1297.000000	99.999088
1296.000000	100.023501
1295.000000	100.011547
1294.000000	100.002532
1293.000000	99.992809
1292.000000	99.980656
1291.000000	99.991897
1290.000000	100.000608
1289.000000	99.990379
1288.000000	100.002127
1287.000000	100.003342
1286.000000	99.979042
1285.000000	99.990685
1284.000000	99.995444
1283.000000	99.990383
1282.000000	99.992105
1281.000000	99.993624
1280.000000	99.997470
1279.000000	100.024597
1278.000000	100.005465
1277.000000	99.994737
1276.000000	100.021456
1275.000000	100.006679
1274.000000	100.000809
1273.000000	100.014468
1272.000000	99.986344
1271.000000	100.013353
1270.000000	100.005665
1269.000000	99.981897
1268.000000	99.995550
1267.000000	100.005765
1266.000000	100.008091
1265.000000	99.978666
1264.000000	100.017500
1263.000000	100.002731
1262.000000	100.032466
1261.000000	100.000101
1260.000000	100.012945
1259.000000	100.048861
1258.000000	99.993730
1257.000000	99.983416
1256.000000	100.012337
1255.000000	100.007383
1254.000000	99.998685
1253.000000	100.007888
1252.000000	100.008798
1251.000000	100.005258
1250.000000	100.004349
1249.000000	99.995854
1248.000000	100.000405
1247.000000	99.986754
1246.000000	99.982608
1245.000000	100.014056
1244.000000	100.016989
1243.000000	99.980283
1242.000000	99.987565
1241.000000	99.973717
1240.000000	99.993328
1239.000000	100.001921
1238.000000	99.979889
1237.000000	99.998585
1236.000000	100.004346
1235.000000	100.006367
1234.000000	100.007983
1233.000000	100.008791
1232.000000	100.006971
1231.000000	99.977576
1230.000000	99.997273
1229.000000	99.982630
1228.000000	100.002020
1227.000000	100.010098
1226.000000	100.006462
1225.000000	99.981729
1224.000000	100.001413
1223.000000	100.002523
1222.000000	100.003230
1221.000000	99.993541
1220.000000	99.994753
1219.000000	99.995560
1218.000000	99.985877
1217.000000	100.001412
1216.000000	100.005245
1215.000000	99.992335
1214.000000	99.983661
1213.000000	100.006052
1212.000000	99.999496
1211.000000	100.015735
1210.000000	99.993949
1209.000000	99.998790
1208.000000	99.997378
1207.000000	100.011599
1206.000000	100.009580
1205.000000	100.012505
1204.000000	100.011799
1203.000000	100.019263
1202.000000	100.003126
1201.000000	100.010185
1200.000000	100.003227
1199.000000	100.001311
1198.000000	100.013513
1197.000000	100.008772
1196.000000	100.018251
1195.000000	100.009478
1194.000000	99.999496
1193.000000	100.010587
1192.000000	100.007563
1191.000000	99.984573
1190.000000	99.997983
1189.000000	99.993748
1188.000000	99.995261
1187.000000	99.994454
1186.000000	99.996673
1185.000000	99.994656
1184.000000	99.990020
1183.000000	99.986997
1182.000000	100.008064
1181.000000	100.007660
1180.000000	100.000705
1179.000000	100.005341
1178.000000	100.020962
1177.000000	100.020756
1176.000000	99.997985
1175.000000	99.989122
1174.000000	99.993151
1173.000000	99.995569
1172.000000	99.995770
1171.000000	99.990332
1170.000000	99.989931
1169.000000	99.995872
1168.000000	99.997382
1167.000000	99.998792
1166.000000	100.003020
1165.000000	99.992653
1164.000000	99.982690
1163.000000	99.990541
1162.000000	99.989233
1161.000000	99.987523
1160.000000	99.996277
1159.000000	100.009759
1158.000000	100.011870
1157.000000	100.012774
1156.000000	100.010661
1155.000000	100.011564
1154.000000	100.016690
1153.000000	100.009952
1152.000000	100.002714
1151.000000	99.999196
1150.000000	100.000201
1149.000000	100.000201
1148.000000	100.006732
1147.000000	100.019191
1146.000000	100.008339
1145.000000	99.995279
1144.000000	100.006026
1143.000000	100.007633
1142.000000	100.001607
1141.000000	100.013254
1140.000000	100.008635
1139.000000	99.992271
1138.000000	99.994580
1137.000000	99.987356
1136.000000	99.988561
1135.000000	100.011037
1134.000000	100.013142
1133.000000	100.010232
1132.000000	100.005416
1131.000000	100.001705
1130.000000	100.004312
1129.000000	100.007119
1128.000000	100.015742
1127.000000	99.997895
1126.000000	100.001604
1125.000000	100.011326
1124.000000	99.998697
1123.000000	99.999900
1122.000000	99.995791
1121.000000	99.995892
1120.000000	100.012723
1119.000000	100.010317
1118.000000	99.999099
1117.000000	100.019427
1116.000000	100.020127
1115.000000	100.008910
1114.000000	100.004405
1113.000000	99.993894
1112.000000	99.981286
1111.000000	100.003903
1110.000000	100.014011
1109.000000	99.983193
1108.000000	99.996899
1107.000000	99.988097
1106.000000	99.981698
1105.000000	99.986300
1104.000000	100.004500
1103.000000	99.996301
1102.000000	100.004198
1101.000000	100.017291
1100.000000	100.007795
1099.000000	99.994705
1098.000000	99.996703
1097.000000	100.010689
1096.000000	100.012585
1095.000000	99.989816
1094.000000	100.004792
1093.000000	99.989220
1092.000000	99.987326
1091.000000	100.009379
1090.000000	100.002794
1089.000000	99.993615
1088.000000	99.992121
1087.000000	100.008875
1086.000000	99.985544
1085.000000	100.010568
1084.000000	100.018143
1083.000000	100.004684
1082.000000	100.007572
1081.000000	100.018628
1080.000000	100.009961
1079.000000	100.001394
1078.000000	99.995121
1077.000000	100.010254
1076.000000	100.012442
1075.000000	100.019607
1074.000000	100.011741
1073.000000	100.003382
1072.000000	100.015316
1071.000000	100.007855
1070.000000	99.999404
1069.000000	100.018788
1068.000000	99.994832
1067.000000	99.980727
1066.000000	100.017486
1065.000000	100.033674
1064.000000	99.999007
1063.000000	100.004071
1062.000000	99.975882
1061.000000	99.986008
1060.000000	99.998214
1059.000000	100.000694
1058.000000	100.021917
1057.000000	99.997620
1056.000000	100.000694
1055.000000	99.990881
1054.000000	99.993856
1053.000000	100.026651
1052.000000	100.001189
1051.000000	99.980694
1050.000000	99.984757
1049.000000	100.000792
1048.000000	99.999307
1047.000000	99.979328
1046.000000	100.012166
1045.000000	99.979732
1044.000000	100.011171
1043.000000	100.011464
1042.000000	100.014920
1041.000000	100.010274
1040.000000	100.026080
1039.000000	100.023105
1038.000000	100.016683
1037.000000	99.995461
1036.000000	100.022003
1035.000000	99.998224
1034.000000	99.985308
1033.000000	100.005817
1032.000000	99.983937
1031.000000	100.005518
1030.000000	100.002069
1029.000000	99.989760
1028.000000	99.996948
1027.000000	99.998130
1026.000000	100.028927
1025.000000	100.004131
1024.000000	100.025567
1023.000000	99.985847
1022.000000	99.996463
1021.000000	99.996955
1020.000000	100.000196
1019.000000	100.010603
1018.000000	100.012269
1017.000000	100.017172
1016.000000	100.004708
1015.000000	100.001176
1014.000000	99.998922
1013.000000	100.030575
1012.000000	100.000392
1011.000000	100.004504
1010.000000	99.997259
1009.000000	99.975640
1008.000000	99.983959
1007.000000	99.980543
1006.000000	100.009091
1005.000000	100.003029
1004.000000	99.983007
1003.000000	99.984086
1002.000000	99.997463
1001.000000	99.998244
1000.000000	100.006145
999.000000	99.999903
998.000000	100.020371
997.000000	100.019290
996.000000	100.017528
995.000000	100.024337
994.000000	100.031243
993.000000	100.024417
992.000000	100.018474
991.000000	100.032463
990.000000	100.024777
989.000000	100.006021
988.000000	100.014172
987.000000	100.012129
986.000000	100.012415
985.000000	100.007756
984.000000	99.999903
983.000000	100.006200
982.000000	100.006198
981.000000	100.008713
980.000000	100.001355
979.000000	99.989748
978.000000	100.012764
977.000000	100.001256
976.000000	100.008500
975.000000	99.985712
974.000000	99.989867
973.000000	99.998071
972.000000	100.015429
971.000000	100.010699
970.000000	99.992872
969.000000	100.010110
968.000000	99.990569
967.000000	99.981533
966.000000	99.985290
965.000000	99.983375
964.000000	100.012967
963.000000	100.031590
962.000000	100.026490
961.000000	100.021966
960.000000	100.005080
959.000000	100.001150
958.000000	99.974247
957.000000	99.970817
956.000000	99.991488
955.000000	100.001243
954.000000	99.997516
953.000000	99.977755
952.000000	99.986260
951.000000	100.000858
950.000000	100.006481
949.000000	100.013528
948.000000	100.015902
947.000000	100.012084
946.000000	99.986119
945.000000	99.982611
944.000000	100.005793
943.000000	100.007213
942.000000	99.999715
941.000000	99.994314
940.000000	100.005589
939.000000	100.011076
938.000000	99.980420
937.000000	99.980524
936.000000	100.012945
935.000000	100.030692
934.000000	100.015476
933.000000	100.004149
932.000000	99.984265
931.000000	99.976743
930.000000	100.016563
929.000000	100.025295
928.000000	99.988820
927.000000	100.000094
926.000000	100.003941
925.000000	99.971322
924.000000	99.971151
923.000000	99.970603
922.000000	99.940500
921.000000	99.975508
920.000000	100.008407
919.000000	100.028568
918.000000	100.039646
917.000000	100.037468
916.000000	100.010055
915.000000	99.986229
914.000000	99.980570
913.000000	100.005389
912.000000	100.013461
911.000000	100.006399
910.000000	100.015197
909.000000	100.003241
908.000000	100.008696
907.000000	99.981054
906.000000	99.982824
905.000000	100.002491
904.000000	99.996589
903.000000	99.993278
902.000000	99.965959
901.000000	100.023817
900.000000	99.983282
899.000000	99.945301
898.000000	99.994957
897.000000	100.008611
896.000000	100.007597
895.000000	99.986651
894.000000	100.008224
893.000000	99.954805
892.000000	99.992885
891.000000	99.994166
890.000000	99.984978
889.000000	99.995817
888.000000	99.995549
887.000000	100.011439
886.000000	100.002086
885.000000	99.934068
884.000000	100.036735
883.000000	100.009942
882.000000	100.093520
881.000000	99.983300
880.000000	99.966557
879.000000	100.000901
878.000000	99.972831
877.000000	100.033803
876.000000	100.013469
875.000000	100.005743
874.000000	100.133212
873.000000	100.033348
872.000000	100.086179
871.000000	100.026656
870.000000	100.056165
869.000000	100.012306
868.000000	99.951758
867.000000	100.047071
866.000000	100.067599
865.000000	99.955903
864.000000	99.932072
863.000000	100.033558
862.000000	99.961053
861.000000	99.885846
860.000000	100.041290
859.000000	99.605441
858.000000	99.436958
857.000000	99.883114
856.000000	99.407622
855.000000	100.295622
854.000000	99.822247
853.000000	99.566842
852.000000	99.632845
851.000000	99.883177
850.000000	100.082856
849.000000	99.593725
848.000000	99.733891
847.000000	99.862178
846.000000	99.871199
845.000000	100.046983
844.000000	99.925450
843.000000	100.287298
842.000000	100.159977
841.000000	100.186751
840.000000	99.811916
839.000000	99.838378
838.000000	100.236331
837.000000	99.670677
836.000000	100.019581
835.000000	99.990601
834.000000	100.105112
833.000000	100.024223
832.000000	99.739199
831.000000	99.807231
830.000000	100.201822
829.000000	99.909917
828.000000	100.031905
827.000000	100.092973
826.000000	100.215756
825.000000	99.836966
824.000000	100.064936
823.000000	100.045396
822.000000	99.932971
821.000000	99.827675
820.000000	100.125687
819.000000	100.246465
818.000000	99.884935
817.000000	100.005431
816.000000	99.738150
815.000000	99.872014
814.000000	100.070100
813.000000	99.880958
812.000000	99.964231
811.000000	100.103152
810.000000	99.849132
809.000000	99.999210
808.000000	99.945472
807.000000	99.841430
806.000000	100.090822
805.000000	99.931012
804.000000	99.800998
803.000000	99.875716
802.000000	99.869245
801.000000	100.038850
800.000000	99.843611
799.000000	100.134919
798.000000	99.993396
797.000000	100.035664
796.000000	99.892356
795.000000	100.062618
794.000000	99.839173
793.000000	99.948492
792.000000	99.822254
791.000000	100.029577
790.000000	99.868577
789.000000	99.939233
788.000000	100.031291
787.000000	99.950736
786.000000	100.021071
785.000000	99.835978
784.000000	99.817962
783.000000	99.954907
782.000000	99.891604
781.000000	100.033419
780.000000	99.852671
779.000000	99.874968
778.000000	100.065172
777.000000	99.861534
776.000000	99.864281
775.000000	100.123714
774.000000	99.936187
773.000000	99.901277
772.000000	100.095949
771.000000	100.089186
770.000000	99.997503
769.000000	99.882580
768.000000	100.031409
767.000000	100.064115
766.000000	100.088724
765.000000	100.151299
764.000000	99.868662
763.000000	100.020587
762.000000	100.086652
761.000000	99.966902
760.000000	99.945113
759.000000	99.987904
758.000000	99.902701
757.000000	100.005381
756.000000	100.008699
755.000000	99.993808
754.000000	99.946132
753.000000	99.905741
752.000000	99.921030
751.000000	99.871325
750.000000	99.996043
749.000000	99.938994
748.000000	99.979293
747.000000	99.964893
746.000000	99.913845
745.000000	100.004778
744.000000	100.050781
743.000000	100.057022
742.000000	100.048229
741.000000	100.032529
740.000000	100.019615
739.000000	100.095496
738.000000	100.069802
737.000000	100.061305
736.000000	99.984079
735.000000	99.882945
734.000000	99.836017
733.000000	99.966422
732.000000	99.952804
731.000000	100.022660
730.000000	100.028288
729.000000	100.041541
728.000000	100.005171
727.000000	99.968975
726.000000	99.936819
725.000000	99.942585
724.000000	99.996820
723.000000	100.010814
722.000000	99.904648
721.000000	99.859792
720.000000	99.943604
719.000000	99.924136
718.000000	100.018938
717.000000	100.052027
716.000000	100.015305
715.000000	100.093165
714.000000	100.046313
713.000000	99.967910
712.000000	100.047181
711.000000	100.114790
710.000000	100.102200
709.000000	100.035888
708.000000	99.896145
707.000000	99.874854
706.000000	99.960988
705.000000	99.934025
704.000000	99.983267
703.000000	100.029823
702.000000	99.959669
701.000000	100.023523
700.000000	100.040387
699.000000	100.022625
698.000000	99.980487
697.000000	99.981216
696.000000	100.026774
695.000000	100.004126
694.000000	100.039539
693.000000	100.047527
692.000000	99.974868
691.000000	100.050581
690.000000	100.041694
689.000000	99.941274
688.000000	99.909912
687.000000	99.972375
686.000000	99.993390
685.000000	100.004683
684.000000	100.012670
683.000000	100.016713
682.000000	99.987872
681.000000	99.983265
680.000000	99.961756
679.000000	99.947982
678.000000	100.014162
677.000000	100.010484
676.000000	99.932607
675.000000	100.014356
674.000000	99.998435
673.000000	99.980393
672.000000	100.000460
671.000000	99.993737
670.000000	99.909762
669.000000	99.978069
668.000000	100.040007
667.000000	100.064619
666.000000	100.052831
665.000000	99.996866
664.000000	99.906894
663.000000	99.930561
662.000000	99.991420
661.000000	99.954993
660.000000	99.932480
659.000000	99.991695
658.000000	99.964101
657.000000	99.969260
656.000000	99.973871
655.000000	99.945245
654.000000	99.974138
653.000000	99.986978
652.000000	99.868079
651.000000	99.952129
650.000000	100.034402
649.000000	100.045407
648.000000	100.031990
647.000000	99.990385
646.000000	99.979660
645.000000	99.919745
644.000000	99.975852
643.000000	99.981683
642.000000	100.052496
641.000000	100.078171
640.000000	99.961103
639.000000	100.069830
638.000000	99.966199
637.000000	99.976570
636.000000	100.010842
635.000000	100.027343
634.000000	100.022995
633.000000	99.958287
632.000000	99.992771
631.000000	100.076807
630.000000	100.032554
629.000000	100.038025
628.000000	99.897899
627.000000	100.010395
626.000000	99.868677
625.000000	99.903565
624.000000	100.080309
623.000000	99.997865
622.000000	99.928541
621.000000	100.086424
620.000000	100.032053
619.000000	100.018951
618.000000	100.013655
617.000000	100.047757
616.000000	100.057064
615.000000	99.947156
614.000000	99.952644
613.000000	99.954662
612.000000	99.937052
611.000000	100.001022
610.000000	99.959276
609.000000	99.979629
608.000000	99.952678
607.000000	100.002325
606.000000	100.046317
605.000000	99.873163
604.000000	99.902733
603.000000	99.991907
602.000000	100.005674
601.000000	99.968837
600.000000	100.084068
599.000000	99.985954
598.000000	100.052596
597.000000	100.044048
596.000000	100.002513
595.000000	99.941022
594.000000	99.996742
593.000000	100.015357
592.000000	99.967780
591.000000	99.942364
590.000000	99.973291
589.000000	99.998883
588.000000	100.012198
587.000000	99.945919
586.000000	100.009038
585.000000	100.001025
584.000000	99.985747
583.000000	99.984161
582.000000	99.924827
581.000000	99.969162
580.000000	100.002609
579.000000	100.006059
578.000000	99.911486
577.000000	99.951752
576.000000	99.972141
575.000000	99.935501
574.000000	99.910626
573.000000	100.048023
572.000000	100.101588
571.000000	99.990865
570.000000	99.942412
569.000000	100.033755
568.000000	99.935689
567.000000	100.102273
566.000000	99.986476
565.000000	99.948071
564.000000	100.053816
563.000000	99.962053
562.000000	99.945452
561.000000	100.018382
560.000000	99.914278
559.000000	100.113568
558.000000	99.990763
557.000000	99.907190
556.000000	100.036311
555.000000	99.960815
554.000000	99.953264
553.000000	100.028749
552.000000	100.005413
551.000000	99.959516
550.000000	99.995053
549.000000	100.003454
548.000000	99.956206
547.000000	100.063535
546.000000	100.003642
545.000000	100.022792
544.000000	100.033622
543.000000	99.986274
542.000000	99.924860
541.000000	99.963762
540.000000	99.968256
539.000000	99.959573
538.000000	99.976461
537.000000	100.023735
536.000000	100.002991
535.000000	100.000935
534.000000	99.965622
533.000000	100.001775
532.000000	100.033546
531.000000	100.003737
530.000000	99.976636
529.000000	99.984198
528.000000	100.007385
527.000000	99.941049
526.000000	99.974957
525.000000	99.962917
524.000000	99.956075
523.000000	99.986163
522.000000	99.951500
521.000000	99.949619
520.000000	99.993550
519.000000	100.001216
518.000000	100.008790
517.000000	100.032546
516.000000	99.951950
515.000000	99.971306
514.000000	100.007853
513.000000	100.032537
512.000000	99.979713
511.000000	99.983541
510.000000	100.031712
509.000000	99.999906
508.000000	100.020104
507.000000	99.999252
506.000000	99.941738
505.000000	100.000842
504.000000	100.004583
503.000000	100.024597
502.000000	100.008697
501.000000	99.985035
500.000000	100.011886
499.000000	100.026954
498.000000	99.948261
497.000000	99.962758
496.000000	99.943105
495.000000	99.968366
494.000000	100.019189
493.000000	99.991671
492.000000	100.021348
491.000000	100.056456
490.000000	100.029484
489.000000	99.984460
488.000000	99.998314
487.000000	100.010021
486.000000	99.961150
485.000000	99.965931
484.000000	100.135419
483.000000	100.072569
482.000000	99.884962
481.000000	99.999250
480.000000	99.978438
479.000000	99.995404
478.000000	100.009289
477.000000	100.029385
476.000000	100.053053
475.000000	100.010514
474.000000	100.038213
473.000000	100.045076
472.000000	99.997089
471.000000	99.957737
470.000000	99.979704
469.000000	100.032905
468.000000	100.043907
467.000000	100.010712
466.000000	99.995582
465.000000	100.030196
464.000000	100.080329
463.000000	100.052855
462.000000	99.996615
461.000000	99.969175
460.000000	99.921723
459.000000	100.006207
458.000000	100.044312
457.000000	99.996331
456.000000	100.018811
455.000000	100.033113
454.000000	99.980712
453.000000	100.033037
452.000000	100.049040
451.000000	99.958684
450.000000	99.957463
449.000000	100.000565
448.000000	99.937780
447.000000	99.940897
446.000000	100.011486
445.000000	100.027025
444.000000	100.004990
443.000000	100.038622
442.000000	100.058446
441.000000	100.027906
440.000000	100.036764
439.000000	99.988404
438.000000	99.969080
437.000000	100.004996
436.000000	100.022815
435.000000	100.046491
434.000000	100.024061
433.000000	100.055964
432.000000	100.032367
431.000000	99.985194
430.000000	100.054349
429.000000	100.030754
428.000000	99.980946
427.000000	99.883880
426.000000	99.941222
425.000000	99.964324
424.000000	99.929102
423.000000	99.996223
422.000000	100.000850
421.000000	99.964596
420.000000	100.059896
419.000000	100.124203
418.000000	100.026445
417.000000	99.984038
416.000000	100.121674
415.000000	100.072194
414.000000	100.003211
413.000000	100.047515
412.000000	99.912007
411.000000	99.867742
410.000000	99.973458
409.000000	99.991968
408.000000	99.908565
407.000000	100.028926
406.000000	100.005580
405.000000	99.941475
404.000000	99.916557
403.000000	99.970787
402.000000	99.920810
401.000000	99.993383
400.000000	100.089249
399.000000	100.079809
398.000000	100.009083
397.000000	99.876193
396.000000	99.886608
395.000000	100.065770
394.000000	100.064353
393.000000	99.931895
392.000000	100.065517
391.000000	100.034457
390.000000	100.030979
389.000000	99.906496
388.000000	100.029174
387.000000	100.146179
386.000000	100.159419
385.000000	100.011940
384.000000	100.053527
383.000000	99.978493
382.000000	99.995169
381.000000	100.071004
380.000000	99.847633
379.000000	99.932837
378.000000	100.353682
377.000000	100.154154
376.000000	99.834012
375.000000	100.011268
374.000000	99.816346
373.000000	100.094806
372.000000	100.006431
371.000000	99.903387
370.000000	100.055609
369.000000	100.016828
368.000000	100.000000
367.000000	100.059012
366.000000	100.076324
365.000000	99.931353
364.000000	100.054198
363.000000	100.065908
362.000000	99.870963
361.000000	100.103714
360.000000	99.884637
359.000000	99.899960
358.000000	100.034121
357.000000	99.819222
356.000000	100.191057
355.000000	99.982821
354.000000	100.063913
353.000000	99.899460
352.000000	100.218521
351.000000	99.900085
350.000000	100.315783
349.000000	100.061890
348.000000	99.986015
347.000000	100.009152
346.000000	100.005956
345.000000	100.212714
344.000000	100.004052
343.000000	100.280692
342.000000	99.850806
341.000000	99.949744
340.000000	99.886648
339.000000	100.084762
338.000000	100.091039
337.000000	100.249839
336.000000	99.811411
335.000000	99.928365
334.000000	99.851651
333.000000	99.854058
332.000000	100.055576
331.000000	99.822296
330.000000	100.224517
329.000000	99.935078
328.000000	99.870535
327.000000	99.539189
326.000000	99.762054
325.000000	99.789084
324.000000	100.092258
323.000000	99.663346
322.000000	99.632055
321.000000	99.891082
320.000000	100.107811
319.000000	99.951219
318.000000	99.877773
317.000000	99.955049
316.000000	99.886758
315.000000	99.903419
314.000000	100.255180
313.000000	99.933839
312.000000	99.816394
311.000000	99.674965
310.000000	99.838095
309.000000	100.000936
308.000000	99.809282
307.000000	99.975867
306.000000	99.792862
305.000000	100.060016
304.000000	100.165121
303.000000	100.217393
302.000000	100.040816
301.000000	100.451835
300.000000	100.324730
299.000000	100.355338
298.000000	99.835142
297.000000	99.957664
296.000000	100.019525
295.000000	100.077138
294.000000	100.149202
293.000000	99.931923
292.000000	100.110315
291.000000	100.136527
290.000000	99.886773
289.000000	100.163071
288.000000	99.925656
287.000000	100.012747
286.000000	100.111413
285.000000	99.786149
284.000000	100.088566
283.000000	99.931197
282.000000	99.884836
281.000000	99.997171
280.000000	99.767646
279.000000	99.908457
278.000000	99.680104
277.000000	99.970508
276.000000	100.120588
275.000000	100.117524
274.000000	100.282234
273.000000	100.174091
272.000000	100.088168
271.000000	100.141720
270.000000	100.264572
269.000000	100.014018
268.000000	99.925282
267.000000	100.058578
266.000000	100.101252
265.000000	100.017964
264.000000	99.972985
263.000000	99.995293
262.000000	99.857689
261.000000	99.942414
260.000000	100.023779
259.000000	99.917307
258.000000	99.833373
257.000000	99.999700
256.000000	99.876679
255.000000	100.119617
254.000000	100.085013
253.000000	99.915985
252.000000	100.001220
251.000000	99.975318
250.000000	99.840946
249.000000	99.982934
248.000000	100.096146
247.000000	99.996794
246.000000	99.987978
245.000000	99.917059
244.000000	99.879302
243.000000	99.889658
242.000000	99.847305
241.000000	100.054054
240.000000	99.930799
239.000000	99.720248
238.000000	99.842992
237.000000	100.012251
236.000000	100.233194
235.000000	100.105115
234.000000	100.174160
233.000000	99.796174
232.000000	99.775824
231.000000	99.864002
230.000000	99.890106
229.000000	99.910883
228.000000	100.042233
227.000000	100.125727
226.000000	100.252361
225.000000	100.204750
224.000000	99.755730
223.000000	99.977694
222.000000	100.279650
221.000000	100.160569
220.000000	99.716248
219.000000	99.643741
218.000000	99.942573
217.000000	100.228919
216.000000	99.997993
215.000000	99.914259
214.000000	100.367800
213.000000	100.250440
212.000000	99.925935
211.000000	100.133588
210.000000	100.337161
209.000000	99.804938
208.000000	100.046334
207.000000	100.464225
206.000000	100.119080
205.000000	100.316107
204.000000	100.612525
203.000000	100.351535
202.000000	99.923419
201.000000	99.096155
200.000000	99.259207
