PE UV       SUBTECH     SPECTRUM    ASCII       PEDS        4.00        
   -1
Empty Chamber 2.Sample.asc
18/03/20
17:10:24.00
18/03/20
17:10:24.00
Administrator

200.000000
1
Lambda 750
750N8071901
PerkinElmer UV WinLab 6.0.4.0738 / 1.61.00 Lambda 900

0
0
3350/servo 860.8/2
0
0
UV/VIS
1
1
1
CommonBeamDepol,150mm sphere / downward view
0
0
0
0
Program
Program
3350/servo 860.8/2
3350/0.2 860.8/0.2
3350/0.2 860.8/0.2
0
1
 
 
 
0
 
860.8
319.2
860.8
Front
100
on
 
 
0
0
0
 
0
 
 
 
0
 
 
0
0
0
0
0
 
 
 
 
0
0


0
0
#HDR
-1
-1
#GR
nm
%T
1.0
0.0
2350.000000
-1.000000
2151
8
100.525313
99.299097
#DATA
2350.000000	100.291965
2349.000000	100.102703
2348.000000	100.355449
2347.000000	100.289631
2346.000000	99.662716
2345.000000	100.005767
2344.000000	100.016479
2343.000000	99.929779
2342.000000	99.749199
2341.000000	100.140444
2340.000000	100.128350
2339.000000	100.008886
2338.000000	100.236800
2337.000000	99.671160
2336.000000	99.830685
2335.000000	100.267760
2334.000000	100.287147
2333.000000	100.121690
2332.000000	100.428359
2331.000000	99.924489
2330.000000	100.286644
2329.000000	100.131194
2328.000000	99.936988
2327.000000	99.671595
2326.000000	99.995652
2325.000000	100.170811
2324.000000	100.070881
2323.000000	100.078730
2322.000000	100.011440
2321.000000	100.041541
2320.000000	99.780394
2319.000000	100.208190
2318.000000	100.226617
2317.000000	99.933126
2316.000000	99.665625
2315.000000	100.064327
2314.000000	100.103446
2313.000000	99.786511
2312.000000	100.012357
2311.000000	100.138986
2310.000000	100.202969
2309.000000	100.233212
2308.000000	100.205095
2307.000000	100.087831
2306.000000	99.882339
2305.000000	100.064498
2304.000000	100.228584
2303.000000	100.209841
2302.000000	99.985316
2301.000000	99.890481
2300.000000	99.820118
2299.000000	100.076694
2298.000000	99.829280
2297.000000	99.843156
2296.000000	100.003650
2295.000000	99.927932
2294.000000	99.961669
2293.000000	99.891088
2292.000000	99.722974
2291.000000	99.919454
2290.000000	100.024891
2289.000000	100.205653
2288.000000	100.081021
2287.000000	99.974922
2286.000000	99.984625
2285.000000	100.100144
2284.000000	100.033226
2283.000000	99.966602
2282.000000	100.051644
2281.000000	100.083488
2280.000000	100.101983
2279.000000	99.961309
2278.000000	99.938782
2277.000000	100.005676
2276.000000	100.103271
2275.000000	99.870510
2274.000000	99.973592
2273.000000	100.078802
2272.000000	100.155749
2271.000000	100.051036
2270.000000	100.073258
2269.000000	100.021275
2268.000000	99.976417
2267.000000	100.077124
2266.000000	100.013478
2265.000000	99.924569
2264.000000	100.082054
2263.000000	99.969220
2262.000000	99.792391
2261.000000	99.905108
2260.000000	99.883080
2259.000000	99.997671
2258.000000	100.219734
2257.000000	100.225341
2256.000000	100.110557
2255.000000	100.137302
2254.000000	100.009718
2253.000000	99.849732
2252.000000	99.921420
2251.000000	100.109966
2250.000000	100.110978
2249.000000	100.089066
2248.000000	100.047496
2247.000000	100.011544
2246.000000	100.059436
2245.000000	99.954853
2244.000000	99.830109
2243.000000	100.018123
2242.000000	99.967915
2241.000000	99.864433
2240.000000	99.981760
2239.000000	99.857643
2238.000000	99.906918
2237.000000	99.987038
2236.000000	100.034766
2235.000000	100.149193
2234.000000	99.895129
2233.000000	99.808381
2232.000000	99.899394
2231.000000	99.942932
2230.000000	100.057001
2229.000000	100.101522
2228.000000	100.077784
2227.000000	99.915597
2226.000000	100.003850
2225.000000	100.173159
2224.000000	99.995241
2223.000000	99.945563
2222.000000	99.908791
2221.000000	99.885521
2220.000000	100.022914
2219.000000	100.068216
2218.000000	100.070084
2217.000000	100.120107
2216.000000	99.981670
2215.000000	99.951000
2214.000000	99.910764
2213.000000	100.058228
2212.000000	100.029777
2211.000000	100.022374
2210.000000	100.027758
2209.000000	100.038328
2208.000000	100.134208
2207.000000	99.912621
2206.000000	99.978933
2205.000000	100.147764
2204.000000	100.001418
2203.000000	99.927866
2202.000000	99.947784
2201.000000	99.896217
2200.000000	100.011940
2199.000000	100.004350
2198.000000	100.164833
2197.000000	99.750464
2196.000000	99.885942
2195.000000	100.083823
2194.000000	100.029758
2193.000000	100.063017
2192.000000	100.100452
2191.000000	99.956895
2190.000000	100.035944
2189.000000	99.959731
2188.000000	99.865693
2187.000000	99.865340
2186.000000	99.846152
2185.000000	100.036265
2184.000000	100.097706
2183.000000	100.181505
2182.000000	99.985134
2181.000000	100.055859
2180.000000	99.981413
2179.000000	100.024047
2178.000000	100.007472
2177.000000	99.984844
2176.000000	100.004649
2175.000000	100.042480
2174.000000	100.117929
2173.000000	99.955498
2172.000000	100.006969
2171.000000	99.862766
2170.000000	100.022187
2169.000000	99.921388
2168.000000	100.154466
2167.000000	99.972854
2166.000000	100.033487
2165.000000	99.986390
2164.000000	99.722293
2163.000000	99.985683
2162.000000	100.078827
2161.000000	100.280541
2160.000000	99.957568
2159.000000	100.282964
2158.000000	99.992446
2157.000000	99.919079
2156.000000	99.889617
2155.000000	99.788578
2154.000000	99.784771
2153.000000	100.192442
2152.000000	99.942369
2151.000000	100.127778
2150.000000	100.098901
2149.000000	100.079003
2148.000000	100.162291
2147.000000	100.024875
2146.000000	99.946646
2145.000000	99.775649
2144.000000	100.005949
2143.000000	100.057050
2142.000000	99.906648
2141.000000	99.955809
2140.000000	99.993052
2139.000000	99.873958
2138.000000	100.004127
2137.000000	99.909734
2136.000000	99.967054
2135.000000	99.954610
2134.000000	99.910753
2133.000000	100.035154
2132.000000	100.081438
2131.000000	99.612961
2130.000000	100.055353
2129.000000	100.190610
2128.000000	99.946866
2127.000000	100.174579
2126.000000	99.968030
2125.000000	99.866206
2124.000000	100.115661
2123.000000	100.074704
2122.000000	99.969911
2121.000000	100.048575
2120.000000	99.822906
2119.000000	99.768475
2118.000000	99.935732
2117.000000	100.165873
2116.000000	100.232903
2115.000000	100.179769
2114.000000	99.936026
2113.000000	100.011203
2112.000000	99.946429
2111.000000	99.871709
2110.000000	100.091519
2109.000000	100.027277
2108.000000	99.985856
2107.000000	100.026075
2106.000000	100.045289
2105.000000	100.018277
2104.000000	100.027189
2103.000000	99.994042
2102.000000	100.071949
2101.000000	100.114285
2100.000000	100.061168
2099.000000	99.912934
2098.000000	100.066078
2097.000000	99.955252
2096.000000	99.894961
2095.000000	100.071145
2094.000000	100.167654
2093.000000	100.090544
2092.000000	99.959888
2091.000000	99.985450
2090.000000	99.985860
2089.000000	99.944870
2088.000000	99.905713
2087.000000	99.977983
2086.000000	99.989487
2085.000000	100.048928
2084.000000	100.034152
2083.000000	99.992020
2082.000000	100.030236
2081.000000	99.859467
2080.000000	100.008996
2079.000000	99.995145
2078.000000	100.026999
2077.000000	100.080631
2076.000000	100.106798
2075.000000	99.992826
2074.000000	99.971717
2073.000000	99.998181
2072.000000	99.954827
2071.000000	100.054182
2070.000000	100.079485
2069.000000	100.026703
2068.000000	100.050492
2067.000000	100.082453
2066.000000	99.984627
2065.000000	99.985237
2064.000000	99.966932
2063.000000	99.939648
2062.000000	100.057677
2061.000000	100.033890
2060.000000	99.991506
2059.000000	100.005967
2058.000000	99.983110
2057.000000	99.920349
2056.000000	99.952272
2055.000000	99.979472
2054.000000	99.915663
2053.000000	99.979165
2052.000000	99.995042
2051.000000	100.031577
2050.000000	100.056869
2049.000000	99.966209
2048.000000	100.010120
2047.000000	100.051850
2046.000000	100.031992
2045.000000	99.989373
2044.000000	99.949503
2043.000000	100.063885
2042.000000	100.098624
2041.000000	100.029967
2040.000000	99.979448
2039.000000	99.975805
2038.000000	100.003038
2037.000000	99.989367
2036.000000	99.985323
2035.000000	99.953751
2034.000000	100.001013
2033.000000	100.002633
2032.000000	99.978628
2031.000000	99.997468
2030.000000	99.979341
2029.000000	100.024307
2028.000000	100.021164
2027.000000	99.994329
2026.000000	99.997467
2025.000000	99.984093
2024.000000	99.988856
2023.000000	100.037898
2022.000000	100.046216
2021.000000	100.002939
2020.000000	100.040647
2019.000000	100.089954
2018.000000	100.017541
2017.000000	100.007299
2016.000000	100.063483
2015.000000	100.040466
2014.000000	99.983576
2013.000000	99.981650
2012.000000	99.996452
2011.000000	100.013689
2010.000000	99.983473
2009.000000	100.005376
2008.000000	100.048100
2007.000000	100.036627
2006.000000	100.027803
2005.000000	100.030141
2004.000000	100.024152
2003.000000	99.992798
2002.000000	100.005986
2001.000000	99.999797
2000.000000	99.968443
1999.000000	99.944608
1998.000000	99.989244
1997.000000	100.018573
1996.000000	100.025986
1995.000000	99.996143
1994.000000	100.016650
1993.000000	99.994316
1992.000000	99.911812
1991.000000	99.955038
1990.000000	100.002843
1989.000000	100.028740
1988.000000	99.985583
1987.000000	99.980099
1986.000000	100.005890
1985.000000	99.989643
1984.000000	99.966187
1983.000000	99.982941
1982.000000	100.020412
1981.000000	100.007412
1980.000000	99.987003
1979.000000	100.034330
1978.000000	100.021328
1977.000000	100.010765
1976.000000	99.999188
1975.000000	100.025392
1974.000000	100.042356
1973.000000	99.980603
1972.000000	100.037080
1971.000000	100.006805
1970.000000	99.961521
1969.000000	99.959801
1968.000000	99.959595
1967.000000	100.036046
1966.000000	100.056579
1965.000000	99.984156
1964.000000	99.965778
1963.000000	100.001320
1962.000000	99.980707
1961.000000	99.989542
1960.000000	100.030872
1959.000000	100.035033
1958.000000	100.010865
1957.000000	100.023249
1956.000000	100.046098
1955.000000	99.946102
1954.000000	100.000203
1953.000000	100.008526
1952.000000	100.020302
1951.000000	99.997056
1950.000000	100.089756
1949.000000	99.967841
1948.000000	99.966710
1947.000000	99.991374
1946.000000	99.998376
1945.000000	100.069833
1944.000000	100.067784
1943.000000	100.019786
1942.000000	100.041109
1941.000000	99.951739
1940.000000	99.936735
1939.000000	99.981247
1938.000000	99.944252
1937.000000	100.012467
1936.000000	99.987636
1935.000000	99.955829
1934.000000	100.015204
1933.000000	100.054945
1932.000000	99.907320
1931.000000	99.947946
1930.000000	100.043678
1929.000000	100.042751
1928.000000	100.023507
1927.000000	100.052278
1926.000000	100.050145
1925.000000	99.922557
1924.000000	100.054508
1923.000000	99.990782
1922.000000	99.983293
1921.000000	100.020158
1920.000000	100.031825
1919.000000	100.101983
1918.000000	100.115666
1917.000000	100.027060
1916.000000	99.953896
1915.000000	99.929190
1914.000000	99.960298
1913.000000	99.974680
1912.000000	100.027574
1911.000000	100.009631
1910.000000	100.102532
1909.000000	99.979425
1908.000000	100.054134
1907.000000	99.984491
1906.000000	100.023518
1905.000000	100.011151
1904.000000	100.076856
1903.000000	99.891236
1902.000000	99.878811
1901.000000	99.944870
1900.000000	100.068688
1899.000000	99.977786
1898.000000	100.036530
1897.000000	99.968255
1896.000000	100.077752
1895.000000	100.035110
1894.000000	99.969873
1893.000000	99.995233
1892.000000	100.062699
1891.000000	100.046685
1890.000000	100.002435
1889.000000	100.003855
1888.000000	100.004158
1887.000000	99.967149
1886.000000	99.968172
1885.000000	100.020266
1884.000000	100.044090
1883.000000	99.971935
1882.000000	100.023102
1881.000000	100.031608
1880.000000	100.033229
1879.000000	100.014486
1878.000000	99.986026
1877.000000	100.057540
1876.000000	100.043866
1875.000000	100.024295
1874.000000	100.005972
1873.000000	99.995850
1872.000000	100.014575
1871.000000	99.978543
1870.000000	99.942527
1869.000000	100.005667
1868.000000	100.015688
1867.000000	99.980967
1866.000000	100.013671
1865.000000	100.022281
1864.000000	99.988354
1863.000000	99.987844
1862.000000	100.040314
1861.000000	99.995240
1860.000000	100.000608
1859.000000	100.016618
1858.000000	99.978831
1857.000000	99.915766
1856.000000	99.960208
1855.000000	100.007394
1854.000000	100.050344
1853.000000	100.040821
1852.000000	100.001924
1851.000000	99.991292
1850.000000	100.023294
1849.000000	100.001114
1848.000000	99.979951
1847.000000	100.004355
1846.000000	100.065555
1845.000000	100.066561
1844.000000	100.010635
1843.000000	99.979749
1842.000000	99.979445
1841.000000	99.963546
1840.000000	99.949072
1839.000000	99.966787
1838.000000	99.994834
1837.000000	99.994529
1836.000000	99.983586
1835.000000	99.981557
1834.000000	100.005574
1833.000000	100.014598
1832.000000	100.014397
1831.000000	100.000101
1830.000000	99.985907
1829.000000	100.008517
1828.000000	99.992801
1827.000000	99.953670
1826.000000	99.960557
1825.000000	99.994016
1824.000000	100.013695
1823.000000	99.991277
1822.000000	99.961054
1821.000000	99.983162
1820.000000	100.004971
1819.000000	99.994318
1818.000000	99.998275
1817.000000	99.995637
1816.000000	99.999087
1815.000000	100.036341
1814.000000	100.036141
1813.000000	100.013603
1812.000000	100.004365
1811.000000	99.990661
1810.000000	100.001624
1809.000000	100.024268
1808.000000	100.018380
1807.000000	100.009037
1806.000000	100.021935
1805.000000	100.010156
1804.000000	100.018890
1803.000000	100.029049
1802.000000	99.996852
1801.000000	100.000812
1800.000000	100.020721
1799.000000	100.003860
1798.000000	99.988624
1797.000000	99.954402
1796.000000	99.964046
1795.000000	99.987099
1794.000000	100.005487
1793.000000	100.009246
1792.000000	100.007925
1791.000000	100.037906
1790.000000	100.024594
1789.000000	100.005690
1788.000000	100.009856
1787.000000	100.015548
1786.000000	100.004877
1785.000000	100.000914
1784.000000	100.025301
1783.000000	100.010668
1782.000000	100.009145
1781.000000	100.000406
1780.000000	99.992077
1779.000000	100.018492
1778.000000	100.028350
1777.000000	100.030587
1776.000000	100.008943
1775.000000	99.979376
1774.000000	99.975719
1773.000000	99.988114
1772.000000	99.975312
1771.000000	99.952457
1770.000000	99.992480
1769.000000	99.991973
1768.000000	100.024693
1767.000000	100.038617
1766.000000	100.015953
1765.000000	100.017580
1764.000000	100.031506
1763.000000	100.028761
1762.000000	100.023274
1761.000000	100.016668
1760.000000	100.017174
1759.000000	99.998476
1758.000000	100.000508
1757.000000	100.017580
1756.000000	100.000305
1755.000000	100.023877
1754.000000	99.986184
1753.000000	99.987403
1752.000000	99.986896
1751.000000	99.990958
1750.000000	100.021240
1749.000000	100.029364
1748.000000	100.009551
1747.000000	100.009856
1746.000000	100.005791
1745.000000	99.986183
1744.000000	100.028446
1743.000000	100.016461
1742.000000	100.038413
1741.000000	99.990249
1740.000000	100.014120
1739.000000	99.994616
1738.000000	100.019706
1737.000000	99.991570
1736.000000	99.959984
1735.000000	99.983748
1734.000000	100.020216
1733.000000	100.009651
1732.000000	100.022654
1731.000000	100.034851
1730.000000	99.995327
1729.000000	99.992179
1728.000000	100.027332
1727.000000	99.941603
1726.000000	99.955617
1725.000000	100.004165
1724.000000	99.974612
1723.000000	100.009546
1722.000000	100.004368
1721.000000	99.992688
1720.000000	99.991469
1719.000000	100.001726
1718.000000	100.009752
1717.000000	100.039216
1716.000000	100.027939
1715.000000	100.010665
1714.000000	100.009244
1713.000000	99.991467
1712.000000	100.011274
1711.000000	100.012902
1710.000000	99.995937
1709.000000	100.018791
1708.000000	99.969332
1707.000000	99.957763
1706.000000	99.973903
1705.000000	100.018078
1704.000000	100.035560
1703.000000	100.008431
1702.000000	100.017980
1701.000000	99.977960
1700.000000	100.008024
1699.000000	100.005586
1698.000000	100.004773
1697.000000	99.995837
1696.000000	100.007313
1695.000000	99.957046
1694.000000	99.959283
1693.000000	100.012797
1692.000000	99.974715
1691.000000	100.005179
1690.000000	100.008328
1689.000000	100.005078
1688.000000	100.003250
1687.000000	100.016250
1686.000000	100.005991
1685.000000	99.985683
1684.000000	100.015336
1683.000000	100.001117
1682.000000	100.020720
1681.000000	99.998477
1680.000000	99.997359
1679.000000	99.987205
1678.000000	99.969845
1677.000000	99.980301
1676.000000	99.998578
1675.000000	99.993704
1674.000000	99.961921
1673.000000	99.985175
1672.000000	99.955734
1671.000000	99.983246
1670.000000	99.997868
1669.000000	100.009239
1668.000000	99.994518
1667.000000	99.986703
1666.000000	99.993605
1665.000000	100.036953
1664.000000	100.015025
1663.000000	99.985891
1662.000000	100.004060
1661.000000	99.996751
1660.000000	99.987717
1659.000000	99.984064
1658.000000	99.966001
1657.000000	100.004466
1656.000000	100.002233
1655.000000	100.001117
1654.000000	100.002132
1653.000000	100.018068
1652.000000	99.998173
1651.000000	99.984368
1650.000000	100.002436
1649.000000	99.971384
1648.000000	99.983965
1647.000000	100.010049
1646.000000	99.997868
1645.000000	100.021221
1644.000000	100.040714
1643.000000	100.022333
1642.000000	100.024867
1641.000000	100.013295
1640.000000	99.992490
1639.000000	99.974426
1638.000000	99.990562
1637.000000	99.996245
1636.000000	99.989851
1635.000000	100.000305
1634.000000	99.996955
1633.000000	99.992185
1632.000000	99.993605
1631.000000	99.997462
1630.000000	99.987923
1629.000000	99.982139
1628.000000	99.989140
1627.000000	99.998985
1626.000000	99.981532
1625.000000	99.982038
1624.000000	100.000101
1623.000000	99.995534
1622.000000	99.999594
1621.000000	100.018676
1620.000000	100.003959
1619.000000	100.008018
1618.000000	100.001116
1617.000000	100.006495
1616.000000	99.989141
1615.000000	99.975137
1614.000000	100.013602
1613.000000	100.019490
1612.000000	99.997564
1611.000000	99.983765
1610.000000	99.987316
1609.000000	99.987213
1608.000000	99.996854
1607.000000	100.011774
1606.000000	100.013093
1605.000000	100.016747
1604.000000	100.004567
1603.000000	99.996346
1602.000000	100.000711
1601.000000	100.003654
1600.000000	100.001827
1599.000000	100.003552
1598.000000	99.999797
1597.000000	99.996854
1596.000000	99.993809
1595.000000	99.994621
1594.000000	100.012077
1593.000000	99.999899
1592.000000	99.982748
1591.000000	100.008932
1590.000000	100.022129
1589.000000	99.995230
1588.000000	100.003654
1587.000000	100.015531
1586.000000	100.004263
1585.000000	100.003248
1584.000000	99.999492
1583.000000	100.001522
1582.000000	100.001725
1581.000000	99.988838
1580.000000	99.988128
1579.000000	100.009235
1578.000000	100.022938
1577.000000	100.008220
1576.000000	100.007205
1575.000000	100.016948
1574.000000	99.999696
1573.000000	99.995839
1572.000000	100.012788
1571.000000	100.002436
1570.000000	100.001624
1569.000000	100.006393
1568.000000	100.011771
1567.000000	100.031256
1566.000000	100.002334
1565.000000	99.986100
1564.000000	99.998985
1563.000000	100.000913
1562.000000	99.998884
1561.000000	100.005073
1560.000000	99.999696
1559.000000	100.003348
1558.000000	100.000406
1557.000000	100.008422
1556.000000	100.009944
1555.000000	100.002942
1554.000000	99.999391
1553.000000	99.996247
1552.000000	99.977888
1551.000000	99.974337
1550.000000	99.976774
1549.000000	99.993914
1548.000000	100.007000
1547.000000	99.998884
1546.000000	99.995942
1545.000000	100.014913
1544.000000	100.006289
1543.000000	99.989451
1542.000000	100.002232
1541.000000	99.996247
1540.000000	99.993609
1539.000000	100.011158
1538.000000	100.011766
1537.000000	100.010142
1536.000000	99.981035
1535.000000	99.992191
1534.000000	100.002434
1533.000000	99.988134
1532.000000	99.996248
1531.000000	99.998682
1530.000000	100.011971
1529.000000	100.007813
1528.000000	100.006290
1527.000000	99.999696
1526.000000	99.999899
1525.000000	100.003246
1524.000000	99.982550
1523.000000	99.994927
1522.000000	99.997058
1521.000000	99.997261
1520.000000	100.008724
1519.000000	100.006189
1518.000000	100.017044
1517.000000	100.030134
1516.000000	100.000203
1515.000000	99.990666
1514.000000	100.029432
1513.000000	100.011162
1512.000000	99.978388
1511.000000	100.009741
1510.000000	100.015831
1509.000000	100.030654
1508.000000	99.998782
1507.000000	100.023545
1506.000000	100.008828
1505.000000	99.995840
1504.000000	99.989750
1503.000000	99.996956
1502.000000	100.001319
1501.000000	99.996347
1500.000000	100.008728
1499.000000	100.003552
1498.000000	100.023951
1497.000000	100.015731
1496.000000	100.022631
1495.000000	100.042221
1494.000000	100.003349
1493.000000	99.988028
1492.000000	100.004363
1491.000000	99.999188
1490.000000	100.005175
1489.000000	100.021208
1488.000000	100.005377
1487.000000	100.019278
1486.000000	99.997666
1485.000000	99.995536
1484.000000	99.997261
1483.000000	100.015421
1482.000000	100.003450
1481.000000	100.003652
1480.000000	99.995333
1479.000000	99.999696
1478.000000	100.003245
1477.000000	99.984890
1476.000000	100.026780
1475.000000	100.001420
1474.000000	100.010954
1473.000000	100.002130
1472.000000	100.012577
1471.000000	99.996349
1470.000000	99.985094
1469.000000	100.006999
1468.000000	99.998276
1467.000000	100.002840
1466.000000	99.988641
1465.000000	99.991684
1464.000000	100.005071
1463.000000	100.044840
1462.000000	99.996552
1461.000000	99.984890
1460.000000	99.996755
1459.000000	99.996451
1458.000000	100.030836
1457.000000	99.994017
1456.000000	99.994321
1455.000000	100.012068
1454.000000	100.039764
1453.000000	99.986006
1452.000000	99.999290
1451.000000	99.981443
1450.000000	100.004462
1449.000000	100.015921
1448.000000	100.031541
1447.000000	99.996147
1446.000000	100.001420
1445.000000	99.998175
1444.000000	100.009533
1443.000000	100.001825
1442.000000	100.010445
1441.000000	100.010851
1440.000000	100.035092
1439.000000	99.999493
1438.000000	100.010343
1437.000000	100.009532
1436.000000	100.001014
1435.000000	99.972423
1434.000000	99.994322
1433.000000	100.005678
1432.000000	100.002028
1431.000000	99.997972
1430.000000	100.028190
1429.000000	99.993613
1428.000000	99.984185
1427.000000	99.976789
1426.000000	99.998885
1425.000000	100.002331
1424.000000	100.003041
1423.000000	100.004663
1422.000000	100.012262
1421.000000	100.001723
1420.000000	99.999595
1419.000000	100.021884
1418.000000	100.012055
1417.000000	100.006280
1416.000000	100.010939
1415.000000	100.020052
1414.000000	99.996456
1413.000000	100.004151
1412.000000	99.999494
1411.000000	99.996357
1410.000000	100.003137
1409.000000	100.000708
1408.000000	99.990489
1407.000000	99.990996
1406.000000	100.006475
1405.000000	100.012647
1404.000000	99.985536
1403.000000	99.985236
1402.000000	99.991202
1401.000000	99.996056
1400.000000	100.014460
1399.000000	100.030337
1398.000000	100.018605
1397.000000	100.018401
1396.000000	100.012839
1395.000000	100.015567
1394.000000	100.001718
1393.000000	99.996969
1392.000000	100.011924
1391.000000	100.010508
1390.000000	99.995554
1389.000000	100.000505
1388.000000	100.015053
1387.000000	100.034455
1386.000000	100.042037
1385.000000	100.000606
1384.000000	100.002627
1383.000000	100.044667
1382.000000	100.043354
1381.000000	100.002122
1380.000000	100.005254
1379.000000	100.050833
1378.000000	100.023545
1377.000000	100.005153
1376.000000	100.020816
1375.000000	100.000707
1374.000000	100.006769
1373.000000	100.021826
1372.000000	100.022128
1371.000000	100.005153
1370.000000	100.020308
1369.000000	100.033041
1368.000000	100.037790
1367.000000	100.036270
1366.000000	100.015151
1365.000000	100.015049
1364.000000	100.007878
1363.000000	100.006363
1362.000000	100.023332
1361.000000	100.020809
1360.000000	100.009598
1359.000000	100.016570
1358.000000	100.014854
1357.000000	100.019002
1356.000000	100.021031
1355.000000	100.018909
1354.000000	100.013450
1353.000000	99.999191
1352.000000	100.008496
1351.000000	100.043615
1350.000000	100.025914
1349.000000	100.001214
1348.000000	100.017711
1347.000000	99.996862
1346.000000	99.992104
1345.000000	100.008402
1344.000000	100.050731
1343.000000	100.035336
1342.000000	99.979655
1341.000000	99.983805
1340.000000	99.974496
1339.000000	99.986437
1338.000000	100.013667
1337.000000	100.006478
1336.000000	100.021460
1335.000000	100.023585
1334.000000	99.998785
1333.000000	99.998887
1332.000000	100.013054
1331.000000	100.039672
1330.000000	100.032182
1329.000000	100.009713
1328.000000	99.983811
1327.000000	100.001619
1326.000000	100.012143
1325.000000	99.970659
1324.000000	100.020950
1323.000000	100.017303
1322.000000	100.014267
1321.000000	99.985633
1320.000000	99.997773
1319.000000	99.988263
1318.000000	100.005566
1317.000000	100.012649
1316.000000	100.023576
1315.000000	100.002428
1314.000000	99.987652
1313.000000	100.002834
1312.000000	100.038063
1311.000000	100.035427
1310.000000	100.019738
1309.000000	99.973685
1308.000000	100.042728
1307.000000	100.035737
1306.000000	99.986031
1305.000000	100.000911
1304.000000	100.007491
1303.000000	99.999393
1302.000000	100.052261
1301.000000	100.023896
1300.000000	100.021462
1299.000000	100.020247
1298.000000	100.013769
1297.000000	100.038781
1296.000000	100.029664
1295.000000	100.020654
1294.000000	100.028146
1293.000000	100.025716
1292.000000	100.016399
1291.000000	100.026222
1290.000000	100.025511
1289.000000	99.992813
1288.000000	100.003340
1287.000000	100.001215
1286.000000	99.997268
1285.000000	99.993524
1284.000000	100.004048
1283.000000	100.008703
1282.000000	100.000809
1281.000000	100.031972
1280.000000	100.026713
1279.000000	100.027823
1278.000000	100.016489
1277.000000	100.029540
1276.000000	100.010518
1275.000000	100.032971
1274.000000	100.016284
1273.000000	100.040652
1272.000000	99.983925
1271.000000	100.008392
1270.000000	99.992923
1269.000000	100.022746
1268.000000	100.025275
1267.000000	100.005156
1266.000000	99.991306
1265.000000	99.974026
1264.000000	100.019406
1263.000000	100.019612
1262.000000	100.046199
1261.000000	100.033762
1260.000000	100.001011
1259.000000	100.001112
1258.000000	100.018396
1257.000000	100.016273
1256.000000	100.043983
1255.000000	100.028811
1254.000000	100.004751
1253.000000	100.025575
1252.000000	100.030526
1251.000000	100.021732
1250.000000	99.982514
1249.000000	100.012331
1248.000000	100.006671
1247.000000	100.002325
1246.000000	99.998383
1245.000000	99.997574
1244.000000	99.989489
1243.000000	99.995351
1242.000000	100.027390
1241.000000	99.993634
1240.000000	100.023848
1239.000000	100.033249
1238.000000	100.028394
1237.000000	99.984544
1236.000000	99.996262
1235.000000	100.007272
1234.000000	100.015656
1233.000000	99.986571
1232.000000	99.991418
1231.000000	100.010903
1230.000000	100.017566
1229.000000	100.024935
1228.000000	100.017563
1227.000000	100.004945
1226.000000	100.029569
1225.000000	100.025326
1224.000000	100.004338
1223.000000	99.994150
1222.000000	100.008069
1221.000000	100.038530
1220.000000	100.019766
1219.000000	100.021983
1218.000000	100.033680
1217.000000	100.008670
1216.000000	100.007561
1215.000000	100.011190
1214.000000	99.982563
1213.000000	100.028731
1212.000000	100.039117
1211.000000	99.999496
1210.000000	100.024794
1209.000000	100.024997
1208.000000	100.000705
1207.000000	100.006149
1206.000000	100.024090
1205.000000	100.001411
1204.000000	99.972590
1203.000000	100.003024
1202.000000	100.024494
1201.000000	99.985692
1200.000000	99.991132
1199.000000	100.021166
1198.000000	100.013808
1197.000000	100.015217
1196.000000	100.020760
1195.000000	99.996171
1194.000000	99.986194
1193.000000	100.017941
1192.000000	100.013304
1191.000000	100.015017
1190.000000	100.008164
1189.000000	100.013608
1188.000000	100.016026
1187.000000	100.015924
1186.000000	100.010379
1185.000000	100.001814
1184.000000	99.994257
1183.000000	99.991336
1182.000000	100.009570
1181.000000	100.005238
1180.000000	100.008260
1179.000000	100.014101
1178.000000	100.017423
1177.000000	100.009667
1176.000000	99.988522
1175.000000	99.985504
1174.000000	100.005940
1173.000000	100.028491
1172.000000	100.018521
1171.000000	100.003019
1170.000000	100.014291
1169.000000	100.039353
1168.000000	100.026770
1167.000000	100.012679
1166.000000	100.013281
1165.000000	100.016599
1164.000000	100.026559
1163.000000	100.029575
1162.000000	100.031484
1161.000000	100.012571
1160.000000	100.009050
1159.000000	100.009350
1158.000000	99.993064
1157.000000	100.004623
1156.000000	100.017387
1155.000000	100.029446
1154.000000	100.013162
1153.000000	99.998794
1152.000000	100.007233
1151.000000	100.009442
1150.000000	100.018683
1149.000000	100.019786
1148.000000	100.013858
1147.000000	100.017673
1146.000000	100.004217
1145.000000	100.016063
1144.000000	100.037441
1143.000000	100.022279
1142.000000	100.010235
1141.000000	100.017360
1140.000000	100.007024
1139.000000	100.014045
1138.000000	100.019259
1137.000000	99.996289
1136.000000	99.988871
1135.000000	100.002907
1134.000000	100.002707
1133.000000	100.001704
1132.000000	100.001503
1131.000000	100.012628
1130.000000	100.018841
1129.000000	100.006713
1128.000000	100.024748
1127.000000	100.029354
1126.000000	100.020536
1125.000000	99.994392
1124.000000	99.994593
1123.000000	99.988586
1122.000000	100.000701
1121.000000	100.032837
1120.000000	100.014113
1119.000000	100.000000
1118.000000	100.008206
1117.000000	100.031323
1116.000000	100.026115
1115.000000	100.010204
1114.000000	100.017307
1113.000000	100.022107
1112.000000	100.029306
1111.000000	100.014801
1110.000000	99.999300
1109.000000	100.013597
1108.000000	100.002399
1107.000000	100.016794
1106.000000	100.030286
1105.000000	100.029384
1104.000000	100.023482
1103.000000	100.020381
1102.000000	100.032167
1101.000000	100.022072
1100.000000	100.016476
1099.000000	100.030056
1098.000000	100.034248
1097.000000	100.010381
1096.000000	100.007086
1095.000000	100.014270
1094.000000	99.993516
1093.000000	100.013567
1092.000000	100.016756
1091.000000	100.015956
1090.000000	100.002692
1089.000000	100.009769
1088.000000	100.013555
1087.000000	100.027105
1086.000000	100.044838
1085.000000	100.014144
1084.000000	100.007669
1083.000000	100.011054
1082.000000	99.994524
1081.000000	99.981286
1080.000000	99.993433
1079.000000	100.021694
1078.000000	100.010148
1077.000000	99.995524
1076.000000	100.016708
1075.000000	100.019990
1074.000000	99.992941
1073.000000	100.005864
1072.000000	100.011328
1071.000000	99.997119
1070.000000	99.999106
1069.000000	100.010627
1068.000000	100.009731
1067.000000	99.996724
1066.000000	100.019554
1065.000000	100.028884
1064.000000	100.022229
1063.000000	100.008432
1062.000000	100.013190
1061.000000	100.017652
1060.000000	99.998612
1059.000000	100.018534
1058.000000	99.991974
1057.000000	100.012385
1056.000000	100.007429
1055.000000	100.027237
1054.000000	100.001584
1053.000000	100.016829
1052.000000	100.011382
1051.000000	100.005244
1050.000000	100.019291
1049.000000	100.011276
1048.000000	100.023927
1047.000000	100.004843
1046.000000	99.992786
1045.000000	99.994962
1044.000000	100.021730
1043.000000	99.993879
1042.000000	100.007306
1041.000000	100.006119
1040.000000	99.998717
1039.000000	100.004143
1038.000000	99.990731
1037.000000	100.016565
1036.000000	100.005027
1035.000000	100.019905
1034.000000	100.007093
1033.000000	100.010932
1032.000000	100.011127
1031.000000	99.994586
1030.000000	100.011416
1029.000000	100.003345
1028.000000	100.005508
1027.000000	100.001180
1026.000000	100.018480
1025.000000	99.988602
1024.000000	100.005108
1023.000000	99.997153
1022.000000	99.990086
1021.000000	99.992247
1020.000000	100.001373
1019.000000	99.992253
1018.000000	100.006765
1017.000000	99.987553
1016.000000	100.015091
1015.000000	100.001469
1014.000000	99.996965
1013.000000	100.003034
1012.000000	100.013700
1011.000000	100.012913
1010.000000	99.995014
1009.000000	99.976447
1008.000000	99.972252
1007.000000	99.996093
1006.000000	100.001074
1005.000000	100.026946
1004.000000	99.995024
1003.000000	99.973184
1002.000000	99.985864
1001.000000	100.002534
1000.000000	100.009255
999.000000	100.003506
998.000000	100.010028
997.000000	100.011970
996.000000	100.005739
995.000000	99.983470
994.000000	99.992613
993.000000	100.013018
992.000000	99.998446
991.000000	99.995243
990.000000	99.990976
989.000000	100.001067
988.000000	99.983421
987.000000	99.993021
986.000000	99.991862
985.000000	99.997192
984.000000	99.994579
983.000000	100.002903
982.000000	99.985202
981.000000	99.976702
980.000000	99.996811
979.000000	99.992658
978.000000	99.987737
977.000000	100.001158
976.000000	100.004439
975.000000	100.006365
974.000000	100.000096
973.000000	99.989596
972.000000	100.007416
971.000000	100.026089
970.000000	100.021072
969.000000	100.000962
968.000000	100.001538
967.000000	99.997886
966.000000	99.988479
965.000000	99.988101
964.000000	99.997218
963.000000	99.999137
962.000000	99.998946
961.000000	99.994828
960.000000	100.002298
959.000000	100.009474
958.000000	99.994071
957.000000	99.984422
956.000000	99.997039
955.000000	100.004869
954.000000	99.984161
953.000000	99.960716
952.000000	99.961409
951.000000	99.970286
950.000000	99.965355
949.000000	99.976311
948.000000	99.983740
947.000000	100.011882
946.000000	100.025742
945.000000	100.018605
944.000000	100.008538
943.000000	99.998768
942.000000	99.987684
941.000000	99.979264
940.000000	99.977294
939.000000	99.970315
938.000000	99.983842
937.000000	99.999433
936.000000	99.998584
935.000000	99.980480
934.000000	99.969564
933.000000	99.989452
932.000000	99.988423
931.000000	99.971975
930.000000	99.997745
929.000000	100.015405
928.000000	100.001408
927.000000	99.997749
926.000000	99.994659
925.000000	99.984455
924.000000	99.983716
923.000000	99.993174
922.000000	99.998505
921.000000	99.994772
920.000000	100.003919
919.000000	100.016504
918.000000	100.006987
917.000000	99.999162
916.000000	100.019351
915.000000	99.992377
914.000000	99.994614
913.000000	99.995639
912.000000	99.972372
911.000000	100.002502
910.000000	100.030278
909.000000	100.023314
908.000000	99.987432
907.000000	99.964829
906.000000	99.930381
905.000000	99.950240
904.000000	100.030667
903.000000	99.988960
902.000000	99.963780
901.000000	100.011850
900.000000	99.945229
899.000000	99.965985
898.000000	99.999084
897.000000	100.030851
896.000000	100.014631
895.000000	100.012516
894.000000	99.983568
893.000000	99.999453
892.000000	99.987793
891.000000	99.950051
890.000000	99.961916
889.000000	99.972021
888.000000	99.911522
887.000000	99.982228
886.000000	99.971101
885.000000	99.965879
884.000000	99.963817
883.000000	99.965310
882.000000	99.937366
881.000000	99.945922
880.000000	100.037397
879.000000	99.975167
878.000000	100.035966
877.000000	99.971265
876.000000	100.084469
875.000000	100.006005
874.000000	100.038357
873.000000	100.084359
872.000000	100.013064
871.000000	99.915056
870.000000	99.923091
869.000000	100.029958
868.000000	100.065835
867.000000	99.972404
866.000000	100.122824
865.000000	99.965899
864.000000	99.999645
863.000000	100.050488
862.000000	100.031763
861.000000	99.986195
860.000000	99.916476
859.000000	99.800404
858.000000	99.701051
857.000000	100.209216
856.000000	100.395103
855.000000	100.070045
854.000000	99.777950
853.000000	99.949107
852.000000	100.144680
851.000000	100.167671
850.000000	100.021951
849.000000	100.438697
848.000000	100.157620
847.000000	100.187279
846.000000	100.151345
845.000000	100.108019
844.000000	99.928189
843.000000	100.096567
842.000000	100.302152
841.000000	100.114165
840.000000	99.790039
839.000000	100.069271
838.000000	99.833160
837.000000	99.926285
836.000000	99.979756
835.000000	99.786244
834.000000	99.769322
833.000000	99.991462
832.000000	100.142254
831.000000	100.084858
830.000000	100.133304
829.000000	100.113118
828.000000	99.992875
827.000000	99.850414
826.000000	99.906102
825.000000	100.010440
824.000000	99.926921
823.000000	100.021798
822.000000	100.003600
821.000000	100.039409
820.000000	99.911370
819.000000	99.945722
818.000000	100.257284
817.000000	99.685415
816.000000	100.097072
815.000000	99.946454
814.000000	99.995778
813.000000	100.013472
812.000000	100.066058
811.000000	100.034647
810.000000	99.831104
809.000000	100.164454
808.000000	99.890160
807.000000	100.114766
806.000000	99.800033
805.000000	100.177581
804.000000	100.097257
803.000000	100.060008
802.000000	99.748143
801.000000	100.047005
800.000000	99.960171
799.000000	100.141149
798.000000	100.106655
797.000000	100.128389
796.000000	100.130377
795.000000	99.982596
794.000000	99.882537
793.000000	100.031753
792.000000	100.170266
791.000000	100.231978
790.000000	99.961035
789.000000	99.974038
788.000000	100.059815
787.000000	100.189424
786.000000	100.100007
785.000000	100.039746
784.000000	100.220250
783.000000	100.037217
782.000000	99.984891
781.000000	99.993601
780.000000	100.088972
779.000000	100.050354
778.000000	99.936969
777.000000	99.855780
776.000000	100.004635
775.000000	99.937723
774.000000	99.973527
773.000000	100.071275
772.000000	100.059824
771.000000	100.001696
770.000000	100.067529
769.000000	100.110852
768.000000	100.024134
767.000000	99.803949
766.000000	99.903045
765.000000	99.964455
764.000000	99.998746
763.000000	99.859107
762.000000	100.028218
761.000000	99.929835
760.000000	99.987260
759.000000	100.068004
758.000000	100.102782
757.000000	99.948606
756.000000	100.024822
755.000000	100.018165
754.000000	99.968885
753.000000	100.066191
752.000000	100.071875
751.000000	99.935099
750.000000	99.951909
749.000000	99.978636
748.000000	99.940716
747.000000	99.925809
746.000000	99.996388
745.000000	100.002981
744.000000	99.937891
743.000000	99.912071
742.000000	100.084343
741.000000	100.127495
740.000000	100.070725
739.000000	99.923382
738.000000	99.967687
737.000000	99.976555
736.000000	100.083432
735.000000	100.087494
734.000000	100.011972
733.000000	99.974150
732.000000	100.013247
731.000000	100.072004
730.000000	100.038238
729.000000	99.992459
728.000000	100.033893
727.000000	100.026177
726.000000	99.970907
725.000000	99.843949
724.000000	99.951150
723.000000	100.045322
722.000000	100.016390
721.000000	100.034516
720.000000	100.041530
719.000000	100.001458
718.000000	99.949861
717.000000	99.987325
716.000000	100.049527
715.000000	100.062582
714.000000	100.037870
713.000000	99.976363
712.000000	99.988220
711.000000	100.041388
710.000000	100.043865
709.000000	100.048273
708.000000	99.934909
707.000000	99.890284
706.000000	99.969722
705.000000	100.004210
704.000000	99.966595
703.000000	99.965585
702.000000	100.081159
701.000000	100.060856
700.000000	99.962042
699.000000	99.908861
698.000000	99.893954
697.000000	99.956093
696.000000	100.078627
695.000000	100.107722
694.000000	99.982830
693.000000	99.987235
692.000000	100.033529
691.000000	100.072678
690.000000	100.087231
689.000000	100.036379
688.000000	99.940062
687.000000	99.886658
686.000000	99.947578
685.000000	99.971803
684.000000	99.939294
683.000000	99.930654
682.000000	99.980791
681.000000	99.997701
680.000000	100.009477
679.000000	99.959519
678.000000	99.956488
677.000000	99.987207
676.000000	99.970259
675.000000	99.979282
674.000000	100.031875
673.000000	99.962229
672.000000	100.001383
671.000000	100.032541
670.000000	100.034294
669.000000	99.966994
668.000000	99.959608
667.000000	99.920364
666.000000	99.962926
665.000000	99.995294
664.000000	99.960777
663.000000	99.947585
662.000000	99.995385
661.000000	99.990308
660.000000	100.037784
659.000000	99.983373
658.000000	100.021436
657.000000	99.947976
656.000000	99.975512
655.000000	100.087746
654.000000	100.029778
653.000000	99.990939
652.000000	100.010260
651.000000	99.993803
650.000000	99.934811
649.000000	99.954414
648.000000	100.010639
647.000000	100.022774
646.000000	100.004908
645.000000	99.938336
644.000000	99.941189
643.000000	99.941027
642.000000	100.017783
641.000000	99.975824
640.000000	100.003429
639.000000	100.017804
638.000000	100.007600
637.000000	99.929673
636.000000	100.006213
635.000000	100.015303
634.000000	100.067249
633.000000	100.021338
632.000000	100.049916
631.000000	100.016050
630.000000	100.026071
629.000000	100.023296
628.000000	99.937171
627.000000	99.956078
626.000000	100.042825
625.000000	100.015514
624.000000	100.014495
623.000000	100.012358
622.000000	99.997305
621.000000	99.963568
620.000000	99.974908
619.000000	100.033747
618.000000	99.986337
617.000000	99.925002
616.000000	99.911986
615.000000	99.904882
614.000000	100.013205
613.000000	99.954719
612.000000	100.022422
611.000000	99.935114
610.000000	100.015072
609.000000	99.950964
608.000000	100.039837
607.000000	100.030063
606.000000	99.994138
605.000000	99.976553
604.000000	100.090208
603.000000	99.943013
602.000000	100.045632
601.000000	99.988453
600.000000	100.048872
599.000000	100.050203
598.000000	100.020396
597.000000	99.950626
596.000000	99.989944
595.000000	99.974579
594.000000	99.946089
593.000000	99.995344
592.000000	100.014067
591.000000	99.955743
590.000000	99.920500
589.000000	100.007639
588.000000	99.950636
587.000000	100.013698
586.000000	99.973158
585.000000	99.972414
584.000000	100.066940
583.000000	99.898444
582.000000	100.060697
581.000000	100.111866
580.000000	99.999720
579.000000	100.011093
578.000000	100.009415
577.000000	100.004381
576.000000	100.081705
575.000000	100.040189
574.000000	100.077186
573.000000	99.969117
572.000000	100.055864
571.000000	99.974081
570.000000	100.114225
569.000000	99.976679
568.000000	99.883670
567.000000	99.970423
566.000000	99.972758
565.000000	99.942725
564.000000	100.041713
563.000000	100.101136
562.000000	100.080153
561.000000	100.044545
560.000000	99.970224
559.000000	99.931486
558.000000	99.969206
557.000000	99.909593
556.000000	100.041525
555.000000	99.926670
554.000000	100.021108
553.000000	100.001775
552.000000	100.012324
551.000000	100.002988
550.000000	100.046224
549.000000	99.965657
548.000000	99.994678
547.000000	99.941074
546.000000	99.906864
545.000000	99.957248
544.000000	100.049327
543.000000	99.966101
542.000000	99.899862
541.000000	99.908353
540.000000	100.022332
539.000000	100.043170
538.000000	99.999720
537.000000	100.057296
536.000000	99.995142
535.000000	100.061998
534.000000	100.096017
533.000000	100.003925
532.000000	100.003458
531.000000	100.001402
530.000000	99.937585
529.000000	100.035350
528.000000	100.077709
527.000000	100.037027
526.000000	99.994859
525.000000	99.991402
524.000000	99.946070
523.000000	99.962969
522.000000	99.983827
521.000000	100.048718
520.000000	100.027020
519.000000	100.016368
518.000000	100.027782
517.000000	100.015435
516.000000	100.003085
515.000000	100.055276
514.000000	100.015524
513.000000	99.969696
512.000000	99.967078
511.000000	99.963607
510.000000	99.954639
509.000000	99.943040
508.000000	100.005424
507.000000	100.016464
506.000000	99.950234
505.000000	99.960417
504.000000	99.951171
503.000000	99.907397
502.000000	99.928534
501.000000	99.974455
500.000000	99.994102
499.000000	99.942151
498.000000	99.931789
497.000000	100.001778
496.000000	100.039602
495.000000	100.012825
494.000000	99.988206
493.000000	99.983057
492.000000	99.939303
491.000000	99.933965
490.000000	99.956869
489.000000	99.952940
488.000000	99.973049
487.000000	99.965001
486.000000	100.002713
485.000000	100.020202
484.000000	99.883403
483.000000	99.831321
482.000000	99.917709
481.000000	99.970271
480.000000	99.974304
479.000000	99.942054
478.000000	100.022232
477.000000	100.044282
476.000000	99.970160
475.000000	99.964432
474.000000	99.989958
473.000000	99.974375
472.000000	100.046850
471.000000	100.019907
470.000000	99.942642
469.000000	100.018494
468.000000	100.059737
467.000000	99.968632
466.000000	100.009860
465.000000	100.034831
464.000000	99.982537
463.000000	99.983284
462.000000	100.030436
461.000000	100.014086
460.000000	99.973904
459.000000	100.005448
458.000000	100.008362
457.000000	100.037201
456.000000	100.020290
455.000000	99.984028
454.000000	100.055651
453.000000	100.064406
452.000000	99.993231
451.000000	100.001034
450.000000	100.035917
449.000000	100.014098
448.000000	100.010432
447.000000	100.011566
446.000000	99.986642
445.000000	99.964730
444.000000	100.010348
443.000000	99.988147
442.000000	100.008751
441.000000	100.054314
440.000000	100.016374
439.000000	100.017123
438.000000	100.063145
437.000000	100.021272
436.000000	99.986352
435.000000	100.028526
434.000000	100.006684
433.000000	100.064424
432.000000	100.062940
431.000000	100.027612
430.000000	100.014608
429.000000	100.103275
428.000000	100.098505
427.000000	100.083229
426.000000	100.043345
425.000000	99.953752
424.000000	99.957877
423.000000	99.993212
422.000000	100.064906
421.000000	100.063362
420.000000	99.949206
419.000000	100.000848
418.000000	100.062400
417.000000	100.073680
416.000000	100.062079
415.000000	99.989060
414.000000	99.962940
413.000000	100.074145
412.000000	100.020938
411.000000	99.951798
410.000000	99.984714
409.000000	100.092038
408.000000	100.072894
407.000000	99.987354
406.000000	100.005001
405.000000	100.099498
404.000000	100.029744
403.000000	100.072358
402.000000	99.962896
401.000000	99.987916
400.000000	99.987161
399.000000	100.044765
398.000000	99.975729
397.000000	99.988859
396.000000	100.061878
395.000000	99.985563
394.000000	100.034931
393.000000	100.042985
392.000000	99.966453
391.000000	100.007652
390.000000	99.992161
389.000000	100.086107
388.000000	100.092082
387.000000	100.032703
386.000000	99.939340
385.000000	99.989133
384.000000	99.960983
383.000000	99.955815
382.000000	100.085844
381.000000	100.008599
380.000000	99.944146
379.000000	99.938131
378.000000	100.248996
377.000000	100.085357
376.000000	100.127626
375.000000	99.990564
374.000000	99.846554
373.000000	100.028765
372.000000	99.870820
371.000000	100.060097
370.000000	99.721833
369.000000	99.780832
368.000000	99.935623
367.000000	100.225321
366.000000	100.061328
365.000000	100.192700
364.000000	99.870539
363.000000	99.856454
362.000000	100.290087
361.000000	100.187981
360.000000	100.167021
359.000000	100.011686
358.000000	100.312548
357.000000	99.909569
356.000000	100.217969
355.000000	99.767999
354.000000	100.133020
353.000000	100.525313
352.000000	100.049232
351.000000	99.982690
350.000000	100.097052
349.000000	99.845835
348.000000	99.721019
347.000000	100.044279
346.000000	99.845739
345.000000	99.882247
344.000000	99.693874
343.000000	100.189180
342.000000	99.802164
341.000000	100.050071
340.000000	99.929340
339.000000	100.300519
338.000000	99.855938
337.000000	100.077308
336.000000	99.992035
335.000000	99.858902
334.000000	100.346703
333.000000	99.997467
332.000000	99.425368
331.000000	100.397415
330.000000	99.820874
329.000000	99.780725
328.000000	99.536533
327.000000	99.800983
326.000000	99.954391
325.000000	100.353346
324.000000	100.022330
323.000000	100.223656
322.000000	100.136658
321.000000	99.742072
320.000000	99.810218
319.000000	100.383756
318.000000	100.022014
317.000000	99.906765
316.000000	100.254382
315.000000	99.977343
314.000000	100.231515
313.000000	100.032625
312.000000	99.892153
311.000000	99.934265
310.000000	99.915451
309.000000	100.083697
308.000000	99.811035
307.000000	100.151817
306.000000	100.206865
305.000000	100.386080
304.000000	100.076470
303.000000	100.227239
302.000000	99.879251
301.000000	100.238854
300.000000	100.083297
299.000000	99.960343
298.000000	99.948565
297.000000	100.174738
296.000000	100.193793
295.000000	100.008390
294.000000	99.879536
293.000000	100.084646
292.000000	100.178596
291.000000	99.791287
290.000000	100.216694
289.000000	100.131208
288.000000	99.971307
287.000000	100.009474
286.000000	99.888229
285.000000	99.792437
284.000000	100.101948
283.000000	100.099647
282.000000	99.906214
281.000000	100.048233
280.000000	100.099976
279.000000	100.073440
278.000000	100.149122
277.000000	99.990239
276.000000	99.913588
275.000000	99.970318
274.000000	100.302580
273.000000	100.146945
272.000000	100.087190
271.000000	100.036575
270.000000	100.076978
269.000000	99.994365
268.000000	100.097555
267.000000	100.051451
266.000000	99.913589
265.000000	100.013015
264.000000	100.128774
263.000000	100.051515
262.000000	100.144827
261.000000	100.191752
260.000000	99.902946
259.000000	99.888515
258.000000	100.135423
257.000000	100.122909
256.000000	100.027513
255.000000	99.972399
254.000000	100.001693
253.000000	99.837095
252.000000	99.997896
251.000000	100.215681
250.000000	100.065084
249.000000	100.277984
248.000000	100.044038
247.000000	100.054355
246.000000	100.089164
245.000000	100.185279
244.000000	100.197180
243.000000	100.137050
242.000000	100.117128
241.000000	100.150032
240.000000	99.995701
239.000000	99.864865
238.000000	99.998165
237.000000	99.961100
236.000000	99.847580
235.000000	99.841271
234.000000	100.386516
233.000000	100.408759
232.000000	100.109798
231.000000	100.149144
230.000000	100.043007
229.000000	100.149401
228.000000	100.221971
227.000000	99.922295
226.000000	99.939842
225.000000	99.920139
224.000000	99.796070
223.000000	99.791461
222.000000	99.941569
221.000000	100.086365
220.000000	100.024187
219.000000	99.912225
218.000000	99.760409
217.000000	99.805098
216.000000	100.168181
215.000000	100.426755
214.000000	100.395984
213.000000	100.367226
212.000000	99.837619
211.000000	99.945528
210.000000	100.223925
209.000000	99.972403
208.000000	99.719049
207.000000	99.884042
206.000000	99.930964
205.000000	99.811699
204.000000	99.894226
203.000000	99.299097
202.000000	99.373832
201.000000	100.102055
200.000000	100.284820
