PE UV       SUBTECH     SPECTRUM    ASCII       PEDS        4.00        
   -1
RDms148362.Sample.asc
18/03/20
10:46:19.00
18/03/20
10:46:19.00
Administrator

200.000000
1
Lambda 750
750N8071901
PerkinElmer UV WinLab 6.0.4.0738 / 1.61.00 Lambda 900

0
0
3350/servo 860.8/2
0
0
UV/VIS
1
1
1
CommonBeamDepol,150mm sphere / downward view
0
0
0
0
Program
Program
3350/servo 860.8/2
3350/0.2 860.8/0.2
3350/0.2 860.8/0.2
0
1
 
 
 
0
 
860.8
319.2
860.8
Front
100
on
 
 
0
0
0
 
0
 
 
 
0
 
 
0
0
0
0
0
 
 
 
 
0
0


0
0
#HDR
-1
-1
#GR
nm
%R
1.0
0.0
2350.000000
-1.000000
2151
8
57.913045
9.364404
#DATA
2350.000000	29.540657
2349.000000	29.772224
2348.000000	29.313952
2347.000000	30.022495
2346.000000	29.310577
2345.000000	29.872726
2344.000000	29.688653
2343.000000	29.519804
2342.000000	29.919859
2341.000000	29.813566
2340.000000	29.900268
2339.000000	29.805604
2338.000000	30.347111
2337.000000	30.551473
2336.000000	30.356156
2335.000000	30.291137
2334.000000	30.467182
2333.000000	30.603040
2332.000000	30.457569
2331.000000	30.447011
2330.000000	30.142275
2329.000000	30.387481
2328.000000	30.406998
2327.000000	30.409263
2326.000000	30.492901
2325.000000	30.337400
2324.000000	30.228511
2323.000000	30.123077
2322.000000	29.931308
2321.000000	29.781464
2320.000000	30.145749
2319.000000	30.133646
2318.000000	30.042467
2317.000000	30.068121
2316.000000	29.536837
2315.000000	29.413907
2314.000000	29.370339
2313.000000	29.667568
2312.000000	29.516201
2311.000000	29.518457
2310.000000	29.390343
2309.000000	29.403581
2308.000000	29.296771
2307.000000	29.160930
2306.000000	29.312671
2305.000000	29.349449
2304.000000	29.404463
2303.000000	29.126773
2302.000000	28.981987
2301.000000	29.069637
2300.000000	29.002227
2299.000000	28.720624
2298.000000	28.768214
2297.000000	28.640445
2296.000000	28.743954
2295.000000	28.698578
2294.000000	28.767796
2293.000000	28.536951
2292.000000	28.506444
2291.000000	28.634308
2290.000000	28.673136
2289.000000	28.504768
2288.000000	28.584200
2287.000000	28.611963
2286.000000	28.583368
2285.000000	28.554794
2284.000000	28.407621
2283.000000	28.330110
2282.000000	28.485368
2281.000000	28.534452
2280.000000	28.437883
2279.000000	28.501170
2278.000000	28.523646
2277.000000	28.582638
2276.000000	28.572745
2275.000000	28.526984
2274.000000	28.624693
2273.000000	28.736779
2272.000000	28.716907
2271.000000	28.798760
2270.000000	28.943657
2269.000000	28.867076
2268.000000	28.975864
2267.000000	29.214557
2266.000000	29.179950
2265.000000	29.227032
2264.000000	29.552433
2263.000000	29.621923
2262.000000	29.494484
2261.000000	29.755581
2260.000000	29.955909
2259.000000	30.176044
2258.000000	30.467088
2257.000000	30.617778
2256.000000	30.654274
2255.000000	30.750317
2254.000000	31.001375
2253.000000	31.178929
2252.000000	31.247914
2251.000000	31.500495
2250.000000	31.649441
2249.000000	31.839005
2248.000000	32.042390
2247.000000	32.223904
2246.000000	32.379299
2245.000000	32.456803
2244.000000	32.649861
2243.000000	32.886918
2242.000000	33.114444
2241.000000	33.241243
2240.000000	33.301512
2239.000000	33.351447
2238.000000	33.447769
2237.000000	33.725889
2236.000000	33.820093
2235.000000	33.773574
2234.000000	33.878857
2233.000000	33.970915
2232.000000	33.992134
2231.000000	34.040772
2230.000000	34.183240
2229.000000	34.372768
2228.000000	34.396343
2227.000000	34.244280
2226.000000	34.103385
2225.000000	34.180988
2224.000000	34.151314
2223.000000	34.012773
2222.000000	34.142472
2221.000000	34.130985
2220.000000	34.192467
2219.000000	34.220083
2218.000000	34.012121
2217.000000	34.069269
2216.000000	34.181654
2215.000000	34.095885
2214.000000	33.990782
2213.000000	33.913402
2212.000000	33.866531
2211.000000	33.859627
2210.000000	33.732427
2209.000000	33.645520
2208.000000	33.730888
2207.000000	33.799669
2206.000000	33.539032
2205.000000	33.535745
2204.000000	33.559585
2203.000000	33.398897
2202.000000	33.253954
2201.000000	33.339104
2200.000000	33.221685
2199.000000	33.176285
2198.000000	33.200673
2197.000000	33.131399
2196.000000	32.892975
2195.000000	32.923642
2194.000000	32.774087
2193.000000	32.566290
2192.000000	32.648035
2191.000000	32.743383
2190.000000	32.630627
2189.000000	32.570778
2188.000000	32.534710
2187.000000	32.513467
2186.000000	32.552418
2185.000000	32.470436
2184.000000	32.528473
2183.000000	32.499749
2182.000000	32.442329
2181.000000	32.369886
2180.000000	32.354496
2179.000000	32.311023
2178.000000	32.179658
2177.000000	32.293509
2176.000000	32.140777
2175.000000	32.208310
2174.000000	32.375960
2173.000000	32.379894
2172.000000	32.347909
2171.000000	32.421569
2170.000000	32.549624
2169.000000	32.497599
2168.000000	32.780843
2167.000000	32.754211
2166.000000	32.851998
2165.000000	33.047236
2164.000000	33.053275
2163.000000	33.119588
2162.000000	33.044832
2161.000000	33.154584
2160.000000	33.439465
2159.000000	33.570985
2158.000000	33.547316
2157.000000	33.710393
2156.000000	33.786191
2155.000000	33.995831
2154.000000	34.152905
2153.000000	34.390913
2152.000000	34.474795
2151.000000	34.435292
2150.000000	34.496983
2149.000000	34.727017
2148.000000	34.832952
2147.000000	34.864021
2146.000000	35.131799
2145.000000	35.195950
2144.000000	35.244838
2143.000000	35.400989
2142.000000	35.449181
2141.000000	35.746101
2140.000000	35.840000
2139.000000	35.750153
2138.000000	36.041936
2137.000000	36.158603
2136.000000	36.233477
2135.000000	36.361067
2134.000000	36.421398
2133.000000	36.172714
2132.000000	36.612021
2131.000000	36.592985
2130.000000	36.723900
2129.000000	36.615643
2128.000000	36.723799
2127.000000	36.619707
2126.000000	36.591793
2125.000000	36.815297
2124.000000	37.005940
2123.000000	36.980290
2122.000000	37.045534
2121.000000	36.973615
2120.000000	37.078800
2119.000000	37.133982
2118.000000	37.068169
2117.000000	37.064129
2116.000000	37.085442
2115.000000	37.228309
2114.000000	37.200999
2113.000000	37.067056
2112.000000	37.188750
2111.000000	37.207338
2110.000000	37.200686
2109.000000	37.243201
2108.000000	37.363902
2107.000000	37.318111
2106.000000	37.434331
2105.000000	37.332144
2104.000000	37.394518
2103.000000	37.414711
2102.000000	37.423344
2101.000000	37.430546
2100.000000	37.560432
2099.000000	37.459999
2098.000000	37.431222
2097.000000	37.414569
2096.000000	37.405231
2095.000000	37.335507
2094.000000	37.384926
2093.000000	37.398192
2092.000000	37.435350
2091.000000	37.376710
2090.000000	37.324321
2089.000000	37.340772
2088.000000	37.342674
2087.000000	37.296475
2086.000000	37.261885
2085.000000	37.292887
2084.000000	37.197579
2083.000000	37.174981
2082.000000	37.091277
2081.000000	37.018671
2080.000000	37.059437
2079.000000	36.952189
2078.000000	36.789069
2077.000000	36.779288
2076.000000	36.730857
2075.000000	36.589277
2074.000000	36.555258
2073.000000	36.521392
2072.000000	36.375878
2071.000000	36.261960
2070.000000	36.111013
2069.000000	36.037658
2068.000000	35.938974
2067.000000	35.878520
2066.000000	35.753324
2065.000000	35.622584
2064.000000	35.522135
2063.000000	35.387750
2062.000000	35.222828
2061.000000	35.164386
2060.000000	35.025331
2059.000000	34.895352
2058.000000	34.755487
2057.000000	34.670807
2056.000000	34.501023
2055.000000	34.384124
2054.000000	34.327639
2053.000000	34.217153
2052.000000	34.090460
2051.000000	34.014138
2050.000000	33.859820
2049.000000	33.803550
2048.000000	33.754319
2047.000000	33.682114
2046.000000	33.638546
2045.000000	33.578428
2044.000000	33.536522
2043.000000	33.574981
2042.000000	33.611904
2041.000000	33.626582
2040.000000	33.644018
2039.000000	33.601793
2038.000000	33.635121
2037.000000	33.680146
2036.000000	33.737680
2035.000000	33.789887
2034.000000	33.858094
2033.000000	33.970818
2032.000000	34.031944
2031.000000	34.106400
2030.000000	34.212330
2029.000000	34.325437
2028.000000	34.410932
2027.000000	34.496721
2026.000000	34.611611
2025.000000	34.683784
2024.000000	34.716089
2023.000000	34.766496
2022.000000	34.869208
2021.000000	34.916105
2020.000000	34.932135
2019.000000	35.000183
2018.000000	35.061516
2017.000000	35.050317
2016.000000	35.028715
2015.000000	34.992192
2014.000000	34.982161
2013.000000	34.966252
2012.000000	34.965564
2011.000000	34.953421
2010.000000	34.878545
2009.000000	34.807846
2008.000000	34.776559
2007.000000	34.681882
2006.000000	34.620152
2005.000000	34.579235
2004.000000	34.500009
2003.000000	34.392954
2002.000000	34.315269
2001.000000	34.236691
2000.000000	34.171428
1999.000000	34.086564
1998.000000	33.995396
1997.000000	33.926094
1996.000000	33.857045
1995.000000	33.735716
1994.000000	33.650640
1993.000000	33.612884
1992.000000	33.482115
1991.000000	33.392094
1990.000000	33.299916
1989.000000	33.225958
1988.000000	33.144969
1987.000000	33.050645
1986.000000	32.933021
1985.000000	32.883282
1984.000000	32.791745
1983.000000	32.709178
1982.000000	32.654644
1981.000000	32.554844
1980.000000	32.451357
1979.000000	32.318661
1978.000000	32.236324
1977.000000	32.131268
1976.000000	32.038743
1975.000000	31.981301
1974.000000	31.891597
1973.000000	31.784482
1972.000000	31.705496
1971.000000	31.645593
1970.000000	31.516794
1969.000000	31.463488
1968.000000	31.391947
1967.000000	31.347343
1966.000000	31.271360
1965.000000	31.188181
1964.000000	31.056033
1963.000000	30.958664
1962.000000	30.894486
1961.000000	30.786374
1960.000000	30.772031
1959.000000	30.656356
1958.000000	30.599324
1957.000000	30.529446
1956.000000	30.479669
1955.000000	30.454553
1954.000000	30.364507
1953.000000	30.334401
1952.000000	30.268411
1951.000000	30.328836
1950.000000	30.177715
1949.000000	30.184628
1948.000000	30.114024
1947.000000	30.187160
1946.000000	30.175886
1945.000000	30.099299
1944.000000	30.091630
1943.000000	30.191680
1942.000000	30.153351
1941.000000	30.130688
1940.000000	30.212112
1939.000000	30.310516
1938.000000	30.328620
1937.000000	30.396851
1936.000000	30.514139
1935.000000	30.546935
1934.000000	30.608624
1933.000000	30.762429
1932.000000	30.843173
1931.000000	30.983722
1930.000000	31.160475
1929.000000	31.280807
1928.000000	31.485730
1927.000000	31.676856
1926.000000	31.828285
1925.000000	31.983226
1924.000000	32.283924
1923.000000	32.426804
1922.000000	32.665628
1921.000000	32.932243
1920.000000	33.175766
1919.000000	33.419759
1918.000000	33.679491
1917.000000	34.027537
1916.000000	34.186762
1915.000000	34.523509
1914.000000	34.880707
1913.000000	35.195633
1912.000000	35.451279
1911.000000	35.757535
1910.000000	36.098709
1909.000000	36.495164
1908.000000	36.771349
1907.000000	37.208256
1906.000000	37.510505
1905.000000	37.906075
1904.000000	38.310323
1903.000000	38.658061
1902.000000	39.114420
1901.000000	39.566524
1900.000000	39.947504
1899.000000	40.335541
1898.000000	40.693434
1897.000000	41.067059
1896.000000	41.452824
1895.000000	41.806264
1894.000000	42.247482
1893.000000	42.570974
1892.000000	42.943027
1891.000000	43.297999
1890.000000	43.634848
1889.000000	43.983485
1888.000000	44.299813
1887.000000	44.623027
1886.000000	44.991825
1885.000000	45.295564
1884.000000	45.526791
1883.000000	45.817333
1882.000000	46.036983
1881.000000	46.259747
1880.000000	46.482628
1879.000000	46.640099
1878.000000	46.859855
1877.000000	47.061257
1876.000000	47.261696
1875.000000	47.484208
1874.000000	47.561504
1873.000000	47.692521
1872.000000	47.869927
1871.000000	47.952200
1870.000000	48.043037
1869.000000	48.135155
1868.000000	48.260590
1867.000000	48.271769
1866.000000	48.347179
1865.000000	48.461365
1864.000000	48.472105
1863.000000	48.502065
1862.000000	48.571469
1861.000000	48.625795
1860.000000	48.693928
1859.000000	48.704002
1858.000000	48.731854
1857.000000	48.725377
1856.000000	48.823852
1855.000000	48.865002
1854.000000	48.839665
1853.000000	48.883879
1852.000000	48.854377
1851.000000	48.895365
1850.000000	48.928575
1849.000000	48.907688
1848.000000	48.850530
1847.000000	48.884183
1846.000000	48.912800
1845.000000	48.882564
1844.000000	48.867878
1843.000000	48.876785
1842.000000	48.866628
1841.000000	48.847211
1840.000000	48.809317
1839.000000	48.820375
1838.000000	48.793568
1837.000000	48.725739
1836.000000	48.700059
1835.000000	48.663733
1834.000000	48.636714
1833.000000	48.634982
1832.000000	48.567551
1831.000000	48.543697
1830.000000	48.526766
1829.000000	48.472338
1828.000000	48.452290
1827.000000	48.443992
1826.000000	48.422959
1825.000000	48.413835
1824.000000	48.401343
1823.000000	48.376751
1822.000000	48.344431
1821.000000	48.359555
1820.000000	48.343786
1819.000000	48.289335
1818.000000	48.268122
1817.000000	48.269801
1816.000000	48.237537
1815.000000	48.219588
1814.000000	48.206454
1813.000000	48.184247
1812.000000	48.186818
1811.000000	48.191459
1810.000000	48.179802
1809.000000	48.174104
1808.000000	48.140148
1807.000000	48.106039
1806.000000	48.113927
1805.000000	48.108194
1804.000000	48.081349
1803.000000	48.065795
1802.000000	48.048346
1801.000000	48.049542
1800.000000	48.046124
1799.000000	48.027191
1798.000000	48.004649
1797.000000	48.000492
1796.000000	47.990634
1795.000000	47.988848
1794.000000	47.986101
1793.000000	47.975976
1792.000000	47.966457
1791.000000	47.968340
1790.000000	47.972838
1789.000000	47.968121
1788.000000	47.988128
1787.000000	47.973382
1786.000000	47.949665
1785.000000	47.904033
1784.000000	47.898595
1783.000000	47.916446
1782.000000	47.885214
1781.000000	47.858018
1780.000000	47.831963
1779.000000	47.810024
1778.000000	47.775775
1777.000000	47.735046
1776.000000	47.704849
1775.000000	47.661245
1774.000000	47.616626
1773.000000	47.562363
1772.000000	47.513646
1771.000000	47.496225
1770.000000	47.427567
1769.000000	47.377365
1768.000000	47.372740
1767.000000	47.326915
1766.000000	47.344057
1765.000000	47.283082
1764.000000	47.276577
1763.000000	47.211888
1762.000000	47.149167
1761.000000	47.123584
1760.000000	47.065103
1759.000000	47.061605
1758.000000	47.042878
1757.000000	46.997383
1756.000000	46.972079
1755.000000	46.922190
1754.000000	46.868425
1753.000000	46.877348
1752.000000	46.851793
1751.000000	46.826884
1750.000000	46.757457
1749.000000	46.750325
1748.000000	46.702157
1747.000000	46.648385
1746.000000	46.646889
1745.000000	46.561118
1744.000000	46.531185
1743.000000	46.484191
1742.000000	46.441234
1741.000000	46.432425
1740.000000	46.363381
1739.000000	46.345719
1738.000000	46.317615
1737.000000	46.265609
1736.000000	46.265185
1735.000000	46.219876
1734.000000	46.239356
1733.000000	46.240696
1732.000000	46.199232
1731.000000	46.227182
1730.000000	46.189379
1729.000000	46.203066
1728.000000	46.268147
1727.000000	46.283031
1726.000000	46.358137
1725.000000	46.395230
1724.000000	46.499621
1723.000000	46.538495
1722.000000	46.612352
1721.000000	46.701649
1720.000000	46.738206
1719.000000	46.867476
1718.000000	46.885236
1717.000000	46.936737
1716.000000	47.003106
1715.000000	47.090705
1714.000000	47.157401
1713.000000	47.245527
1712.000000	47.296237
1711.000000	47.363606
1710.000000	47.396618
1709.000000	47.468647
1708.000000	47.507955
1707.000000	47.510070
1706.000000	47.568258
1705.000000	47.588746
1704.000000	47.617087
1703.000000	47.656993
1702.000000	47.675952
1701.000000	47.702068
1700.000000	47.767146
1699.000000	47.751938
1698.000000	47.775293
1697.000000	47.785550
1696.000000	47.831531
1695.000000	47.905336
1694.000000	47.914979
1693.000000	47.963545
1692.000000	47.980175
1691.000000	48.053342
1690.000000	48.107664
1689.000000	48.190235
1688.000000	48.238956
1687.000000	48.304377
1686.000000	48.418184
1685.000000	48.500436
1684.000000	48.598781
1683.000000	48.707698
1682.000000	48.822266
1681.000000	48.927851
1680.000000	49.002187
1679.000000	49.120697
1678.000000	49.235521
1677.000000	49.322283
1676.000000	49.448476
1675.000000	49.575669
1674.000000	49.666960
1673.000000	49.780429
1672.000000	49.905752
1671.000000	50.006557
1670.000000	50.105106
1669.000000	50.201168
1668.000000	50.284253
1667.000000	50.387088
1666.000000	50.420750
1665.000000	50.460632
1664.000000	50.527040
1663.000000	50.574143
1662.000000	50.638273
1661.000000	50.660658
1660.000000	50.714859
1659.000000	50.777356
1658.000000	50.823623
1657.000000	50.844354
1656.000000	50.871499
1655.000000	50.900261
1654.000000	50.907835
1653.000000	50.907246
1652.000000	50.946281
1651.000000	50.917520
1650.000000	50.926132
1649.000000	50.915347
1648.000000	50.886388
1647.000000	50.914363
1646.000000	50.914966
1645.000000	50.878936
1644.000000	50.890644
1643.000000	50.887126
1642.000000	50.859984
1641.000000	50.857245
1640.000000	50.840230
1639.000000	50.839722
1638.000000	50.819312
1637.000000	50.806659
1636.000000	50.770728
1635.000000	50.764807
1634.000000	50.767943
1633.000000	50.733061
1632.000000	50.716394
1631.000000	50.683490
1630.000000	50.672830
1629.000000	50.647431
1628.000000	50.634092
1627.000000	50.620801
1626.000000	50.602903
1625.000000	50.574077
1624.000000	50.548419
1623.000000	50.529806
1622.000000	50.499684
1621.000000	50.463482
1620.000000	50.446704
1619.000000	50.419684
1618.000000	50.402551
1617.000000	50.387487
1616.000000	50.351979
1615.000000	50.317720
1614.000000	50.291152
1613.000000	50.252434
1612.000000	50.239469
1611.000000	50.209146
1610.000000	50.173280
1609.000000	50.142463
1608.000000	50.114678
1607.000000	50.089898
1606.000000	50.037732
1605.000000	50.004114
1604.000000	49.975213
1603.000000	49.947126
1602.000000	49.920558
1601.000000	49.882969
1600.000000	49.854940
1599.000000	49.831831
1598.000000	49.796575
1597.000000	49.767115
1596.000000	49.733146
1595.000000	49.685811
1594.000000	49.677233
1593.000000	49.684564
1592.000000	49.646989
1591.000000	49.600032
1590.000000	49.571369
1589.000000	49.541773
1588.000000	49.508666
1587.000000	49.503517
1586.000000	49.499335
1585.000000	49.474578
1584.000000	49.438149
1583.000000	49.410540
1582.000000	49.395643
1581.000000	49.378710
1580.000000	49.344091
1579.000000	49.318204
1578.000000	49.311851
1577.000000	49.277013
1576.000000	49.247014
1575.000000	49.227620
1574.000000	49.184514
1573.000000	49.175693
1572.000000	49.147369
1571.000000	49.130144
1570.000000	49.102291
1569.000000	49.069453
1568.000000	49.057328
1567.000000	49.023747
1566.000000	49.014172
1565.000000	49.001300
1564.000000	48.983212
1563.000000	48.977733
1562.000000	48.946158
1561.000000	48.918696
1560.000000	48.915489
1559.000000	48.894028
1558.000000	48.885506
1557.000000	48.880612
1556.000000	48.858025
1555.000000	48.865269
1554.000000	48.858358
1553.000000	48.814621
1552.000000	48.802772
1551.000000	48.772999
1550.000000	48.736822
1549.000000	48.728435
1548.000000	48.698545
1547.000000	48.669696
1546.000000	48.641820
1545.000000	48.605796
1544.000000	48.544010
1543.000000	48.490350
1542.000000	48.440273
1541.000000	48.400967
1540.000000	48.366316
1539.000000	48.306407
1538.000000	48.239084
1537.000000	48.174091
1536.000000	48.128717
1535.000000	48.078235
1534.000000	48.049285
1533.000000	47.992056
1532.000000	47.920999
1531.000000	47.868269
1530.000000	47.825690
1529.000000	47.787193
1528.000000	47.749199
1527.000000	47.704802
1526.000000	47.657677
1525.000000	47.630555
1524.000000	47.579965
1523.000000	47.542880
1522.000000	47.517760
1521.000000	47.490358
1520.000000	47.455089
1519.000000	47.439279
1518.000000	47.426175
1517.000000	47.391296
1516.000000	47.349572
1515.000000	47.365454
1514.000000	47.344446
1513.000000	47.337551
1512.000000	47.309214
1511.000000	47.289147
1510.000000	47.303257
1509.000000	47.256470
1508.000000	47.257713
1507.000000	47.265400
1506.000000	47.239127
1505.000000	47.274602
1504.000000	47.254208
1503.000000	47.273763
1502.000000	47.261430
1501.000000	47.241895
1500.000000	47.274121
1499.000000	47.264406
1498.000000	47.289876
1497.000000	47.292750
1496.000000	47.306124
1495.000000	47.326933
1494.000000	47.315572
1493.000000	47.362696
1492.000000	47.367181
1491.000000	47.382862
1490.000000	47.424582
1489.000000	47.447243
1488.000000	47.457992
1487.000000	47.505401
1486.000000	47.507237
1485.000000	47.546584
1484.000000	47.584597
1483.000000	47.631939
1482.000000	47.661375
1481.000000	47.696456
1480.000000	47.727132
1479.000000	47.760653
1478.000000	47.795951
1477.000000	47.831296
1476.000000	47.860908
1475.000000	47.921005
1474.000000	47.927330
1473.000000	47.992791
1472.000000	48.016019
1471.000000	48.007316
1470.000000	48.066446
1469.000000	48.093382
1468.000000	48.120311
1467.000000	48.161303
1466.000000	48.192047
1465.000000	48.242202
1464.000000	48.251611
1463.000000	48.273209
1462.000000	48.296085
1461.000000	48.341480
1460.000000	48.378063
1459.000000	48.410949
1458.000000	48.460020
1457.000000	48.489524
1456.000000	48.518027
1455.000000	48.579812
1454.000000	48.611710
1453.000000	48.654734
1452.000000	48.688384
1451.000000	48.741055
1450.000000	48.796870
1449.000000	48.823104
1448.000000	48.878710
1447.000000	48.910937
1446.000000	48.969224
1445.000000	49.027626
1444.000000	49.088366
1443.000000	49.140847
1442.000000	49.212477
1441.000000	49.255748
1440.000000	49.325297
1439.000000	49.392907
1438.000000	49.459177
1437.000000	49.514772
1436.000000	49.602561
1435.000000	49.673487
1434.000000	49.735123
1433.000000	49.821590
1432.000000	49.891751
1431.000000	49.970362
1430.000000	50.046378
1429.000000	50.143807
1428.000000	50.225066
1427.000000	50.313897
1426.000000	50.390734
1425.000000	50.478167
1424.000000	50.580763
1423.000000	50.678362
1422.000000	50.784282
1421.000000	50.892491
1420.000000	50.995504
1419.000000	51.091643
1418.000000	51.192839
1417.000000	51.299216
1416.000000	51.419501
1415.000000	51.521044
1414.000000	51.615091
1413.000000	51.716373
1412.000000	51.835321
1411.000000	51.946787
1410.000000	52.052052
1409.000000	52.152507
1408.000000	52.246840
1407.000000	52.349511
1406.000000	52.453068
1405.000000	52.553700
1404.000000	52.649481
1403.000000	52.741308
1402.000000	52.827898
1401.000000	52.907804
1400.000000	53.016169
1399.000000	53.105255
1398.000000	53.195264
1397.000000	53.273408
1396.000000	53.368821
1395.000000	53.451071
1394.000000	53.501390
1393.000000	53.574605
1392.000000	53.652173
1391.000000	53.720348
1390.000000	53.781940
1389.000000	53.849680
1388.000000	53.908756
1387.000000	53.950799
1386.000000	54.002721
1385.000000	54.077068
1384.000000	54.142741
1383.000000	54.192836
1382.000000	54.239498
1381.000000	54.288738
1380.000000	54.325015
1379.000000	54.363440
1378.000000	54.414759
1377.000000	54.474909
1376.000000	54.521778
1375.000000	54.554082
1374.000000	54.589985
1373.000000	54.627486
1372.000000	54.658933
1371.000000	54.701483
1370.000000	54.742863
1369.000000	54.771670
1368.000000	54.796725
1367.000000	54.825042
1366.000000	54.852351
1365.000000	54.873966
1364.000000	54.902623
1363.000000	54.931600
1362.000000	54.950648
1361.000000	54.982237
1360.000000	55.005321
1359.000000	55.031098
1358.000000	55.069920
1357.000000	55.077038
1356.000000	55.118008
1355.000000	55.155772
1354.000000	55.165303
1353.000000	55.205444
1352.000000	55.249320
1351.000000	55.276241
1350.000000	55.290929
1349.000000	55.318770
1348.000000	55.367831
1347.000000	55.394858
1346.000000	55.424233
1345.000000	55.440930
1344.000000	55.477903
1343.000000	55.514708
1342.000000	55.528552
1341.000000	55.566791
1340.000000	55.590135
1339.000000	55.598013
1338.000000	55.617934
1337.000000	55.641899
1336.000000	55.668187
1335.000000	55.681507
1334.000000	55.691790
1333.000000	55.712040
1332.000000	55.726401
1331.000000	55.730432
1330.000000	55.725488
1329.000000	55.743305
1328.000000	55.762630
1327.000000	55.784703
1326.000000	55.825452
1325.000000	55.880667
1324.000000	55.937712
1323.000000	55.957771
1322.000000	55.934093
1321.000000	55.928695
1320.000000	55.917237
1319.000000	55.910630
1318.000000	55.927166
1317.000000	55.961162
1316.000000	55.989360
1315.000000	56.001357
1314.000000	55.979921
1313.000000	55.965978
1312.000000	56.013784
1311.000000	56.023663
1310.000000	56.021926
1309.000000	56.056478
1308.000000	56.057969
1307.000000	56.058412
1306.000000	56.045918
1305.000000	56.072128
1304.000000	56.115552
1303.000000	56.116091
1302.000000	56.114774
1301.000000	56.117611
1300.000000	56.131610
1299.000000	56.124658
1298.000000	56.141440
1297.000000	56.140230
1296.000000	56.160473
1295.000000	56.163824
1294.000000	56.174490
1293.000000	56.179732
1292.000000	56.181367
1291.000000	56.191477
1290.000000	56.182216
1289.000000	56.181770
1288.000000	56.183276
1287.000000	56.177434
1286.000000	56.171371
1285.000000	56.169423
1284.000000	56.163589
1283.000000	56.180420
1282.000000	56.178259
1281.000000	56.164640
1280.000000	56.148507
1279.000000	56.134050
1278.000000	56.147428
1277.000000	56.165281
1276.000000	56.169824
1275.000000	56.156357
1274.000000	56.153815
1273.000000	56.159670
1272.000000	56.130818
1271.000000	56.142088
1270.000000	56.128035
1269.000000	56.133333
1268.000000	56.149997
1267.000000	56.201706
1266.000000	56.195897
1265.000000	56.170289
1264.000000	56.206692
1263.000000	56.187066
1262.000000	56.199216
1261.000000	56.200659
1260.000000	56.226272
1259.000000	56.256955
1258.000000	56.242225
1257.000000	56.222299
1256.000000	56.244565
1255.000000	56.244488
1254.000000	56.238327
1253.000000	56.241708
1252.000000	56.274353
1251.000000	56.262217
1250.000000	56.276249
1249.000000	56.276173
1248.000000	56.283605
1247.000000	56.289347
1246.000000	56.297081
1245.000000	56.300244
1244.000000	56.310681
1243.000000	56.291847
1242.000000	56.291336
1241.000000	56.292515
1240.000000	56.278066
1239.000000	56.247896
1238.000000	56.240058
1237.000000	56.257632
1236.000000	56.261308
1235.000000	56.218152
1234.000000	56.198315
1233.000000	56.201190
1232.000000	56.174160
1231.000000	56.141131
1230.000000	56.137820
1229.000000	56.127956
1228.000000	56.128076
1227.000000	56.121555
1226.000000	56.100255
1225.000000	56.043629
1224.000000	56.057952
1223.000000	56.047379
1222.000000	56.026000
1221.000000	56.009632
1220.000000	56.011354
1219.000000	55.994200
1218.000000	55.968034
1217.000000	55.959468
1216.000000	55.960128
1215.000000	55.961875
1214.000000	55.924080
1213.000000	55.907499
1212.000000	55.888181
1211.000000	55.907964
1210.000000	55.914682
1209.000000	55.880268
1208.000000	55.863414
1207.000000	55.878645
1206.000000	55.849740
1205.000000	55.826913
1204.000000	55.839082
1203.000000	55.862947
1202.000000	55.825624
1201.000000	55.846990
1200.000000	55.863599
1199.000000	55.840375
1198.000000	55.819511
1197.000000	55.805662
1196.000000	55.808673
1195.000000	55.801547
1194.000000	55.818763
1193.000000	55.832901
1192.000000	55.838813
1191.000000	55.833179
1190.000000	55.817720
1189.000000	55.795474
1188.000000	55.800969
1187.000000	55.795218
1186.000000	55.802056
1185.000000	55.826528
1184.000000	55.829370
1183.000000	55.827648
1182.000000	55.845500
1181.000000	55.870643
1180.000000	55.887412
1179.000000	55.923431
1178.000000	55.952518
1177.000000	55.969160
1176.000000	55.976420
1175.000000	55.995238
1174.000000	56.025396
1173.000000	56.063272
1172.000000	56.098416
1171.000000	56.121050
1170.000000	56.153946
1169.000000	56.181633
1168.000000	56.200723
1167.000000	56.230393
1166.000000	56.272613
1165.000000	56.305721
1164.000000	56.330283
1163.000000	56.366015
1162.000000	56.406766
1161.000000	56.439722
1160.000000	56.469278
1159.000000	56.505699
1158.000000	56.538176
1157.000000	56.565261
1156.000000	56.592456
1155.000000	56.612729
1154.000000	56.612701
1153.000000	56.633846
1152.000000	56.681041
1151.000000	56.710237
1150.000000	56.736283
1149.000000	56.770235
1148.000000	56.785582
1147.000000	56.810002
1146.000000	56.842169
1145.000000	56.862302
1144.000000	56.871227
1143.000000	56.890734
1142.000000	56.916958
1141.000000	56.938618
1140.000000	56.965332
1139.000000	56.988125
1138.000000	56.993123
1137.000000	56.989747
1136.000000	57.015417
1135.000000	57.042588
1134.000000	57.053571
1133.000000	57.070287
1132.000000	57.081190
1131.000000	57.099764
1130.000000	57.117830
1129.000000	57.130810
1128.000000	57.150520
1127.000000	57.151406
1126.000000	57.155429
1125.000000	57.180499
1124.000000	57.175812
1123.000000	57.183929
1122.000000	57.190325
1121.000000	57.213018
1120.000000	57.215171
1119.000000	57.230999
1118.000000	57.225348
1117.000000	57.229448
1116.000000	57.241374
1115.000000	57.254900
1114.000000	57.261346
1113.000000	57.274273
1112.000000	57.257326
1111.000000	57.269210
1110.000000	57.287759
1109.000000	57.279127
1108.000000	57.276263
1107.000000	57.266262
1106.000000	57.283802
1105.000000	57.291662
1104.000000	57.302608
1103.000000	57.296102
1102.000000	57.307058
1101.000000	57.319955
1100.000000	57.318438
1099.000000	57.300751
1098.000000	57.304788
1097.000000	57.327577
1096.000000	57.333994
1095.000000	57.323692
1094.000000	57.338915
1093.000000	57.346880
1092.000000	57.324456
1091.000000	57.327095
1090.000000	57.325661
1089.000000	57.321724
1088.000000	57.346517
1087.000000	57.359546
1086.000000	57.331666
1085.000000	57.346237
1084.000000	57.362344
1083.000000	57.347170
1082.000000	57.351222
1081.000000	57.362497
1080.000000	57.340290
1079.000000	57.337598
1078.000000	57.352615
1077.000000	57.351402
1076.000000	57.359186
1075.000000	57.356454
1074.000000	57.337216
1073.000000	57.347934
1072.000000	57.359445
1071.000000	57.349636
1070.000000	57.346228
1069.000000	57.353351
1068.000000	57.333414
1067.000000	57.341637
1066.000000	57.376049
1065.000000	57.359887
1064.000000	57.359225
1063.000000	57.367768
1062.000000	57.357682
1061.000000	57.360486
1060.000000	57.374395
1059.000000	57.351307
1058.000000	57.387249
1057.000000	57.399216
1056.000000	57.386831
1055.000000	57.373200
1054.000000	57.391092
1053.000000	57.373034
1052.000000	57.368929
1051.000000	57.361648
1050.000000	57.363235
1049.000000	57.364857
1048.000000	57.360375
1047.000000	57.367056
1046.000000	57.377156
1045.000000	57.355519
1044.000000	57.366078
1043.000000	57.371578
1042.000000	57.369360
1041.000000	57.355896
1040.000000	57.366696
1039.000000	57.361131
1038.000000	57.374641
1037.000000	57.354715
1036.000000	57.368214
1035.000000	57.368791
1034.000000	57.342302
1033.000000	57.371816
1032.000000	57.358954
1031.000000	57.351017
1030.000000	57.352340
1029.000000	57.360709
1028.000000	57.378218
1027.000000	57.365320
1026.000000	57.369889
1025.000000	57.349933
1024.000000	57.374207
1023.000000	57.357162
1022.000000	57.350491
1021.000000	57.367094
1020.000000	57.360817
1019.000000	57.367450
1018.000000	57.370294
1017.000000	57.373883
1016.000000	57.352775
1015.000000	57.354366
1014.000000	57.391132
1013.000000	57.387832
1012.000000	57.372247
1011.000000	57.367911
1010.000000	57.380149
1009.000000	57.364094
1008.000000	57.370763
1007.000000	57.367581
1006.000000	57.392135
1005.000000	57.396121
1004.000000	57.380179
1003.000000	57.388952
1002.000000	57.386161
1001.000000	57.383657
1000.000000	57.396378
999.000000	57.386452
998.000000	57.396413
997.000000	57.399208
996.000000	57.398741
995.000000	57.402960
994.000000	57.420246
993.000000	57.402657
992.000000	57.405259
991.000000	57.423101
990.000000	57.422495
989.000000	57.401622
988.000000	57.406582
987.000000	57.419959
986.000000	57.405728
985.000000	57.411558
984.000000	57.432372
983.000000	57.434837
982.000000	57.446133
981.000000	57.457353
980.000000	57.452207
979.000000	57.451749
978.000000	57.459325
977.000000	57.449457
976.000000	57.459115
975.000000	57.433928
974.000000	57.434883
973.000000	57.460016
972.000000	57.462225
971.000000	57.468704
970.000000	57.472449
969.000000	57.482022
968.000000	57.485423
967.000000	57.486647
966.000000	57.490648
965.000000	57.507193
964.000000	57.502056
963.000000	57.505070
962.000000	57.521230
961.000000	57.521496
960.000000	57.514443
959.000000	57.511000
958.000000	57.510995
957.000000	57.513436
956.000000	57.516129
955.000000	57.506493
954.000000	57.528727
953.000000	57.544189
952.000000	57.538791
951.000000	57.535677
950.000000	57.534032
949.000000	57.529995
948.000000	57.536628
947.000000	57.548505
946.000000	57.548246
945.000000	57.559670
944.000000	57.574860
943.000000	57.566134
942.000000	57.543644
941.000000	57.537891
940.000000	57.549203
939.000000	57.549131
938.000000	57.547816
937.000000	57.565490
936.000000	57.567889
935.000000	57.563690
934.000000	57.540866
933.000000	57.528316
932.000000	57.540621
931.000000	57.500920
930.000000	57.499137
929.000000	57.529430
928.000000	57.540694
927.000000	57.557343
926.000000	57.555659
925.000000	57.531368
924.000000	57.532753
923.000000	57.548741
922.000000	57.546124
921.000000	57.507845
920.000000	57.521249
919.000000	57.513540
918.000000	57.503106
917.000000	57.522900
916.000000	57.500182
915.000000	57.510417
914.000000	57.536031
913.000000	57.539071
912.000000	57.542774
911.000000	57.536396
910.000000	57.549149
909.000000	57.552434
908.000000	57.565074
907.000000	57.540683
906.000000	57.528146
905.000000	57.547082
904.000000	57.533806
903.000000	57.469331
902.000000	57.494466
901.000000	57.545242
900.000000	57.511753
899.000000	57.543224
898.000000	57.595099
897.000000	57.582445
896.000000	57.562234
895.000000	57.565792
894.000000	57.588062
893.000000	57.574194
892.000000	57.576852
891.000000	57.547399
890.000000	57.549287
889.000000	57.485913
888.000000	57.509954
887.000000	57.480754
886.000000	57.586540
885.000000	57.514126
884.000000	57.487726
883.000000	57.432045
882.000000	57.474792
881.000000	57.480504
880.000000	57.541689
879.000000	57.550274
878.000000	57.631379
877.000000	57.650614
876.000000	57.501286
875.000000	57.575216
874.000000	57.519977
873.000000	57.451361
872.000000	57.480713
871.000000	57.431855
870.000000	57.470500
869.000000	57.387215
868.000000	57.481593
867.000000	57.515693
866.000000	57.533415
865.000000	57.456019
864.000000	57.398026
863.000000	57.572502
862.000000	57.470160
861.000000	57.413820
860.000000	57.367827
859.000000	57.575247
858.000000	57.418575
857.000000	57.670076
856.000000	57.438133
855.000000	57.887142
854.000000	57.913045
853.000000	57.376130
852.000000	57.279236
851.000000	57.682161
850.000000	57.771755
849.000000	57.404816
848.000000	57.661328
847.000000	57.510122
846.000000	57.545378
845.000000	57.738255
844.000000	57.421910
843.000000	57.727881
842.000000	57.615053
841.000000	57.676997
840.000000	57.530807
839.000000	57.514013
838.000000	57.507767
837.000000	57.473510
836.000000	57.450076
835.000000	57.296510
834.000000	57.539839
833.000000	57.431231
832.000000	57.369917
831.000000	57.359132
830.000000	57.573414
829.000000	57.233704
828.000000	57.406688
827.000000	57.433717
826.000000	57.294076
825.000000	57.253262
824.000000	57.492572
823.000000	57.436618
822.000000	57.446147
821.000000	57.192443
820.000000	57.206915
819.000000	57.345104
818.000000	57.336531
817.000000	57.225768
816.000000	57.310345
815.000000	57.223964
814.000000	57.186524
813.000000	57.148013
812.000000	57.177962
811.000000	57.214242
810.000000	57.089095
809.000000	57.160562
808.000000	57.144124
807.000000	57.103615
806.000000	57.179746
805.000000	57.159065
804.000000	57.041890
803.000000	56.963465
802.000000	56.951461
801.000000	57.110851
800.000000	56.909418
799.000000	57.190646
798.000000	57.120179
797.000000	57.051438
796.000000	56.921944
795.000000	56.990167
794.000000	56.907578
793.000000	56.891806
792.000000	56.810163
791.000000	56.863155
790.000000	56.792048
789.000000	56.834945
788.000000	56.888680
787.000000	56.839151
786.000000	56.824262
785.000000	56.655903
784.000000	56.663223
783.000000	56.695725
782.000000	56.789205
781.000000	56.798360
780.000000	56.662955
779.000000	56.682219
778.000000	56.727834
777.000000	56.563769
776.000000	56.605386
775.000000	56.645004
774.000000	56.520143
773.000000	56.460003
772.000000	56.503185
771.000000	56.500435
770.000000	56.561323
769.000000	56.550584
768.000000	56.493690
767.000000	56.404889
766.000000	56.373738
765.000000	56.348463
764.000000	56.259091
763.000000	56.410291
762.000000	56.430382
761.000000	56.243364
760.000000	56.182320
759.000000	56.220846
758.000000	56.169684
757.000000	56.137281
756.000000	56.131899
755.000000	56.083756
754.000000	56.035998
753.000000	55.956260
752.000000	55.934635
751.000000	55.931676
750.000000	55.945609
749.000000	55.906687
748.000000	55.873186
747.000000	55.816189
746.000000	55.693846
745.000000	55.782119
744.000000	55.783905
743.000000	55.735834
742.000000	55.703734
741.000000	55.701976
740.000000	55.649363
739.000000	55.665350
738.000000	55.557042
737.000000	55.494271
736.000000	55.465780
735.000000	55.415212
734.000000	55.324025
733.000000	55.329559
732.000000	55.332891
731.000000	55.284840
730.000000	55.289883
729.000000	55.238931
728.000000	55.164302
727.000000	55.118109
726.000000	55.108566
725.000000	55.072200
724.000000	55.050163
723.000000	55.029444
722.000000	54.954183
721.000000	54.884451
720.000000	54.854725
719.000000	54.817031
718.000000	54.816300
717.000000	54.765458
716.000000	54.700919
715.000000	54.708042
714.000000	54.700224
713.000000	54.625174
712.000000	54.558795
711.000000	54.526676
710.000000	54.483432
709.000000	54.458785
708.000000	54.385142
707.000000	54.279330
706.000000	54.236186
705.000000	54.221079
704.000000	54.201763
703.000000	54.148946
702.000000	54.071116
701.000000	54.028032
700.000000	53.964188
699.000000	53.931439
698.000000	53.884369
697.000000	53.880685
696.000000	53.854054
695.000000	53.745729
694.000000	53.717784
693.000000	53.629814
692.000000	53.552324
691.000000	53.511924
690.000000	53.501389
689.000000	53.409378
688.000000	53.306668
687.000000	53.245044
686.000000	53.210714
685.000000	53.147495
684.000000	53.062307
683.000000	53.034775
682.000000	53.007595
681.000000	52.955348
680.000000	52.851299
679.000000	52.761551
678.000000	52.739911
677.000000	52.671971
676.000000	52.572640
675.000000	52.528933
674.000000	52.445027
673.000000	52.414188
672.000000	52.372131
671.000000	52.285034
670.000000	52.185195
669.000000	52.130885
668.000000	52.072216
667.000000	52.011106
666.000000	51.978963
665.000000	51.916923
664.000000	51.802158
663.000000	51.714961
662.000000	51.658381
661.000000	51.573227
660.000000	51.496181
659.000000	51.452415
658.000000	51.337681
657.000000	51.277336
656.000000	51.195977
655.000000	51.149578
654.000000	51.090048
653.000000	50.996042
652.000000	50.855366
651.000000	50.814959
650.000000	50.778195
649.000000	50.698820
648.000000	50.586598
647.000000	50.451627
646.000000	50.392194
645.000000	50.290601
644.000000	50.242502
643.000000	50.152317
642.000000	50.121055
641.000000	50.045662
640.000000	49.945266
639.000000	49.869648
638.000000	49.749873
637.000000	49.678227
636.000000	49.635030
635.000000	49.519649
634.000000	49.435192
633.000000	49.372264
632.000000	49.193509
631.000000	49.167601
630.000000	49.101524
629.000000	48.997527
628.000000	48.890564
627.000000	48.828098
626.000000	48.670265
625.000000	48.611385
624.000000	48.560712
623.000000	48.460866
622.000000	48.311992
621.000000	48.257449
620.000000	48.149690
619.000000	48.119903
618.000000	47.967084
617.000000	47.881261
616.000000	47.776220
615.000000	47.660500
614.000000	47.544113
613.000000	47.479712
612.000000	47.344247
611.000000	47.289679
610.000000	47.190065
609.000000	47.088025
608.000000	46.965743
607.000000	46.865260
606.000000	46.760411
605.000000	46.590211
604.000000	46.545426
603.000000	46.455986
602.000000	46.353986
601.000000	46.253847
600.000000	46.146692
599.000000	45.994771
598.000000	45.889544
597.000000	45.826648
596.000000	45.679867
595.000000	45.547968
594.000000	45.474708
593.000000	45.343423
592.000000	45.241503
591.000000	45.110640
590.000000	44.986417
589.000000	44.893026
588.000000	44.792690
587.000000	44.630113
586.000000	44.590660
585.000000	44.485918
584.000000	44.316646
583.000000	44.247144
582.000000	44.095417
581.000000	43.983580
580.000000	43.880932
579.000000	43.753460
578.000000	43.581865
577.000000	43.514939
576.000000	43.376075
575.000000	43.254347
574.000000	43.148590
573.000000	43.063953
572.000000	42.926134
571.000000	42.796870
570.000000	42.646826
569.000000	42.546793
568.000000	42.377126
567.000000	42.283312
566.000000	42.156268
565.000000	42.047200
564.000000	41.899868
563.000000	41.780221
562.000000	41.651211
561.000000	41.481956
560.000000	41.340327
559.000000	41.267926
558.000000	41.116894
557.000000	40.959235
556.000000	40.838074
555.000000	40.674699
554.000000	40.559283
553.000000	40.443579
552.000000	40.278148
551.000000	40.123205
550.000000	40.008046
549.000000	39.857803
548.000000	39.743120
547.000000	39.630266
546.000000	39.479039
545.000000	39.363663
544.000000	39.207420
543.000000	39.064541
542.000000	38.900002
541.000000	38.774043
540.000000	38.632805
539.000000	38.468318
538.000000	38.355830
537.000000	38.228852
536.000000	38.076756
535.000000	37.938940
534.000000	37.777192
533.000000	37.654697
532.000000	37.490118
531.000000	37.337469
530.000000	37.211169
529.000000	37.069485
528.000000	36.932188
527.000000	36.773561
526.000000	36.629556
525.000000	36.457657
524.000000	36.313697
523.000000	36.198856
522.000000	36.029265
521.000000	35.920561
520.000000	35.755567
519.000000	35.612334
518.000000	35.456869
517.000000	35.322841
516.000000	35.158172
515.000000	35.015824
514.000000	34.878077
513.000000	34.723892
512.000000	34.555869
511.000000	34.426899
510.000000	34.295165
509.000000	34.142437
508.000000	34.005663
507.000000	33.852497
506.000000	33.688328
505.000000	33.553138
504.000000	33.387171
503.000000	33.261601
502.000000	33.115436
501.000000	32.964342
500.000000	32.813658
499.000000	32.663639
498.000000	32.500774
497.000000	32.349314
496.000000	32.196186
495.000000	32.038881
494.000000	31.871101
493.000000	31.725322
492.000000	31.623551
491.000000	31.475196
490.000000	31.289037
489.000000	31.134814
488.000000	30.979824
487.000000	30.816495
486.000000	30.659817
485.000000	30.493517
484.000000	30.384140
483.000000	30.247344
482.000000	30.045800
481.000000	29.915700
480.000000	29.770952
479.000000	29.629546
478.000000	29.499879
477.000000	29.364852
476.000000	29.215400
475.000000	29.063078
474.000000	28.923288
473.000000	28.762652
472.000000	28.607357
471.000000	28.475110
470.000000	28.355947
469.000000	28.228976
468.000000	28.083458
467.000000	27.916360
466.000000	27.776702
465.000000	27.650660
464.000000	27.495654
463.000000	27.334739
462.000000	27.177105
461.000000	27.025942
460.000000	26.876757
459.000000	26.740133
458.000000	26.577985
457.000000	26.411177
456.000000	26.250623
455.000000	26.096265
454.000000	25.957111
453.000000	25.802741
452.000000	25.632255
451.000000	25.469982
450.000000	25.323665
449.000000	25.157033
448.000000	24.978915
447.000000	24.822150
446.000000	24.678764
445.000000	24.509590
444.000000	24.345403
443.000000	24.224657
442.000000	24.079758
441.000000	23.900980
440.000000	23.726487
439.000000	23.560445
438.000000	23.413203
437.000000	23.237402
436.000000	23.071571
435.000000	22.918001
434.000000	22.745410
433.000000	22.592996
432.000000	22.436882
431.000000	22.241890
430.000000	22.103921
429.000000	21.943053
428.000000	21.769758
427.000000	21.606384
426.000000	21.468305
425.000000	21.318415
424.000000	21.157987
423.000000	21.007120
422.000000	20.850725
421.000000	20.690990
420.000000	20.540087
419.000000	20.405031
418.000000	20.240975
417.000000	20.085668
416.000000	19.957967
415.000000	19.788047
414.000000	19.613139
413.000000	19.463095
412.000000	19.319020
411.000000	19.193444
410.000000	19.019373
409.000000	18.864250
408.000000	18.718297
407.000000	18.576899
406.000000	18.444430
405.000000	18.288304
404.000000	18.146011
403.000000	18.028596
402.000000	17.895496
401.000000	17.736566
400.000000	17.615080
399.000000	17.453331
398.000000	17.328681
397.000000	17.180577
396.000000	17.073690
395.000000	16.932917
394.000000	16.810104
393.000000	16.677450
392.000000	16.549125
391.000000	16.398458
390.000000	16.277499
389.000000	16.135501
388.000000	15.997496
387.000000	15.848978
386.000000	15.781587
385.000000	15.612400
384.000000	15.485948
383.000000	15.375964
382.000000	15.212636
381.000000	15.059833
380.000000	14.964482
379.000000	14.814219
378.000000	14.747395
377.000000	14.575855
376.000000	14.517655
375.000000	14.434121
374.000000	14.242820
373.000000	14.141387
372.000000	14.001025
371.000000	13.912026
370.000000	13.745751
369.000000	13.682590
368.000000	13.589038
367.000000	13.519668
366.000000	13.376139
365.000000	13.232922
364.000000	13.131122
363.000000	13.034335
362.000000	12.928703
361.000000	12.898194
360.000000	12.787793
359.000000	12.656318
358.000000	12.582574
357.000000	12.457332
356.000000	12.368033
355.000000	12.289116
354.000000	12.270279
353.000000	12.096458
352.000000	12.042385
351.000000	11.923495
350.000000	11.878495
349.000000	11.797094
348.000000	11.735914
347.000000	11.649460
346.000000	11.668104
345.000000	11.540353
344.000000	11.434101
343.000000	11.351340
342.000000	11.273920
341.000000	11.159953
340.000000	11.088694
339.000000	11.071648
338.000000	10.945668
337.000000	10.924789
336.000000	10.856592
335.000000	10.772627
334.000000	10.663935
333.000000	10.687095
332.000000	10.535884
331.000000	10.501946
330.000000	10.450949
329.000000	10.462424
328.000000	10.291480
327.000000	10.246977
326.000000	10.230830
325.000000	10.152975
324.000000	10.221278
323.000000	10.076433
322.000000	10.071401
321.000000	9.992328
320.000000	10.002171
319.000000	9.952072
318.000000	9.877586
317.000000	9.851718
316.000000	9.803238
315.000000	9.789717
314.000000	9.787213
313.000000	9.745880
312.000000	9.673234
311.000000	9.727877
310.000000	9.676946
309.000000	9.661686
308.000000	9.672258
307.000000	9.687527
306.000000	9.615128
305.000000	9.630020
304.000000	9.589461
303.000000	9.588913
302.000000	9.593517
301.000000	9.635731
300.000000	9.662456
299.000000	9.564232
298.000000	9.508493
297.000000	9.572877
296.000000	9.514253
295.000000	9.473078
294.000000	9.471013
293.000000	9.438705
292.000000	9.441483
291.000000	9.378071
290.000000	9.392964
289.000000	9.376680
288.000000	9.370163
287.000000	9.378928
286.000000	9.390791
285.000000	9.364404
284.000000	9.426343
283.000000	9.418157
282.000000	9.468907
281.000000	9.522197
280.000000	9.487162
279.000000	9.511457
278.000000	9.532575
277.000000	9.622099
276.000000	9.663039
275.000000	9.706970
274.000000	9.810470
273.000000	9.831948
272.000000	9.890955
271.000000	9.938838
270.000000	10.018806
269.000000	10.064223
268.000000	10.128878
267.000000	10.206284
266.000000	10.301896
265.000000	10.313310
264.000000	10.363425
263.000000	10.456488
262.000000	10.595788
261.000000	10.676522
260.000000	10.720602
259.000000	10.771703
258.000000	10.868538
257.000000	10.976052
256.000000	11.070772
255.000000	11.189794
254.000000	11.311527
253.000000	11.407500
252.000000	11.491655
251.000000	11.601932
250.000000	11.711321
249.000000	11.792011
248.000000	11.882996
247.000000	11.930055
246.000000	11.980757
245.000000	12.063330
244.000000	12.117876
243.000000	12.167073
242.000000	12.246324
241.000000	12.249036
240.000000	12.266538
239.000000	12.218130
238.000000	12.185139
237.000000	12.180637
236.000000	12.183845
235.000000	12.125592
234.000000	12.004924
233.000000	11.929248
232.000000	11.924490
231.000000	11.889994
230.000000	11.828907
229.000000	11.845808
228.000000	11.858082
227.000000	11.828284
226.000000	11.781832
225.000000	11.753770
224.000000	11.661364
223.000000	11.740179
222.000000	11.853537
221.000000	11.866092
220.000000	11.901935
219.000000	12.009594
218.000000	12.102079
217.000000	12.149184
216.000000	12.210501
215.000000	12.357592
214.000000	12.541135
213.000000	12.751359
212.000000	12.900109
211.000000	13.044535
210.000000	13.222648
209.000000	13.322457
208.000000	13.641739
207.000000	13.947439
206.000000	14.141682
205.000000	14.614659
204.000000	15.158503
203.000000	15.497656
202.000000	15.981788
201.000000	16.295966
200.000000	16.624804
