PE UV       SUBTECH     SPECTRUM    ASCII       PEDS        4.00        
   -1
RDmsmeh82.Sample.asc
18/03/20
12:31:01.00
18/03/20
12:31:01.00
Administrator

200.000000
1
Lambda 750
750N8071901
PerkinElmer UV WinLab 6.0.4.0738 / 1.61.00 Lambda 900

0
0
3350/servo 860.8/2
0
0
UV/VIS
1
1
1
CommonBeamDepol,150mm sphere / downward view
0
0
0
0
Program
Program
3350/servo 860.8/2
3350/0.2 860.8/0.2
3350/0.2 860.8/0.2
0
1
 
 
 
0
 
860.8
319.2
860.8
Front
100
on
 
 
0
0
0
 
0
 
 
 
0
 
 
0
0
0
0
0
 
 
 
 
0
0


0
0
#HDR
-1
-1
#GR
nm
%R
1.0
0.0
2350.000000
-1.000000
2151
8
53.681218
8.414645
#DATA
2350.000000	34.929187
2349.000000	35.055031
2348.000000	34.723017
2347.000000	35.705519
2346.000000	35.309656
2345.000000	35.393358
2344.000000	34.831917
2343.000000	34.945938
2342.000000	35.108169
2341.000000	35.024364
2340.000000	35.239764
2339.000000	35.317447
2338.000000	35.424619
2337.000000	35.482611
2336.000000	35.405648
2335.000000	35.528504
2334.000000	35.826179
2333.000000	35.952604
2332.000000	35.708057
2331.000000	35.753070
2330.000000	35.716084
2329.000000	35.526248
2328.000000	35.800368
2327.000000	35.630347
2326.000000	35.536463
2325.000000	35.724259
2324.000000	35.553509
2323.000000	35.306397
2322.000000	35.201137
2321.000000	35.496268
2320.000000	35.479561
2319.000000	35.399095
2318.000000	35.466855
2317.000000	35.273906
2316.000000	35.003966
2315.000000	34.963915
2314.000000	35.004959
2313.000000	34.760180
2312.000000	34.732314
2311.000000	34.906498
2310.000000	34.883209
2309.000000	34.841710
2308.000000	34.716447
2307.000000	34.601579
2306.000000	34.363133
2305.000000	34.501494
2304.000000	34.368895
2303.000000	34.367957
2302.000000	34.464537
2301.000000	34.157297
2300.000000	34.161431
2299.000000	34.170241
2298.000000	33.970088
2297.000000	33.942418
2296.000000	34.164494
2295.000000	34.033681
2294.000000	33.960122
2293.000000	33.950964
2292.000000	33.863301
2291.000000	33.618492
2290.000000	33.594058
2289.000000	33.684364
2288.000000	33.789647
2287.000000	33.722802
2286.000000	33.436698
2285.000000	33.434403
2284.000000	33.706866
2283.000000	33.468786
2282.000000	33.497006
2281.000000	33.623741
2280.000000	33.463983
2279.000000	33.554137
2278.000000	33.534542
2277.000000	33.629111
2276.000000	33.790903
2275.000000	33.738770
2274.000000	33.863114
2273.000000	33.830834
2272.000000	33.798601
2271.000000	33.826521
2270.000000	33.712080
2269.000000	33.744898
2268.000000	33.844990
2267.000000	34.066809
2266.000000	34.100514
2265.000000	34.146438
2264.000000	34.372250
2263.000000	34.385444
2262.000000	34.425504
2261.000000	34.652480
2260.000000	34.666329
2259.000000	34.798033
2258.000000	34.901651
2257.000000	35.097978
2256.000000	35.228925
2255.000000	35.309207
2254.000000	35.518649
2253.000000	35.724412
2252.000000	35.908226
2251.000000	36.001898
2250.000000	36.055546
2249.000000	36.269430
2248.000000	36.475522
2247.000000	36.622400
2246.000000	36.752409
2245.000000	36.881110
2244.000000	37.086162
2243.000000	37.214141
2242.000000	37.281524
2241.000000	37.389263
2240.000000	37.515459
2239.000000	37.584022
2238.000000	37.640393
2237.000000	37.690617
2236.000000	37.700250
2235.000000	37.867522
2234.000000	38.076212
2233.000000	38.055328
2232.000000	38.028827
2231.000000	38.193153
2230.000000	38.187410
2229.000000	38.120791
2228.000000	38.246764
2227.000000	38.298120
2226.000000	38.220239
2225.000000	38.173582
2224.000000	38.152231
2223.000000	38.186187
2222.000000	38.109855
2221.000000	38.136134
2220.000000	38.308722
2219.000000	38.314898
2218.000000	38.210174
2217.000000	38.055358
2216.000000	38.038452
2215.000000	38.039402
2214.000000	38.156041
2213.000000	38.222316
2212.000000	38.125220
2211.000000	37.913266
2210.000000	37.805791
2209.000000	37.772112
2208.000000	37.743226
2207.000000	37.765039
2206.000000	37.618767
2205.000000	37.662107
2204.000000	37.646015
2203.000000	37.583829
2202.000000	37.486395
2201.000000	37.529664
2200.000000	37.479692
2199.000000	37.426709
2198.000000	37.529145
2197.000000	37.276698
2196.000000	37.295480
2195.000000	37.250623
2194.000000	37.212186
2193.000000	37.175940
2192.000000	37.083267
2191.000000	37.036951
2190.000000	37.084105
2189.000000	37.068296
2188.000000	36.871504
2187.000000	36.858996
2186.000000	36.984715
2185.000000	36.949706
2184.000000	36.954179
2183.000000	36.958544
2182.000000	36.941622
2181.000000	36.731798
2180.000000	36.700116
2179.000000	36.742439
2178.000000	36.764606
2177.000000	36.841031
2176.000000	36.807724
2175.000000	36.822720
2174.000000	36.913187
2173.000000	36.850316
2172.000000	37.030098
2171.000000	37.067743
2170.000000	37.142200
2169.000000	37.121418
2168.000000	37.367466
2167.000000	37.195272
2166.000000	37.226315
2165.000000	37.300708
2164.000000	37.408391
2163.000000	37.457311
2162.000000	37.565610
2161.000000	37.663991
2160.000000	37.736486
2159.000000	38.019026
2158.000000	37.946773
2157.000000	38.100885
2156.000000	38.149339
2155.000000	38.322712
2154.000000	38.551047
2153.000000	38.789755
2152.000000	38.665803
2151.000000	38.617038
2150.000000	38.734224
2149.000000	39.088403
2148.000000	39.175324
2147.000000	39.353596
2146.000000	39.335262
2145.000000	39.437067
2144.000000	39.521483
2143.000000	39.383926
2142.000000	39.681480
2141.000000	39.841263
2140.000000	39.861686
2139.000000	39.971415
2138.000000	40.035825
2137.000000	40.030234
2136.000000	40.196236
2135.000000	40.153969
2134.000000	40.401312
2133.000000	40.233666
2132.000000	40.414334
2131.000000	40.596208
2130.000000	40.642361
2129.000000	40.466813
2128.000000	40.612186
2127.000000	40.771155
2126.000000	40.643429
2125.000000	40.612563
2124.000000	40.820670
2123.000000	40.806390
2122.000000	40.863193
2121.000000	40.837006
2120.000000	40.884970
2119.000000	40.802957
2118.000000	40.818265
2117.000000	40.858899
2116.000000	41.049965
2115.000000	41.101596
2114.000000	40.902411
2113.000000	41.017477
2112.000000	41.077257
2111.000000	40.990133
2110.000000	40.916992
2109.000000	41.150439
2108.000000	41.262005
2107.000000	41.073937
2106.000000	41.201861
2105.000000	41.095278
2104.000000	41.112997
2103.000000	41.077857
2102.000000	41.235453
2101.000000	41.180080
2100.000000	41.254272
2099.000000	41.192533
2098.000000	41.196792
2097.000000	41.251025
2096.000000	41.144854
2095.000000	41.185382
2094.000000	41.266892
2093.000000	41.290666
2092.000000	41.169912
2091.000000	41.189289
2090.000000	41.204526
2089.000000	41.250889
2088.000000	41.192268
2087.000000	41.150605
2086.000000	41.142872
2085.000000	41.159164
2084.000000	41.088554
2083.000000	41.015075
2082.000000	40.957019
2081.000000	40.939624
2080.000000	40.942284
2079.000000	40.871292
2078.000000	40.803239
2077.000000	40.763842
2076.000000	40.730488
2075.000000	40.537530
2074.000000	40.468937
2073.000000	40.472304
2072.000000	40.350874
2071.000000	40.258615
2070.000000	40.214606
2069.000000	40.065705
2068.000000	40.053314
2067.000000	39.964723
2066.000000	39.782559
2065.000000	39.740906
2064.000000	39.680938
2063.000000	39.636120
2062.000000	39.568799
2061.000000	39.407303
2060.000000	39.202040
2059.000000	39.090672
2058.000000	39.062367
2057.000000	38.984498
2056.000000	38.810940
2055.000000	38.721814
2054.000000	38.594416
2053.000000	38.481547
2052.000000	38.354174
2051.000000	38.305832
2050.000000	38.202901
2049.000000	38.146261
2048.000000	38.132315
2047.000000	38.094051
2046.000000	38.002012
2045.000000	37.948700
2044.000000	37.968697
2043.000000	38.005504
2042.000000	38.002338
2041.000000	37.979705
2040.000000	37.919804
2039.000000	37.871117
2038.000000	37.923020
2037.000000	38.004450
2036.000000	38.056256
2035.000000	38.093610
2034.000000	38.154510
2033.000000	38.245828
2032.000000	38.358384
2031.000000	38.427030
2030.000000	38.507125
2029.000000	38.602678
2028.000000	38.698098
2027.000000	38.791145
2026.000000	38.907574
2025.000000	38.951942
2024.000000	38.937294
2023.000000	38.963796
2022.000000	39.004613
2021.000000	39.041349
2020.000000	39.084704
2019.000000	39.102884
2018.000000	39.145746
2017.000000	39.192898
2016.000000	39.147680
2015.000000	39.153469
2014.000000	39.151036
2013.000000	39.096971
2012.000000	39.079625
2011.000000	39.070348
2010.000000	39.028726
2009.000000	38.957962
2008.000000	38.913559
2007.000000	38.866800
2006.000000	38.775829
2005.000000	38.710287
2004.000000	38.656831
2003.000000	38.593419
2002.000000	38.534014
2001.000000	38.459132
2000.000000	38.369723
1999.000000	38.342521
1998.000000	38.288665
1997.000000	38.214405
1996.000000	38.147413
1995.000000	38.032979
1994.000000	37.944237
1993.000000	37.889503
1992.000000	37.809783
1991.000000	37.668796
1990.000000	37.625227
1989.000000	37.548718
1988.000000	37.489163
1987.000000	37.413096
1986.000000	37.281452
1985.000000	37.231449
1984.000000	37.171777
1983.000000	37.103169
1982.000000	37.018851
1981.000000	36.918331
1980.000000	36.855547
1979.000000	36.742172
1978.000000	36.655655
1977.000000	36.562263
1976.000000	36.506345
1975.000000	36.424123
1974.000000	36.363932
1973.000000	36.319776
1972.000000	36.222109
1971.000000	36.109086
1970.000000	36.068377
1969.000000	36.004381
1968.000000	35.940054
1967.000000	35.874006
1966.000000	35.825969
1965.000000	35.742513
1964.000000	35.626627
1963.000000	35.590642
1962.000000	35.482221
1961.000000	35.398047
1960.000000	35.335002
1959.000000	35.254174
1958.000000	35.201545
1957.000000	35.132577
1956.000000	35.038101
1955.000000	34.985351
1954.000000	35.000737
1953.000000	34.963527
1952.000000	34.867776
1951.000000	34.919755
1950.000000	34.789202
1949.000000	34.749079
1948.000000	34.787464
1947.000000	34.804881
1946.000000	34.681837
1945.000000	34.714576
1944.000000	34.671907
1943.000000	34.729217
1942.000000	34.759869
1941.000000	34.738502
1940.000000	34.676103
1939.000000	34.761862
1938.000000	34.785556
1937.000000	34.909143
1936.000000	35.023469
1935.000000	35.093575
1934.000000	35.158427
1933.000000	35.202380
1932.000000	35.327492
1931.000000	35.353066
1930.000000	35.580765
1929.000000	35.644718
1928.000000	35.771890
1927.000000	35.959833
1926.000000	35.984101
1925.000000	36.232309
1924.000000	36.413102
1923.000000	36.515008
1922.000000	36.797592
1921.000000	36.999800
1920.000000	37.177255
1919.000000	37.480098
1918.000000	37.633757
1917.000000	37.922264
1916.000000	38.049357
1915.000000	38.313438
1914.000000	38.660124
1913.000000	38.860208
1912.000000	39.095412
1911.000000	39.429174
1910.000000	39.640169
1909.000000	39.958872
1908.000000	40.140540
1907.000000	40.493091
1906.000000	40.710426
1905.000000	41.048120
1904.000000	41.382528
1903.000000	41.680413
1902.000000	42.070175
1901.000000	42.343284
1900.000000	42.633612
1899.000000	43.026900
1898.000000	43.364680
1897.000000	43.613887
1896.000000	43.893525
1895.000000	44.144735
1894.000000	44.417911
1893.000000	44.691929
1892.000000	44.955258
1891.000000	45.228601
1890.000000	45.541145
1889.000000	45.787226
1888.000000	46.008413
1887.000000	46.258889
1886.000000	46.505954
1885.000000	46.738556
1884.000000	46.974246
1883.000000	47.155973
1882.000000	47.265907
1881.000000	47.469715
1880.000000	47.661459
1879.000000	47.820028
1878.000000	47.936885
1877.000000	48.091100
1876.000000	48.191328
1875.000000	48.337662
1874.000000	48.475883
1873.000000	48.539384
1872.000000	48.659136
1871.000000	48.773388
1870.000000	48.825335
1869.000000	48.841358
1868.000000	48.957510
1867.000000	48.980982
1866.000000	49.024144
1865.000000	49.094849
1864.000000	49.129350
1863.000000	49.117559
1862.000000	49.170666
1861.000000	49.213436
1860.000000	49.255716
1859.000000	49.222279
1858.000000	49.272447
1857.000000	49.320289
1856.000000	49.336924
1855.000000	49.378305
1854.000000	49.381749
1853.000000	49.351055
1852.000000	49.362822
1851.000000	49.388410
1850.000000	49.399311
1849.000000	49.402455
1848.000000	49.386740
1847.000000	49.383550
1846.000000	49.377707
1845.000000	49.387294
1844.000000	49.360846
1843.000000	49.320677
1842.000000	49.376422
1841.000000	49.371492
1840.000000	49.343434
1839.000000	49.371715
1838.000000	49.350952
1837.000000	49.306516
1836.000000	49.274462
1835.000000	49.234346
1834.000000	49.248099
1833.000000	49.194427
1832.000000	49.148184
1831.000000	49.129690
1830.000000	49.102883
1829.000000	49.058877
1828.000000	49.060166
1827.000000	49.054416
1826.000000	49.050649
1825.000000	49.037641
1824.000000	49.034002
1823.000000	49.003749
1822.000000	48.968024
1821.000000	48.947206
1820.000000	48.936017
1819.000000	48.906224
1818.000000	48.871146
1817.000000	48.874847
1816.000000	48.883846
1815.000000	48.864683
1814.000000	48.828962
1813.000000	48.816750
1812.000000	48.808861
1811.000000	48.797033
1810.000000	48.808014
1809.000000	48.804880
1808.000000	48.783089
1807.000000	48.755063
1806.000000	48.751599
1805.000000	48.754286
1804.000000	48.736882
1803.000000	48.711767
1802.000000	48.668735
1801.000000	48.694746
1800.000000	48.697315
1799.000000	48.655123
1798.000000	48.658836
1797.000000	48.672197
1796.000000	48.676945
1795.000000	48.669196
1794.000000	48.683992
1793.000000	48.651532
1792.000000	48.635185
1791.000000	48.645001
1790.000000	48.640710
1789.000000	48.624343
1788.000000	48.629457
1787.000000	48.628662
1786.000000	48.616838
1785.000000	48.596689
1784.000000	48.603725
1783.000000	48.590483
1782.000000	48.566038
1781.000000	48.560689
1780.000000	48.546473
1779.000000	48.539270
1778.000000	48.509556
1777.000000	48.493946
1776.000000	48.471120
1775.000000	48.417404
1774.000000	48.402863
1773.000000	48.397096
1772.000000	48.342346
1771.000000	48.292837
1770.000000	48.266180
1769.000000	48.256764
1768.000000	48.244544
1767.000000	48.199421
1766.000000	48.168477
1765.000000	48.130711
1764.000000	48.138928
1763.000000	48.141225
1762.000000	48.102157
1761.000000	48.054656
1760.000000	48.004071
1759.000000	48.001578
1758.000000	48.021007
1757.000000	47.962741
1756.000000	47.933895
1755.000000	47.899954
1754.000000	47.886402
1753.000000	47.859167
1752.000000	47.874367
1751.000000	47.821829
1750.000000	47.777142
1749.000000	47.787260
1748.000000	47.718864
1747.000000	47.683687
1746.000000	47.662601
1745.000000	47.660840
1744.000000	47.602267
1743.000000	47.564171
1742.000000	47.523185
1741.000000	47.503475
1740.000000	47.509727
1739.000000	47.507077
1738.000000	47.468739
1737.000000	47.421291
1736.000000	47.412420
1735.000000	47.425938
1734.000000	47.432017
1733.000000	47.392218
1732.000000	47.381596
1731.000000	47.430473
1730.000000	47.398256
1729.000000	47.406656
1728.000000	47.454350
1727.000000	47.457560
1726.000000	47.506915
1725.000000	47.495006
1724.000000	47.570873
1723.000000	47.607178
1722.000000	47.621434
1721.000000	47.720100
1720.000000	47.797873
1719.000000	47.887247
1718.000000	47.876658
1717.000000	47.898964
1716.000000	47.981402
1715.000000	48.055792
1714.000000	48.055288
1713.000000	48.087349
1712.000000	48.159233
1711.000000	48.199527
1710.000000	48.223350
1709.000000	48.247705
1708.000000	48.283301
1707.000000	48.333981
1706.000000	48.373146
1705.000000	48.364645
1704.000000	48.400903
1703.000000	48.388671
1702.000000	48.417712
1701.000000	48.395737
1700.000000	48.435661
1699.000000	48.430550
1698.000000	48.500869
1697.000000	48.465832
1696.000000	48.502981
1695.000000	48.523722
1694.000000	48.533719
1693.000000	48.576515
1692.000000	48.565748
1691.000000	48.617083
1690.000000	48.684854
1689.000000	48.700005
1688.000000	48.755499
1687.000000	48.833465
1686.000000	48.822644
1685.000000	48.936564
1684.000000	48.967458
1683.000000	49.066820
1682.000000	49.152139
1681.000000	49.237635
1680.000000	49.308072
1679.000000	49.366510
1678.000000	49.437010
1677.000000	49.483634
1676.000000	49.612836
1675.000000	49.699100
1674.000000	49.745418
1673.000000	49.809190
1672.000000	49.927306
1671.000000	49.981346
1670.000000	50.062616
1669.000000	50.133807
1668.000000	50.183677
1667.000000	50.299815
1666.000000	50.312844
1665.000000	50.313014
1664.000000	50.364178
1663.000000	50.395780
1662.000000	50.461294
1661.000000	50.479938
1660.000000	50.512326
1659.000000	50.572730
1658.000000	50.612573
1657.000000	50.620528
1656.000000	50.639478
1655.000000	50.661038
1654.000000	50.679441
1653.000000	50.684586
1652.000000	50.702092
1651.000000	50.679315
1650.000000	50.694180
1649.000000	50.690117
1648.000000	50.663433
1647.000000	50.673492
1646.000000	50.671964
1645.000000	50.668028
1644.000000	50.668973
1643.000000	50.655591
1642.000000	50.649191
1641.000000	50.641397
1640.000000	50.625297
1639.000000	50.606506
1638.000000	50.618268
1637.000000	50.590913
1636.000000	50.575202
1635.000000	50.568145
1634.000000	50.549634
1633.000000	50.524602
1632.000000	50.510970
1631.000000	50.484913
1630.000000	50.457289
1629.000000	50.454934
1628.000000	50.448801
1627.000000	50.424940
1626.000000	50.410401
1625.000000	50.381381
1624.000000	50.361617
1623.000000	50.362007
1622.000000	50.336559
1621.000000	50.302589
1620.000000	50.278485
1619.000000	50.269851
1618.000000	50.252706
1617.000000	50.231639
1616.000000	50.212488
1615.000000	50.184638
1614.000000	50.144154
1613.000000	50.119157
1612.000000	50.112700
1611.000000	50.088270
1610.000000	50.061146
1609.000000	50.035908
1608.000000	50.005079
1607.000000	49.985169
1606.000000	49.955158
1605.000000	49.936061
1604.000000	49.915380
1603.000000	49.879168
1602.000000	49.857268
1601.000000	49.842537
1600.000000	49.815119
1599.000000	49.784291
1598.000000	49.768741
1597.000000	49.740398
1596.000000	49.710595
1595.000000	49.701962
1594.000000	49.682820
1593.000000	49.656632
1592.000000	49.624542
1591.000000	49.595867
1590.000000	49.577260
1589.000000	49.556399
1588.000000	49.534363
1587.000000	49.520481
1586.000000	49.520973
1585.000000	49.513690
1584.000000	49.487522
1583.000000	49.468038
1582.000000	49.447242
1581.000000	49.430712
1580.000000	49.403101
1579.000000	49.395494
1578.000000	49.405406
1577.000000	49.370262
1576.000000	49.335690
1575.000000	49.324733
1574.000000	49.300090
1573.000000	49.271565
1572.000000	49.259204
1571.000000	49.237714
1570.000000	49.201315
1569.000000	49.199051
1568.000000	49.183979
1567.000000	49.156466
1566.000000	49.146699
1565.000000	49.139721
1564.000000	49.120090
1563.000000	49.112390
1562.000000	49.089053
1561.000000	49.065544
1560.000000	49.084891
1559.000000	49.067896
1558.000000	49.028893
1557.000000	49.019831
1556.000000	49.010214
1555.000000	48.999514
1554.000000	48.998112
1553.000000	48.976672
1552.000000	48.979853
1551.000000	48.959933
1550.000000	48.941623
1549.000000	48.908448
1548.000000	48.883546
1547.000000	48.874616
1546.000000	48.845631
1545.000000	48.829836
1544.000000	48.770851
1543.000000	48.713739
1542.000000	48.687230
1541.000000	48.633562
1540.000000	48.614997
1539.000000	48.580379
1538.000000	48.538417
1537.000000	48.483104
1536.000000	48.448247
1535.000000	48.410442
1534.000000	48.372805
1533.000000	48.338601
1532.000000	48.289344
1531.000000	48.231672
1530.000000	48.200285
1529.000000	48.168925
1528.000000	48.135503
1527.000000	48.098929
1526.000000	48.058464
1525.000000	48.034011
1524.000000	48.006638
1523.000000	47.998668
1522.000000	47.965162
1521.000000	47.944376
1520.000000	47.919332
1519.000000	47.922978
1518.000000	47.883388
1517.000000	47.854038
1516.000000	47.836056
1515.000000	47.839531
1514.000000	47.830755
1513.000000	47.817644
1512.000000	47.793028
1511.000000	47.783128
1510.000000	47.790969
1509.000000	47.756605
1508.000000	47.770501
1507.000000	47.770596
1506.000000	47.758451
1505.000000	47.788651
1504.000000	47.780138
1503.000000	47.770468
1502.000000	47.776343
1501.000000	47.755028
1500.000000	47.751649
1499.000000	47.770743
1498.000000	47.787225
1497.000000	47.784728
1496.000000	47.803694
1495.000000	47.802944
1494.000000	47.806115
1493.000000	47.825226
1492.000000	47.823773
1491.000000	47.851902
1490.000000	47.882906
1489.000000	47.908602
1488.000000	47.943350
1487.000000	47.951762
1486.000000	47.954522
1485.000000	47.991884
1484.000000	48.008685
1483.000000	48.044310
1482.000000	48.060632
1481.000000	48.102776
1480.000000	48.109234
1479.000000	48.124386
1478.000000	48.147336
1477.000000	48.170995
1476.000000	48.186375
1475.000000	48.209352
1474.000000	48.239073
1473.000000	48.274966
1472.000000	48.309062
1471.000000	48.310206
1470.000000	48.344017
1469.000000	48.349405
1468.000000	48.348484
1467.000000	48.390113
1466.000000	48.404413
1465.000000	48.445573
1464.000000	48.452025
1463.000000	48.449527
1462.000000	48.468227
1461.000000	48.490801
1460.000000	48.530774
1459.000000	48.537837
1458.000000	48.581854
1457.000000	48.598546
1456.000000	48.600548
1455.000000	48.655956
1454.000000	48.687137
1453.000000	48.694934
1452.000000	48.738630
1451.000000	48.762269
1450.000000	48.802961
1449.000000	48.799152
1448.000000	48.844201
1447.000000	48.860807
1446.000000	48.909247
1445.000000	48.953030
1444.000000	48.988167
1443.000000	49.021178
1442.000000	49.062951
1441.000000	49.101051
1440.000000	49.149098
1439.000000	49.180967
1438.000000	49.212134
1437.000000	49.273833
1436.000000	49.330393
1435.000000	49.375143
1434.000000	49.418530
1433.000000	49.486392
1432.000000	49.532750
1431.000000	49.579176
1430.000000	49.628567
1429.000000	49.689957
1428.000000	49.755346
1427.000000	49.813468
1426.000000	49.875945
1425.000000	49.943838
1424.000000	50.012277
1423.000000	50.078676
1422.000000	50.151662
1421.000000	50.219395
1420.000000	50.296709
1419.000000	50.360500
1418.000000	50.444938
1417.000000	50.523651
1416.000000	50.590483
1415.000000	50.671733
1414.000000	50.749337
1413.000000	50.809744
1412.000000	50.904460
1411.000000	50.980056
1410.000000	51.061008
1409.000000	51.131845
1408.000000	51.209222
1407.000000	51.283443
1406.000000	51.354770
1405.000000	51.419037
1404.000000	51.481397
1403.000000	51.553031
1402.000000	51.600200
1401.000000	51.661175
1400.000000	51.733705
1399.000000	51.788015
1398.000000	51.856841
1397.000000	51.912532
1396.000000	51.975004
1395.000000	52.027333
1394.000000	52.063625
1393.000000	52.121291
1392.000000	52.160590
1391.000000	52.211329
1390.000000	52.267991
1389.000000	52.308229
1388.000000	52.332487
1387.000000	52.355753
1386.000000	52.392367
1385.000000	52.434406
1384.000000	52.475528
1383.000000	52.508196
1382.000000	52.553451
1381.000000	52.581640
1380.000000	52.597801
1379.000000	52.629412
1378.000000	52.664617
1377.000000	52.697755
1376.000000	52.720251
1375.000000	52.739005
1374.000000	52.761032
1373.000000	52.781023
1372.000000	52.799588
1371.000000	52.823925
1370.000000	52.850472
1369.000000	52.873300
1368.000000	52.886572
1367.000000	52.907810
1366.000000	52.926522
1365.000000	52.940784
1364.000000	52.957817
1363.000000	52.975852
1362.000000	52.995674
1361.000000	53.018535
1360.000000	53.029819
1359.000000	53.034117
1358.000000	53.054741
1357.000000	53.061724
1356.000000	53.064732
1355.000000	53.088097
1354.000000	53.093392
1353.000000	53.116584
1352.000000	53.150180
1351.000000	53.154969
1350.000000	53.163295
1349.000000	53.188304
1348.000000	53.218166
1347.000000	53.231525
1346.000000	53.243579
1345.000000	53.257325
1344.000000	53.281515
1343.000000	53.295372
1342.000000	53.302301
1341.000000	53.333509
1340.000000	53.338358
1339.000000	53.358200
1338.000000	53.370294
1337.000000	53.380115
1336.000000	53.393883
1335.000000	53.408297
1334.000000	53.402820
1333.000000	53.408893
1332.000000	53.425308
1331.000000	53.427221
1330.000000	53.423043
1329.000000	53.437499
1328.000000	53.433825
1327.000000	53.447248
1326.000000	53.457747
1325.000000	53.499016
1324.000000	53.548530
1323.000000	53.575128
1322.000000	53.591800
1321.000000	53.597096
1320.000000	53.574159
1319.000000	53.548808
1318.000000	53.539226
1317.000000	53.520298
1316.000000	53.527757
1315.000000	53.568405
1314.000000	53.574485
1313.000000	53.559804
1312.000000	53.577640
1311.000000	53.559780
1310.000000	53.568991
1309.000000	53.588776
1308.000000	53.564467
1307.000000	53.580703
1306.000000	53.593667
1305.000000	53.599954
1304.000000	53.596683
1303.000000	53.591250
1302.000000	53.605736
1301.000000	53.632219
1300.000000	53.617057
1299.000000	53.619150
1298.000000	53.616229
1297.000000	53.608254
1296.000000	53.616625
1295.000000	53.619022
1294.000000	53.611915
1293.000000	53.616863
1292.000000	53.596628
1291.000000	53.607446
1290.000000	53.598486
1289.000000	53.602142
1288.000000	53.603784
1287.000000	53.547784
1286.000000	53.552980
1285.000000	53.563607
1284.000000	53.557881
1283.000000	53.561280
1282.000000	53.574538
1281.000000	53.550123
1280.000000	53.552747
1279.000000	53.562102
1278.000000	53.548571
1277.000000	53.554651
1276.000000	53.550648
1275.000000	53.551524
1274.000000	53.542744
1273.000000	53.532061
1272.000000	53.521705
1271.000000	53.519332
1270.000000	53.505448
1269.000000	53.503902
1268.000000	53.511467
1267.000000	53.516583
1266.000000	53.512389
1265.000000	53.482042
1264.000000	53.517129
1263.000000	53.523208
1262.000000	53.544417
1261.000000	53.544180
1260.000000	53.540171
1259.000000	53.549664
1258.000000	53.536472
1257.000000	53.520359
1256.000000	53.538361
1255.000000	53.562225
1254.000000	53.551331
1253.000000	53.555956
1252.000000	53.551373
1251.000000	53.535830
1250.000000	53.544640
1249.000000	53.553338
1248.000000	53.544916
1247.000000	53.542314
1246.000000	53.539802
1245.000000	53.553032
1244.000000	53.532810
1243.000000	53.518974
1242.000000	53.497231
1241.000000	53.492719
1240.000000	53.500238
1239.000000	53.478174
1238.000000	53.455908
1237.000000	53.459750
1236.000000	53.456435
1235.000000	53.450677
1234.000000	53.416238
1233.000000	53.424515
1232.000000	53.424689
1231.000000	53.397912
1230.000000	53.407431
1229.000000	53.363509
1228.000000	53.362330
1227.000000	53.355838
1226.000000	53.339660
1225.000000	53.327781
1224.000000	53.319631
1223.000000	53.312137
1222.000000	53.309614
1221.000000	53.284233
1220.000000	53.272224
1219.000000	53.256350
1218.000000	53.237472
1217.000000	53.224054
1216.000000	53.204023
1215.000000	53.178648
1214.000000	53.157220
1213.000000	53.167289
1212.000000	53.171878
1211.000000	53.188978
1210.000000	53.188824
1209.000000	53.162552
1208.000000	53.130199
1207.000000	53.120417
1206.000000	53.099122
1205.000000	53.093461
1204.000000	53.098563
1203.000000	53.097126
1202.000000	53.074990
1201.000000	53.090666
1200.000000	53.070631
1199.000000	53.039730
1198.000000	53.051840
1197.000000	53.057809
1196.000000	53.054378
1195.000000	53.040745
1194.000000	53.035815
1193.000000	53.035609
1192.000000	53.031863
1191.000000	53.015249
1190.000000	52.998226
1189.000000	52.955745
1188.000000	52.955566
1187.000000	52.962191
1186.000000	52.963465
1185.000000	52.974490
1184.000000	52.967659
1183.000000	52.966666
1182.000000	52.980682
1181.000000	52.994739
1180.000000	52.989785
1179.000000	53.002152
1178.000000	53.024128
1177.000000	53.035362
1176.000000	53.038150
1175.000000	53.055155
1174.000000	53.073479
1173.000000	53.082572
1172.000000	53.095462
1171.000000	53.116644
1170.000000	53.130969
1169.000000	53.142067
1168.000000	53.163211
1167.000000	53.186023
1166.000000	53.203150
1165.000000	53.223514
1164.000000	53.236795
1163.000000	53.254707
1162.000000	53.282800
1161.000000	53.284433
1160.000000	53.285396
1159.000000	53.306673
1158.000000	53.320819
1157.000000	53.347985
1156.000000	53.374173
1155.000000	53.385833
1154.000000	53.391964
1153.000000	53.409933
1152.000000	53.423801
1151.000000	53.437541
1150.000000	53.463801
1149.000000	53.478783
1148.000000	53.486818
1147.000000	53.502163
1146.000000	53.517358
1145.000000	53.530797
1144.000000	53.543585
1143.000000	53.556242
1142.000000	53.560755
1141.000000	53.543664
1140.000000	53.552370
1139.000000	53.565083
1138.000000	53.577508
1137.000000	53.590385
1136.000000	53.597619
1135.000000	53.606734
1134.000000	53.616849
1133.000000	53.623295
1132.000000	53.630033
1131.000000	53.637881
1130.000000	53.646283
1129.000000	53.658683
1128.000000	53.646148
1127.000000	53.634068
1126.000000	53.630935
1125.000000	53.639386
1124.000000	53.651690
1123.000000	53.663716
1122.000000	53.659768
1121.000000	53.672434
1120.000000	53.675706
1119.000000	53.671264
1118.000000	53.666802
1117.000000	53.665820
1116.000000	53.681218
1115.000000	53.670975
1114.000000	53.675172
1113.000000	53.679704
1112.000000	53.663113
1111.000000	53.645763
1110.000000	53.649834
1109.000000	53.639839
1108.000000	53.660940
1107.000000	53.658588
1106.000000	53.655878
1105.000000	53.663532
1104.000000	53.665653
1103.000000	53.651724
1102.000000	53.660426
1101.000000	53.649283
1100.000000	53.638933
1099.000000	53.635514
1098.000000	53.655691
1097.000000	53.659743
1096.000000	53.659031
1095.000000	53.643974
1094.000000	53.621637
1093.000000	53.606489
1092.000000	53.603698
1091.000000	53.616251
1090.000000	53.608108
1089.000000	53.621383
1088.000000	53.632267
1087.000000	53.599749
1086.000000	53.589691
1085.000000	53.597474
1084.000000	53.615327
1083.000000	53.600092
1082.000000	53.614311
1081.000000	53.597197
1080.000000	53.580873
1079.000000	53.574370
1078.000000	53.572086
1077.000000	53.602651
1076.000000	53.574678
1075.000000	53.578353
1074.000000	53.559635
1073.000000	53.566856
1072.000000	53.563881
1071.000000	53.550974
1070.000000	53.557256
1069.000000	53.562254
1068.000000	53.564965
1067.000000	53.531757
1066.000000	53.533434
1065.000000	53.535636
1064.000000	53.528835
1063.000000	53.529072
1062.000000	53.523461
1061.000000	53.539781
1060.000000	53.515720
1059.000000	53.535690
1058.000000	53.526220
1057.000000	53.532646
1056.000000	53.515367
1055.000000	53.515652
1054.000000	53.496042
1053.000000	53.506772
1052.000000	53.495466
1051.000000	53.481375
1050.000000	53.464103
1049.000000	53.481485
1048.000000	53.451492
1047.000000	53.434030
1046.000000	53.464551
1045.000000	53.451281
1044.000000	53.460411
1043.000000	53.437099
1042.000000	53.438666
1041.000000	53.449540
1040.000000	53.438009
1039.000000	53.445365
1038.000000	53.429673
1037.000000	53.419056
1036.000000	53.417556
1035.000000	53.411748
1034.000000	53.412886
1033.000000	53.401068
1032.000000	53.395838
1031.000000	53.392391
1030.000000	53.386997
1029.000000	53.368602
1028.000000	53.381238
1027.000000	53.372491
1026.000000	53.384923
1025.000000	53.369649
1024.000000	53.358179
1023.000000	53.343083
1022.000000	53.330163
1021.000000	53.331997
1020.000000	53.335310
1019.000000	53.347092
1018.000000	53.339105
1017.000000	53.337546
1016.000000	53.308540
1015.000000	53.299445
1014.000000	53.309998
1013.000000	53.320431
1012.000000	53.307880
1011.000000	53.297627
1010.000000	53.289837
1009.000000	53.284170
1008.000000	53.279210
1007.000000	53.265811
1006.000000	53.274103
1005.000000	53.264522
1004.000000	53.263569
1003.000000	53.267447
1002.000000	53.267275
1001.000000	53.275185
1000.000000	53.259381
999.000000	53.254235
998.000000	53.270687
997.000000	53.247386
996.000000	53.237162
995.000000	53.231941
994.000000	53.239560
993.000000	53.225570
992.000000	53.218048
991.000000	53.215584
990.000000	53.208303
989.000000	53.204905
988.000000	53.199377
987.000000	53.187135
986.000000	53.185689
985.000000	53.171812
984.000000	53.182063
983.000000	53.198413
982.000000	53.194368
981.000000	53.187821
980.000000	53.188370
979.000000	53.181517
978.000000	53.180291
977.000000	53.166145
976.000000	53.165192
975.000000	53.149932
974.000000	53.168181
973.000000	53.175968
972.000000	53.179210
971.000000	53.172288
970.000000	53.150986
969.000000	53.148219
968.000000	53.136798
967.000000	53.129596
966.000000	53.143733
965.000000	53.143757
964.000000	53.147284
963.000000	53.151453
962.000000	53.162000
961.000000	53.152325
960.000000	53.144641
959.000000	53.133619
958.000000	53.125640
957.000000	53.115668
956.000000	53.114330
955.000000	53.112129
954.000000	53.119519
953.000000	53.111008
952.000000	53.103394
951.000000	53.113282
950.000000	53.100236
949.000000	53.097414
948.000000	53.080952
947.000000	53.060516
946.000000	53.059154
945.000000	53.068776
944.000000	53.080574
943.000000	53.080773
942.000000	53.054581
941.000000	53.024065
940.000000	53.066030
939.000000	53.078212
938.000000	53.027677
937.000000	53.024891
936.000000	53.015005
935.000000	53.006598
934.000000	53.017111
933.000000	53.005612
932.000000	52.999128
931.000000	52.999681
930.000000	52.997104
929.000000	52.965592
928.000000	52.954628
927.000000	52.971879
926.000000	52.970865
925.000000	52.949755
924.000000	52.969106
923.000000	52.962566
922.000000	52.956040
921.000000	52.936739
920.000000	52.941737
919.000000	52.904969
918.000000	52.853929
917.000000	52.898248
916.000000	52.916986
915.000000	52.909572
914.000000	52.878879
913.000000	52.917502
912.000000	52.934536
911.000000	52.853913
910.000000	52.863502
909.000000	52.891528
908.000000	52.913330
907.000000	52.912967
906.000000	52.829345
905.000000	52.863393
904.000000	52.859513
903.000000	52.812418
902.000000	52.807101
901.000000	52.831041
900.000000	52.791429
899.000000	52.725983
898.000000	52.779813
897.000000	52.799510
896.000000	52.786356
895.000000	52.749709
894.000000	52.824730
893.000000	52.882544
892.000000	52.873315
891.000000	52.785667
890.000000	52.782965
889.000000	52.708233
888.000000	52.629767
887.000000	52.747839
886.000000	52.792302
885.000000	52.724180
884.000000	52.695115
883.000000	52.707525
882.000000	52.720353
881.000000	52.706237
880.000000	52.679639
879.000000	52.653344
878.000000	52.708994
877.000000	52.673701
876.000000	52.620927
875.000000	52.643782
874.000000	52.655091
873.000000	52.594079
872.000000	52.692953
871.000000	52.643721
870.000000	52.667592
869.000000	52.556487
868.000000	52.557830
867.000000	52.636191
866.000000	52.544686
865.000000	52.594337
864.000000	52.720967
863.000000	52.623776
862.000000	52.663909
861.000000	52.487138
860.000000	52.539616
859.000000	52.305200
858.000000	52.450309
857.000000	52.388509
856.000000	52.168311
855.000000	52.339801
854.000000	52.576088
853.000000	52.330029
852.000000	52.186887
851.000000	52.185813
850.000000	52.279121
849.000000	52.199246
848.000000	52.000809
847.000000	52.341608
846.000000	52.291107
845.000000	52.323927
844.000000	52.223825
843.000000	52.190039
842.000000	52.261816
841.000000	52.229073
840.000000	52.200462
839.000000	52.290817
838.000000	52.221540
837.000000	52.198546
836.000000	52.089681
835.000000	52.002112
834.000000	52.080792
833.000000	51.922689
832.000000	51.873032
831.000000	52.064526
830.000000	52.222368
829.000000	51.924863
828.000000	51.842392
827.000000	52.139695
826.000000	51.864132
825.000000	51.972712
824.000000	51.938255
823.000000	51.925529
822.000000	51.889827
821.000000	51.739134
820.000000	51.741000
819.000000	51.958653
818.000000	51.677912
817.000000	51.801909
816.000000	51.796508
815.000000	51.802454
814.000000	51.754694
813.000000	51.657964
812.000000	51.688883
811.000000	51.773339
810.000000	51.756286
809.000000	51.712891
808.000000	51.759206
807.000000	51.600132
806.000000	51.680211
805.000000	51.593183
804.000000	51.683664
803.000000	51.572203
802.000000	51.490856
801.000000	51.573367
800.000000	51.547085
799.000000	51.568419
798.000000	51.649349
797.000000	51.593805
796.000000	51.513227
795.000000	51.515315
794.000000	51.510759
793.000000	51.541670
792.000000	51.418971
791.000000	51.446229
790.000000	51.368341
789.000000	51.384354
788.000000	51.334937
787.000000	51.408833
786.000000	51.400337
785.000000	51.306078
784.000000	51.290364
783.000000	51.340917
782.000000	51.206477
781.000000	51.236102
780.000000	51.180404
779.000000	51.168588
778.000000	51.304277
777.000000	51.158798
776.000000	51.140912
775.000000	51.236736
774.000000	51.140586
773.000000	51.146744
772.000000	51.133257
771.000000	51.225064
770.000000	51.122583
769.000000	50.994374
768.000000	50.995281
767.000000	51.023913
766.000000	51.042171
765.000000	50.966273
764.000000	50.900244
763.000000	51.019703
762.000000	50.960648
761.000000	50.899155
760.000000	50.838713
759.000000	50.858190
758.000000	50.829956
757.000000	50.841749
756.000000	50.790022
755.000000	50.784239
754.000000	50.717791
753.000000	50.731089
752.000000	50.735709
751.000000	50.628234
750.000000	50.616393
749.000000	50.626665
748.000000	50.621016
747.000000	50.580710
746.000000	50.544074
745.000000	50.534941
744.000000	50.499603
743.000000	50.472144
742.000000	50.492133
741.000000	50.446642
740.000000	50.425207
739.000000	50.446147
738.000000	50.384454
737.000000	50.339888
736.000000	50.320223
735.000000	50.318600
734.000000	50.220663
733.000000	50.204772
732.000000	50.201104
731.000000	50.188987
730.000000	50.185367
729.000000	50.128704
728.000000	50.068900
727.000000	50.052933
726.000000	50.104712
725.000000	50.075267
724.000000	49.992550
723.000000	49.963104
722.000000	49.928872
721.000000	49.905346
720.000000	49.867014
719.000000	49.840313
718.000000	49.902578
717.000000	49.850843
716.000000	49.753609
715.000000	49.771736
714.000000	49.723307
713.000000	49.652983
712.000000	49.652756
711.000000	49.670972
710.000000	49.655451
709.000000	49.603497
708.000000	49.528773
707.000000	49.463361
706.000000	49.448173
705.000000	49.408737
704.000000	49.417278
703.000000	49.403490
702.000000	49.347065
701.000000	49.320797
700.000000	49.278156
699.000000	49.220362
698.000000	49.173492
697.000000	49.150118
696.000000	49.123779
695.000000	49.045686
694.000000	49.025465
693.000000	49.031579
692.000000	48.977385
691.000000	48.963690
690.000000	48.943595
689.000000	48.859565
688.000000	48.785549
687.000000	48.738069
686.000000	48.709820
685.000000	48.679707
684.000000	48.637113
683.000000	48.600387
682.000000	48.544807
681.000000	48.513085
680.000000	48.474558
679.000000	48.403156
678.000000	48.381526
677.000000	48.356648
676.000000	48.291971
675.000000	48.241499
674.000000	48.219837
673.000000	48.174308
672.000000	48.124953
671.000000	48.116997
670.000000	48.057988
669.000000	48.003649
668.000000	47.974982
667.000000	47.892565
666.000000	47.867982
665.000000	47.862377
664.000000	47.767065
663.000000	47.704164
662.000000	47.689023
661.000000	47.608156
660.000000	47.555499
659.000000	47.530709
658.000000	47.464636
657.000000	47.406279
656.000000	47.323073
655.000000	47.288011
654.000000	47.262712
653.000000	47.196214
652.000000	47.121686
651.000000	47.098779
650.000000	47.099639
649.000000	47.007323
648.000000	46.925363
647.000000	46.892606
646.000000	46.818348
645.000000	46.761506
644.000000	46.719701
643.000000	46.646672
642.000000	46.635138
641.000000	46.610490
640.000000	46.572974
639.000000	46.473273
638.000000	46.404778
637.000000	46.417065
636.000000	46.344135
635.000000	46.238805
634.000000	46.203972
633.000000	46.148955
632.000000	46.069960
631.000000	46.040505
630.000000	46.000937
629.000000	45.912205
628.000000	45.862858
627.000000	45.803949
626.000000	45.688517
625.000000	45.626265
624.000000	45.627637
623.000000	45.551931
622.000000	45.433496
621.000000	45.425357
620.000000	45.342752
619.000000	45.281643
618.000000	45.248138
617.000000	45.157055
616.000000	45.085842
615.000000	44.998872
614.000000	44.878420
613.000000	44.835534
612.000000	44.766252
611.000000	44.728828
610.000000	44.666734
609.000000	44.590160
608.000000	44.527292
607.000000	44.423410
606.000000	44.364852
605.000000	44.274894
604.000000	44.226724
603.000000	44.128131
602.000000	44.024046
601.000000	44.025094
600.000000	43.934853
599.000000	43.803910
598.000000	43.774925
597.000000	43.725933
596.000000	43.611501
595.000000	43.511281
594.000000	43.445277
593.000000	43.370237
592.000000	43.293332
591.000000	43.191694
590.000000	43.147196
589.000000	43.055804
588.000000	42.971330
587.000000	42.872900
586.000000	42.841170
585.000000	42.780639
584.000000	42.648422
583.000000	42.610739
582.000000	42.456512
581.000000	42.384469
580.000000	42.334751
579.000000	42.206203
578.000000	42.118126
577.000000	42.026529
576.000000	41.961713
575.000000	41.862687
574.000000	41.763434
573.000000	41.668034
572.000000	41.611279
571.000000	41.498244
570.000000	41.336841
569.000000	41.308672
568.000000	41.167051
567.000000	41.121640
566.000000	40.984582
565.000000	40.882758
564.000000	40.804902
563.000000	40.693549
562.000000	40.565938
561.000000	40.517150
560.000000	40.407829
559.000000	40.348922
558.000000	40.190674
557.000000	40.092325
556.000000	39.983516
555.000000	39.873636
554.000000	39.727177
553.000000	39.673883
552.000000	39.562992
551.000000	39.423320
550.000000	39.328923
549.000000	39.240160
548.000000	39.129448
547.000000	39.019026
546.000000	38.914116
545.000000	38.808425
544.000000	38.684039
543.000000	38.553225
542.000000	38.430678
541.000000	38.346941
540.000000	38.219853
539.000000	38.119508
538.000000	37.990142
537.000000	37.909922
536.000000	37.765739
535.000000	37.670412
534.000000	37.539726
533.000000	37.412619
532.000000	37.299213
531.000000	37.195074
530.000000	37.072759
529.000000	36.987765
528.000000	36.829357
527.000000	36.700876
526.000000	36.580030
525.000000	36.420480
524.000000	36.304351
523.000000	36.223819
522.000000	36.072625
521.000000	35.956641
520.000000	35.838385
519.000000	35.715475
518.000000	35.584973
517.000000	35.458731
516.000000	35.307370
515.000000	35.187799
514.000000	35.067485
513.000000	34.938189
512.000000	34.802022
511.000000	34.680426
510.000000	34.568691
509.000000	34.423245
508.000000	34.286190
507.000000	34.164763
506.000000	34.015174
505.000000	33.896737
504.000000	33.751063
503.000000	33.623537
502.000000	33.495494
501.000000	33.331837
500.000000	33.227608
499.000000	33.107720
498.000000	32.972036
497.000000	32.849558
496.000000	32.720778
495.000000	32.598460
494.000000	32.438615
493.000000	32.280761
492.000000	32.175043
491.000000	32.049209
490.000000	31.917377
489.000000	31.771856
488.000000	31.648006
487.000000	31.538348
486.000000	31.376251
485.000000	31.225068
484.000000	31.121774
483.000000	31.015974
482.000000	30.865396
481.000000	30.747358
480.000000	30.589383
479.000000	30.447024
478.000000	30.321575
477.000000	30.178326
476.000000	30.032883
475.000000	29.892817
474.000000	29.763040
473.000000	29.632238
472.000000	29.488923
471.000000	29.342714
470.000000	29.201417
469.000000	29.061751
468.000000	28.914207
467.000000	28.757003
466.000000	28.623118
465.000000	28.494830
464.000000	28.335064
463.000000	28.185120
462.000000	28.044477
461.000000	27.876438
460.000000	27.719099
459.000000	27.583327
458.000000	27.422274
457.000000	27.258565
456.000000	27.089231
455.000000	26.923609
454.000000	26.758741
453.000000	26.589694
452.000000	26.423585
451.000000	26.253387
450.000000	26.086515
449.000000	25.920902
448.000000	25.741271
447.000000	25.588228
446.000000	25.430448
445.000000	25.268652
444.000000	25.107032
443.000000	24.959235
442.000000	24.802698
441.000000	24.651510
440.000000	24.497788
439.000000	24.343223
438.000000	24.199390
437.000000	24.073498
436.000000	23.910172
435.000000	23.752771
434.000000	23.615930
433.000000	23.463972
432.000000	23.333821
431.000000	23.205514
430.000000	23.063989
429.000000	22.876628
428.000000	22.721232
427.000000	22.606470
426.000000	22.452157
425.000000	22.323200
424.000000	22.182845
423.000000	22.022248
422.000000	21.856304
421.000000	21.717042
420.000000	21.586288
419.000000	21.440623
418.000000	21.258653
417.000000	21.088747
416.000000	20.953294
415.000000	20.804249
414.000000	20.632754
413.000000	20.448809
412.000000	20.314130
411.000000	20.164090
410.000000	19.988193
409.000000	19.831545
408.000000	19.677520
407.000000	19.517655
406.000000	19.355638
405.000000	19.227911
404.000000	19.022496
403.000000	18.899017
402.000000	18.760442
401.000000	18.599745
400.000000	18.437917
399.000000	18.292886
398.000000	18.152315
397.000000	17.980788
396.000000	17.840292
395.000000	17.690078
394.000000	17.544389
393.000000	17.354908
392.000000	17.215180
391.000000	17.061280
390.000000	16.954496
389.000000	16.780849
388.000000	16.653721
387.000000	16.518483
386.000000	16.347040
385.000000	16.214418
384.000000	16.025196
383.000000	15.881533
382.000000	15.749757
381.000000	15.580055
380.000000	15.445904
379.000000	15.285021
378.000000	15.141184
377.000000	15.084335
376.000000	14.928089
375.000000	14.832578
374.000000	14.587715
373.000000	14.476572
372.000000	14.362953
371.000000	14.236652
370.000000	14.058507
369.000000	13.901171
368.000000	13.792696
367.000000	13.679965
366.000000	13.563969
365.000000	13.421749
364.000000	13.256353
363.000000	13.150833
362.000000	13.048395
361.000000	12.943764
360.000000	12.827254
359.000000	12.693349
358.000000	12.504785
357.000000	12.407935
356.000000	12.322633
355.000000	12.206711
354.000000	12.138199
353.000000	11.977509
352.000000	11.908325
351.000000	11.842543
350.000000	11.697008
349.000000	11.595950
348.000000	11.461981
347.000000	11.400575
346.000000	11.284769
345.000000	11.226343
344.000000	11.130426
343.000000	11.082371
342.000000	10.908188
341.000000	10.852005
340.000000	10.690174
339.000000	10.640013
338.000000	10.584812
337.000000	10.457614
336.000000	10.340939
335.000000	10.302289
334.000000	10.168812
333.000000	10.064629
332.000000	10.051996
331.000000	9.956510
330.000000	9.820678
329.000000	9.764559
328.000000	9.638137
327.000000	9.624850
326.000000	9.461959
325.000000	9.377582
324.000000	9.327917
323.000000	9.311258
322.000000	9.176842
321.000000	9.124277
320.000000	9.100112
319.000000	9.064344
318.000000	9.024613
317.000000	9.029239
316.000000	8.993823
315.000000	8.962986
314.000000	8.940206
313.000000	8.859721
312.000000	8.783301
311.000000	8.784342
310.000000	8.744266
309.000000	8.793111
308.000000	8.731184
307.000000	8.693968
306.000000	8.654278
305.000000	8.645545
304.000000	8.631198
303.000000	8.614160
302.000000	8.595816
301.000000	8.618515
300.000000	8.579866
299.000000	8.547100
298.000000	8.528538
297.000000	8.504906
296.000000	8.551995
295.000000	8.503080
294.000000	8.537817
293.000000	8.499051
292.000000	8.477593
291.000000	8.438604
290.000000	8.454690
289.000000	8.423868
288.000000	8.414645
287.000000	8.445366
286.000000	8.479104
285.000000	8.484803
284.000000	8.494145
283.000000	8.506805
282.000000	8.566236
281.000000	8.557898
280.000000	8.606142
279.000000	8.631777
278.000000	8.649596
277.000000	8.705750
276.000000	8.766480
275.000000	8.788316
274.000000	8.818970
273.000000	8.914517
272.000000	8.990853
271.000000	9.057830
270.000000	9.115093
269.000000	9.141331
268.000000	9.147678
267.000000	9.237181
266.000000	9.362882
265.000000	9.431722
264.000000	9.470939
263.000000	9.527881
262.000000	9.622541
261.000000	9.779148
260.000000	9.863283
259.000000	9.899012
258.000000	9.961591
257.000000	10.070770
256.000000	10.171959
255.000000	10.307403
254.000000	10.401023
253.000000	10.563499
252.000000	10.654312
251.000000	10.753254
250.000000	10.835707
249.000000	10.943328
248.000000	11.024171
247.000000	11.146327
246.000000	11.287431
245.000000	11.345100
244.000000	11.371733
243.000000	11.426669
242.000000	11.489932
241.000000	11.545708
240.000000	11.596280
239.000000	11.607582
238.000000	11.640961
237.000000	11.667435
236.000000	11.671815
235.000000	11.674300
234.000000	11.733194
233.000000	11.721810
232.000000	11.739121
231.000000	11.769760
230.000000	11.777356
229.000000	11.823322
228.000000	11.849202
227.000000	11.876219
226.000000	11.972757
225.000000	12.100230
224.000000	12.150523
223.000000	12.233083
222.000000	12.379741
221.000000	12.506703
220.000000	12.699303
219.000000	12.859601
218.000000	12.948156
217.000000	13.078681
216.000000	13.277226
215.000000	13.464718
214.000000	13.772807
213.000000	14.015597
212.000000	14.054504
211.000000	14.327644
210.000000	14.822205
209.000000	15.164851
208.000000	15.405253
207.000000	15.771296
206.000000	16.130609
205.000000	16.573062
204.000000	17.125797
203.000000	17.738789
202.000000	18.257298
201.000000	18.823801
200.000000	19.508714
