PE UV       SUBTECH     SPECTRUM    ASCII       PEDS        4.00        
   -1
RDmsfkat92.Sample.asc
18/03/20
14:39:28.00
18/03/20
14:39:28.00
Administrator

200.000000
1
Lambda 750
750N8071901
PerkinElmer UV WinLab 6.0.4.0738 / 1.61.00 Lambda 900

0
0
3350/servo 860.8/2
0
0
UV/VIS
1
1
1
CommonBeamDepol,150mm sphere / downward view
0
0
0
0
Program
Program
3350/servo 860.8/2
3350/0.2 860.8/0.2
3350/0.2 860.8/0.2
0
1
 
 
 
0
 
860.8
319.2
860.8
Front
100
on
 
 
0
0
0
 
0
 
 
 
0
 
 
0
0
0
0
0
 
 
 
 
0
0


0
0
#HDR
-1
-1
#GR
nm
%R
1.0
0.0
2350.000000
-1.000000
2151
8
59.956602
10.854741
#DATA
2350.000000	26.133106
2349.000000	26.499444
2348.000000	26.129072
2347.000000	26.746337
2346.000000	26.211941
2345.000000	26.253046
2344.000000	26.059561
2343.000000	25.703371
2342.000000	25.853377
2341.000000	26.124413
2340.000000	26.214949
2339.000000	26.289507
2338.000000	26.463821
2337.000000	26.506275
2336.000000	26.732157
2335.000000	26.512077
2334.000000	26.877266
2333.000000	26.977706
2332.000000	26.889660
2331.000000	26.974305
2330.000000	26.572194
2329.000000	26.825316
2328.000000	27.146293
2327.000000	26.799004
2326.000000	26.653159
2325.000000	26.615992
2324.000000	26.804393
2323.000000	26.588324
2322.000000	26.447440
2321.000000	26.783312
2320.000000	26.717884
2319.000000	26.517256
2318.000000	26.661406
2317.000000	26.642328
2316.000000	26.444123
2315.000000	26.151631
2314.000000	25.953600
2313.000000	25.894981
2312.000000	26.277284
2311.000000	26.165776
2310.000000	25.709198
2309.000000	25.944396
2308.000000	25.904850
2307.000000	25.851618
2306.000000	25.855567
2305.000000	25.803764
2304.000000	25.847250
2303.000000	25.326915
2302.000000	25.253841
2301.000000	25.476803
2300.000000	25.210590
2299.000000	25.196668
2298.000000	25.073706
2297.000000	24.885303
2296.000000	25.194770
2295.000000	25.217593
2294.000000	24.903556
2293.000000	24.690754
2292.000000	24.451889
2291.000000	24.633298
2290.000000	24.672407
2289.000000	24.646770
2288.000000	24.691035
2287.000000	24.702070
2286.000000	24.556486
2285.000000	24.418918
2284.000000	24.423936
2283.000000	24.434307
2282.000000	24.516090
2281.000000	24.428853
2280.000000	24.374271
2279.000000	24.571773
2278.000000	24.442231
2277.000000	24.210271
2276.000000	24.428181
2275.000000	24.358486
2274.000000	24.335157
2273.000000	24.580938
2272.000000	24.694608
2271.000000	24.739306
2270.000000	24.746594
2269.000000	24.789467
2268.000000	24.776102
2267.000000	24.819072
2266.000000	24.914015
2265.000000	24.938274
2264.000000	25.175620
2263.000000	25.325819
2262.000000	25.355684
2261.000000	25.493971
2260.000000	25.629536
2259.000000	25.925858
2258.000000	26.172892
2257.000000	26.346997
2256.000000	26.452395
2255.000000	26.483047
2254.000000	26.637264
2253.000000	26.900948
2252.000000	26.955569
2251.000000	26.934402
2250.000000	27.207967
2249.000000	27.627241
2248.000000	27.703065
2247.000000	27.837256
2246.000000	28.207117
2245.000000	28.445679
2244.000000	28.580753
2243.000000	28.718392
2242.000000	28.774630
2241.000000	28.825772
2240.000000	28.940259
2239.000000	29.059969
2238.000000	29.233156
2237.000000	29.425960
2236.000000	29.410667
2235.000000	29.417692
2234.000000	29.506989
2233.000000	29.642795
2232.000000	29.831934
2231.000000	29.849970
2230.000000	29.807726
2229.000000	29.759653
2228.000000	29.760823
2227.000000	29.753683
2226.000000	29.740829
2225.000000	29.770823
2224.000000	29.949874
2223.000000	29.974544
2222.000000	29.831557
2221.000000	29.770273
2220.000000	29.791469
2219.000000	29.803115
2218.000000	29.617965
2217.000000	29.573826
2216.000000	29.741826
2215.000000	29.661063
2214.000000	29.471192
2213.000000	29.487029
2212.000000	29.461272
2211.000000	29.357338
2210.000000	29.396771
2209.000000	29.368203
2208.000000	29.168846
2207.000000	29.093111
2206.000000	29.054356
2205.000000	29.067566
2204.000000	29.013720
2203.000000	28.743872
2202.000000	28.904772
2201.000000	28.844814
2200.000000	28.799395
2199.000000	28.669102
2198.000000	28.592371
2197.000000	28.627682
2196.000000	28.482676
2195.000000	28.348942
2194.000000	28.237394
2193.000000	28.166064
2192.000000	28.194272
2191.000000	28.055614
2190.000000	28.184852
2189.000000	28.037901
2188.000000	27.875053
2187.000000	27.796417
2186.000000	27.833256
2185.000000	27.893934
2184.000000	27.864189
2183.000000	27.925954
2182.000000	27.902373
2181.000000	27.867179
2180.000000	27.671690
2179.000000	27.766414
2178.000000	27.988961
2177.000000	27.905973
2176.000000	27.757778
2175.000000	27.792357
2174.000000	27.939848
2173.000000	27.814297
2172.000000	27.882408
2171.000000	28.086606
2170.000000	28.013452
2169.000000	28.160762
2168.000000	28.408358
2167.000000	28.392112
2166.000000	28.414886
2165.000000	28.486718
2164.000000	28.603674
2163.000000	28.570376
2162.000000	28.618761
2161.000000	28.644976
2160.000000	28.970721
2159.000000	28.989632
2158.000000	28.978146
2157.000000	29.112012
2156.000000	29.441983
2155.000000	29.576515
2154.000000	29.605732
2153.000000	29.969443
2152.000000	29.870305
2151.000000	29.994692
2150.000000	30.030448
2149.000000	30.375330
2148.000000	30.456701
2147.000000	30.631071
2146.000000	30.503237
2145.000000	30.819200
2144.000000	30.839650
2143.000000	30.992267
2142.000000	31.101433
2141.000000	31.238443
2140.000000	31.457092
2139.000000	31.513671
2138.000000	31.816617
2137.000000	31.889970
2136.000000	31.872716
2135.000000	31.818810
2134.000000	32.150941
2133.000000	32.001275
2132.000000	32.155498
2131.000000	32.386677
2130.000000	32.505486
2129.000000	32.284841
2128.000000	32.413253
2127.000000	32.435485
2126.000000	32.523013
2125.000000	32.539270
2124.000000	32.664024
2123.000000	32.611510
2122.000000	32.722092
2121.000000	32.663162
2120.000000	32.934893
2119.000000	32.882305
2118.000000	32.896276
2117.000000	32.866354
2116.000000	33.082423
2115.000000	33.075047
2114.000000	33.037819
2113.000000	32.961083
2112.000000	33.025348
2111.000000	33.236701
2110.000000	33.174737
2109.000000	33.233926
2108.000000	33.211806
2107.000000	33.129524
2106.000000	33.152785
2105.000000	33.158447
2104.000000	33.260022
2103.000000	33.260619
2102.000000	33.324674
2101.000000	33.288117
2100.000000	33.497320
2099.000000	33.368406
2098.000000	33.412038
2097.000000	33.356203
2096.000000	33.310285
2095.000000	33.434832
2094.000000	33.353069
2093.000000	33.390784
2092.000000	33.392511
2091.000000	33.403507
2090.000000	33.322683
2089.000000	33.317613
2088.000000	33.268032
2087.000000	33.185815
2086.000000	33.270082
2085.000000	33.244883
2084.000000	33.152711
2083.000000	33.032570
2082.000000	33.014631
2081.000000	32.925912
2080.000000	32.883657
2079.000000	32.837142
2078.000000	32.707368
2077.000000	32.627466
2076.000000	32.695281
2075.000000	32.535899
2074.000000	32.475453
2073.000000	32.348152
2072.000000	32.221164
2071.000000	32.150605
2070.000000	32.088418
2069.000000	31.934311
2068.000000	31.783904
2067.000000	31.595883
2066.000000	31.474457
2065.000000	31.343037
2064.000000	31.266492
2063.000000	31.174753
2062.000000	31.064702
2061.000000	30.861263
2060.000000	30.617951
2059.000000	30.507363
2058.000000	30.435945
2057.000000	30.304606
2056.000000	30.186242
2055.000000	30.113782
2054.000000	29.949974
2053.000000	29.771146
2052.000000	29.636257
2051.000000	29.474145
2050.000000	29.443982
2049.000000	29.381496
2048.000000	29.298807
2047.000000	29.278688
2046.000000	29.198776
2045.000000	29.117689
2044.000000	29.097561
2043.000000	29.103012
2042.000000	29.118477
2041.000000	29.138051
2040.000000	29.134686
2039.000000	29.152493
2038.000000	29.227764
2037.000000	29.292361
2036.000000	29.337444
2035.000000	29.340719
2034.000000	29.441609
2033.000000	29.595831
2032.000000	29.677005
2031.000000	29.767005
2030.000000	29.868252
2029.000000	30.001846
2028.000000	30.115043
2027.000000	30.193674
2026.000000	30.312198
2025.000000	30.407306
2024.000000	30.434324
2023.000000	30.526068
2022.000000	30.605727
2021.000000	30.645695
2020.000000	30.701320
2019.000000	30.709038
2018.000000	30.731790
2017.000000	30.769816
2016.000000	30.765186
2015.000000	30.783094
2014.000000	30.777142
2013.000000	30.761735
2012.000000	30.731402
2011.000000	30.691705
2010.000000	30.701039
2009.000000	30.611822
2008.000000	30.524684
2007.000000	30.462630
2006.000000	30.377613
2005.000000	30.265428
2004.000000	30.162380
2003.000000	30.114693
2002.000000	30.067065
2001.000000	29.975248
2000.000000	29.902336
1999.000000	29.834366
1998.000000	29.773640
1997.000000	29.675568
1996.000000	29.582220
1995.000000	29.481231
1994.000000	29.355213
1993.000000	29.281066
1992.000000	29.184223
1991.000000	29.067102
1990.000000	28.982433
1989.000000	28.906961
1988.000000	28.862062
1987.000000	28.721547
1986.000000	28.632480
1985.000000	28.564703
1984.000000	28.528698
1983.000000	28.429040
1982.000000	28.304975
1981.000000	28.233447
1980.000000	28.148530
1979.000000	28.031158
1978.000000	27.965088
1977.000000	27.884738
1976.000000	27.802152
1975.000000	27.747960
1974.000000	27.640611
1973.000000	27.572491
1972.000000	27.499532
1971.000000	27.401431
1970.000000	27.322107
1969.000000	27.243728
1968.000000	27.166869
1967.000000	27.142590
1966.000000	27.040206
1965.000000	26.942405
1964.000000	26.870387
1963.000000	26.780366
1962.000000	26.694764
1961.000000	26.631496
1960.000000	26.523728
1959.000000	26.487881
1958.000000	26.459490
1957.000000	26.386993
1956.000000	26.324094
1955.000000	26.310812
1954.000000	26.231222
1953.000000	26.185897
1952.000000	26.086338
1951.000000	26.123103
1950.000000	26.052872
1949.000000	25.969195
1948.000000	25.994393
1947.000000	25.980575
1946.000000	25.999516
1945.000000	25.979758
1944.000000	25.963100
1943.000000	25.946645
1942.000000	25.889384
1941.000000	26.035892
1940.000000	26.154954
1939.000000	26.203487
1938.000000	26.117888
1937.000000	26.263155
1936.000000	26.300022
1935.000000	26.376829
1934.000000	26.450928
1933.000000	26.612297
1932.000000	26.636090
1931.000000	26.769338
1930.000000	26.991426
1929.000000	27.079845
1928.000000	27.252379
1927.000000	27.500637
1926.000000	27.622151
1925.000000	27.856709
1924.000000	28.054338
1923.000000	28.206280
1922.000000	28.437337
1921.000000	28.765141
1920.000000	28.950658
1919.000000	29.173309
1918.000000	29.428925
1917.000000	29.765756
1916.000000	30.030595
1915.000000	30.375045
1914.000000	30.727022
1913.000000	31.157617
1912.000000	31.363632
1911.000000	31.739030
1910.000000	32.109161
1909.000000	32.472822
1908.000000	32.874344
1907.000000	33.418226
1906.000000	33.743702
1905.000000	34.218081
1904.000000	34.672023
1903.000000	35.136789
1902.000000	35.651207
1901.000000	36.060335
1900.000000	36.563216
1899.000000	37.110583
1898.000000	37.675958
1897.000000	38.153657
1896.000000	38.602903
1895.000000	39.061261
1894.000000	39.547143
1893.000000	40.082787
1892.000000	40.530950
1891.000000	41.064710
1890.000000	41.431667
1889.000000	41.880323
1888.000000	42.321863
1887.000000	42.747195
1886.000000	43.185709
1885.000000	43.604396
1884.000000	43.975229
1883.000000	44.395699
1882.000000	44.657740
1881.000000	45.087609
1880.000000	45.352082
1879.000000	45.661913
1878.000000	45.955994
1877.000000	46.219313
1876.000000	46.447748
1875.000000	46.714721
1874.000000	46.910954
1873.000000	47.133016
1872.000000	47.301238
1871.000000	47.466603
1870.000000	47.613360
1869.000000	47.784841
1868.000000	47.926677
1867.000000	48.044318
1866.000000	48.153428
1865.000000	48.208560
1864.000000	48.323280
1863.000000	48.442057
1862.000000	48.466719
1861.000000	48.572133
1860.000000	48.620483
1859.000000	48.640003
1858.000000	48.710957
1857.000000	48.768791
1856.000000	48.808228
1855.000000	48.849076
1854.000000	48.864817
1853.000000	48.885401
1852.000000	48.897576
1851.000000	48.892526
1850.000000	48.916102
1849.000000	48.935879
1848.000000	48.926466
1847.000000	48.925459
1846.000000	48.931566
1845.000000	48.908429
1844.000000	48.866154
1843.000000	48.844036
1842.000000	48.812677
1841.000000	48.804730
1840.000000	48.776056
1839.000000	48.722787
1838.000000	48.700231
1837.000000	48.615265
1836.000000	48.583981
1835.000000	48.539016
1834.000000	48.513401
1833.000000	48.505575
1832.000000	48.433356
1831.000000	48.366468
1830.000000	48.342917
1829.000000	48.305248
1828.000000	48.273419
1827.000000	48.255373
1826.000000	48.212409
1825.000000	48.190265
1824.000000	48.185549
1823.000000	48.138098
1822.000000	48.088189
1821.000000	48.056435
1820.000000	47.996676
1819.000000	47.949406
1818.000000	47.915774
1817.000000	47.882490
1816.000000	47.833492
1815.000000	47.811780
1814.000000	47.786774
1813.000000	47.760478
1812.000000	47.757760
1811.000000	47.722263
1810.000000	47.675281
1809.000000	47.652202
1808.000000	47.618883
1807.000000	47.591394
1806.000000	47.570299
1805.000000	47.521079
1804.000000	47.489070
1803.000000	47.469239
1802.000000	47.428058
1801.000000	47.415829
1800.000000	47.386087
1799.000000	47.358286
1798.000000	47.354427
1797.000000	47.323906
1796.000000	47.283987
1795.000000	47.269657
1794.000000	47.273770
1793.000000	47.261776
1792.000000	47.251757
1791.000000	47.244386
1790.000000	47.212417
1789.000000	47.180694
1788.000000	47.168182
1787.000000	47.150874
1786.000000	47.125666
1785.000000	47.091392
1784.000000	47.096640
1783.000000	47.066118
1782.000000	47.023047
1781.000000	46.994858
1780.000000	46.960437
1779.000000	46.918576
1778.000000	46.849066
1777.000000	46.795015
1776.000000	46.744443
1775.000000	46.704629
1774.000000	46.663806
1773.000000	46.590644
1772.000000	46.520955
1771.000000	46.489020
1770.000000	46.451152
1769.000000	46.389657
1768.000000	46.318908
1767.000000	46.245865
1766.000000	46.249273
1765.000000	46.185720
1764.000000	46.143215
1763.000000	46.067151
1762.000000	46.036480
1761.000000	45.976578
1760.000000	45.893504
1759.000000	45.835155
1758.000000	45.800381
1757.000000	45.767775
1756.000000	45.711793
1755.000000	45.668305
1754.000000	45.584818
1753.000000	45.548766
1752.000000	45.500055
1751.000000	45.470326
1750.000000	45.417061
1749.000000	45.382865
1748.000000	45.286188
1747.000000	45.223039
1746.000000	45.181953
1745.000000	45.136614
1744.000000	45.044971
1743.000000	45.008819
1742.000000	44.942201
1741.000000	44.883352
1740.000000	44.830311
1739.000000	44.828389
1738.000000	44.772414
1737.000000	44.737473
1736.000000	44.684511
1735.000000	44.686886
1734.000000	44.688286
1733.000000	44.675773
1732.000000	44.705746
1731.000000	44.712136
1730.000000	44.690307
1729.000000	44.751460
1728.000000	44.817325
1727.000000	44.831312
1726.000000	44.940996
1725.000000	44.995044
1724.000000	45.115920
1723.000000	45.162920
1722.000000	45.284697
1721.000000	45.355914
1720.000000	45.421575
1719.000000	45.570925
1718.000000	45.643011
1717.000000	45.748994
1716.000000	45.849462
1715.000000	45.926925
1714.000000	46.007084
1713.000000	46.087589
1712.000000	46.145135
1711.000000	46.221635
1710.000000	46.301457
1709.000000	46.329892
1708.000000	46.412284
1707.000000	46.437685
1706.000000	46.493042
1705.000000	46.507692
1704.000000	46.542313
1703.000000	46.562678
1702.000000	46.553857
1701.000000	46.588273
1700.000000	46.636386
1699.000000	46.599365
1698.000000	46.679203
1697.000000	46.723199
1696.000000	46.732331
1695.000000	46.757820
1694.000000	46.790042
1693.000000	46.855950
1692.000000	46.895326
1691.000000	46.985133
1690.000000	47.072421
1689.000000	47.148430
1688.000000	47.254454
1687.000000	47.361573
1686.000000	47.473596
1685.000000	47.623099
1684.000000	47.787324
1683.000000	47.932124
1682.000000	48.133954
1681.000000	48.285619
1680.000000	48.412373
1679.000000	48.608639
1678.000000	48.793607
1677.000000	48.943594
1676.000000	49.128194
1675.000000	49.324335
1674.000000	49.468579
1673.000000	49.638655
1672.000000	49.799405
1671.000000	49.935500
1670.000000	50.082641
1669.000000	50.271374
1668.000000	50.358415
1667.000000	50.504840
1666.000000	50.582404
1665.000000	50.682414
1664.000000	50.761528
1663.000000	50.841179
1662.000000	50.938792
1661.000000	51.011228
1660.000000	51.056443
1659.000000	51.153587
1658.000000	51.210362
1657.000000	51.247812
1656.000000	51.263617
1655.000000	51.305264
1654.000000	51.332111
1653.000000	51.353682
1652.000000	51.381127
1651.000000	51.366097
1650.000000	51.386683
1649.000000	51.390088
1648.000000	51.358505
1647.000000	51.351099
1646.000000	51.347738
1645.000000	51.343218
1644.000000	51.327889
1643.000000	51.294521
1642.000000	51.271106
1641.000000	51.243231
1640.000000	51.224286
1639.000000	51.201635
1638.000000	51.167863
1637.000000	51.139317
1636.000000	51.107439
1635.000000	51.078896
1634.000000	51.031661
1633.000000	51.003184
1632.000000	50.993239
1631.000000	50.931432
1630.000000	50.865314
1629.000000	50.837998
1628.000000	50.799573
1627.000000	50.765664
1626.000000	50.728969
1625.000000	50.673219
1624.000000	50.635979
1623.000000	50.603040
1622.000000	50.539500
1621.000000	50.479023
1620.000000	50.445586
1619.000000	50.400485
1618.000000	50.348810
1617.000000	50.308242
1616.000000	50.251399
1615.000000	50.198251
1614.000000	50.121195
1613.000000	50.048760
1612.000000	49.999137
1611.000000	49.939257
1610.000000	49.901070
1609.000000	49.842809
1608.000000	49.778161
1607.000000	49.722686
1606.000000	49.657869
1605.000000	49.614386
1604.000000	49.559531
1603.000000	49.487262
1602.000000	49.435369
1601.000000	49.382947
1600.000000	49.317973
1599.000000	49.258706
1598.000000	49.200777
1597.000000	49.153336
1596.000000	49.094605
1595.000000	49.041077
1594.000000	48.994623
1593.000000	48.946939
1592.000000	48.877892
1591.000000	48.812892
1590.000000	48.776167
1589.000000	48.739177
1588.000000	48.701812
1587.000000	48.661300
1586.000000	48.610765
1585.000000	48.577237
1584.000000	48.529312
1583.000000	48.478781
1582.000000	48.430399
1581.000000	48.391572
1580.000000	48.352610
1579.000000	48.316586
1578.000000	48.291285
1577.000000	48.227297
1576.000000	48.177718
1575.000000	48.133987
1574.000000	48.075058
1573.000000	48.027563
1572.000000	47.981375
1571.000000	47.946262
1570.000000	47.916552
1569.000000	47.882350
1568.000000	47.858155
1567.000000	47.809676
1566.000000	47.774410
1565.000000	47.745156
1564.000000	47.707645
1563.000000	47.686304
1562.000000	47.666191
1561.000000	47.631694
1560.000000	47.605564
1559.000000	47.581587
1558.000000	47.561416
1557.000000	47.538991
1556.000000	47.509340
1555.000000	47.497743
1554.000000	47.466511
1553.000000	47.435157
1552.000000	47.421760
1551.000000	47.368202
1550.000000	47.331643
1549.000000	47.293914
1548.000000	47.251942
1547.000000	47.201442
1546.000000	47.142943
1545.000000	47.072659
1544.000000	46.987190
1543.000000	46.913227
1542.000000	46.841046
1541.000000	46.767820
1540.000000	46.695112
1539.000000	46.606822
1538.000000	46.505229
1537.000000	46.416451
1536.000000	46.341912
1535.000000	46.236273
1534.000000	46.158431
1533.000000	46.078998
1532.000000	45.978756
1531.000000	45.912351
1530.000000	45.835326
1529.000000	45.764693
1528.000000	45.691143
1527.000000	45.624794
1526.000000	45.553115
1525.000000	45.510172
1524.000000	45.455533
1523.000000	45.405817
1522.000000	45.355180
1521.000000	45.290029
1520.000000	45.242418
1519.000000	45.201853
1518.000000	45.189268
1517.000000	45.144702
1516.000000	45.120743
1515.000000	45.107823
1514.000000	45.061393
1513.000000	45.039361
1512.000000	44.987229
1511.000000	44.987320
1510.000000	44.989847
1509.000000	44.950469
1508.000000	44.959152
1507.000000	44.942249
1506.000000	44.926849
1505.000000	44.928113
1504.000000	44.910684
1503.000000	44.924220
1502.000000	44.919787
1501.000000	44.908473
1500.000000	44.904865
1499.000000	44.930479
1498.000000	44.943926
1497.000000	44.945191
1496.000000	44.955997
1495.000000	44.978673
1494.000000	45.011136
1493.000000	45.044257
1492.000000	45.047355
1491.000000	45.081633
1490.000000	45.121995
1489.000000	45.192241
1488.000000	45.232497
1487.000000	45.252365
1486.000000	45.278428
1485.000000	45.349228
1484.000000	45.390631
1483.000000	45.448434
1482.000000	45.488109
1481.000000	45.552060
1480.000000	45.615114
1479.000000	45.650638
1478.000000	45.731502
1477.000000	45.784471
1476.000000	45.817649
1475.000000	45.877800
1474.000000	45.899426
1473.000000	45.954105
1472.000000	46.010105
1471.000000	46.046658
1470.000000	46.097663
1469.000000	46.139611
1468.000000	46.198397
1467.000000	46.253274
1466.000000	46.277404
1465.000000	46.350329
1464.000000	46.383827
1463.000000	46.431765
1462.000000	46.462809
1461.000000	46.515315
1460.000000	46.582703
1459.000000	46.616947
1458.000000	46.684292
1457.000000	46.719384
1456.000000	46.777987
1455.000000	46.856215
1454.000000	46.904811
1453.000000	46.966350
1452.000000	47.026825
1451.000000	47.084319
1450.000000	47.166538
1449.000000	47.223091
1448.000000	47.294948
1447.000000	47.353552
1446.000000	47.430925
1445.000000	47.500101
1444.000000	47.604879
1443.000000	47.684820
1442.000000	47.776095
1441.000000	47.852510
1440.000000	47.939658
1439.000000	48.049810
1438.000000	48.134852
1437.000000	48.223808
1436.000000	48.350043
1435.000000	48.451789
1434.000000	48.554419
1433.000000	48.677734
1432.000000	48.767855
1431.000000	48.883487
1430.000000	49.017429
1429.000000	49.136344
1428.000000	49.263601
1427.000000	49.405594
1426.000000	49.540668
1425.000000	49.690168
1424.000000	49.842330
1423.000000	49.991427
1422.000000	50.147909
1421.000000	50.307437
1420.000000	50.468720
1419.000000	50.624803
1418.000000	50.788617
1417.000000	50.950521
1416.000000	51.127073
1415.000000	51.309553
1414.000000	51.481594
1413.000000	51.644013
1412.000000	51.830963
1411.000000	52.007081
1410.000000	52.186407
1409.000000	52.349041
1408.000000	52.519541
1407.000000	52.683802
1406.000000	52.845194
1405.000000	53.015404
1404.000000	53.170689
1403.000000	53.337167
1402.000000	53.480775
1401.000000	53.628896
1400.000000	53.791012
1399.000000	53.938410
1398.000000	54.069869
1397.000000	54.227751
1396.000000	54.376157
1395.000000	54.500913
1394.000000	54.615829
1393.000000	54.752026
1392.000000	54.882850
1391.000000	55.016221
1390.000000	55.122986
1389.000000	55.220442
1388.000000	55.328227
1387.000000	55.424270
1386.000000	55.511321
1385.000000	55.600772
1384.000000	55.705753
1383.000000	55.786437
1382.000000	55.856554
1381.000000	55.935844
1380.000000	56.012377
1379.000000	56.081992
1378.000000	56.148007
1377.000000	56.232431
1376.000000	56.303373
1375.000000	56.346598
1374.000000	56.392029
1373.000000	56.447950
1372.000000	56.495417
1371.000000	56.543435
1370.000000	56.598431
1369.000000	56.654156
1368.000000	56.690795
1367.000000	56.737823
1366.000000	56.786171
1365.000000	56.819589
1364.000000	56.859870
1363.000000	56.912029
1362.000000	56.960744
1361.000000	57.015027
1360.000000	57.057909
1359.000000	57.094544
1358.000000	57.141657
1357.000000	57.179978
1356.000000	57.242338
1355.000000	57.287938
1354.000000	57.320626
1353.000000	57.377627
1352.000000	57.429887
1351.000000	57.477119
1350.000000	57.515890
1349.000000	57.567943
1348.000000	57.639471
1347.000000	57.683915
1346.000000	57.732124
1345.000000	57.774964
1344.000000	57.812060
1343.000000	57.860875
1342.000000	57.896427
1341.000000	57.961077
1340.000000	57.997015
1339.000000	58.038406
1338.000000	58.079620
1337.000000	58.107172
1336.000000	58.141217
1335.000000	58.169015
1334.000000	58.209738
1333.000000	58.251062
1332.000000	58.273887
1331.000000	58.291671
1330.000000	58.278294
1329.000000	58.302927
1328.000000	58.329672
1327.000000	58.360126
1326.000000	58.396068
1325.000000	58.453187
1324.000000	58.532888
1323.000000	58.562476
1322.000000	58.570185
1321.000000	58.589010
1320.000000	58.582427
1319.000000	58.575678
1318.000000	58.599054
1317.000000	58.589552
1316.000000	58.597889
1315.000000	58.649024
1314.000000	58.656139
1313.000000	58.666773
1312.000000	58.690696
1311.000000	58.681156
1310.000000	58.699733
1309.000000	58.709928
1308.000000	58.696980
1307.000000	58.719329
1306.000000	58.737763
1305.000000	58.764359
1304.000000	58.788690
1303.000000	58.777481
1302.000000	58.768870
1301.000000	58.790891
1300.000000	58.814914
1299.000000	58.801128
1298.000000	58.811905
1297.000000	58.815528
1296.000000	58.823243
1295.000000	58.808502
1294.000000	58.803004
1293.000000	58.822213
1292.000000	58.806211
1291.000000	58.817035
1290.000000	58.825198
1289.000000	58.826109
1288.000000	58.812597
1287.000000	58.767895
1286.000000	58.754326
1285.000000	58.773112
1284.000000	58.767475
1283.000000	58.781440
1282.000000	58.774389
1281.000000	58.753449
1280.000000	58.757829
1279.000000	58.755598
1278.000000	58.741833
1277.000000	58.747877
1276.000000	58.758434
1275.000000	58.764731
1274.000000	58.740502
1273.000000	58.743572
1272.000000	58.726275
1271.000000	58.743703
1270.000000	58.737068
1269.000000	58.738795
1268.000000	58.721884
1267.000000	58.768195
1266.000000	58.762590
1265.000000	58.737106
1264.000000	58.779116
1263.000000	58.771031
1262.000000	58.811940
1261.000000	58.805060
1260.000000	58.815587
1259.000000	58.825451
1258.000000	58.816099
1257.000000	58.810378
1256.000000	58.824969
1255.000000	58.860407
1254.000000	58.853021
1253.000000	58.868603
1252.000000	58.855653
1251.000000	58.842178
1250.000000	58.858693
1249.000000	58.844385
1248.000000	58.846437
1247.000000	58.834248
1246.000000	58.826146
1245.000000	58.818926
1244.000000	58.816933
1243.000000	58.794855
1242.000000	58.772749
1241.000000	58.764273
1240.000000	58.758479
1239.000000	58.754899
1238.000000	58.700002
1237.000000	58.707900
1236.000000	58.689051
1235.000000	58.677781
1234.000000	58.627341
1233.000000	58.632902
1232.000000	58.632953
1231.000000	58.594856
1230.000000	58.543577
1229.000000	58.525110
1228.000000	58.520876
1227.000000	58.507287
1226.000000	58.485070
1225.000000	58.455326
1224.000000	58.449819
1223.000000	58.439240
1222.000000	58.423642
1221.000000	58.378284
1220.000000	58.364312
1219.000000	58.341145
1218.000000	58.298009
1217.000000	58.291743
1216.000000	58.256058
1215.000000	58.224363
1214.000000	58.180210
1213.000000	58.175540
1212.000000	58.155919
1211.000000	58.144602
1210.000000	58.104203
1209.000000	58.080598
1208.000000	58.070778
1207.000000	58.045024
1206.000000	58.003183
1205.000000	57.996450
1204.000000	57.971617
1203.000000	57.944575
1202.000000	57.906974
1201.000000	57.908812
1200.000000	57.883287
1199.000000	57.834426
1198.000000	57.821097
1197.000000	57.806658
1196.000000	57.807717
1195.000000	57.783877
1194.000000	57.748234
1193.000000	57.737019
1192.000000	57.719390
1191.000000	57.702018
1190.000000	57.685013
1189.000000	57.645165
1188.000000	57.653435
1187.000000	57.655334
1186.000000	57.645683
1185.000000	57.654587
1184.000000	57.657808
1183.000000	57.669384
1182.000000	57.698933
1181.000000	57.716149
1180.000000	57.737202
1179.000000	57.774777
1178.000000	57.815489
1177.000000	57.834711
1176.000000	57.863005
1175.000000	57.916853
1174.000000	57.963227
1173.000000	58.008442
1172.000000	58.063892
1171.000000	58.099851
1170.000000	58.152381
1169.000000	58.210796
1168.000000	58.251674
1167.000000	58.316520
1166.000000	58.361067
1165.000000	58.395650
1164.000000	58.453427
1163.000000	58.504825
1162.000000	58.558303
1161.000000	58.612675
1160.000000	58.671716
1159.000000	58.736808
1158.000000	58.789913
1157.000000	58.842883
1156.000000	58.890885
1155.000000	58.935383
1154.000000	58.984341
1153.000000	59.024915
1152.000000	59.075621
1151.000000	59.129050
1150.000000	59.168808
1149.000000	59.201614
1148.000000	59.239684
1147.000000	59.278748
1146.000000	59.313196
1145.000000	59.344507
1144.000000	59.374366
1143.000000	59.395871
1142.000000	59.424419
1141.000000	59.462290
1140.000000	59.492247
1139.000000	59.522481
1138.000000	59.551497
1137.000000	59.575546
1136.000000	59.615794
1135.000000	59.647123
1134.000000	59.665949
1133.000000	59.697212
1132.000000	59.716145
1131.000000	59.730900
1130.000000	59.762680
1129.000000	59.763257
1128.000000	59.780279
1127.000000	59.794848
1126.000000	59.799425
1125.000000	59.822779
1124.000000	59.836415
1123.000000	59.855255
1122.000000	59.875868
1121.000000	59.883059
1120.000000	59.886399
1119.000000	59.901001
1118.000000	59.895509
1117.000000	59.903246
1116.000000	59.915247
1115.000000	59.923172
1114.000000	59.921193
1113.000000	59.924705
1112.000000	59.906952
1111.000000	59.913114
1110.000000	59.931885
1109.000000	59.912204
1108.000000	59.926433
1107.000000	59.930781
1106.000000	59.931112
1105.000000	59.937258
1104.000000	59.956602
1103.000000	59.942941
1102.000000	59.938127
1101.000000	59.926756
1100.000000	59.923572
1099.000000	59.923772
1098.000000	59.929953
1097.000000	59.939823
1096.000000	59.943785
1095.000000	59.937357
1094.000000	59.924387
1093.000000	59.912741
1092.000000	59.912041
1091.000000	59.916404
1090.000000	59.915836
1089.000000	59.915744
1088.000000	59.926874
1087.000000	59.900181
1086.000000	59.895738
1085.000000	59.903833
1084.000000	59.919172
1083.000000	59.908102
1082.000000	59.873782
1081.000000	59.877910
1080.000000	59.883023
1079.000000	59.873570
1078.000000	59.879505
1077.000000	59.882163
1076.000000	59.865701
1075.000000	59.862316
1074.000000	59.858655
1073.000000	59.860992
1072.000000	59.854714
1071.000000	59.827324
1070.000000	59.822937
1069.000000	59.848638
1068.000000	59.816860
1067.000000	59.805855
1066.000000	59.820492
1065.000000	59.807869
1064.000000	59.799374
1063.000000	59.795610
1062.000000	59.787878
1061.000000	59.787486
1060.000000	59.775623
1059.000000	59.786930
1058.000000	59.787253
1057.000000	59.777583
1056.000000	59.776805
1055.000000	59.760083
1054.000000	59.756601
1053.000000	59.756655
1052.000000	59.733773
1051.000000	59.720088
1050.000000	59.711802
1049.000000	59.718080
1048.000000	59.709228
1047.000000	59.692907
1046.000000	59.702485
1045.000000	59.693020
1044.000000	59.683893
1043.000000	59.668149
1042.000000	59.672739
1041.000000	59.701034
1040.000000	59.701641
1039.000000	59.656560
1038.000000	59.650922
1037.000000	59.640697
1036.000000	59.650696
1035.000000	59.640922
1034.000000	59.635801
1033.000000	59.648462
1032.000000	59.633784
1031.000000	59.626503
1030.000000	59.639133
1029.000000	59.618522
1028.000000	59.628832
1027.000000	59.617977
1026.000000	59.645101
1025.000000	59.626853
1024.000000	59.608240
1023.000000	59.604263
1022.000000	59.601190
1021.000000	59.615046
1020.000000	59.593620
1019.000000	59.610561
1018.000000	59.612232
1017.000000	59.614058
1016.000000	59.617672
1015.000000	59.590498
1014.000000	59.612108
1013.000000	59.620169
1012.000000	59.606003
1011.000000	59.610489
1010.000000	59.610534
1009.000000	59.591205
1008.000000	59.619308
1007.000000	59.605212
1006.000000	59.603348
1005.000000	59.627744
1004.000000	59.613741
1003.000000	59.598686
1002.000000	59.614150
1001.000000	59.633237
1000.000000	59.616022
999.000000	59.616945
998.000000	59.631064
997.000000	59.629535
996.000000	59.621411
995.000000	59.629431
994.000000	59.639064
993.000000	59.630405
992.000000	59.611654
991.000000	59.621869
990.000000	59.637151
989.000000	59.630543
988.000000	59.626863
987.000000	59.639324
986.000000	59.627868
985.000000	59.624497
984.000000	59.633113
983.000000	59.648135
982.000000	59.656415
981.000000	59.674702
980.000000	59.666913
979.000000	59.650938
978.000000	59.663193
977.000000	59.651513
976.000000	59.665771
975.000000	59.675218
974.000000	59.668982
973.000000	59.683990
972.000000	59.701563
971.000000	59.703272
970.000000	59.698873
969.000000	59.693742
968.000000	59.704292
967.000000	59.724182
966.000000	59.719724
965.000000	59.721008
964.000000	59.716470
963.000000	59.716781
962.000000	59.736886
961.000000	59.758549
960.000000	59.737781
959.000000	59.734895
958.000000	59.736703
957.000000	59.729735
956.000000	59.748398
955.000000	59.764419
954.000000	59.754825
953.000000	59.740014
952.000000	59.756919
951.000000	59.755553
950.000000	59.754505
949.000000	59.773055
948.000000	59.768275
947.000000	59.773374
946.000000	59.769879
945.000000	59.769911
944.000000	59.769008
943.000000	59.747737
942.000000	59.733211
941.000000	59.718937
940.000000	59.741437
939.000000	59.753777
938.000000	59.745455
937.000000	59.747722
936.000000	59.722584
935.000000	59.710214
934.000000	59.709136
933.000000	59.714045
932.000000	59.723836
931.000000	59.733650
930.000000	59.737872
929.000000	59.709511
928.000000	59.681153
927.000000	59.695360
926.000000	59.675976
925.000000	59.656196
924.000000	59.693465
923.000000	59.699292
922.000000	59.704298
921.000000	59.726607
920.000000	59.718900
919.000000	59.718442
918.000000	59.706286
917.000000	59.717091
916.000000	59.692716
915.000000	59.683315
914.000000	59.660363
913.000000	59.636127
912.000000	59.683557
911.000000	59.678431
910.000000	59.675880
909.000000	59.682483
908.000000	59.690562
907.000000	59.702557
906.000000	59.688199
905.000000	59.627922
904.000000	59.593315
903.000000	59.612371
902.000000	59.588913
901.000000	59.639993
900.000000	59.635293
899.000000	59.676287
898.000000	59.681322
897.000000	59.706707
896.000000	59.630103
895.000000	59.625765
894.000000	59.669707
893.000000	59.675695
892.000000	59.648076
891.000000	59.677781
890.000000	59.702207
889.000000	59.681070
888.000000	59.609625
887.000000	59.632417
886.000000	59.706996
885.000000	59.715423
884.000000	59.641592
883.000000	59.637490
882.000000	59.674188
881.000000	59.636683
880.000000	59.654914
879.000000	59.762378
878.000000	59.590131
877.000000	59.610219
876.000000	59.628233
875.000000	59.687496
874.000000	59.690571
873.000000	59.590003
872.000000	59.699324
871.000000	59.598677
870.000000	59.545051
869.000000	59.543787
868.000000	59.592720
867.000000	59.524317
866.000000	59.478834
865.000000	59.563156
864.000000	59.559545
863.000000	59.620068
862.000000	59.592451
861.000000	59.463797
860.000000	59.451389
859.000000	58.652353
858.000000	58.493902
857.000000	58.974145
856.000000	58.575329
855.000000	58.702216
854.000000	58.781438
853.000000	58.388485
852.000000	58.604405
851.000000	58.628774
850.000000	58.878781
849.000000	58.446901
848.000000	58.477932
847.000000	58.679489
846.000000	58.660562
845.000000	58.613354
844.000000	58.728865
843.000000	58.898370
842.000000	58.808444
841.000000	58.558513
840.000000	58.514355
839.000000	58.500022
838.000000	58.755134
837.000000	58.471927
836.000000	58.418786
835.000000	58.518254
834.000000	58.602646
833.000000	58.326356
832.000000	58.374239
831.000000	58.391526
830.000000	58.500180
829.000000	58.472956
828.000000	58.508556
827.000000	58.517467
826.000000	58.414063
825.000000	58.473826
824.000000	58.540851
823.000000	58.407555
822.000000	58.426261
821.000000	58.288706
820.000000	58.473256
819.000000	58.433761
818.000000	58.313316
817.000000	58.384326
816.000000	58.413375
815.000000	58.224291
814.000000	58.360853
813.000000	58.124878
812.000000	58.279600
811.000000	58.301159
810.000000	58.123782
809.000000	58.196345
808.000000	58.248293
807.000000	58.095032
806.000000	58.317090
805.000000	58.185976
804.000000	58.152282
803.000000	58.079916
802.000000	58.053083
801.000000	58.149596
800.000000	58.207319
799.000000	58.182250
798.000000	58.083594
797.000000	58.140921
796.000000	58.023137
795.000000	57.951752
794.000000	58.076547
793.000000	58.102245
792.000000	58.024673
791.000000	58.039527
790.000000	57.806738
789.000000	57.955253
788.000000	57.959547
787.000000	58.114698
786.000000	58.035580
785.000000	57.735248
784.000000	57.836916
783.000000	57.842627
782.000000	57.749534
781.000000	57.806335
780.000000	57.831747
779.000000	57.827025
778.000000	57.902879
777.000000	57.785983
776.000000	57.736172
775.000000	57.764563
774.000000	57.690725
773.000000	57.636765
772.000000	57.701700
771.000000	57.810582
770.000000	57.698038
769.000000	57.707403
768.000000	57.761750
767.000000	57.698521
766.000000	57.718178
765.000000	57.654531
764.000000	57.549774
763.000000	57.654397
762.000000	57.574225
761.000000	57.544126
760.000000	57.488338
759.000000	57.457686
758.000000	57.410565
757.000000	57.484349
756.000000	57.507925
755.000000	57.475357
754.000000	57.414301
753.000000	57.381992
752.000000	57.337415
751.000000	57.265152
750.000000	57.376440
749.000000	57.321352
748.000000	57.198315
747.000000	57.247394
746.000000	57.203586
745.000000	57.221969
744.000000	57.251957
743.000000	57.222100
742.000000	57.201447
741.000000	57.136416
740.000000	57.149068
739.000000	57.119862
738.000000	57.085907
737.000000	56.999038
736.000000	56.987656
735.000000	56.962531
734.000000	56.905819
733.000000	56.952986
732.000000	56.947343
731.000000	56.939860
730.000000	56.892048
729.000000	56.779746
728.000000	56.777345
727.000000	56.746295
726.000000	56.790497
725.000000	56.775577
724.000000	56.743575
723.000000	56.726009
722.000000	56.713519
721.000000	56.661599
720.000000	56.598009
719.000000	56.564536
718.000000	56.590659
717.000000	56.644179
716.000000	56.596155
715.000000	56.557220
714.000000	56.518283
713.000000	56.438522
712.000000	56.445045
711.000000	56.452538
710.000000	56.362949
709.000000	56.293091
708.000000	56.215566
707.000000	56.219318
706.000000	56.211068
705.000000	56.152083
704.000000	56.191138
703.000000	56.166402
702.000000	56.074048
701.000000	56.086006
700.000000	56.091713
699.000000	56.030411
698.000000	55.992323
697.000000	55.978404
696.000000	55.961716
695.000000	55.912765
694.000000	55.872623
693.000000	55.877782
692.000000	55.847865
691.000000	55.807980
690.000000	55.765730
689.000000	55.662721
688.000000	55.575300
687.000000	55.529369
686.000000	55.517302
685.000000	55.498590
684.000000	55.509619
683.000000	55.442061
682.000000	55.382321
681.000000	55.343735
680.000000	55.236957
679.000000	55.207502
678.000000	55.253236
677.000000	55.210087
676.000000	55.147992
675.000000	55.115933
674.000000	55.059007
673.000000	55.003553
672.000000	54.971076
671.000000	54.964591
670.000000	54.905420
669.000000	54.893156
668.000000	54.868663
667.000000	54.827041
666.000000	54.807147
665.000000	54.753658
664.000000	54.695086
663.000000	54.629758
662.000000	54.576611
661.000000	54.521207
660.000000	54.470740
659.000000	54.439648
658.000000	54.393997
657.000000	54.359393
656.000000	54.300708
655.000000	54.288896
654.000000	54.242102
653.000000	54.160933
652.000000	54.068653
651.000000	54.057051
650.000000	54.023034
649.000000	53.999314
648.000000	53.920625
647.000000	53.838039
646.000000	53.815153
645.000000	53.721781
644.000000	53.719134
643.000000	53.670728
642.000000	53.711777
641.000000	53.619763
640.000000	53.515193
639.000000	53.460972
638.000000	53.428069
637.000000	53.369099
636.000000	53.352380
635.000000	53.320190
634.000000	53.253241
633.000000	53.174737
632.000000	53.126839
631.000000	53.157104
630.000000	53.073830
629.000000	52.981078
628.000000	52.880675
627.000000	52.867567
626.000000	52.786341
625.000000	52.748623
624.000000	52.688574
623.000000	52.644537
622.000000	52.549228
621.000000	52.567571
620.000000	52.460902
619.000000	52.425416
618.000000	52.371960
617.000000	52.315621
616.000000	52.211699
615.000000	52.111777
614.000000	52.071280
613.000000	52.067468
612.000000	51.926185
611.000000	51.901123
610.000000	51.913720
609.000000	51.893351
608.000000	51.721131
607.000000	51.712140
606.000000	51.660903
605.000000	51.485484
604.000000	51.460592
603.000000	51.425829
602.000000	51.347792
601.000000	51.288563
600.000000	51.275685
599.000000	51.127987
598.000000	51.082909
597.000000	51.058040
596.000000	50.975268
595.000000	50.870294
594.000000	50.819916
593.000000	50.748647
592.000000	50.681408
591.000000	50.604902
590.000000	50.520925
589.000000	50.488871
588.000000	50.401379
587.000000	50.272872
586.000000	50.300915
585.000000	50.197118
584.000000	50.128508
583.000000	50.055019
582.000000	49.914208
581.000000	49.893324
580.000000	49.798841
579.000000	49.703598
578.000000	49.631736
577.000000	49.485157
576.000000	49.420559
575.000000	49.402968
574.000000	49.250806
573.000000	49.237793
572.000000	49.173539
571.000000	49.044837
570.000000	48.921951
569.000000	48.894334
568.000000	48.735913
567.000000	48.733396
566.000000	48.600450
565.000000	48.498158
564.000000	48.422093
563.000000	48.308456
562.000000	48.230825
561.000000	48.184552
560.000000	48.055299
559.000000	48.050246
558.000000	47.911597
557.000000	47.813929
556.000000	47.755467
555.000000	47.604275
554.000000	47.518748
553.000000	47.439916
552.000000	47.318840
551.000000	47.193603
550.000000	47.119795
549.000000	47.036537
548.000000	46.917072
547.000000	46.838546
546.000000	46.721067
545.000000	46.682167
544.000000	46.498047
543.000000	46.397488
542.000000	46.260392
541.000000	46.175327
540.000000	46.063512
539.000000	45.971182
538.000000	45.867812
537.000000	45.772897
536.000000	45.643791
535.000000	45.517083
534.000000	45.412745
533.000000	45.308497
532.000000	45.195774
531.000000	45.071011
530.000000	44.967122
529.000000	44.853554
528.000000	44.736380
527.000000	44.582039
526.000000	44.484854
525.000000	44.370828
524.000000	44.229287
523.000000	44.134042
522.000000	43.982024
521.000000	43.901247
520.000000	43.764261
519.000000	43.663177
518.000000	43.503955
517.000000	43.385741
516.000000	43.252627
515.000000	43.108843
514.000000	43.009155
513.000000	42.892779
512.000000	42.763695
511.000000	42.629814
510.000000	42.526581
509.000000	42.396864
508.000000	42.280834
507.000000	42.154790
506.000000	42.022573
505.000000	41.898672
504.000000	41.782220
503.000000	41.656098
502.000000	41.528330
501.000000	41.392963
500.000000	41.277300
499.000000	41.148080
498.000000	41.003412
497.000000	40.884158
496.000000	40.750338
495.000000	40.634526
494.000000	40.476195
493.000000	40.315294
492.000000	40.195934
491.000000	40.062635
490.000000	39.904677
489.000000	39.761135
488.000000	39.617016
487.000000	39.504948
486.000000	39.376394
485.000000	39.223934
484.000000	39.133132
483.000000	39.013926
482.000000	38.835872
481.000000	38.704316
480.000000	38.581891
479.000000	38.466488
478.000000	38.361375
477.000000	38.225097
476.000000	38.063675
475.000000	37.925664
474.000000	37.822184
473.000000	37.708781
472.000000	37.562476
471.000000	37.420499
470.000000	37.306203
469.000000	37.191035
468.000000	37.038545
467.000000	36.896652
466.000000	36.788622
465.000000	36.670975
464.000000	36.525423
463.000000	36.379984
462.000000	36.234447
461.000000	36.069769
460.000000	35.927798
459.000000	35.794733
458.000000	35.634760
457.000000	35.500470
456.000000	35.350596
455.000000	35.181239
454.000000	35.019956
453.000000	34.867707
452.000000	34.699375
451.000000	34.525727
450.000000	34.345259
449.000000	34.179817
448.000000	34.001905
447.000000	33.821779
446.000000	33.661787
445.000000	33.480199
444.000000	33.299845
443.000000	33.130770
442.000000	32.959027
441.000000	32.765353
440.000000	32.569009
439.000000	32.371902
438.000000	32.185035
437.000000	31.983551
436.000000	31.800376
435.000000	31.595108
434.000000	31.383613
433.000000	31.188657
432.000000	30.982670
431.000000	30.782187
430.000000	30.592053
429.000000	30.376637
428.000000	30.169835
427.000000	29.962608
426.000000	29.729620
425.000000	29.540834
424.000000	29.331643
423.000000	29.118885
422.000000	28.909894
421.000000	28.685193
420.000000	28.479465
419.000000	28.290885
418.000000	28.048807
417.000000	27.805032
416.000000	27.603681
415.000000	27.350686
414.000000	27.126236
413.000000	26.930053
412.000000	26.681703
411.000000	26.413347
410.000000	26.220400
409.000000	26.027586
408.000000	25.800486
407.000000	25.588988
406.000000	25.382287
405.000000	25.162337
404.000000	24.938552
403.000000	24.726971
402.000000	24.488857
401.000000	24.310412
400.000000	24.132184
399.000000	23.931007
398.000000	23.681594
397.000000	23.466396
396.000000	23.275736
395.000000	23.089568
394.000000	22.907633
393.000000	22.688112
392.000000	22.540875
391.000000	22.342464
390.000000	22.149169
389.000000	21.904264
388.000000	21.742030
387.000000	21.515939
386.000000	21.363038
385.000000	21.149398
384.000000	20.932998
383.000000	20.742132
382.000000	20.529845
381.000000	20.310618
380.000000	20.129710
379.000000	19.920672
378.000000	19.646261
377.000000	19.482165
376.000000	19.293320
375.000000	19.211533
374.000000	18.942733
373.000000	18.808396
372.000000	18.648299
371.000000	18.436180
370.000000	18.246429
369.000000	18.130413
368.000000	18.023285
367.000000	17.790555
366.000000	17.671454
365.000000	17.560530
364.000000	17.317951
363.000000	17.209252
362.000000	17.015123
361.000000	16.881596
360.000000	16.732026
359.000000	16.608035
358.000000	16.483443
357.000000	16.361813
356.000000	16.233729
355.000000	16.063673
354.000000	15.951494
353.000000	15.871580
352.000000	15.740053
351.000000	15.588749
350.000000	15.531700
349.000000	15.310315
348.000000	15.277665
347.000000	15.126013
346.000000	15.041538
345.000000	14.923909
344.000000	14.797415
343.000000	14.676817
342.000000	14.501459
341.000000	14.373982
340.000000	14.260940
339.000000	14.197935
338.000000	14.128083
337.000000	13.892424
336.000000	13.806100
335.000000	13.709931
334.000000	13.619734
333.000000	13.465453
332.000000	13.407183
331.000000	13.251233
330.000000	13.161565
329.000000	13.028821
328.000000	12.884540
327.000000	12.869637
326.000000	12.738544
325.000000	12.656731
324.000000	12.606080
323.000000	12.465891
322.000000	12.382911
321.000000	12.359910
320.000000	12.276635
319.000000	12.184855
318.000000	12.170109
317.000000	12.152530
316.000000	12.059472
315.000000	11.981099
314.000000	11.918369
313.000000	11.858439
312.000000	11.820404
311.000000	11.732257
310.000000	11.694409
309.000000	11.706863
308.000000	11.654436
307.000000	11.647800
306.000000	11.603069
305.000000	11.493615
304.000000	11.430865
303.000000	11.489952
302.000000	11.470221
301.000000	11.406789
300.000000	11.370720
299.000000	11.349476
298.000000	11.304108
297.000000	11.233926
296.000000	11.220521
295.000000	11.178561
294.000000	11.125213
293.000000	11.119510
292.000000	11.030709
291.000000	10.999329
290.000000	10.983114
289.000000	10.953346
288.000000	10.920996
287.000000	10.902528
286.000000	10.925392
285.000000	10.870925
284.000000	10.882039
283.000000	10.854741
282.000000	10.873385
281.000000	10.867558
280.000000	10.873076
279.000000	10.961293
278.000000	10.960096
277.000000	10.988800
276.000000	10.977420
275.000000	11.035293
274.000000	11.059147
273.000000	11.135237
272.000000	11.127709
271.000000	11.180063
270.000000	11.172521
269.000000	11.172061
268.000000	11.275290
267.000000	11.340337
266.000000	11.408268
265.000000	11.501941
264.000000	11.531546
263.000000	11.631417
262.000000	11.732112
261.000000	11.854911
260.000000	11.854942
259.000000	11.940024
258.000000	12.071434
257.000000	12.160420
256.000000	12.265016
255.000000	12.357093
254.000000	12.515031
253.000000	12.584623
252.000000	12.700099
251.000000	12.841547
250.000000	12.959493
249.000000	13.089657
248.000000	13.179478
247.000000	13.289557
246.000000	13.367513
245.000000	13.445706
244.000000	13.449509
243.000000	13.472210
242.000000	13.500381
241.000000	13.501238
240.000000	13.570218
239.000000	13.569277
238.000000	13.526412
237.000000	13.528585
236.000000	13.536741
235.000000	13.520333
234.000000	13.500940
233.000000	13.407220
232.000000	13.360685
231.000000	13.346610
230.000000	13.331303
229.000000	13.342740
228.000000	13.296367
227.000000	13.323994
226.000000	13.390528
225.000000	13.353884
224.000000	13.275631
223.000000	13.384681
222.000000	13.496884
221.000000	13.535930
220.000000	13.610715
219.000000	13.733415
218.000000	13.817330
217.000000	13.913867
216.000000	14.085562
215.000000	14.216828
214.000000	14.319294
213.000000	14.445319
212.000000	14.569236
211.000000	14.804852
210.000000	15.119782
209.000000	15.273828
208.000000	15.535075
207.000000	15.979845
206.000000	16.263666
205.000000	16.638745
204.000000	17.057168
203.000000	17.516657
202.000000	18.106118
201.000000	18.536910
200.000000	19.095175
