PE UV       SUBTECH     SPECTRUM    ASCII       PEDS        4.00        
   -1
RDms148352.Sample.asc
18/03/20
09:44:00.00
18/03/20
09:44:00.00
Administrator

200.000000
1
Lambda 750
750N8071901
PerkinElmer UV WinLab 6.0.4.0738 / 1.61.00 Lambda 900

0
0
3350/servo 860.8/2
0
0
UV/VIS
1
1
1
CommonBeamDepol,150mm sphere / downward view
0
0
0
0
Program
Program
3350/servo 860.8/2
3350/0.2 860.8/0.2
3350/0.2 860.8/0.2
0
1
 
 
 
0
 
860.8
319.2
860.8
Front
100
on
 
 
0
0
0
 
0
 
 
 
0
 
 
0
0
0
0
0
 
 
 
 
0
0


0
0
#HDR
-1
-1
#GR
nm
%R
1.0
0.0
2350.000000
-1.000000
2151
8
66.139876
6.547200
#DATA
2350.000000	36.597358
2349.000000	36.305064
2348.000000	36.176653
2347.000000	37.049761
2346.000000	36.741010
2345.000000	36.330753
2344.000000	36.395484
2343.000000	36.343261
2342.000000	36.406131
2341.000000	36.546718
2340.000000	36.568849
2339.000000	36.783179
2338.000000	36.834317
2337.000000	36.959853
2336.000000	37.346819
2335.000000	37.174479
2334.000000	37.199514
2333.000000	37.360592
2332.000000	37.605338
2331.000000	37.236636
2330.000000	36.727252
2329.000000	37.132625
2328.000000	37.163478
2327.000000	36.923443
2326.000000	37.156470
2325.000000	37.074650
2324.000000	36.951946
2323.000000	36.828500
2322.000000	36.403432
2321.000000	36.565243
2320.000000	36.951540
2319.000000	36.556068
2318.000000	36.326531
2317.000000	36.420533
2316.000000	36.304322
2315.000000	36.101862
2314.000000	36.204627
2313.000000	36.215719
2312.000000	35.992918
2311.000000	35.704557
2310.000000	35.796422
2309.000000	35.933078
2308.000000	35.706006
2307.000000	35.685028
2306.000000	35.574709
2305.000000	35.543614
2304.000000	35.541020
2303.000000	35.812120
2302.000000	35.528375
2301.000000	35.552523
2300.000000	35.493919
2299.000000	35.348172
2298.000000	35.329638
2297.000000	35.369864
2296.000000	35.456898
2295.000000	35.224398
2294.000000	35.227642
2293.000000	35.200398
2292.000000	35.168033
2291.000000	35.133136
2290.000000	35.057828
2289.000000	35.069574
2288.000000	35.288126
2287.000000	35.322645
2286.000000	35.068827
2285.000000	35.074991
2284.000000	34.924489
2283.000000	35.033770
2282.000000	35.022769
2281.000000	34.933570
2280.000000	35.053669
2279.000000	35.110855
2278.000000	35.111980
2277.000000	35.112992
2276.000000	35.156623
2275.000000	35.332202
2274.000000	35.326048
2273.000000	35.455265
2272.000000	35.396311
2271.000000	35.373564
2270.000000	35.442868
2269.000000	35.520391
2268.000000	35.518552
2267.000000	35.697875
2266.000000	35.943774
2265.000000	36.067498
2264.000000	36.055038
2263.000000	36.212868
2262.000000	36.325657
2261.000000	36.535654
2260.000000	36.743158
2259.000000	36.874394
2258.000000	37.067512
2257.000000	37.416204
2256.000000	37.593840
2255.000000	37.768239
2254.000000	37.842364
2253.000000	37.921810
2252.000000	38.182989
2251.000000	38.348874
2250.000000	38.538413
2249.000000	38.907959
2248.000000	39.086885
2247.000000	39.179801
2246.000000	39.372568
2245.000000	39.625947
2244.000000	39.855252
2243.000000	40.139755
2242.000000	40.317326
2241.000000	40.435951
2240.000000	40.564348
2239.000000	40.733310
2238.000000	40.758616
2237.000000	40.738052
2236.000000	40.879310
2235.000000	41.085043
2234.000000	41.197163
2233.000000	41.093409
2232.000000	41.029143
2231.000000	41.134044
2230.000000	41.290903
2229.000000	41.309006
2228.000000	41.395772
2227.000000	41.342349
2226.000000	41.214831
2225.000000	41.292077
2224.000000	41.370937
2223.000000	41.334260
2222.000000	41.268708
2221.000000	41.301027
2220.000000	41.311768
2219.000000	41.324197
2218.000000	41.423558
2217.000000	41.238009
2216.000000	41.228746
2215.000000	41.304396
2214.000000	41.252732
2213.000000	41.126477
2212.000000	41.085559
2211.000000	40.897338
2210.000000	40.768800
2209.000000	40.764522
2208.000000	40.722450
2207.000000	40.674715
2206.000000	40.639550
2205.000000	40.592565
2204.000000	40.535518
2203.000000	40.413204
2202.000000	40.285241
2201.000000	40.295428
2200.000000	40.294576
2199.000000	40.226785
2198.000000	40.270254
2197.000000	40.143732
2196.000000	40.020122
2195.000000	39.917603
2194.000000	39.848342
2193.000000	39.809433
2192.000000	39.695920
2191.000000	39.704187
2190.000000	39.728626
2189.000000	39.730939
2188.000000	39.672117
2187.000000	39.603004
2186.000000	39.417757
2185.000000	39.416301
2184.000000	39.404346
2183.000000	39.385194
2182.000000	39.410614
2181.000000	39.380199
2180.000000	39.291149
2179.000000	39.182563
2178.000000	39.150842
2177.000000	39.249713
2176.000000	39.350215
2175.000000	39.235115
2174.000000	39.291248
2173.000000	39.252336
2172.000000	39.416086
2171.000000	39.503636
2170.000000	39.625006
2169.000000	39.558238
2168.000000	39.887560
2167.000000	39.873014
2166.000000	39.803576
2165.000000	39.880435
2164.000000	40.063677
2163.000000	40.100990
2162.000000	40.378930
2161.000000	40.397963
2160.000000	40.531837
2159.000000	40.538123
2158.000000	40.712012
2157.000000	40.976614
2156.000000	40.917361
2155.000000	41.130624
2154.000000	41.233613
2153.000000	41.567429
2152.000000	41.617681
2151.000000	41.734400
2150.000000	41.853189
2149.000000	42.150970
2148.000000	41.915371
2147.000000	42.308777
2146.000000	42.376159
2145.000000	42.508866
2144.000000	42.651124
2143.000000	42.580191
2142.000000	42.842607
2141.000000	43.021747
2140.000000	43.082223
2139.000000	43.134263
2138.000000	43.434983
2137.000000	43.314132
2136.000000	43.475308
2135.000000	43.466374
2134.000000	43.669549
2133.000000	43.749855
2132.000000	44.006746
2131.000000	44.094742
2130.000000	44.214818
2129.000000	43.806301
2128.000000	43.947455
2127.000000	44.041830
2126.000000	44.168253
2125.000000	44.190797
2124.000000	44.347285
2123.000000	44.317963
2122.000000	44.388819
2121.000000	44.384414
2120.000000	44.544807
2119.000000	44.438248
2118.000000	44.504027
2117.000000	44.590030
2116.000000	44.653885
2115.000000	44.557697
2114.000000	44.756736
2113.000000	44.800321
2112.000000	44.695617
2111.000000	44.685121
2110.000000	44.853851
2109.000000	44.845918
2108.000000	44.762712
2107.000000	44.713887
2106.000000	44.813030
2105.000000	44.807029
2104.000000	44.857957
2103.000000	44.826179
2102.000000	44.778388
2101.000000	44.939418
2100.000000	45.013099
2099.000000	44.787878
2098.000000	44.833987
2097.000000	44.895318
2096.000000	44.843436
2095.000000	44.813942
2094.000000	44.994312
2093.000000	44.940108
2092.000000	44.983973
2091.000000	44.807640
2090.000000	44.711533
2089.000000	44.769357
2088.000000	44.845553
2087.000000	44.711181
2086.000000	44.708817
2085.000000	44.776592
2084.000000	44.659693
2083.000000	44.617145
2082.000000	44.537235
2081.000000	44.489953
2080.000000	44.426387
2079.000000	44.318506
2078.000000	44.223606
2077.000000	44.182745
2076.000000	44.141849
2075.000000	44.045750
2074.000000	43.981870
2073.000000	43.825853
2072.000000	43.680802
2071.000000	43.597243
2070.000000	43.523602
2069.000000	43.431537
2068.000000	43.305839
2067.000000	43.145818
2066.000000	43.042248
2065.000000	42.930160
2064.000000	42.865681
2063.000000	42.708014
2062.000000	42.605535
2061.000000	42.405046
2060.000000	42.221034
2059.000000	42.066385
2058.000000	41.956952
2057.000000	41.854277
2056.000000	41.750916
2055.000000	41.604087
2054.000000	41.501889
2053.000000	41.338319
2052.000000	41.212321
2051.000000	41.065184
2050.000000	40.989019
2049.000000	40.965132
2048.000000	40.860785
2047.000000	40.756515
2046.000000	40.666543
2045.000000	40.579434
2044.000000	40.599620
2043.000000	40.596411
2042.000000	40.580437
2041.000000	40.605160
2040.000000	40.543540
2039.000000	40.541448
2038.000000	40.627142
2037.000000	40.624100
2036.000000	40.685928
2035.000000	40.758588
2034.000000	40.853523
2033.000000	40.977165
2032.000000	41.042621
2031.000000	41.120794
2030.000000	41.250796
2029.000000	41.325130
2028.000000	41.426378
2027.000000	41.528083
2026.000000	41.604954
2025.000000	41.683686
2024.000000	41.753526
2023.000000	41.862086
2022.000000	41.880052
2021.000000	41.872058
2020.000000	41.962892
2019.000000	41.994412
2018.000000	41.973571
2017.000000	42.022445
2016.000000	42.023839
2015.000000	41.981330
2014.000000	42.000544
2013.000000	41.924177
2012.000000	41.868525
2011.000000	41.863466
2010.000000	41.806450
2009.000000	41.753855
2008.000000	41.704670
2007.000000	41.626609
2006.000000	41.546518
2005.000000	41.469299
2004.000000	41.364358
2003.000000	41.271179
2002.000000	41.199046
2001.000000	41.090388
2000.000000	41.026922
1999.000000	40.921919
1998.000000	40.783668
1997.000000	40.715497
1996.000000	40.675450
1995.000000	40.554272
1994.000000	40.430346
1993.000000	40.316004
1992.000000	40.240591
1991.000000	40.176180
1990.000000	40.084168
1989.000000	39.942388
1988.000000	39.833786
1987.000000	39.759511
1986.000000	39.670314
1985.000000	39.549962
1984.000000	39.443153
1983.000000	39.343722
1982.000000	39.282944
1981.000000	39.191477
1980.000000	39.070707
1979.000000	38.956622
1978.000000	38.870355
1977.000000	38.780810
1976.000000	38.674005
1975.000000	38.563979
1974.000000	38.440366
1973.000000	38.351938
1972.000000	38.297271
1971.000000	38.225625
1970.000000	38.113458
1969.000000	38.067739
1968.000000	37.912577
1967.000000	37.843897
1966.000000	37.789278
1965.000000	37.635635
1964.000000	37.530025
1963.000000	37.479698
1962.000000	37.403073
1961.000000	37.310020
1960.000000	37.272022
1959.000000	37.164916
1958.000000	37.079444
1957.000000	37.013514
1956.000000	36.903335
1955.000000	36.857445
1954.000000	36.837956
1953.000000	36.775105
1952.000000	36.695350
1951.000000	36.684555
1950.000000	36.572446
1949.000000	36.583373
1948.000000	36.546038
1947.000000	36.574235
1946.000000	36.500636
1945.000000	36.583187
1944.000000	36.506741
1943.000000	36.523026
1942.000000	36.554176
1941.000000	36.636638
1940.000000	36.656532
1939.000000	36.788258
1938.000000	36.758332
1937.000000	36.924466
1936.000000	36.976117
1935.000000	37.068124
1934.000000	37.141609
1933.000000	37.222173
1932.000000	37.356775
1931.000000	37.460917
1930.000000	37.715203
1929.000000	37.832613
1928.000000	38.079642
1927.000000	38.305947
1926.000000	38.407084
1925.000000	38.606292
1924.000000	38.802089
1923.000000	39.135840
1922.000000	39.324629
1921.000000	39.669156
1920.000000	39.809742
1919.000000	40.074180
1918.000000	40.436125
1917.000000	40.767208
1916.000000	40.968748
1915.000000	41.445970
1914.000000	41.700038
1913.000000	42.125762
1912.000000	42.493733
1911.000000	42.833353
1910.000000	43.162240
1909.000000	43.574094
1908.000000	43.878805
1907.000000	44.309015
1906.000000	44.725095
1905.000000	45.151967
1904.000000	45.626111
1903.000000	46.084617
1902.000000	46.586761
1901.000000	47.002980
1900.000000	47.448989
1899.000000	47.961262
1898.000000	48.450395
1897.000000	48.837453
1896.000000	49.266195
1895.000000	49.715458
1894.000000	50.168003
1893.000000	50.604508
1892.000000	50.969512
1891.000000	51.360979
1890.000000	51.758565
1889.000000	52.169334
1888.000000	52.506551
1887.000000	52.897611
1886.000000	53.311973
1885.000000	53.635230
1884.000000	53.934408
1883.000000	54.300055
1882.000000	54.636207
1881.000000	54.887137
1880.000000	55.112512
1879.000000	55.373174
1878.000000	55.616917
1877.000000	55.861971
1876.000000	55.996224
1875.000000	56.309482
1874.000000	56.524609
1873.000000	56.684154
1872.000000	56.826090
1871.000000	56.930024
1870.000000	57.090469
1869.000000	57.238255
1868.000000	57.352172
1867.000000	57.405176
1866.000000	57.492340
1865.000000	57.580309
1864.000000	57.663297
1863.000000	57.724741
1862.000000	57.785050
1861.000000	57.812389
1860.000000	57.914240
1859.000000	57.887253
1858.000000	57.981578
1857.000000	58.054490
1856.000000	58.067557
1855.000000	58.076048
1854.000000	58.092531
1853.000000	58.116249
1852.000000	58.084663
1851.000000	58.132495
1850.000000	58.137219
1849.000000	58.110431
1848.000000	58.062204
1847.000000	58.104110
1846.000000	58.101480
1845.000000	58.115193
1844.000000	58.067945
1843.000000	58.023413
1842.000000	58.027207
1841.000000	57.996318
1840.000000	57.978431
1839.000000	57.983889
1838.000000	57.931062
1837.000000	57.888832
1836.000000	57.874374
1835.000000	57.849045
1834.000000	57.788315
1833.000000	57.759459
1832.000000	57.721968
1831.000000	57.660638
1830.000000	57.637933
1829.000000	57.613440
1828.000000	57.587598
1827.000000	57.540051
1826.000000	57.491617
1825.000000	57.466929
1824.000000	57.461972
1823.000000	57.414907
1822.000000	57.375464
1821.000000	57.359908
1820.000000	57.328827
1819.000000	57.289586
1818.000000	57.254062
1817.000000	57.241151
1816.000000	57.214021
1815.000000	57.191969
1814.000000	57.161482
1813.000000	57.146298
1812.000000	57.129660
1811.000000	57.074465
1810.000000	57.050180
1809.000000	57.056304
1808.000000	57.023505
1807.000000	56.976474
1806.000000	56.958167
1805.000000	56.930994
1804.000000	56.898815
1803.000000	56.879303
1802.000000	56.840549
1801.000000	56.824112
1800.000000	56.805568
1799.000000	56.773291
1798.000000	56.749950
1797.000000	56.736830
1796.000000	56.710241
1795.000000	56.689403
1794.000000	56.687320
1793.000000	56.658850
1792.000000	56.640087
1791.000000	56.623349
1790.000000	56.611250
1789.000000	56.606418
1788.000000	56.575738
1787.000000	56.539629
1786.000000	56.531985
1785.000000	56.488622
1784.000000	56.458199
1783.000000	56.440584
1782.000000	56.405993
1781.000000	56.375604
1780.000000	56.313941
1779.000000	56.283050
1778.000000	56.250000
1777.000000	56.196244
1776.000000	56.131487
1775.000000	56.083653
1774.000000	56.029293
1773.000000	55.972334
1772.000000	55.888079
1771.000000	55.840108
1770.000000	55.821420
1769.000000	55.751836
1768.000000	55.722760
1767.000000	55.649733
1766.000000	55.609918
1765.000000	55.566074
1764.000000	55.539895
1763.000000	55.476760
1762.000000	55.419096
1761.000000	55.387787
1760.000000	55.314902
1759.000000	55.288989
1758.000000	55.282621
1757.000000	55.222706
1756.000000	55.157381
1755.000000	55.153143
1754.000000	55.133054
1753.000000	55.076120
1752.000000	55.034518
1751.000000	54.990538
1750.000000	54.919716
1749.000000	54.899047
1748.000000	54.818635
1747.000000	54.768114
1746.000000	54.721531
1745.000000	54.666931
1744.000000	54.610883
1743.000000	54.568934
1742.000000	54.488709
1741.000000	54.446136
1740.000000	54.370308
1739.000000	54.304507
1738.000000	54.302173
1737.000000	54.256883
1736.000000	54.211762
1735.000000	54.218876
1734.000000	54.234963
1733.000000	54.198231
1732.000000	54.176148
1731.000000	54.186050
1730.000000	54.189176
1729.000000	54.176581
1728.000000	54.239834
1727.000000	54.286394
1726.000000	54.358922
1725.000000	54.417250
1724.000000	54.517133
1723.000000	54.545741
1722.000000	54.634389
1721.000000	54.755112
1720.000000	54.853685
1719.000000	54.946942
1718.000000	55.054095
1717.000000	55.098291
1716.000000	55.202937
1715.000000	55.309151
1714.000000	55.386208
1713.000000	55.469914
1712.000000	55.537550
1711.000000	55.598506
1710.000000	55.658651
1709.000000	55.755117
1708.000000	55.824498
1707.000000	55.862025
1706.000000	55.898237
1705.000000	55.938835
1704.000000	55.997312
1703.000000	56.058433
1702.000000	56.043420
1701.000000	56.078959
1700.000000	56.104258
1699.000000	56.147821
1698.000000	56.202263
1697.000000	56.223268
1696.000000	56.262214
1695.000000	56.297919
1694.000000	56.329992
1693.000000	56.417425
1692.000000	56.468491
1691.000000	56.525510
1690.000000	56.581525
1689.000000	56.652680
1688.000000	56.738947
1687.000000	56.862492
1686.000000	56.945795
1685.000000	57.093301
1684.000000	57.206852
1683.000000	57.322368
1682.000000	57.464540
1681.000000	57.626902
1680.000000	57.716115
1679.000000	57.864421
1678.000000	58.013106
1677.000000	58.113710
1676.000000	58.259539
1675.000000	58.439996
1674.000000	58.550905
1673.000000	58.671922
1672.000000	58.842631
1671.000000	58.953145
1670.000000	59.052947
1669.000000	59.170942
1668.000000	59.270939
1667.000000	59.391916
1666.000000	59.456856
1665.000000	59.518643
1664.000000	59.579526
1663.000000	59.632447
1662.000000	59.725164
1661.000000	59.773953
1660.000000	59.816359
1659.000000	59.917357
1658.000000	59.967159
1657.000000	59.972994
1656.000000	59.987749
1655.000000	60.020804
1654.000000	60.041046
1653.000000	60.047965
1652.000000	60.073277
1651.000000	60.032181
1650.000000	60.064313
1649.000000	60.065974
1648.000000	60.024926
1647.000000	60.058496
1646.000000	60.032326
1645.000000	60.055775
1644.000000	60.007883
1643.000000	59.965234
1642.000000	59.971718
1641.000000	59.952300
1640.000000	59.937612
1639.000000	59.916282
1638.000000	59.904791
1637.000000	59.882193
1636.000000	59.832467
1635.000000	59.825056
1634.000000	59.787095
1633.000000	59.748000
1632.000000	59.733010
1631.000000	59.679982
1630.000000	59.662793
1629.000000	59.631929
1628.000000	59.593356
1627.000000	59.578778
1626.000000	59.551566
1625.000000	59.522637
1624.000000	59.474070
1623.000000	59.433201
1622.000000	59.398003
1621.000000	59.340135
1620.000000	59.311705
1619.000000	59.264184
1618.000000	59.235717
1617.000000	59.205417
1616.000000	59.150883
1615.000000	59.110262
1614.000000	59.081600
1613.000000	59.026468
1612.000000	58.970064
1611.000000	58.924407
1610.000000	58.876161
1609.000000	58.829684
1608.000000	58.785899
1607.000000	58.748898
1606.000000	58.682565
1605.000000	58.641203
1604.000000	58.609050
1603.000000	58.541010
1602.000000	58.500142
1601.000000	58.457306
1600.000000	58.403341
1599.000000	58.360549
1598.000000	58.310858
1597.000000	58.257119
1596.000000	58.228501
1595.000000	58.201024
1594.000000	58.151550
1593.000000	58.103261
1592.000000	58.056069
1591.000000	58.000077
1590.000000	57.965730
1589.000000	57.927185
1588.000000	57.882314
1587.000000	57.857023
1586.000000	57.828139
1585.000000	57.778721
1584.000000	57.749445
1583.000000	57.735111
1582.000000	57.685588
1581.000000	57.649173
1580.000000	57.618313
1579.000000	57.583236
1578.000000	57.562423
1577.000000	57.518713
1576.000000	57.464753
1575.000000	57.436067
1574.000000	57.382846
1573.000000	57.327869
1572.000000	57.300083
1571.000000	57.275009
1570.000000	57.242606
1569.000000	57.223268
1568.000000	57.189301
1567.000000	57.144903
1566.000000	57.139854
1565.000000	57.115510
1564.000000	57.086850
1563.000000	57.072090
1562.000000	57.062160
1561.000000	57.045103
1560.000000	57.028225
1559.000000	56.990273
1558.000000	56.970791
1557.000000	56.952067
1556.000000	56.912768
1555.000000	56.927753
1554.000000	56.916121
1553.000000	56.877370
1552.000000	56.861294
1551.000000	56.819179
1550.000000	56.801241
1549.000000	56.764149
1548.000000	56.735634
1547.000000	56.690615
1546.000000	56.646495
1545.000000	56.600430
1544.000000	56.530480
1543.000000	56.471821
1542.000000	56.424835
1541.000000	56.352884
1540.000000	56.290370
1539.000000	56.229881
1538.000000	56.170287
1537.000000	56.072202
1536.000000	56.018158
1535.000000	55.947947
1534.000000	55.893370
1533.000000	55.799233
1532.000000	55.706213
1531.000000	55.654882
1530.000000	55.608020
1529.000000	55.521254
1528.000000	55.465738
1527.000000	55.414803
1526.000000	55.344720
1525.000000	55.312486
1524.000000	55.253592
1523.000000	55.201291
1522.000000	55.142182
1521.000000	55.125502
1520.000000	55.083730
1519.000000	55.048273
1518.000000	55.029690
1517.000000	54.995430
1516.000000	54.951352
1515.000000	54.943780
1514.000000	54.897370
1513.000000	54.897771
1512.000000	54.863483
1511.000000	54.833022
1510.000000	54.830245
1509.000000	54.793218
1508.000000	54.800349
1507.000000	54.792254
1506.000000	54.770331
1505.000000	54.778855
1504.000000	54.746415
1503.000000	54.759881
1502.000000	54.733315
1501.000000	54.693247
1500.000000	54.713681
1499.000000	54.729356
1498.000000	54.725524
1497.000000	54.726045
1496.000000	54.754948
1495.000000	54.772859
1494.000000	54.769490
1493.000000	54.808879
1492.000000	54.813108
1491.000000	54.830124
1490.000000	54.855561
1489.000000	54.888799
1488.000000	54.935890
1487.000000	54.948219
1486.000000	54.984865
1485.000000	55.034228
1484.000000	55.060470
1483.000000	55.114527
1482.000000	55.155047
1481.000000	55.192961
1480.000000	55.236393
1479.000000	55.279251
1478.000000	55.315647
1477.000000	55.360618
1476.000000	55.385140
1475.000000	55.431541
1474.000000	55.462965
1473.000000	55.521653
1472.000000	55.554416
1471.000000	55.591014
1470.000000	55.640047
1469.000000	55.676100
1468.000000	55.696619
1467.000000	55.742666
1466.000000	55.790424
1465.000000	55.842591
1464.000000	55.863158
1463.000000	55.898436
1462.000000	55.938963
1461.000000	55.964370
1460.000000	56.020985
1459.000000	56.052282
1458.000000	56.090474
1457.000000	56.129507
1456.000000	56.191744
1455.000000	56.249651
1454.000000	56.278951
1453.000000	56.329714
1452.000000	56.387548
1451.000000	56.443326
1450.000000	56.515237
1449.000000	56.521845
1448.000000	56.587624
1447.000000	56.657574
1446.000000	56.709229
1445.000000	56.790789
1444.000000	56.861724
1443.000000	56.914785
1442.000000	56.992186
1441.000000	57.065523
1440.000000	57.142002
1439.000000	57.202396
1438.000000	57.275614
1437.000000	57.359004
1436.000000	57.457749
1435.000000	57.543511
1434.000000	57.624280
1433.000000	57.740874
1432.000000	57.822667
1431.000000	57.903899
1430.000000	57.996659
1429.000000	58.090052
1428.000000	58.211226
1427.000000	58.308486
1426.000000	58.418108
1425.000000	58.523239
1424.000000	58.633320
1423.000000	58.776199
1422.000000	58.915720
1421.000000	59.018128
1420.000000	59.139762
1419.000000	59.275490
1418.000000	59.400990
1417.000000	59.527665
1416.000000	59.659085
1415.000000	59.790293
1414.000000	59.921706
1413.000000	60.058050
1412.000000	60.216211
1411.000000	60.340018
1410.000000	60.481043
1409.000000	60.613613
1408.000000	60.752621
1407.000000	60.874607
1406.000000	61.017969
1405.000000	61.154411
1404.000000	61.269511
1403.000000	61.398837
1402.000000	61.514624
1401.000000	61.616689
1400.000000	61.748058
1399.000000	61.874944
1398.000000	61.988173
1397.000000	62.105688
1396.000000	62.214036
1395.000000	62.318011
1394.000000	62.410026
1393.000000	62.517970
1392.000000	62.608955
1391.000000	62.719431
1390.000000	62.820920
1389.000000	62.892078
1388.000000	62.972858
1387.000000	63.043878
1386.000000	63.117133
1385.000000	63.205635
1384.000000	63.281051
1383.000000	63.346480
1382.000000	63.405883
1381.000000	63.472914
1380.000000	63.518820
1379.000000	63.563778
1378.000000	63.633356
1377.000000	63.691051
1376.000000	63.741187
1375.000000	63.787694
1374.000000	63.821651
1373.000000	63.866575
1372.000000	63.903967
1371.000000	63.938958
1370.000000	63.977106
1369.000000	64.021427
1368.000000	64.047068
1367.000000	64.091983
1366.000000	64.139724
1365.000000	64.155670
1364.000000	64.189834
1363.000000	64.236074
1362.000000	64.269467
1361.000000	64.308228
1360.000000	64.343131
1359.000000	64.375432
1358.000000	64.413684
1357.000000	64.443889
1356.000000	64.491357
1355.000000	64.537504
1354.000000	64.547718
1353.000000	64.591745
1352.000000	64.655298
1351.000000	64.688028
1350.000000	64.711137
1349.000000	64.751098
1348.000000	64.809074
1347.000000	64.833834
1346.000000	64.859822
1345.000000	64.886975
1344.000000	64.924035
1343.000000	64.957321
1342.000000	64.994783
1341.000000	65.042308
1340.000000	65.075925
1339.000000	65.098224
1338.000000	65.128463
1337.000000	65.147365
1336.000000	65.180884
1335.000000	65.194640
1334.000000	65.210227
1333.000000	65.250945
1332.000000	65.270841
1331.000000	65.272899
1330.000000	65.264999
1329.000000	65.277952
1328.000000	65.289053
1327.000000	65.317505
1326.000000	65.347506
1325.000000	65.417602
1324.000000	65.491098
1323.000000	65.512238
1322.000000	65.533688
1321.000000	65.537729
1320.000000	65.531261
1319.000000	65.519807
1318.000000	65.537861
1317.000000	65.530715
1316.000000	65.536854
1315.000000	65.565346
1314.000000	65.564200
1313.000000	65.561820
1312.000000	65.597610
1311.000000	65.605485
1310.000000	65.575281
1309.000000	65.609972
1308.000000	65.598081
1307.000000	65.609214
1306.000000	65.605807
1305.000000	65.621471
1304.000000	65.641913
1303.000000	65.634411
1302.000000	65.656798
1301.000000	65.665170
1300.000000	65.678706
1299.000000	65.655065
1298.000000	65.670594
1297.000000	65.673276
1296.000000	65.661134
1295.000000	65.664163
1294.000000	65.653487
1293.000000	65.669022
1292.000000	65.658475
1291.000000	65.660826
1290.000000	65.646915
1289.000000	65.652862
1288.000000	65.671864
1287.000000	65.655372
1286.000000	65.590469
1285.000000	65.597684
1284.000000	65.597246
1283.000000	65.608496
1282.000000	65.610487
1281.000000	65.604308
1280.000000	65.591561
1279.000000	65.599821
1278.000000	65.603772
1277.000000	65.601844
1276.000000	65.598309
1275.000000	65.584111
1274.000000	65.590643
1273.000000	65.575092
1272.000000	65.566876
1271.000000	65.566694
1270.000000	65.556886
1269.000000	65.559296
1268.000000	65.562181
1267.000000	65.567629
1266.000000	65.561020
1265.000000	65.540834
1264.000000	65.580915
1263.000000	65.600625
1262.000000	65.605954
1261.000000	65.573974
1260.000000	65.595665
1259.000000	65.608447
1258.000000	65.581392
1257.000000	65.592531
1256.000000	65.604080
1255.000000	65.616631
1254.000000	65.594376
1253.000000	65.597847
1252.000000	65.590898
1251.000000	65.582759
1250.000000	65.581884
1249.000000	65.582353
1248.000000	65.582227
1247.000000	65.554958
1246.000000	65.563377
1245.000000	65.560960
1244.000000	65.561181
1243.000000	65.530986
1242.000000	65.490308
1241.000000	65.489706
1240.000000	65.466392
1239.000000	65.461871
1238.000000	65.425460
1237.000000	65.423725
1236.000000	65.415935
1235.000000	65.396914
1234.000000	65.371503
1233.000000	65.343199
1232.000000	65.320069
1231.000000	65.299973
1230.000000	65.270766
1229.000000	65.224961
1228.000000	65.218673
1227.000000	65.195536
1226.000000	65.171761
1225.000000	65.162674
1224.000000	65.158433
1223.000000	65.126901
1222.000000	65.094245
1221.000000	65.085917
1220.000000	65.063652
1219.000000	65.040821
1218.000000	65.001140
1217.000000	64.975217
1216.000000	64.950982
1215.000000	64.933962
1214.000000	64.903819
1213.000000	64.916521
1212.000000	64.897817
1211.000000	64.894155
1210.000000	64.855311
1209.000000	64.821950
1208.000000	64.816794
1207.000000	64.817897
1206.000000	64.789728
1205.000000	64.794280
1204.000000	64.765332
1203.000000	64.747482
1202.000000	64.707988
1201.000000	64.713351
1200.000000	64.701207
1199.000000	64.677624
1198.000000	64.678762
1197.000000	64.665502
1196.000000	64.652565
1195.000000	64.630732
1194.000000	64.618794
1193.000000	64.616812
1192.000000	64.616216
1191.000000	64.599432
1190.000000	64.589398
1189.000000	64.559096
1188.000000	64.557908
1187.000000	64.569767
1186.000000	64.572921
1185.000000	64.583789
1184.000000	64.579120
1183.000000	64.579325
1182.000000	64.601831
1181.000000	64.629992
1180.000000	64.644488
1179.000000	64.662679
1178.000000	64.694957
1177.000000	64.721079
1176.000000	64.737034
1175.000000	64.760093
1174.000000	64.796145
1173.000000	64.836175
1172.000000	64.870897
1171.000000	64.893980
1170.000000	64.930266
1169.000000	64.974707
1168.000000	65.012429
1167.000000	65.055433
1166.000000	65.095947
1165.000000	65.128918
1164.000000	65.159691
1163.000000	65.203727
1162.000000	65.247469
1161.000000	65.280348
1160.000000	65.317161
1159.000000	65.378424
1158.000000	65.425415
1157.000000	65.451546
1156.000000	65.464131
1155.000000	65.474853
1154.000000	65.507759
1153.000000	65.539689
1152.000000	65.579245
1151.000000	65.619861
1150.000000	65.648843
1149.000000	65.679697
1148.000000	65.701157
1147.000000	65.726426
1146.000000	65.756253
1145.000000	65.779799
1144.000000	65.802858
1143.000000	65.832860
1142.000000	65.855349
1141.000000	65.877055
1140.000000	65.896283
1139.000000	65.914334
1138.000000	65.922841
1137.000000	65.928703
1136.000000	65.948053
1135.000000	65.960237
1134.000000	65.970568
1133.000000	65.993526
1132.000000	66.009967
1131.000000	66.034112
1130.000000	66.054967
1129.000000	66.072687
1128.000000	66.081853
1127.000000	66.077520
1126.000000	66.087988
1125.000000	66.104595
1124.000000	66.093192
1123.000000	66.112132
1122.000000	66.115817
1121.000000	66.119934
1120.000000	66.116326
1119.000000	66.116414
1118.000000	66.111798
1117.000000	66.108328
1116.000000	66.123141
1115.000000	66.117601
1114.000000	66.120962
1113.000000	66.129867
1112.000000	66.126474
1111.000000	66.133930
1110.000000	66.139876
1109.000000	66.128547
1108.000000	66.119900
1107.000000	66.109350
1106.000000	66.110735
1105.000000	66.104580
1104.000000	66.109056
1103.000000	66.101605
1102.000000	66.102676
1101.000000	66.100882
1100.000000	66.117872
1099.000000	66.092243
1098.000000	66.085439
1097.000000	66.095635
1096.000000	66.082007
1095.000000	66.075380
1094.000000	66.079583
1093.000000	66.075359
1092.000000	66.050432
1091.000000	66.053115
1090.000000	66.048072
1089.000000	66.060168
1088.000000	66.047741
1087.000000	66.040964
1086.000000	66.023032
1085.000000	66.024260
1084.000000	66.023040
1083.000000	66.026276
1082.000000	66.017378
1081.000000	65.998639
1080.000000	65.970822
1079.000000	65.972111
1078.000000	65.969073
1077.000000	65.973910
1076.000000	65.973670
1075.000000	65.968327
1074.000000	65.922665
1073.000000	65.932999
1072.000000	65.917692
1071.000000	65.922605
1070.000000	65.902828
1069.000000	65.906082
1068.000000	65.880426
1067.000000	65.871720
1066.000000	65.877651
1065.000000	65.882725
1064.000000	65.860467
1063.000000	65.851363
1062.000000	65.823815
1061.000000	65.835935
1060.000000	65.832423
1059.000000	65.840376
1058.000000	65.821971
1057.000000	65.848195
1056.000000	65.836104
1055.000000	65.815799
1054.000000	65.804601
1053.000000	65.794717
1052.000000	65.796081
1051.000000	65.758016
1050.000000	65.750250
1049.000000	65.771572
1048.000000	65.739580
1047.000000	65.730029
1046.000000	65.744085
1045.000000	65.721108
1044.000000	65.735066
1043.000000	65.694930
1042.000000	65.704645
1041.000000	65.694877
1040.000000	65.702203
1039.000000	65.697821
1038.000000	65.667534
1037.000000	65.668525
1036.000000	65.672391
1035.000000	65.658508
1034.000000	65.650862
1033.000000	65.659644
1032.000000	65.631673
1031.000000	65.625333
1030.000000	65.617634
1029.000000	65.622978
1028.000000	65.617607
1027.000000	65.606531
1026.000000	65.595442
1025.000000	65.587247
1024.000000	65.595457
1023.000000	65.572061
1022.000000	65.572432
1021.000000	65.565186
1020.000000	65.567662
1019.000000	65.560149
1018.000000	65.561451
1017.000000	65.551453
1016.000000	65.525784
1015.000000	65.527637
1014.000000	65.552029
1013.000000	65.541548
1012.000000	65.526151
1011.000000	65.522873
1010.000000	65.520643
1009.000000	65.505451
1008.000000	65.487064
1007.000000	65.484788
1006.000000	65.503078
1005.000000	65.501509
1004.000000	65.467295
1003.000000	65.465798
1002.000000	65.473832
1001.000000	65.476876
1000.000000	65.483571
999.000000	65.471390
998.000000	65.482365
997.000000	65.475853
996.000000	65.453327
995.000000	65.454800
994.000000	65.453326
993.000000	65.423852
992.000000	65.421478
991.000000	65.422817
990.000000	65.411989
989.000000	65.410995
988.000000	65.405631
987.000000	65.398204
986.000000	65.393833
985.000000	65.404004
984.000000	65.384984
983.000000	65.399747
982.000000	65.418664
981.000000	65.417756
980.000000	65.422576
979.000000	65.395001
978.000000	65.415565
977.000000	65.403572
976.000000	65.384047
975.000000	65.367164
974.000000	65.381947
973.000000	65.406666
972.000000	65.397111
971.000000	65.384341
970.000000	65.383893
969.000000	65.380709
968.000000	65.384701
967.000000	65.393187
966.000000	65.396970
965.000000	65.382154
964.000000	65.364119
963.000000	65.369156
962.000000	65.380976
961.000000	65.377466
960.000000	65.366340
959.000000	65.373905
958.000000	65.366742
957.000000	65.342099
956.000000	65.347192
955.000000	65.354943
954.000000	65.362871
953.000000	65.352354
952.000000	65.331770
951.000000	65.349637
950.000000	65.358110
949.000000	65.327309
948.000000	65.323540
947.000000	65.316661
946.000000	65.306800
945.000000	65.314137
944.000000	65.321857
943.000000	65.320435
942.000000	65.302973
941.000000	65.279547
940.000000	65.296808
939.000000	65.294123
938.000000	65.282166
937.000000	65.278088
936.000000	65.266077
935.000000	65.268231
934.000000	65.261352
933.000000	65.263985
932.000000	65.250135
931.000000	65.241892
930.000000	65.250435
929.000000	65.228921
928.000000	65.210758
927.000000	65.195213
926.000000	65.194918
925.000000	65.172014
924.000000	65.171397
923.000000	65.205754
922.000000	65.199413
921.000000	65.174374
920.000000	65.174445
919.000000	65.175663
918.000000	65.141568
917.000000	65.121108
916.000000	65.123727
915.000000	65.126724
914.000000	65.095628
913.000000	65.085110
912.000000	65.081046
911.000000	65.074369
910.000000	65.107008
909.000000	65.067695
908.000000	65.086204
907.000000	65.100682
906.000000	65.053706
905.000000	65.051301
904.000000	65.008711
903.000000	65.006989
902.000000	65.033829
901.000000	65.039909
900.000000	65.024608
899.000000	65.010228
898.000000	65.011539
897.000000	65.026432
896.000000	64.983058
895.000000	65.003127
894.000000	64.999913
893.000000	64.952500
892.000000	64.968164
891.000000	65.044117
890.000000	64.953956
889.000000	64.964141
888.000000	64.908038
887.000000	64.938176
886.000000	64.949373
885.000000	64.879769
884.000000	64.840729
883.000000	64.898888
882.000000	64.901108
881.000000	64.920342
880.000000	64.904489
879.000000	64.911252
878.000000	64.881722
877.000000	64.826902
876.000000	64.907619
875.000000	64.909469
874.000000	64.822689
873.000000	64.844230
872.000000	64.809224
871.000000	64.814737
870.000000	64.800229
869.000000	64.698407
868.000000	64.707755
867.000000	64.722170
866.000000	64.878058
865.000000	64.786592
864.000000	64.713341
863.000000	64.748480
862.000000	64.770693
861.000000	64.710517
860.000000	64.623125
859.000000	63.261595
858.000000	62.743209
857.000000	63.051538
856.000000	63.087908
855.000000	63.067336
854.000000	63.061039
853.000000	63.447871
852.000000	62.886346
851.000000	62.779931
850.000000	63.145961
849.000000	63.072897
848.000000	62.735682
847.000000	63.040884
846.000000	63.081246
845.000000	63.179076
844.000000	62.885639
843.000000	63.152430
842.000000	62.983812
841.000000	62.891395
840.000000	62.827530
839.000000	62.901822
838.000000	63.086347
837.000000	62.806507
836.000000	62.749444
835.000000	62.931219
834.000000	63.045289
833.000000	62.885183
832.000000	62.613794
831.000000	62.826606
830.000000	62.874861
829.000000	62.814370
828.000000	62.820662
827.000000	62.825888
826.000000	62.704820
825.000000	62.587193
824.000000	62.788988
823.000000	62.560963
822.000000	62.796560
821.000000	62.598842
820.000000	62.839538
819.000000	62.664544
818.000000	62.652672
817.000000	62.645947
816.000000	62.476566
815.000000	62.528613
814.000000	62.687050
813.000000	62.568773
812.000000	62.407718
811.000000	62.587548
810.000000	62.335818
809.000000	62.501854
808.000000	62.347897
807.000000	62.350036
806.000000	62.347556
805.000000	62.383786
804.000000	62.344837
803.000000	62.293814
802.000000	62.175759
801.000000	62.163241
800.000000	62.132074
799.000000	62.234915
798.000000	62.289886
797.000000	62.313752
796.000000	62.202492
795.000000	62.229717
794.000000	62.098274
793.000000	62.091563
792.000000	61.941876
791.000000	62.100942
790.000000	61.912952
789.000000	62.061193
788.000000	62.133671
787.000000	62.068523
786.000000	62.116362
785.000000	61.786943
784.000000	61.748784
783.000000	61.811248
782.000000	61.827476
781.000000	61.903656
780.000000	61.756884
779.000000	61.837085
778.000000	61.828468
777.000000	61.664452
776.000000	61.594754
775.000000	61.630014
774.000000	61.560906
773.000000	61.518895
772.000000	61.642106
771.000000	61.678505
770.000000	61.538921
769.000000	61.580585
768.000000	61.514445
767.000000	61.481456
766.000000	61.456824
765.000000	61.446923
764.000000	61.364644
763.000000	61.399514
762.000000	61.336698
761.000000	61.209536
760.000000	61.212897
759.000000	61.222235
758.000000	61.151573
757.000000	61.149389
756.000000	61.081702
755.000000	61.047645
754.000000	61.019057
753.000000	60.942193
752.000000	60.935731
751.000000	60.854036
750.000000	60.884401
749.000000	60.904172
748.000000	60.827992
747.000000	60.771171
746.000000	60.737837
745.000000	60.770390
744.000000	60.777862
743.000000	60.694204
742.000000	60.660644
741.000000	60.659851
740.000000	60.566816
739.000000	60.513239
738.000000	60.460459
737.000000	60.429386
736.000000	60.330735
735.000000	60.348543
734.000000	60.231131
733.000000	60.260842
732.000000	60.235310
731.000000	60.151643
730.000000	60.125664
729.000000	60.074519
728.000000	60.030916
727.000000	59.989060
726.000000	59.992411
725.000000	59.976743
724.000000	59.909796
723.000000	59.857688
722.000000	59.773609
721.000000	59.779723
720.000000	59.745380
719.000000	59.621736
718.000000	59.611659
717.000000	59.633695
716.000000	59.612243
715.000000	59.581449
714.000000	59.519967
713.000000	59.451957
712.000000	59.387446
711.000000	59.333432
710.000000	59.300636
709.000000	59.243850
708.000000	59.121685
707.000000	59.069558
706.000000	58.998800
705.000000	58.921664
704.000000	58.945925
703.000000	58.930628
702.000000	58.846382
701.000000	58.781948
700.000000	58.739328
699.000000	58.692803
698.000000	58.625753
697.000000	58.543353
696.000000	58.535364
695.000000	58.488870
694.000000	58.409919
693.000000	58.362464
692.000000	58.286769
691.000000	58.231361
690.000000	58.187572
689.000000	58.030396
688.000000	57.943837
687.000000	57.905195
686.000000	57.849872
685.000000	57.796432
684.000000	57.742186
683.000000	57.685244
682.000000	57.602046
681.000000	57.537925
680.000000	57.422294
679.000000	57.364781
678.000000	57.366080
677.000000	57.265485
676.000000	57.176389
675.000000	57.106981
674.000000	57.061421
673.000000	56.966404
672.000000	56.920469
671.000000	56.880337
670.000000	56.769947
669.000000	56.739124
668.000000	56.662995
667.000000	56.576631
666.000000	56.519602
665.000000	56.388254
664.000000	56.291719
663.000000	56.240421
662.000000	56.144815
661.000000	56.113802
660.000000	56.069261
659.000000	56.009622
658.000000	55.901483
657.000000	55.776492
656.000000	55.670864
655.000000	55.609295
654.000000	55.558860
653.000000	55.444104
652.000000	55.316597
651.000000	55.334500
650.000000	55.263523
649.000000	55.164553
648.000000	55.072556
647.000000	54.979633
646.000000	54.856196
645.000000	54.741242
644.000000	54.740215
643.000000	54.627182
642.000000	54.550782
641.000000	54.481496
640.000000	54.371950
639.000000	54.267348
638.000000	54.199102
637.000000	54.061172
636.000000	54.015507
635.000000	53.937208
634.000000	53.816519
633.000000	53.737215
632.000000	53.634563
631.000000	53.578336
630.000000	53.450842
629.000000	53.376354
628.000000	53.268029
627.000000	53.171263
626.000000	53.028583
625.000000	52.916642
624.000000	52.880015
623.000000	52.775065
622.000000	52.633308
621.000000	52.619332
620.000000	52.490818
619.000000	52.330380
618.000000	52.251205
617.000000	52.183871
616.000000	52.038555
615.000000	51.915445
614.000000	51.806084
613.000000	51.730593
612.000000	51.545154
611.000000	51.506932
610.000000	51.378260
609.000000	51.303068
608.000000	51.160514
607.000000	51.081455
606.000000	50.943454
605.000000	50.795545
604.000000	50.704491
603.000000	50.583057
602.000000	50.479215
601.000000	50.356280
600.000000	50.300476
599.000000	50.159108
598.000000	50.045241
597.000000	49.896212
596.000000	49.817530
595.000000	49.620412
594.000000	49.560282
593.000000	49.481620
592.000000	49.298292
591.000000	49.188761
590.000000	49.002681
589.000000	48.904930
588.000000	48.830037
587.000000	48.671386
586.000000	48.566519
585.000000	48.460803
584.000000	48.314962
583.000000	48.154560
582.000000	48.068321
581.000000	47.933192
580.000000	47.823129
579.000000	47.648541
578.000000	47.521194
577.000000	47.362543
576.000000	47.272370
575.000000	47.108141
574.000000	46.969861
573.000000	46.880583
572.000000	46.751482
571.000000	46.603073
570.000000	46.460953
569.000000	46.344800
568.000000	46.119568
567.000000	46.048645
566.000000	45.909171
565.000000	45.735939
564.000000	45.607547
563.000000	45.457190
562.000000	45.267700
561.000000	45.177327
560.000000	45.042241
559.000000	44.949170
558.000000	44.747130
557.000000	44.595241
556.000000	44.514680
555.000000	44.301221
554.000000	44.127544
553.000000	44.003166
552.000000	43.856543
551.000000	43.664514
550.000000	43.533026
549.000000	43.407500
548.000000	43.258756
547.000000	43.126257
546.000000	42.949905
545.000000	42.799708
544.000000	42.634985
543.000000	42.451686
542.000000	42.277582
541.000000	42.150413
540.000000	41.977128
539.000000	41.834482
538.000000	41.689621
537.000000	41.515892
536.000000	41.350852
535.000000	41.210817
534.000000	41.034279
533.000000	40.880748
532.000000	40.731123
531.000000	40.563508
530.000000	40.371999
529.000000	40.249087
528.000000	40.061137
527.000000	39.876025
526.000000	39.731662
525.000000	39.560341
524.000000	39.412625
523.000000	39.264832
522.000000	39.063017
521.000000	38.913669
520.000000	38.755591
519.000000	38.602097
518.000000	38.431501
517.000000	38.282411
516.000000	38.086322
515.000000	37.895566
514.000000	37.738267
513.000000	37.581086
512.000000	37.411911
511.000000	37.242814
510.000000	37.106198
509.000000	36.917041
508.000000	36.766422
507.000000	36.632491
506.000000	36.424296
505.000000	36.240282
504.000000	36.076007
503.000000	35.911781
502.000000	35.746850
501.000000	35.593580
500.000000	35.423327
499.000000	35.249701
498.000000	35.087801
497.000000	34.907708
496.000000	34.745316
495.000000	34.612062
494.000000	34.402121
493.000000	34.219134
492.000000	34.092720
491.000000	33.939397
490.000000	33.768981
489.000000	33.596201
488.000000	33.432382
487.000000	33.269839
486.000000	33.065345
485.000000	32.896705
484.000000	32.778194
483.000000	32.654117
482.000000	32.480419
481.000000	32.297237
480.000000	32.111217
479.000000	31.973559
478.000000	31.804887
477.000000	31.664547
476.000000	31.504466
475.000000	31.324183
474.000000	31.156274
473.000000	31.009115
472.000000	30.848696
471.000000	30.664781
470.000000	30.523180
469.000000	30.364783
468.000000	30.207997
467.000000	30.043432
466.000000	29.872248
465.000000	29.713110
464.000000	29.546019
463.000000	29.380939
462.000000	29.211975
461.000000	29.035086
460.000000	28.873044
459.000000	28.712883
458.000000	28.565555
457.000000	28.409896
456.000000	28.213960
455.000000	28.054045
454.000000	27.894572
453.000000	27.708143
452.000000	27.539468
451.000000	27.356497
450.000000	27.190039
449.000000	27.007733
448.000000	26.799101
447.000000	26.621963
446.000000	26.460908
445.000000	26.294954
444.000000	26.104805
443.000000	25.937132
442.000000	25.784873
441.000000	25.576072
440.000000	25.357511
439.000000	25.194822
438.000000	25.016591
437.000000	24.798824
436.000000	24.615464
435.000000	24.438732
434.000000	24.261696
433.000000	24.072966
432.000000	23.887460
431.000000	23.692040
430.000000	23.509442
429.000000	23.344075
428.000000	23.155512
427.000000	22.958887
426.000000	22.777654
425.000000	22.588789
424.000000	22.406773
423.000000	22.245933
422.000000	22.046071
421.000000	21.864984
420.000000	21.707687
419.000000	21.551404
418.000000	21.367079
417.000000	21.166953
416.000000	20.998012
415.000000	20.808690
414.000000	20.605177
413.000000	20.450604
412.000000	20.260787
411.000000	20.063741
410.000000	19.901106
409.000000	19.760482
408.000000	19.571821
407.000000	19.410269
406.000000	19.234585
405.000000	19.036643
404.000000	18.880841
403.000000	18.703038
402.000000	18.526652
401.000000	18.358145
400.000000	18.213610
399.000000	18.027709
398.000000	17.875090
397.000000	17.681288
396.000000	17.533405
395.000000	17.388482
394.000000	17.215811
393.000000	17.054772
392.000000	16.869134
391.000000	16.693519
390.000000	16.550723
389.000000	16.372858
388.000000	16.225489
387.000000	16.060336
386.000000	15.910013
385.000000	15.756626
384.000000	15.575760
383.000000	15.414052
382.000000	15.259244
381.000000	15.052638
380.000000	14.898709
379.000000	14.727002
378.000000	14.561331
377.000000	14.413369
376.000000	14.224340
375.000000	14.100716
374.000000	13.980579
373.000000	13.815201
372.000000	13.632005
371.000000	13.519053
370.000000	13.358471
369.000000	13.245050
368.000000	13.089536
367.000000	12.909879
366.000000	12.729137
365.000000	12.640627
364.000000	12.504304
363.000000	12.342818
362.000000	12.199791
361.000000	12.104217
360.000000	11.912849
359.000000	11.796391
358.000000	11.714044
357.000000	11.586312
356.000000	11.467321
355.000000	11.353217
354.000000	11.229240
353.000000	11.120321
352.000000	11.034523
351.000000	10.863677
350.000000	10.807066
349.000000	10.684577
348.000000	10.608718
347.000000	10.451266
346.000000	10.360703
345.000000	10.242980
344.000000	10.141859
343.000000	10.080615
342.000000	9.940596
341.000000	9.848676
340.000000	9.755494
339.000000	9.660491
338.000000	9.589040
337.000000	9.526183
336.000000	9.420508
335.000000	9.297141
334.000000	9.143334
333.000000	9.132389
332.000000	9.059353
331.000000	8.894895
330.000000	8.874801
329.000000	8.734556
328.000000	8.653752
327.000000	8.650393
326.000000	8.548333
325.000000	8.502836
324.000000	8.427885
323.000000	8.423689
322.000000	8.335892
321.000000	8.344810
320.000000	8.257739
319.000000	8.177084
318.000000	8.171827
317.000000	8.155921
316.000000	8.152547
315.000000	8.095998
314.000000	8.069013
313.000000	8.043554
312.000000	7.979804
311.000000	7.910298
310.000000	7.915600
309.000000	7.889530
308.000000	7.835034
307.000000	7.771872
306.000000	7.791345
305.000000	7.753805
304.000000	7.737954
303.000000	7.703622
302.000000	7.683877
301.000000	7.678751
300.000000	7.649957
299.000000	7.605643
298.000000	7.598218
297.000000	7.575301
296.000000	7.572747
295.000000	7.480842
294.000000	7.446580
293.000000	7.452820
292.000000	7.422651
291.000000	7.376957
290.000000	7.339400
289.000000	7.311926
288.000000	7.266338
287.000000	7.222736
286.000000	7.243044
285.000000	7.234715
284.000000	7.230060
283.000000	7.240160
282.000000	7.293024
281.000000	7.304479
280.000000	7.300132
279.000000	7.350085
278.000000	7.312311
277.000000	7.361808
276.000000	7.401464
275.000000	7.440073
274.000000	7.478670
273.000000	7.517088
272.000000	7.567306
271.000000	7.591374
270.000000	7.633702
269.000000	7.664085
268.000000	7.712461
267.000000	7.733982
266.000000	7.810028
265.000000	7.870638
264.000000	7.925974
263.000000	7.982589
262.000000	8.082017
261.000000	8.162592
260.000000	8.180646
259.000000	8.266896
258.000000	8.354613
257.000000	8.404245
256.000000	8.464894
255.000000	8.536284
254.000000	8.602935
253.000000	8.676150
252.000000	8.710678
251.000000	8.737886
250.000000	8.790937
249.000000	8.849945
248.000000	8.838566
247.000000	8.856051
246.000000	8.825242
245.000000	8.842559
244.000000	8.820218
243.000000	8.753358
242.000000	8.665283
241.000000	8.624495
240.000000	8.531674
239.000000	8.463463
238.000000	8.348565
237.000000	8.211755
236.000000	8.101298
235.000000	7.939505
234.000000	7.803180
233.000000	7.670881
232.000000	7.545723
231.000000	7.424846
230.000000	7.308962
229.000000	7.197199
228.000000	7.071543
227.000000	6.950023
226.000000	6.890171
225.000000	6.865958
224.000000	6.714983
223.000000	6.666611
222.000000	6.681834
221.000000	6.655191
220.000000	6.628756
219.000000	6.603001
218.000000	6.547200
217.000000	6.574733
216.000000	6.648279
215.000000	6.670459
214.000000	6.665277
213.000000	6.670381
212.000000	6.666503
211.000000	6.707884
210.000000	6.813374
209.000000	6.910671
208.000000	7.053837
207.000000	7.135088
206.000000	7.144034
205.000000	7.312286
204.000000	7.460243
203.000000	7.651775
202.000000	7.937342
201.000000	8.121276
200.000000	8.143451
