PE UV       SUBTECH     SPECTRUM    ASCII       PEDS        4.00        
   -1
RDmsmeh72.Sample.asc
18/03/20
11:38:09.00
18/03/20
11:38:09.00
Administrator

200.000000
1
Lambda 750
750N8071901
PerkinElmer UV WinLab 6.0.4.0738 / 1.61.00 Lambda 900

0
0
3350/servo 860.8/2
0
0
UV/VIS
1
1
1
CommonBeamDepol,150mm sphere / downward view
0
0
0
0
Program
Program
3350/servo 860.8/2
3350/0.2 860.8/0.2
3350/0.2 860.8/0.2
0
1
 
 
 
0
 
860.8
319.2
860.8
Front
100
on
 
 
0
0
0
 
0
 
 
 
0
 
 
0
0
0
0
0
 
 
 
 
0
0


0
0
#HDR
-1
-1
#GR
nm
%R
1.0
0.0
2350.000000
-1.000000
2151
8
61.761005
9.373408
#DATA
2350.000000	39.874210
2349.000000	39.950067
2348.000000	40.599330
2347.000000	40.514303
2346.000000	40.378578
2345.000000	40.074554
2344.000000	39.996336
2343.000000	40.219448
2342.000000	40.361593
2341.000000	40.466292
2340.000000	40.632246
2339.000000	40.760914
2338.000000	40.627173
2337.000000	40.782426
2336.000000	40.874229
2335.000000	41.048280
2334.000000	40.940147
2333.000000	40.983899
2332.000000	41.017285
2331.000000	40.726528
2330.000000	40.704369
2329.000000	40.706336
2328.000000	40.922088
2327.000000	40.681328
2326.000000	40.672556
2325.000000	40.466193
2324.000000	40.539155
2323.000000	40.503497
2322.000000	40.399833
2321.000000	40.520640
2320.000000	40.363907
2319.000000	40.516442
2318.000000	40.357263
2317.000000	40.414014
2316.000000	40.259990
2315.000000	40.165061
2314.000000	40.066847
2313.000000	40.173256
2312.000000	40.078220
2311.000000	39.906817
2310.000000	39.793262
2309.000000	40.039742
2308.000000	39.869633
2307.000000	39.719645
2306.000000	39.599827
2305.000000	39.753195
2304.000000	39.745855
2303.000000	39.611573
2302.000000	39.693778
2301.000000	39.416396
2300.000000	39.403879
2299.000000	39.424431
2298.000000	39.233603
2297.000000	39.193617
2296.000000	39.299265
2295.000000	39.048441
2294.000000	38.848202
2293.000000	38.616248
2292.000000	38.679287
2291.000000	38.721153
2290.000000	38.864885
2289.000000	39.002107
2288.000000	38.919482
2287.000000	38.607178
2286.000000	38.657564
2285.000000	38.546282
2284.000000	38.486417
2283.000000	38.444636
2282.000000	38.539720
2281.000000	38.527275
2280.000000	38.542889
2279.000000	38.625878
2278.000000	38.521597
2277.000000	38.517334
2276.000000	38.558311
2275.000000	38.748479
2274.000000	38.813771
2273.000000	38.907953
2272.000000	38.837320
2271.000000	38.843138
2270.000000	38.880952
2269.000000	38.961921
2268.000000	38.994039
2267.000000	38.901428
2266.000000	39.026754
2265.000000	39.237277
2264.000000	39.433291
2263.000000	39.363425
2262.000000	39.320072
2261.000000	39.611389
2260.000000	39.800932
2259.000000	40.033205
2258.000000	40.270106
2257.000000	40.373952
2256.000000	40.516339
2255.000000	40.668502
2254.000000	40.731396
2253.000000	40.887031
2252.000000	41.092438
2251.000000	41.258994
2250.000000	41.333527
2249.000000	41.576319
2248.000000	41.675532
2247.000000	41.728595
2246.000000	41.870489
2245.000000	42.018059
2244.000000	42.329919
2243.000000	42.577513
2242.000000	42.663716
2241.000000	42.711107
2240.000000	42.836737
2239.000000	42.881432
2238.000000	43.007835
2237.000000	43.151788
2236.000000	43.190313
2235.000000	43.299324
2234.000000	43.422514
2233.000000	43.392051
2232.000000	43.428849
2231.000000	43.546687
2230.000000	43.561355
2229.000000	43.592817
2228.000000	43.621081
2227.000000	43.533116
2226.000000	43.540380
2225.000000	43.686111
2224.000000	43.490675
2223.000000	43.424666
2222.000000	43.519951
2221.000000	43.501503
2220.000000	43.586066
2219.000000	43.532174
2218.000000	43.366027
2217.000000	43.413198
2216.000000	43.451445
2215.000000	43.402199
2214.000000	43.522719
2213.000000	43.549348
2212.000000	43.450102
2211.000000	43.355590
2210.000000	43.337815
2209.000000	43.188271
2208.000000	43.221710
2207.000000	43.107306
2206.000000	43.040700
2205.000000	43.149042
2204.000000	43.165733
2203.000000	42.974749
2202.000000	42.850504
2201.000000	42.795630
2200.000000	42.862175
2199.000000	42.701337
2198.000000	42.655499
2197.000000	42.660756
2196.000000	42.555591
2195.000000	42.491106
2194.000000	42.514966
2193.000000	42.394215
2192.000000	42.392522
2191.000000	42.221927
2190.000000	42.211102
2189.000000	42.173722
2188.000000	42.145108
2187.000000	42.201722
2186.000000	42.130382
2185.000000	42.027836
2184.000000	42.099458
2183.000000	42.226391
2182.000000	42.125504
2181.000000	42.012720
2180.000000	42.087527
2179.000000	41.987128
2178.000000	42.072451
2177.000000	42.023443
2176.000000	42.008591
2175.000000	41.992282
2174.000000	42.052151
2173.000000	42.091336
2172.000000	42.144144
2171.000000	42.152117
2170.000000	42.217695
2169.000000	42.412706
2168.000000	42.617645
2167.000000	42.523797
2166.000000	42.511577
2165.000000	42.633740
2164.000000	42.754192
2163.000000	42.911036
2162.000000	43.081977
2161.000000	42.989184
2160.000000	43.240721
2159.000000	43.432801
2158.000000	43.427841
2157.000000	43.602169
2156.000000	43.665234
2155.000000	43.714253
2154.000000	43.805465
2153.000000	44.028728
2152.000000	44.112086
2151.000000	44.252711
2150.000000	44.405740
2149.000000	44.473406
2148.000000	44.588469
2147.000000	44.811453
2146.000000	44.763662
2145.000000	44.853055
2144.000000	45.019897
2143.000000	45.062044
2142.000000	45.223905
2141.000000	45.293694
2140.000000	45.562050
2139.000000	45.585520
2138.000000	45.777255
2137.000000	45.977601
2136.000000	45.720121
2135.000000	45.712726
2134.000000	45.995009
2133.000000	45.843949
2132.000000	45.975129
2131.000000	46.196585
2130.000000	46.228838
2129.000000	46.132906
2128.000000	46.224347
2127.000000	46.054476
2126.000000	46.167499
2125.000000	46.318612
2124.000000	46.369946
2123.000000	46.356996
2122.000000	46.560136
2121.000000	46.538833
2120.000000	46.382254
2119.000000	46.487291
2118.000000	46.534968
2117.000000	46.601933
2116.000000	46.570371
2115.000000	46.449631
2114.000000	46.568633
2113.000000	46.591024
2112.000000	46.760957
2111.000000	46.621230
2110.000000	46.672566
2109.000000	46.838016
2108.000000	46.783819
2107.000000	46.807624
2106.000000	46.920608
2105.000000	46.720660
2104.000000	46.837069
2103.000000	46.853615
2102.000000	46.931785
2101.000000	46.752881
2100.000000	46.823324
2099.000000	46.817588
2098.000000	46.811106
2097.000000	46.798923
2096.000000	46.773395
2095.000000	46.778548
2094.000000	46.877910
2093.000000	46.809131
2092.000000	46.883662
2091.000000	46.824302
2090.000000	46.657499
2089.000000	46.853194
2088.000000	46.823829
2087.000000	46.731561
2086.000000	46.667375
2085.000000	46.682750
2084.000000	46.621531
2083.000000	46.574703
2082.000000	46.517592
2081.000000	46.397816
2080.000000	46.446740
2079.000000	46.333854
2078.000000	46.312295
2077.000000	46.285774
2076.000000	46.252636
2075.000000	46.108611
2074.000000	46.161745
2073.000000	46.054907
2072.000000	45.931095
2071.000000	45.785943
2070.000000	45.708541
2069.000000	45.669993
2068.000000	45.563923
2067.000000	45.404995
2066.000000	45.283771
2065.000000	45.145786
2064.000000	45.064105
2063.000000	45.000253
2062.000000	44.875483
2061.000000	44.788868
2060.000000	44.715875
2059.000000	44.615448
2058.000000	44.451006
2057.000000	44.320807
2056.000000	44.199325
2055.000000	44.076705
2054.000000	43.952040
2053.000000	43.830551
2052.000000	43.762444
2051.000000	43.707224
2050.000000	43.649587
2049.000000	43.569685
2048.000000	43.462291
2047.000000	43.461537
2046.000000	43.385084
2045.000000	43.259200
2044.000000	43.228720
2043.000000	43.270209
2042.000000	43.345468
2041.000000	43.355584
2040.000000	43.369196
2039.000000	43.282247
2038.000000	43.284212
2037.000000	43.387748
2036.000000	43.481053
2035.000000	43.527832
2034.000000	43.544931
2033.000000	43.591592
2032.000000	43.719759
2031.000000	43.754311
2030.000000	43.795202
2029.000000	43.922327
2028.000000	43.998353
2027.000000	44.059771
2026.000000	44.167395
2025.000000	44.240320
2024.000000	44.288866
2023.000000	44.364108
2022.000000	44.391152
2021.000000	44.389202
2020.000000	44.484250
2019.000000	44.522455
2018.000000	44.449643
2017.000000	44.457209
2016.000000	44.481635
2015.000000	44.471497
2014.000000	44.449724
2013.000000	44.414871
2012.000000	44.407378
2011.000000	44.391985
2010.000000	44.306148
2009.000000	44.228080
2008.000000	44.189247
2007.000000	44.107471
2006.000000	44.057033
2005.000000	43.991918
2004.000000	43.918401
2003.000000	43.804722
2002.000000	43.738521
2001.000000	43.656232
2000.000000	43.561826
1999.000000	43.537281
1998.000000	43.445870
1997.000000	43.375555
1996.000000	43.305487
1995.000000	43.185305
1994.000000	43.065859
1993.000000	42.984240
1992.000000	42.884103
1991.000000	42.830667
1990.000000	42.777574
1989.000000	42.668757
1988.000000	42.555272
1987.000000	42.480133
1986.000000	42.422070
1985.000000	42.313003
1984.000000	42.177281
1983.000000	42.133919
1982.000000	42.068863
1981.000000	41.966365
1980.000000	41.852466
1979.000000	41.754238
1978.000000	41.677431
1977.000000	41.601560
1976.000000	41.510702
1975.000000	41.430509
1974.000000	41.304690
1973.000000	41.254343
1972.000000	41.143765
1971.000000	41.081708
1970.000000	41.028102
1969.000000	40.933926
1968.000000	40.878376
1967.000000	40.820900
1966.000000	40.730377
1965.000000	40.621566
1964.000000	40.581865
1963.000000	40.511139
1962.000000	40.355273
1961.000000	40.257485
1960.000000	40.205825
1959.000000	40.128528
1958.000000	40.078047
1957.000000	40.003050
1956.000000	39.922578
1955.000000	39.915193
1954.000000	39.841293
1953.000000	39.847803
1952.000000	39.742796
1951.000000	39.717144
1950.000000	39.646195
1949.000000	39.627390
1948.000000	39.601034
1947.000000	39.580754
1946.000000	39.562176
1945.000000	39.560038
1944.000000	39.566120
1943.000000	39.605468
1942.000000	39.612662
1941.000000	39.611513
1940.000000	39.707121
1939.000000	39.719427
1938.000000	39.696640
1937.000000	39.764700
1936.000000	39.939312
1935.000000	39.975331
1934.000000	40.133140
1933.000000	40.192630
1932.000000	40.307204
1931.000000	40.422423
1930.000000	40.589149
1929.000000	40.696268
1928.000000	40.849270
1927.000000	40.995085
1926.000000	41.174788
1925.000000	41.408034
1924.000000	41.493007
1923.000000	41.763160
1922.000000	41.972939
1921.000000	42.175344
1920.000000	42.381150
1919.000000	42.614074
1918.000000	42.904215
1917.000000	43.204585
1916.000000	43.379307
1915.000000	43.655933
1914.000000	43.910837
1913.000000	44.353517
1912.000000	44.515736
1911.000000	44.809148
1910.000000	45.073061
1909.000000	45.333672
1908.000000	45.729758
1907.000000	46.052979
1906.000000	46.342615
1905.000000	46.686509
1904.000000	47.067035
1903.000000	47.428707
1902.000000	47.663879
1901.000000	48.062925
1900.000000	48.443664
1899.000000	48.797727
1898.000000	49.144072
1897.000000	49.434191
1896.000000	49.780006
1895.000000	50.142905
1894.000000	50.410764
1893.000000	50.707865
1892.000000	51.020178
1891.000000	51.258085
1890.000000	51.570017
1889.000000	51.828168
1888.000000	52.092727
1887.000000	52.339235
1886.000000	52.607633
1885.000000	52.830028
1884.000000	53.092926
1883.000000	53.321490
1882.000000	53.457389
1881.000000	53.655971
1880.000000	53.889250
1879.000000	54.028930
1878.000000	54.183514
1877.000000	54.411106
1876.000000	54.584591
1875.000000	54.706316
1874.000000	54.827461
1873.000000	54.940947
1872.000000	55.079773
1871.000000	55.155683
1870.000000	55.237528
1869.000000	55.311629
1868.000000	55.402723
1867.000000	55.417312
1866.000000	55.463980
1865.000000	55.493980
1864.000000	55.517594
1863.000000	55.593421
1862.000000	55.624229
1861.000000	55.677588
1860.000000	55.717807
1859.000000	55.731279
1858.000000	55.751342
1857.000000	55.785609
1856.000000	55.854562
1855.000000	55.870063
1854.000000	55.851981
1853.000000	55.874476
1852.000000	55.877280
1851.000000	55.886618
1850.000000	55.878258
1849.000000	55.872263
1848.000000	55.863734
1847.000000	55.896614
1846.000000	55.915515
1845.000000	55.855775
1844.000000	55.827331
1843.000000	55.802737
1842.000000	55.834189
1841.000000	55.851644
1840.000000	55.829087
1839.000000	55.786236
1838.000000	55.787252
1837.000000	55.745688
1836.000000	55.738500
1835.000000	55.736367
1834.000000	55.692107
1833.000000	55.671486
1832.000000	55.629657
1831.000000	55.609511
1830.000000	55.580969
1829.000000	55.566948
1828.000000	55.563575
1827.000000	55.512140
1826.000000	55.499822
1825.000000	55.463016
1824.000000	55.435331
1823.000000	55.433171
1822.000000	55.424348
1821.000000	55.425079
1820.000000	55.390313
1819.000000	55.350253
1818.000000	55.321582
1817.000000	55.307542
1816.000000	55.325599
1815.000000	55.305363
1814.000000	55.278411
1813.000000	55.263016
1812.000000	55.243309
1811.000000	55.236503
1810.000000	55.224392
1809.000000	55.231781
1808.000000	55.215749
1807.000000	55.166627
1806.000000	55.159733
1805.000000	55.141075
1804.000000	55.128997
1803.000000	55.138849
1802.000000	55.131988
1801.000000	55.109568
1800.000000	55.080484
1799.000000	55.076778
1798.000000	55.073812
1797.000000	55.060719
1796.000000	55.058519
1795.000000	55.056301
1794.000000	55.046365
1793.000000	55.028078
1792.000000	55.026495
1791.000000	55.007521
1790.000000	54.976502
1789.000000	54.979185
1788.000000	54.994639
1787.000000	54.984432
1786.000000	54.970028
1785.000000	54.968987
1784.000000	54.979288
1783.000000	54.974406
1782.000000	54.925347
1781.000000	54.915240
1780.000000	54.889295
1779.000000	54.874896
1778.000000	54.863089
1777.000000	54.817674
1776.000000	54.774471
1775.000000	54.761009
1774.000000	54.737102
1773.000000	54.705896
1772.000000	54.647114
1771.000000	54.634005
1770.000000	54.594011
1769.000000	54.559406
1768.000000	54.531541
1767.000000	54.513269
1766.000000	54.516151
1765.000000	54.450917
1764.000000	54.440906
1763.000000	54.434943
1762.000000	54.417485
1761.000000	54.399452
1760.000000	54.304661
1759.000000	54.305591
1758.000000	54.305814
1757.000000	54.266502
1756.000000	54.229022
1755.000000	54.213619
1754.000000	54.193383
1753.000000	54.178094
1752.000000	54.158375
1751.000000	54.103690
1750.000000	54.090078
1749.000000	54.096939
1748.000000	54.022553
1747.000000	53.985486
1746.000000	53.962315
1745.000000	53.929004
1744.000000	53.910184
1743.000000	53.883126
1742.000000	53.827195
1741.000000	53.782741
1740.000000	53.768205
1739.000000	53.746096
1738.000000	53.732407
1737.000000	53.694645
1736.000000	53.685819
1735.000000	53.666979
1734.000000	53.695368
1733.000000	53.712320
1732.000000	53.670117
1731.000000	53.699303
1730.000000	53.699179
1729.000000	53.703216
1728.000000	53.731141
1727.000000	53.741872
1726.000000	53.801560
1725.000000	53.854248
1724.000000	53.888678
1723.000000	53.965401
1722.000000	53.983014
1721.000000	54.085397
1720.000000	54.140023
1719.000000	54.209136
1718.000000	54.245363
1717.000000	54.267369
1716.000000	54.359330
1715.000000	54.387890
1714.000000	54.447248
1713.000000	54.496970
1712.000000	54.540972
1711.000000	54.547404
1710.000000	54.582599
1709.000000	54.652443
1708.000000	54.720898
1707.000000	54.740637
1706.000000	54.753176
1705.000000	54.742611
1704.000000	54.782956
1703.000000	54.805115
1702.000000	54.802680
1701.000000	54.828849
1700.000000	54.822838
1699.000000	54.861151
1698.000000	54.888643
1697.000000	54.898379
1696.000000	54.937301
1695.000000	54.932652
1694.000000	54.925270
1693.000000	54.977267
1692.000000	54.992717
1691.000000	55.062428
1690.000000	55.110289
1689.000000	55.169427
1688.000000	55.209341
1687.000000	55.263233
1686.000000	55.295942
1685.000000	55.424612
1684.000000	55.512988
1683.000000	55.573412
1682.000000	55.653236
1681.000000	55.731610
1680.000000	55.823060
1679.000000	55.900768
1678.000000	55.976053
1677.000000	56.034225
1676.000000	56.156004
1675.000000	56.286469
1674.000000	56.314243
1673.000000	56.408117
1672.000000	56.505852
1671.000000	56.569455
1670.000000	56.666816
1669.000000	56.724613
1668.000000	56.787838
1667.000000	56.869239
1666.000000	56.900252
1665.000000	56.946358
1664.000000	57.002797
1663.000000	57.033898
1662.000000	57.084599
1661.000000	57.120146
1660.000000	57.157222
1659.000000	57.200015
1658.000000	57.225541
1657.000000	57.270207
1656.000000	57.293102
1655.000000	57.301280
1654.000000	57.314849
1653.000000	57.310940
1652.000000	57.328799
1651.000000	57.321014
1650.000000	57.318987
1649.000000	57.321863
1648.000000	57.301415
1647.000000	57.310176
1646.000000	57.316938
1645.000000	57.318643
1644.000000	57.308116
1643.000000	57.282623
1642.000000	57.278243
1641.000000	57.276603
1640.000000	57.250135
1639.000000	57.245463
1638.000000	57.236769
1637.000000	57.218792
1636.000000	57.181542
1635.000000	57.185971
1634.000000	57.183840
1633.000000	57.154859
1632.000000	57.142146
1631.000000	57.117173
1630.000000	57.107277
1629.000000	57.096754
1628.000000	57.068773
1627.000000	57.057480
1626.000000	57.029837
1625.000000	56.995944
1624.000000	56.965908
1623.000000	56.950042
1622.000000	56.929092
1621.000000	56.889053
1620.000000	56.881677
1619.000000	56.858327
1618.000000	56.833413
1617.000000	56.839245
1616.000000	56.809609
1615.000000	56.779502
1614.000000	56.749841
1613.000000	56.727136
1612.000000	56.686803
1611.000000	56.662400
1610.000000	56.647395
1609.000000	56.623520
1608.000000	56.589145
1607.000000	56.564416
1606.000000	56.525471
1605.000000	56.490234
1604.000000	56.477510
1603.000000	56.453387
1602.000000	56.427019
1601.000000	56.395044
1600.000000	56.368941
1599.000000	56.332262
1598.000000	56.296317
1597.000000	56.277930
1596.000000	56.253047
1595.000000	56.230560
1594.000000	56.206010
1593.000000	56.189215
1592.000000	56.155164
1591.000000	56.126584
1590.000000	56.099966
1589.000000	56.070509
1588.000000	56.052064
1587.000000	56.034944
1586.000000	56.025502
1585.000000	56.009639
1584.000000	55.987240
1583.000000	55.965359
1582.000000	55.935189
1581.000000	55.924247
1580.000000	55.913539
1579.000000	55.889666
1578.000000	55.865948
1577.000000	55.827121
1576.000000	55.806111
1575.000000	55.802931
1574.000000	55.754616
1573.000000	55.719879
1572.000000	55.714884
1571.000000	55.703102
1570.000000	55.685149
1569.000000	55.668903
1568.000000	55.664816
1567.000000	55.631274
1566.000000	55.617875
1565.000000	55.613499
1564.000000	55.604848
1563.000000	55.599189
1562.000000	55.562417
1561.000000	55.543313
1560.000000	55.539554
1559.000000	55.526510
1558.000000	55.513571
1557.000000	55.496411
1556.000000	55.469664
1555.000000	55.470358
1554.000000	55.470038
1553.000000	55.453941
1552.000000	55.442409
1551.000000	55.414788
1550.000000	55.395758
1549.000000	55.377246
1548.000000	55.372292
1547.000000	55.346044
1546.000000	55.297201
1545.000000	55.274372
1544.000000	55.209336
1543.000000	55.186321
1542.000000	55.156338
1541.000000	55.099749
1540.000000	55.074386
1539.000000	55.025945
1538.000000	54.977829
1537.000000	54.927716
1536.000000	54.896810
1535.000000	54.848781
1534.000000	54.814667
1533.000000	54.762845
1532.000000	54.709912
1531.000000	54.669053
1530.000000	54.635533
1529.000000	54.578043
1528.000000	54.548621
1527.000000	54.505397
1526.000000	54.467193
1525.000000	54.443815
1524.000000	54.405018
1523.000000	54.370860
1522.000000	54.354607
1521.000000	54.326223
1520.000000	54.312225
1519.000000	54.304090
1518.000000	54.275524
1517.000000	54.239729
1516.000000	54.206344
1515.000000	54.243991
1514.000000	54.201627
1513.000000	54.187534
1512.000000	54.175032
1511.000000	54.170657
1510.000000	54.170040
1509.000000	54.139134
1508.000000	54.145880
1507.000000	54.123738
1506.000000	54.118486
1505.000000	54.138248
1504.000000	54.121760
1503.000000	54.129300
1502.000000	54.140387
1501.000000	54.106693
1500.000000	54.125658
1499.000000	54.131095
1498.000000	54.150363
1497.000000	54.148347
1496.000000	54.157234
1495.000000	54.187444
1494.000000	54.177386
1493.000000	54.205782
1492.000000	54.220330
1491.000000	54.231411
1490.000000	54.274862
1489.000000	54.278664
1488.000000	54.310582
1487.000000	54.321383
1486.000000	54.339374
1485.000000	54.372421
1484.000000	54.385443
1483.000000	54.428291
1482.000000	54.450865
1481.000000	54.494441
1480.000000	54.491375
1479.000000	54.510773
1478.000000	54.562622
1477.000000	54.605686
1476.000000	54.598373
1475.000000	54.638383
1474.000000	54.659194
1473.000000	54.701731
1472.000000	54.721893
1471.000000	54.743250
1470.000000	54.757588
1469.000000	54.786822
1468.000000	54.797121
1467.000000	54.839610
1466.000000	54.858023
1465.000000	54.900868
1464.000000	54.905255
1463.000000	54.920007
1462.000000	54.945490
1461.000000	54.968050
1460.000000	55.011210
1459.000000	55.025703
1458.000000	55.054582
1457.000000	55.084964
1456.000000	55.119381
1455.000000	55.161502
1454.000000	55.176177
1453.000000	55.211129
1452.000000	55.236870
1451.000000	55.277155
1450.000000	55.324797
1449.000000	55.331958
1448.000000	55.384578
1447.000000	55.417207
1446.000000	55.440472
1445.000000	55.495778
1444.000000	55.548686
1443.000000	55.591825
1442.000000	55.639753
1441.000000	55.681774
1440.000000	55.722361
1439.000000	55.778706
1438.000000	55.823810
1437.000000	55.880281
1436.000000	55.958646
1435.000000	56.003472
1434.000000	56.043952
1433.000000	56.114219
1432.000000	56.173210
1431.000000	56.238264
1430.000000	56.281067
1429.000000	56.359593
1428.000000	56.429881
1427.000000	56.500912
1426.000000	56.579157
1425.000000	56.648318
1424.000000	56.724127
1423.000000	56.804672
1422.000000	56.894197
1421.000000	56.968512
1420.000000	57.049969
1419.000000	57.129122
1418.000000	57.218437
1417.000000	57.308955
1416.000000	57.399463
1415.000000	57.492277
1414.000000	57.566604
1413.000000	57.644528
1412.000000	57.748138
1411.000000	57.850230
1410.000000	57.929619
1409.000000	58.021284
1408.000000	58.094602
1407.000000	58.168576
1406.000000	58.269034
1405.000000	58.359175
1404.000000	58.427627
1403.000000	58.505096
1402.000000	58.572480
1401.000000	58.650229
1400.000000	58.743732
1399.000000	58.811944
1398.000000	58.882121
1397.000000	58.945122
1396.000000	59.012296
1395.000000	59.074884
1394.000000	59.128216
1393.000000	59.197354
1392.000000	59.254613
1391.000000	59.309799
1390.000000	59.375481
1389.000000	59.429456
1388.000000	59.469195
1387.000000	59.511513
1386.000000	59.548381
1385.000000	59.602075
1384.000000	59.656684
1383.000000	59.691031
1382.000000	59.732632
1381.000000	59.786476
1380.000000	59.815060
1379.000000	59.842356
1378.000000	59.885118
1377.000000	59.931334
1376.000000	59.953781
1375.000000	59.962891
1374.000000	59.987112
1373.000000	60.020900
1372.000000	60.044974
1371.000000	60.070647
1370.000000	60.100573
1369.000000	60.137585
1368.000000	60.153225
1367.000000	60.172961
1366.000000	60.196426
1365.000000	60.204150
1364.000000	60.228312
1363.000000	60.251549
1362.000000	60.271829
1361.000000	60.306072
1360.000000	60.319390
1359.000000	60.329573
1358.000000	60.354490
1357.000000	60.366413
1356.000000	60.396343
1355.000000	60.431617
1354.000000	60.440033
1353.000000	60.457864
1352.000000	60.482437
1351.000000	60.511516
1350.000000	60.528890
1349.000000	60.562182
1348.000000	60.591297
1347.000000	60.601588
1346.000000	60.620179
1345.000000	60.633829
1344.000000	60.656769
1343.000000	60.676985
1342.000000	60.702643
1341.000000	60.743536
1340.000000	60.748647
1339.000000	60.755357
1338.000000	60.784324
1337.000000	60.791128
1336.000000	60.807705
1335.000000	60.822310
1334.000000	60.831390
1333.000000	60.849939
1332.000000	60.851248
1331.000000	60.851289
1330.000000	60.848107
1329.000000	60.880874
1328.000000	60.913621
1327.000000	60.970991
1326.000000	61.005971
1325.000000	61.024694
1324.000000	61.032055
1323.000000	61.022886
1322.000000	60.999949
1321.000000	61.031092
1320.000000	61.039019
1319.000000	61.037327
1318.000000	61.061727
1317.000000	61.052692
1316.000000	61.061922
1315.000000	61.064353
1314.000000	61.068158
1313.000000	61.078111
1312.000000	61.116001
1311.000000	61.093295
1310.000000	61.070454
1309.000000	61.095086
1308.000000	61.103804
1307.000000	61.121689
1306.000000	61.115685
1305.000000	61.112377
1304.000000	61.142754
1303.000000	61.145209
1302.000000	61.137004
1301.000000	61.150585
1300.000000	61.138533
1299.000000	61.143876
1298.000000	61.158437
1297.000000	61.139663
1296.000000	61.156497
1295.000000	61.166316
1294.000000	61.160067
1293.000000	61.146550
1292.000000	61.140903
1291.000000	61.164065
1290.000000	61.177497
1289.000000	61.178894
1288.000000	61.179604
1287.000000	61.173252
1286.000000	61.150788
1285.000000	61.162451
1284.000000	61.158360
1283.000000	61.155592
1282.000000	61.134268
1281.000000	61.131938
1280.000000	61.135268
1279.000000	61.153039
1278.000000	61.143339
1277.000000	61.144665
1276.000000	61.154040
1275.000000	61.159975
1274.000000	61.136968
1273.000000	61.139592
1272.000000	61.133488
1271.000000	61.143606
1270.000000	61.125284
1269.000000	61.121758
1268.000000	61.139854
1267.000000	61.155668
1266.000000	61.173733
1265.000000	61.139623
1264.000000	61.188980
1263.000000	61.152130
1262.000000	61.174649
1261.000000	61.160094
1260.000000	61.176241
1259.000000	61.200527
1258.000000	61.199435
1257.000000	61.182362
1256.000000	61.177337
1255.000000	61.191029
1254.000000	61.194283
1253.000000	61.181698
1252.000000	61.186963
1251.000000	61.196431
1250.000000	61.210358
1249.000000	61.195883
1248.000000	61.196905
1247.000000	61.209071
1246.000000	61.189486
1245.000000	61.201096
1244.000000	61.207600
1243.000000	61.208886
1242.000000	61.198863
1241.000000	61.180330
1240.000000	61.161961
1239.000000	61.152932
1238.000000	61.157723
1237.000000	61.153823
1236.000000	61.136707
1235.000000	61.127910
1234.000000	61.115377
1233.000000	61.116349
1232.000000	61.093868
1231.000000	61.080702
1230.000000	61.056299
1229.000000	61.066878
1228.000000	61.076063
1227.000000	61.053676
1226.000000	61.003761
1225.000000	61.003705
1224.000000	61.016730
1223.000000	61.006929
1222.000000	61.000540
1221.000000	60.977232
1220.000000	60.962575
1219.000000	60.946406
1218.000000	60.929307
1217.000000	60.934544
1216.000000	60.909072
1215.000000	60.911067
1214.000000	60.922966
1213.000000	60.917868
1212.000000	60.891887
1211.000000	60.886787
1210.000000	60.891683
1209.000000	60.867689
1208.000000	60.845939
1207.000000	60.864272
1206.000000	60.846574
1205.000000	60.819854
1204.000000	60.815803
1203.000000	60.831521
1202.000000	60.804006
1201.000000	60.785945
1200.000000	60.802126
1199.000000	60.800645
1198.000000	60.784802
1197.000000	60.762022
1196.000000	60.757731
1195.000000	60.750565
1194.000000	60.743820
1193.000000	60.736177
1192.000000	60.731943
1191.000000	60.735416
1190.000000	60.725036
1189.000000	60.695346
1188.000000	60.703637
1187.000000	60.714423
1186.000000	60.716580
1185.000000	60.717955
1184.000000	60.716194
1183.000000	60.717443
1182.000000	60.734096
1181.000000	60.740319
1180.000000	60.753137
1179.000000	60.776979
1178.000000	60.797391
1177.000000	60.807603
1176.000000	60.810341
1175.000000	60.827929
1174.000000	60.862270
1173.000000	60.874229
1172.000000	60.883744
1171.000000	60.904152
1170.000000	60.923326
1169.000000	60.952125
1168.000000	60.984126
1167.000000	61.013052
1166.000000	61.035006
1165.000000	61.050309
1164.000000	61.076235
1163.000000	61.107645
1162.000000	61.141013
1161.000000	61.167776
1160.000000	61.188256
1159.000000	61.209570
1158.000000	61.240427
1157.000000	61.261121
1156.000000	61.278020
1155.000000	61.295344
1154.000000	61.312144
1153.000000	61.336068
1152.000000	61.353699
1151.000000	61.368744
1150.000000	61.385440
1149.000000	61.390186
1148.000000	61.394647
1147.000000	61.416721
1146.000000	61.448357
1145.000000	61.459269
1144.000000	61.479164
1143.000000	61.506919
1142.000000	61.525283
1141.000000	61.538222
1140.000000	61.556611
1139.000000	61.567572
1138.000000	61.572301
1137.000000	61.574681
1136.000000	61.585493
1135.000000	61.612690
1134.000000	61.599650
1133.000000	61.605687
1132.000000	61.621151
1131.000000	61.629966
1130.000000	61.646516
1129.000000	61.665823
1128.000000	61.670681
1127.000000	61.670347
1126.000000	61.684300
1125.000000	61.684191
1124.000000	61.696232
1123.000000	61.723089
1122.000000	61.727722
1121.000000	61.728043
1120.000000	61.724552
1119.000000	61.706109
1118.000000	61.703423
1117.000000	61.721060
1116.000000	61.727268
1115.000000	61.721541
1114.000000	61.731799
1113.000000	61.738006
1112.000000	61.721271
1111.000000	61.742000
1110.000000	61.757153
1109.000000	61.745954
1108.000000	61.761005
1107.000000	61.748772
1106.000000	61.740424
1105.000000	61.751223
1104.000000	61.740330
1103.000000	61.732591
1102.000000	61.744950
1101.000000	61.746750
1100.000000	61.755430
1099.000000	61.749647
1098.000000	61.759447
1097.000000	61.754011
1096.000000	61.750901
1095.000000	61.736479
1094.000000	61.731561
1093.000000	61.738569
1092.000000	61.747271
1091.000000	61.746381
1090.000000	61.723332
1089.000000	61.722171
1088.000000	61.730092
1087.000000	61.729822
1086.000000	61.725253
1085.000000	61.749403
1084.000000	61.729926
1083.000000	61.722548
1082.000000	61.737954
1081.000000	61.724798
1080.000000	61.721246
1079.000000	61.732579
1078.000000	61.713514
1077.000000	61.713431
1076.000000	61.717940
1075.000000	61.714890
1074.000000	61.713468
1073.000000	61.713830
1072.000000	61.701027
1071.000000	61.704829
1070.000000	61.714839
1069.000000	61.709294
1068.000000	61.705010
1067.000000	61.674484
1066.000000	61.694359
1065.000000	61.711402
1064.000000	61.690039
1063.000000	61.667350
1062.000000	61.672582
1061.000000	61.682607
1060.000000	61.679957
1059.000000	61.678967
1058.000000	61.667487
1057.000000	61.688308
1056.000000	61.690430
1055.000000	61.682216
1054.000000	61.672416
1053.000000	61.678987
1052.000000	61.668771
1051.000000	61.661215
1050.000000	61.658200
1049.000000	61.682927
1048.000000	61.653083
1047.000000	61.637165
1046.000000	61.656809
1045.000000	61.656805
1044.000000	61.656695
1043.000000	61.643937
1042.000000	61.644212
1041.000000	61.661770
1040.000000	61.656650
1039.000000	61.647669
1038.000000	61.642113
1037.000000	61.631322
1036.000000	61.631945
1035.000000	61.641095
1034.000000	61.627970
1033.000000	61.620576
1032.000000	61.614357
1031.000000	61.619512
1030.000000	61.608458
1029.000000	61.605960
1028.000000	61.613441
1027.000000	61.603173
1026.000000	61.606049
1025.000000	61.587393
1024.000000	61.602340
1023.000000	61.590220
1022.000000	61.588362
1021.000000	61.589029
1020.000000	61.570926
1019.000000	61.582008
1018.000000	61.587682
1017.000000	61.590279
1016.000000	61.562067
1015.000000	61.561930
1014.000000	61.585286
1013.000000	61.593505
1012.000000	61.580593
1011.000000	61.575572
1010.000000	61.578711
1009.000000	61.559751
1008.000000	61.555240
1007.000000	61.546103
1006.000000	61.545845
1005.000000	61.541010
1004.000000	61.528628
1003.000000	61.540722
1002.000000	61.536667
1001.000000	61.554869
1000.000000	61.560394
999.000000	61.561179
998.000000	61.554206
997.000000	61.554049
996.000000	61.556035
995.000000	61.552757
994.000000	61.555577
993.000000	61.547643
992.000000	61.534520
991.000000	61.518746
990.000000	61.536025
989.000000	61.522790
988.000000	61.519921
987.000000	61.521107
986.000000	61.514326
985.000000	61.507052
984.000000	61.513288
983.000000	61.528073
982.000000	61.531034
981.000000	61.543034
980.000000	61.539824
979.000000	61.532711
978.000000	61.537331
977.000000	61.517647
976.000000	61.522665
975.000000	61.544247
974.000000	61.552588
973.000000	61.551225
972.000000	61.526341
971.000000	61.513268
970.000000	61.522183
969.000000	61.543727
968.000000	61.533220
967.000000	61.523982
966.000000	61.546057
965.000000	61.536303
964.000000	61.530533
963.000000	61.556705
962.000000	61.555383
961.000000	61.541900
960.000000	61.533802
959.000000	61.518227
958.000000	61.510433
957.000000	61.528091
956.000000	61.526580
955.000000	61.520521
954.000000	61.517591
953.000000	61.514432
952.000000	61.513617
951.000000	61.517855
950.000000	61.507741
949.000000	61.510343
948.000000	61.523065
947.000000	61.514982
946.000000	61.491889
945.000000	61.493157
944.000000	61.494562
943.000000	61.482864
942.000000	61.471681
941.000000	61.480605
940.000000	61.490734
939.000000	61.491726
938.000000	61.485651
937.000000	61.484187
936.000000	61.475424
935.000000	61.471252
934.000000	61.448998
933.000000	61.437357
932.000000	61.440369
931.000000	61.440517
930.000000	61.450355
929.000000	61.436160
928.000000	61.421010
927.000000	61.449480
926.000000	61.426612
925.000000	61.392647
924.000000	61.438483
923.000000	61.461599
922.000000	61.436244
921.000000	61.402339
920.000000	61.376152
919.000000	61.417143
918.000000	61.425322
917.000000	61.415720
916.000000	61.395610
915.000000	61.390870
914.000000	61.355200
913.000000	61.373176
912.000000	61.384876
911.000000	61.357596
910.000000	61.379600
909.000000	61.340340
908.000000	61.359036
907.000000	61.368047
906.000000	61.315997
905.000000	61.317601
904.000000	61.295455
903.000000	61.273613
902.000000	61.304583
901.000000	61.304760
900.000000	61.301938
899.000000	61.332297
898.000000	61.333026
897.000000	61.328255
896.000000	61.318501
895.000000	61.256665
894.000000	61.364847
893.000000	61.337393
892.000000	61.349680
891.000000	61.325063
890.000000	61.309523
889.000000	61.278631
888.000000	61.247739
887.000000	61.252996
886.000000	61.236582
885.000000	61.288374
884.000000	61.283254
883.000000	61.318621
882.000000	61.271621
881.000000	61.241315
880.000000	61.243596
879.000000	61.253597
878.000000	61.176799
877.000000	61.227475
876.000000	61.146763
875.000000	61.182091
874.000000	61.160927
873.000000	61.135201
872.000000	61.290406
871.000000	61.204740
870.000000	61.109648
869.000000	61.007809
868.000000	61.103725
867.000000	61.139347
866.000000	61.112353
865.000000	61.009819
864.000000	61.132713
863.000000	61.144556
862.000000	61.092569
861.000000	60.971812
860.000000	61.073404
859.000000	60.568653
858.000000	60.646334
857.000000	60.508338
856.000000	60.507745
855.000000	60.531284
854.000000	60.317518
853.000000	60.320914
852.000000	60.445129
851.000000	60.243162
850.000000	60.492169
849.000000	60.311778
848.000000	60.555863
847.000000	60.507006
846.000000	60.620890
845.000000	60.467055
844.000000	60.341957
843.000000	60.471483
842.000000	60.342161
841.000000	60.395718
840.000000	60.313609
839.000000	60.173869
838.000000	60.335021
837.000000	60.347339
836.000000	60.239508
835.000000	60.409813
834.000000	60.442190
833.000000	60.391928
832.000000	60.032929
831.000000	60.255219
830.000000	60.258813
829.000000	60.168231
828.000000	60.307692
827.000000	60.144494
826.000000	60.291170
825.000000	60.088827
824.000000	60.192246
823.000000	60.066009
822.000000	60.022343
821.000000	60.168264
820.000000	59.999299
819.000000	60.205066
818.000000	60.100290
817.000000	60.108192
816.000000	60.063583
815.000000	60.108697
814.000000	60.063081
813.000000	59.808113
812.000000	59.924868
811.000000	59.968185
810.000000	59.958307
809.000000	59.847928
808.000000	59.863496
807.000000	59.736341
806.000000	59.928415
805.000000	59.874468
804.000000	59.771411
803.000000	59.804621
802.000000	59.685978
801.000000	59.776799
800.000000	59.735582
799.000000	59.658083
798.000000	59.667920
797.000000	59.735343
796.000000	59.638679
795.000000	59.660522
794.000000	59.594399
793.000000	59.718399
792.000000	59.561260
791.000000	59.456224
790.000000	59.641454
789.000000	59.584751
788.000000	59.537251
787.000000	59.461797
786.000000	59.584830
785.000000	59.381293
784.000000	59.400160
783.000000	59.353107
782.000000	59.334908
781.000000	59.348747
780.000000	59.327552
779.000000	59.327669
778.000000	59.397469
777.000000	59.303513
776.000000	59.238409
775.000000	59.199677
774.000000	59.083052
773.000000	59.184227
772.000000	59.234921
771.000000	59.097630
770.000000	59.063452
769.000000	59.059120
768.000000	59.092540
767.000000	59.050641
766.000000	58.994891
765.000000	59.004416
764.000000	58.984304
763.000000	59.024175
762.000000	58.992705
761.000000	58.838626
760.000000	58.916755
759.000000	58.890571
758.000000	58.718910
757.000000	58.736883
756.000000	58.723248
755.000000	58.707759
754.000000	58.680109
753.000000	58.620913
752.000000	58.662122
751.000000	58.652453
750.000000	58.674163
749.000000	58.615713
748.000000	58.566747
747.000000	58.428438
746.000000	58.354752
745.000000	58.416435
744.000000	58.407656
743.000000	58.363077
742.000000	58.381607
741.000000	58.319840
740.000000	58.337732
739.000000	58.304342
738.000000	58.195959
737.000000	58.188873
736.000000	58.255524
735.000000	58.180215
734.000000	58.105860
733.000000	58.080705
732.000000	58.036931
731.000000	58.057376
730.000000	57.987842
729.000000	57.923202
728.000000	57.881373
727.000000	57.795345
726.000000	57.816649
725.000000	57.761355
724.000000	57.688953
723.000000	57.723919
722.000000	57.716217
721.000000	57.699246
720.000000	57.704741
719.000000	57.637089
718.000000	57.584275
717.000000	57.570920
716.000000	57.535710
715.000000	57.490241
714.000000	57.453933
713.000000	57.392465
712.000000	57.369325
711.000000	57.359352
710.000000	57.321293
709.000000	57.252843
708.000000	57.152726
707.000000	57.060470
706.000000	57.055345
705.000000	57.014784
704.000000	56.997147
703.000000	57.013527
702.000000	56.937282
701.000000	56.902184
700.000000	56.893599
699.000000	56.871373
698.000000	56.813426
697.000000	56.747284
696.000000	56.705166
695.000000	56.622058
694.000000	56.592035
693.000000	56.582605
692.000000	56.516982
691.000000	56.487195
690.000000	56.440459
689.000000	56.346789
688.000000	56.277109
687.000000	56.217144
686.000000	56.140220
685.000000	56.149279
684.000000	56.079306
683.000000	56.020420
682.000000	56.005267
681.000000	55.978002
680.000000	55.919926
679.000000	55.822620
678.000000	55.785034
677.000000	55.724259
676.000000	55.686857
675.000000	55.621149
674.000000	55.547691
673.000000	55.540408
672.000000	55.478749
671.000000	55.403739
670.000000	55.309099
669.000000	55.288556
668.000000	55.283115
667.000000	55.213002
666.000000	55.144327
665.000000	55.048293
664.000000	55.011832
663.000000	54.956483
662.000000	54.873480
661.000000	54.847602
660.000000	54.830845
659.000000	54.763166
658.000000	54.642061
657.000000	54.566267
656.000000	54.556735
655.000000	54.470520
654.000000	54.397922
653.000000	54.330034
652.000000	54.264550
651.000000	54.225523
650.000000	54.189586
649.000000	54.096417
648.000000	54.074290
647.000000	53.996409
646.000000	53.891798
645.000000	53.823302
644.000000	53.804625
643.000000	53.724661
642.000000	53.677706
641.000000	53.634860
640.000000	53.588542
639.000000	53.488292
638.000000	53.413067
637.000000	53.319460
636.000000	53.305953
635.000000	53.224352
634.000000	53.143738
633.000000	53.080373
632.000000	52.958988
631.000000	52.982434
630.000000	52.869140
629.000000	52.770734
628.000000	52.732948
627.000000	52.706809
626.000000	52.581288
625.000000	52.466181
624.000000	52.429637
623.000000	52.383017
622.000000	52.313692
621.000000	52.258862
620.000000	52.162295
619.000000	52.092279
618.000000	51.974025
617.000000	51.877351
616.000000	51.833347
615.000000	51.759977
614.000000	51.638759
613.000000	51.587705
612.000000	51.481742
611.000000	51.457495
610.000000	51.334281
609.000000	51.297022
608.000000	51.183943
607.000000	51.099028
606.000000	51.028369
605.000000	50.930652
604.000000	50.845743
603.000000	50.754588
602.000000	50.653246
601.000000	50.612188
600.000000	50.575024
599.000000	50.407560
598.000000	50.363328
597.000000	50.299630
596.000000	50.168137
595.000000	50.063676
594.000000	49.998371
593.000000	49.941316
592.000000	49.837924
591.000000	49.745385
590.000000	49.578188
589.000000	49.589349
588.000000	49.463602
587.000000	49.316262
586.000000	49.297213
585.000000	49.205843
584.000000	49.074829
583.000000	49.021353
582.000000	48.853773
581.000000	48.802809
580.000000	48.677624
579.000000	48.622568
578.000000	48.469596
577.000000	48.382449
576.000000	48.252640
575.000000	48.198372
574.000000	48.058750
573.000000	47.961884
572.000000	47.885737
571.000000	47.769049
570.000000	47.687538
569.000000	47.560263
568.000000	47.414832
567.000000	47.370445
566.000000	47.239421
565.000000	47.079011
564.000000	47.023634
563.000000	46.880632
562.000000	46.756815
561.000000	46.643850
560.000000	46.532073
559.000000	46.481870
558.000000	46.322179
557.000000	46.170119
556.000000	46.066699
555.000000	45.956247
554.000000	45.823192
553.000000	45.751550
552.000000	45.575979
551.000000	45.479850
550.000000	45.377559
549.000000	45.251841
548.000000	45.118355
547.000000	45.020990
546.000000	44.887917
545.000000	44.765551
544.000000	44.641091
543.000000	44.490135
542.000000	44.365363
541.000000	44.268174
540.000000	44.133571
539.000000	43.983079
538.000000	43.882352
537.000000	43.775312
536.000000	43.613019
535.000000	43.479053
534.000000	43.308335
533.000000	43.186885
532.000000	43.071329
531.000000	42.927700
530.000000	42.799279
529.000000	42.703587
528.000000	42.540478
527.000000	42.388789
526.000000	42.253472
525.000000	42.094349
524.000000	41.973243
523.000000	41.872028
522.000000	41.715027
521.000000	41.599446
520.000000	41.460613
519.000000	41.338450
518.000000	41.186674
517.000000	41.066717
516.000000	40.913136
515.000000	40.759046
514.000000	40.636882
513.000000	40.493911
512.000000	40.347792
511.000000	40.224536
510.000000	40.099083
509.000000	39.964223
508.000000	39.809485
507.000000	39.650401
506.000000	39.517970
505.000000	39.388894
504.000000	39.222257
503.000000	39.095420
502.000000	38.951998
501.000000	38.791972
500.000000	38.674557
499.000000	38.525892
498.000000	38.346496
497.000000	38.211229
496.000000	38.070012
495.000000	37.895689
494.000000	37.763024
493.000000	37.597623
492.000000	37.483977
491.000000	37.322897
490.000000	37.126803
489.000000	37.000652
488.000000	36.858883
487.000000	36.685340
486.000000	36.501106
485.000000	36.328895
484.000000	36.193185
483.000000	36.058291
482.000000	35.867471
481.000000	35.739558
480.000000	35.599255
479.000000	35.475790
478.000000	35.341923
477.000000	35.204964
476.000000	35.065109
475.000000	34.920528
474.000000	34.769913
473.000000	34.625223
472.000000	34.474601
471.000000	34.306593
470.000000	34.156785
469.000000	34.036212
468.000000	33.886946
467.000000	33.716099
466.000000	33.579218
465.000000	33.440101
464.000000	33.268242
463.000000	33.090564
462.000000	32.940877
461.000000	32.778678
460.000000	32.596770
459.000000	32.432115
458.000000	32.252241
457.000000	32.085518
456.000000	31.901542
455.000000	31.726340
454.000000	31.573040
453.000000	31.399601
452.000000	31.205172
451.000000	31.029956
450.000000	30.839031
449.000000	30.633451
448.000000	30.414717
447.000000	30.228459
446.000000	30.056452
445.000000	29.875759
444.000000	29.694228
443.000000	29.500557
442.000000	29.357905
441.000000	29.167036
440.000000	28.978249
439.000000	28.809100
438.000000	28.620703
437.000000	28.431960
436.000000	28.249780
435.000000	28.088449
434.000000	27.922387
433.000000	27.737218
432.000000	27.560146
431.000000	27.365088
430.000000	27.207047
429.000000	27.026298
428.000000	26.828689
427.000000	26.642851
426.000000	26.475589
425.000000	26.291752
424.000000	26.113480
423.000000	25.927433
422.000000	25.731242
421.000000	25.554166
420.000000	25.400568
419.000000	25.218041
418.000000	24.999646
417.000000	24.797495
416.000000	24.638877
415.000000	24.466031
414.000000	24.267895
413.000000	24.081071
412.000000	23.862350
411.000000	23.660287
410.000000	23.492741
409.000000	23.327455
408.000000	23.144889
407.000000	22.984139
406.000000	22.824283
405.000000	22.582057
404.000000	22.376383
403.000000	22.216865
402.000000	22.034726
401.000000	21.840352
400.000000	21.677966
399.000000	21.523298
398.000000	21.309848
397.000000	21.075592
396.000000	20.916537
395.000000	20.744272
394.000000	20.582980
393.000000	20.386156
392.000000	20.202344
391.000000	20.009618
390.000000	19.824773
389.000000	19.638495
388.000000	19.456984
387.000000	19.291426
386.000000	19.124733
385.000000	18.932552
384.000000	18.761605
383.000000	18.582002
382.000000	18.388847
381.000000	18.207010
380.000000	18.013139
379.000000	17.837491
378.000000	17.622070
377.000000	17.444742
376.000000	17.264216
375.000000	17.190462
374.000000	16.988455
373.000000	16.886792
372.000000	16.633157
371.000000	16.516879
370.000000	16.335469
369.000000	16.184833
368.000000	16.029439
367.000000	15.948611
366.000000	15.726665
365.000000	15.541679
364.000000	15.406567
363.000000	15.239189
362.000000	15.163864
361.000000	15.045844
360.000000	14.877632
359.000000	14.723903
358.000000	14.607536
357.000000	14.540811
356.000000	14.383972
355.000000	14.223496
354.000000	14.089614
353.000000	13.917795
352.000000	13.836376
351.000000	13.664510
350.000000	13.588109
349.000000	13.437754
348.000000	13.360610
347.000000	13.221074
346.000000	13.138197
345.000000	13.030484
344.000000	12.863057
343.000000	12.802448
342.000000	12.630227
341.000000	12.511114
340.000000	12.474804
339.000000	12.313753
338.000000	12.269748
337.000000	12.053774
336.000000	11.939896
335.000000	11.919441
334.000000	11.782894
333.000000	11.726484
332.000000	11.619710
331.000000	11.577954
330.000000	11.424360
329.000000	11.415367
328.000000	11.313567
327.000000	11.133001
326.000000	11.063734
325.000000	11.042371
324.000000	11.004343
323.000000	10.912809
322.000000	10.768328
321.000000	10.775466
320.000000	10.755720
319.000000	10.588952
318.000000	10.602544
317.000000	10.564951
316.000000	10.421955
315.000000	10.455696
314.000000	10.431069
313.000000	10.322168
312.000000	10.291818
311.000000	10.292485
310.000000	10.201784
309.000000	10.189758
308.000000	10.138032
307.000000	10.082444
306.000000	10.064346
305.000000	10.004235
304.000000	9.989213
303.000000	10.009262
302.000000	9.999428
301.000000	9.936704
300.000000	9.907178
299.000000	9.882062
298.000000	9.842526
297.000000	9.790940
296.000000	9.744797
295.000000	9.698008
294.000000	9.698342
293.000000	9.630167
292.000000	9.582900
291.000000	9.533258
290.000000	9.545497
289.000000	9.476887
288.000000	9.433084
287.000000	9.443228
286.000000	9.436164
285.000000	9.373408
284.000000	9.375573
283.000000	9.389114
282.000000	9.385570
281.000000	9.430728
280.000000	9.418106
279.000000	9.460390
278.000000	9.462485
277.000000	9.479948
276.000000	9.532742
275.000000	9.544838
274.000000	9.577395
273.000000	9.679810
272.000000	9.704066
271.000000	9.770853
270.000000	9.756839
269.000000	9.831712
268.000000	9.856333
267.000000	9.947300
266.000000	9.992688
265.000000	10.069043
264.000000	10.147302
263.000000	10.227327
262.000000	10.275342
261.000000	10.401235
260.000000	10.523536
259.000000	10.597284
258.000000	10.691764
257.000000	10.765389
256.000000	10.831042
255.000000	10.962129
254.000000	11.045989
253.000000	11.202479
252.000000	11.301987
251.000000	11.398763
250.000000	11.550220
249.000000	11.706680
248.000000	11.768197
247.000000	11.869975
246.000000	11.995888
245.000000	12.076928
244.000000	12.140871
243.000000	12.131439
242.000000	12.172789
241.000000	12.286843
240.000000	12.277569
239.000000	12.287262
238.000000	12.280944
237.000000	12.198495
236.000000	12.211750
235.000000	12.177529
234.000000	12.134639
233.000000	12.058665
232.000000	12.024812
231.000000	12.013423
230.000000	11.980063
229.000000	12.007538
228.000000	12.006980
227.000000	11.985520
226.000000	12.037296
225.000000	12.035017
224.000000	12.026372
223.000000	12.157140
222.000000	12.234036
221.000000	12.316145
220.000000	12.456489
219.000000	12.591962
218.000000	12.648738
217.000000	12.809674
216.000000	12.974258
215.000000	13.166581
214.000000	13.412346
213.000000	13.537833
212.000000	13.669493
211.000000	13.954919
210.000000	14.360070
209.000000	14.555055
208.000000	14.753332
207.000000	15.092888
206.000000	15.542469
205.000000	15.972982
204.000000	16.382898
203.000000	16.939268
202.000000	17.395070
201.000000	17.971939
200.000000	18.662753
