PE UV       SUBTECH     SPECTRUM    ASCII       PEDS        4.00        
   -1
RDmsfkat102.Sample.asc
18/03/20
15:40:13.00
18/03/20
15:40:13.00
Administrator

200.000000
1
Lambda 750
750N8071901
PerkinElmer UV WinLab 6.0.4.0738 / 1.61.00 Lambda 900

0
0
3350/servo 860.8/2
0
0
UV/VIS
1
1
1
CommonBeamDepol,150mm sphere / downward view
0
0
0
0
Program
Program
3350/servo 860.8/2
3350/0.2 860.8/0.2
3350/0.2 860.8/0.2
0
1
 
 
 
0
 
860.8
319.2
860.8
Front
100
on
 
 
0
0
0
 
0
 
 
 
0
 
 
0
0
0
0
0
 
 
 
 
0
0


0
0
#HDR
-1
-1
#GR
nm
%R
1.0
0.0
2350.000000
-1.000000
2151
8
48.890835
9.312767
#DATA
2350.000000	18.947727
2349.000000	18.726969
2348.000000	18.391125
2347.000000	19.335536
2346.000000	18.845549
2345.000000	18.412046
2344.000000	18.741149
2343.000000	18.624796
2342.000000	18.769236
2341.000000	18.956969
2340.000000	18.856344
2339.000000	19.306167
2338.000000	19.373112
2337.000000	19.426568
2336.000000	19.329577
2335.000000	19.153116
2334.000000	19.428145
2333.000000	19.621624
2332.000000	19.630995
2331.000000	19.576089
2330.000000	19.279127
2329.000000	19.561829
2328.000000	19.435241
2327.000000	19.336391
2326.000000	19.437041
2325.000000	19.647440
2324.000000	19.247873
2323.000000	19.376952
2322.000000	19.138523
2321.000000	19.017775
2320.000000	19.208974
2319.000000	19.116432
2318.000000	19.434494
2317.000000	19.318328
2316.000000	19.164579
2315.000000	18.893540
2314.000000	18.890543
2313.000000	18.901813
2312.000000	18.877016
2311.000000	18.804950
2310.000000	18.702761
2309.000000	18.606340
2308.000000	18.515073
2307.000000	18.498064
2306.000000	18.760798
2305.000000	18.727312
2304.000000	18.536541
2303.000000	18.582286
2302.000000	18.539528
2301.000000	18.474634
2300.000000	18.445952
2299.000000	18.306457
2298.000000	17.943014
2297.000000	18.154870
2296.000000	17.945238
2295.000000	17.731960
2294.000000	17.834004
2293.000000	17.919999
2292.000000	17.884579
2291.000000	17.870155
2290.000000	17.696075
2289.000000	17.833583
2288.000000	17.863655
2287.000000	17.811555
2286.000000	17.748370
2285.000000	17.613044
2284.000000	17.726198
2283.000000	17.875854
2282.000000	17.791524
2281.000000	17.820938
2280.000000	17.768723
2279.000000	17.756982
2278.000000	17.662664
2277.000000	17.694496
2276.000000	17.640403
2275.000000	17.708673
2274.000000	17.863123
2273.000000	18.029063
2272.000000	18.065984
2271.000000	18.055077
2270.000000	17.976739
2269.000000	17.846262
2268.000000	18.104849
2267.000000	18.183633
2266.000000	18.096062
2265.000000	18.082288
2264.000000	18.192594
2263.000000	18.166862
2262.000000	18.388526
2261.000000	18.610042
2260.000000	18.759781
2259.000000	19.062194
2258.000000	19.131587
2257.000000	19.271475
2256.000000	19.346995
2255.000000	19.420799
2254.000000	19.663992
2253.000000	19.828812
2252.000000	19.876431
2251.000000	19.958469
2250.000000	20.081847
2249.000000	20.210867
2248.000000	20.251198
2247.000000	20.315827
2246.000000	20.534098
2245.000000	20.815552
2244.000000	21.050637
2243.000000	21.097153
2242.000000	20.996783
2241.000000	21.132762
2240.000000	21.284910
2239.000000	21.311603
2238.000000	21.433189
2237.000000	21.604486
2236.000000	21.606155
2235.000000	21.553565
2234.000000	21.767416
2233.000000	21.892219
2232.000000	21.873240
2231.000000	21.990228
2230.000000	22.056651
2229.000000	22.056504
2228.000000	22.056536
2227.000000	22.209947
2226.000000	22.190342
2225.000000	22.025058
2224.000000	21.935464
2223.000000	21.906092
2222.000000	21.832359
2221.000000	21.962792
2220.000000	22.124388
2219.000000	22.021302
2218.000000	21.939853
2217.000000	21.898771
2216.000000	21.830576
2215.000000	21.841538
2214.000000	21.873469
2213.000000	21.854788
2212.000000	21.749867
2211.000000	21.601889
2210.000000	21.548298
2209.000000	21.492640
2208.000000	21.495806
2207.000000	21.403651
2206.000000	21.428419
2205.000000	21.559962
2204.000000	21.384393
2203.000000	21.283995
2202.000000	21.280262
2201.000000	21.261896
2200.000000	21.112795
2199.000000	20.986564
2198.000000	21.132506
2197.000000	21.230592
2196.000000	21.104513
2195.000000	20.895293
2194.000000	20.815425
2193.000000	20.822970
2192.000000	20.829527
2191.000000	20.724815
2190.000000	20.757593
2189.000000	20.669025
2188.000000	20.467109
2187.000000	20.421764
2186.000000	20.535649
2185.000000	20.335159
2184.000000	20.351133
2183.000000	20.535764
2182.000000	20.571867
2181.000000	20.544731
2180.000000	20.347298
2179.000000	20.337700
2178.000000	20.284064
2177.000000	20.317809
2176.000000	20.466027
2175.000000	20.524151
2174.000000	20.537877
2173.000000	20.644304
2172.000000	20.659021
2171.000000	20.578453
2170.000000	20.658469
2169.000000	20.700348
2168.000000	20.840996
2167.000000	20.771465
2166.000000	20.644033
2165.000000	20.878883
2164.000000	20.843344
2163.000000	20.928761
2162.000000	21.179443
2161.000000	21.266222
2160.000000	21.385908
2159.000000	21.324093
2158.000000	21.533820
2157.000000	21.699663
2156.000000	21.848988
2155.000000	21.856572
2154.000000	21.881507
2153.000000	22.067851
2152.000000	22.137670
2151.000000	22.217333
2150.000000	22.299226
2149.000000	22.380567
2148.000000	22.218716
2147.000000	22.516200
2146.000000	22.728511
2145.000000	22.795024
2144.000000	22.951375
2143.000000	22.794606
2142.000000	23.012395
2141.000000	23.150891
2140.000000	23.437130
2139.000000	23.353364
2138.000000	23.554798
2137.000000	23.679568
2136.000000	23.454843
2135.000000	23.529875
2134.000000	23.879782
2133.000000	23.694420
2132.000000	23.944774
2131.000000	24.107972
2130.000000	24.080577
2129.000000	24.081805
2128.000000	24.066701
2127.000000	24.073495
2126.000000	24.209378
2125.000000	24.252094
2124.000000	24.280418
2123.000000	24.313906
2122.000000	24.249762
2121.000000	24.308049
2120.000000	24.500644
2119.000000	24.523667
2118.000000	24.554304
2117.000000	24.604735
2116.000000	24.848847
2115.000000	24.857537
2114.000000	24.770380
2113.000000	24.728216
2112.000000	24.773379
2111.000000	24.778789
2110.000000	24.641187
2109.000000	24.828261
2108.000000	24.805834
2107.000000	24.911097
2106.000000	24.810014
2105.000000	24.802254
2104.000000	24.900367
2103.000000	24.870696
2102.000000	24.958229
2101.000000	24.790488
2100.000000	24.976313
2099.000000	25.028202
2098.000000	24.935130
2097.000000	24.899669
2096.000000	25.064393
2095.000000	24.916109
2094.000000	24.991094
2093.000000	25.046860
2092.000000	24.992278
2091.000000	24.861263
2090.000000	24.934683
2089.000000	25.000481
2088.000000	24.940955
2087.000000	24.820955
2086.000000	24.844023
2085.000000	24.936775
2084.000000	24.888326
2083.000000	24.771745
2082.000000	24.771832
2081.000000	24.568591
2080.000000	24.562880
2079.000000	24.535960
2078.000000	24.516124
2077.000000	24.537942
2076.000000	24.460912
2075.000000	24.340407
2074.000000	24.248360
2073.000000	24.157211
2072.000000	24.077785
2071.000000	24.021134
2070.000000	23.892673
2069.000000	23.699176
2068.000000	23.633138
2067.000000	23.529995
2066.000000	23.471562
2065.000000	23.422868
2064.000000	23.326719
2063.000000	23.267720
2062.000000	23.144516
2061.000000	22.999993
2060.000000	22.853927
2059.000000	22.730071
2058.000000	22.601875
2057.000000	22.508457
2056.000000	22.441135
2055.000000	22.398789
2054.000000	22.313644
2053.000000	22.194784
2052.000000	22.104743
2051.000000	21.986879
2050.000000	21.861019
2049.000000	21.756115
2048.000000	21.735654
2047.000000	21.745360
2046.000000	21.695024
2045.000000	21.624130
2044.000000	21.581998
2043.000000	21.644529
2042.000000	21.708265
2041.000000	21.701052
2040.000000	21.668836
2039.000000	21.702417
2038.000000	21.759738
2037.000000	21.773428
2036.000000	21.805195
2035.000000	21.916613
2034.000000	21.992879
2033.000000	22.043864
2032.000000	22.118182
2031.000000	22.182599
2030.000000	22.266267
2029.000000	22.397275
2028.000000	22.480566
2027.000000	22.567056
2026.000000	22.697218
2025.000000	22.793914
2024.000000	22.845549
2023.000000	22.877427
2022.000000	22.926792
2021.000000	22.988050
2020.000000	23.045298
2019.000000	23.075767
2018.000000	23.087103
2017.000000	23.103926
2016.000000	23.097391
2015.000000	23.146082
2014.000000	23.204209
2013.000000	23.204789
2012.000000	23.189565
2011.000000	23.134478
2010.000000	23.064202
2009.000000	23.031108
2008.000000	22.996707
2007.000000	22.949749
2006.000000	22.872381
2005.000000	22.862042
2004.000000	22.760387
2003.000000	22.646601
2002.000000	22.624175
2001.000000	22.556115
2000.000000	22.523223
1999.000000	22.438228
1998.000000	22.362583
1997.000000	22.317139
1996.000000	22.257577
1995.000000	22.174431
1994.000000	22.104935
1993.000000	22.029722
1992.000000	21.989463
1991.000000	21.917949
1990.000000	21.795136
1989.000000	21.694837
1988.000000	21.618419
1987.000000	21.619357
1986.000000	21.511549
1985.000000	21.404184
1984.000000	21.339327
1983.000000	21.290801
1982.000000	21.242583
1981.000000	21.163597
1980.000000	21.077059
1979.000000	20.990561
1978.000000	20.967739
1977.000000	20.897588
1976.000000	20.808172
1975.000000	20.759134
1974.000000	20.666732
1973.000000	20.650003
1972.000000	20.562219
1971.000000	20.515636
1970.000000	20.428539
1969.000000	20.368376
1968.000000	20.278284
1967.000000	20.241971
1966.000000	20.239316
1965.000000	20.166265
1964.000000	20.113502
1963.000000	20.013323
1962.000000	19.962887
1961.000000	19.819620
1960.000000	19.788093
1959.000000	19.759820
1958.000000	19.679886
1957.000000	19.616880
1956.000000	19.571945
1955.000000	19.518526
1954.000000	19.510773
1953.000000	19.477132
1952.000000	19.490328
1951.000000	19.436586
1950.000000	19.359206
1949.000000	19.354740
1948.000000	19.320938
1947.000000	19.323137
1946.000000	19.320800
1945.000000	19.365483
1944.000000	19.279685
1943.000000	19.300758
1942.000000	19.390456
1941.000000	19.418173
1940.000000	19.428239
1939.000000	19.436680
1938.000000	19.533715
1937.000000	19.514414
1936.000000	19.612497
1935.000000	19.758587
1934.000000	19.792014
1933.000000	19.817765
1932.000000	19.848499
1931.000000	19.938584
1930.000000	20.100151
1929.000000	20.162036
1928.000000	20.325263
1927.000000	20.568748
1926.000000	20.634111
1925.000000	20.750689
1924.000000	21.075921
1923.000000	21.165483
1922.000000	21.313224
1921.000000	21.552623
1920.000000	21.646334
1919.000000	21.897030
1918.000000	22.147419
1917.000000	22.410978
1916.000000	22.538923
1915.000000	22.915950
1914.000000	23.243284
1913.000000	23.448326
1912.000000	23.634998
1911.000000	23.967551
1910.000000	24.174529
1909.000000	24.559446
1908.000000	24.954704
1907.000000	25.262295
1906.000000	25.625449
1905.000000	25.880900
1904.000000	26.273994
1903.000000	26.599921
1902.000000	27.037010
1901.000000	27.435970
1900.000000	27.843569
1899.000000	28.286095
1898.000000	28.657340
1897.000000	29.135954
1896.000000	29.471598
1895.000000	29.899575
1894.000000	30.216982
1893.000000	30.557377
1892.000000	31.028849
1891.000000	31.407235
1890.000000	31.788700
1889.000000	32.154809
1888.000000	32.481352
1887.000000	32.801339
1886.000000	33.262629
1885.000000	33.541195
1884.000000	33.868514
1883.000000	34.196912
1882.000000	34.540011
1881.000000	34.808758
1880.000000	35.054225
1879.000000	35.337512
1878.000000	35.550083
1877.000000	35.771520
1876.000000	36.064945
1875.000000	36.255249
1874.000000	36.378965
1873.000000	36.560410
1872.000000	36.734719
1871.000000	36.884718
1870.000000	37.015017
1869.000000	37.197264
1868.000000	37.359450
1867.000000	37.392445
1866.000000	37.486034
1865.000000	37.587894
1864.000000	37.648395
1863.000000	37.707509
1862.000000	37.789167
1861.000000	37.807236
1860.000000	37.916472
1859.000000	37.926159
1858.000000	37.978433
1857.000000	38.043738
1856.000000	38.074618
1855.000000	38.138801
1854.000000	38.152023
1853.000000	38.102844
1852.000000	38.119344
1851.000000	38.125965
1850.000000	38.179952
1849.000000	38.167199
1848.000000	38.160200
1847.000000	38.180456
1846.000000	38.158166
1845.000000	38.150553
1844.000000	38.145606
1843.000000	38.081430
1842.000000	38.119673
1841.000000	38.082782
1840.000000	38.044042
1839.000000	38.052038
1838.000000	38.066300
1837.000000	37.979382
1836.000000	37.930485
1835.000000	37.905000
1834.000000	37.839528
1833.000000	37.804462
1832.000000	37.778427
1831.000000	37.734047
1830.000000	37.699027
1829.000000	37.671607
1828.000000	37.672323
1827.000000	37.653101
1826.000000	37.605643
1825.000000	37.570247
1824.000000	37.564700
1823.000000	37.541587
1822.000000	37.515437
1821.000000	37.473335
1820.000000	37.440244
1819.000000	37.390376
1818.000000	37.379766
1817.000000	37.360778
1816.000000	37.327105
1815.000000	37.321273
1814.000000	37.269684
1813.000000	37.248571
1812.000000	37.236895
1811.000000	37.202815
1810.000000	37.185538
1809.000000	37.165361
1808.000000	37.144083
1807.000000	37.125185
1806.000000	37.107174
1805.000000	37.084677
1804.000000	37.074465
1803.000000	37.034649
1802.000000	36.995108
1801.000000	36.995760
1800.000000	36.979958
1799.000000	36.950751
1798.000000	36.930039
1797.000000	36.929048
1796.000000	36.913166
1795.000000	36.896548
1794.000000	36.890006
1793.000000	36.886300
1792.000000	36.866590
1791.000000	36.843465
1790.000000	36.814469
1789.000000	36.798708
1788.000000	36.815669
1787.000000	36.795983
1786.000000	36.767509
1785.000000	36.756248
1784.000000	36.739275
1783.000000	36.735427
1782.000000	36.677651
1781.000000	36.649452
1780.000000	36.624660
1779.000000	36.582722
1778.000000	36.547255
1777.000000	36.516605
1776.000000	36.481704
1775.000000	36.431944
1774.000000	36.389126
1773.000000	36.325916
1772.000000	36.255794
1771.000000	36.212179
1770.000000	36.193660
1769.000000	36.157130
1768.000000	36.094911
1767.000000	36.044633
1766.000000	36.021283
1765.000000	35.961092
1764.000000	35.953030
1763.000000	35.901603
1762.000000	35.855281
1761.000000	35.792662
1760.000000	35.721033
1759.000000	35.684097
1758.000000	35.660629
1757.000000	35.624757
1756.000000	35.564825
1755.000000	35.509182
1754.000000	35.477763
1753.000000	35.434354
1752.000000	35.370413
1751.000000	35.311291
1750.000000	35.291593
1749.000000	35.289027
1748.000000	35.198924
1747.000000	35.155229
1746.000000	35.105889
1745.000000	35.052724
1744.000000	35.005553
1743.000000	34.950065
1742.000000	34.866360
1741.000000	34.857290
1740.000000	34.794577
1739.000000	34.745563
1738.000000	34.728298
1737.000000	34.696284
1736.000000	34.700338
1735.000000	34.705672
1734.000000	34.678170
1733.000000	34.641979
1732.000000	34.679290
1731.000000	34.696366
1730.000000	34.704288
1729.000000	34.736793
1728.000000	34.778222
1727.000000	34.795726
1726.000000	34.840370
1725.000000	34.900753
1724.000000	35.000742
1723.000000	35.023187
1722.000000	35.151484
1721.000000	35.189802
1720.000000	35.290034
1719.000000	35.387755
1718.000000	35.488564
1717.000000	35.537066
1716.000000	35.650550
1715.000000	35.727156
1714.000000	35.770026
1713.000000	35.857140
1712.000000	35.945026
1711.000000	36.004269
1710.000000	36.072912
1709.000000	36.117884
1708.000000	36.135978
1707.000000	36.178048
1706.000000	36.253172
1705.000000	36.271476
1704.000000	36.312750
1703.000000	36.284005
1702.000000	36.344902
1701.000000	36.322597
1700.000000	36.379532
1699.000000	36.353692
1698.000000	36.391738
1697.000000	36.422911
1696.000000	36.459656
1695.000000	36.507538
1694.000000	36.552052
1693.000000	36.583087
1692.000000	36.611260
1691.000000	36.681751
1690.000000	36.805184
1689.000000	36.857768
1688.000000	36.938023
1687.000000	37.046641
1686.000000	37.150810
1685.000000	37.265191
1684.000000	37.395023
1683.000000	37.546339
1682.000000	37.688508
1681.000000	37.844340
1680.000000	37.968956
1679.000000	38.096957
1678.000000	38.274188
1677.000000	38.393657
1676.000000	38.574129
1675.000000	38.732692
1674.000000	38.897482
1673.000000	39.042423
1672.000000	39.189142
1671.000000	39.339776
1670.000000	39.477499
1669.000000	39.606807
1668.000000	39.681653
1667.000000	39.835635
1666.000000	39.917963
1665.000000	39.988317
1664.000000	40.076463
1663.000000	40.143889
1662.000000	40.206868
1661.000000	40.288725
1660.000000	40.351132
1659.000000	40.455623
1658.000000	40.489896
1657.000000	40.524748
1656.000000	40.561928
1655.000000	40.588174
1654.000000	40.611319
1653.000000	40.639821
1652.000000	40.675134
1651.000000	40.679691
1650.000000	40.674216
1649.000000	40.670367
1648.000000	40.654809
1647.000000	40.657207
1646.000000	40.657874
1645.000000	40.639125
1644.000000	40.613850
1643.000000	40.595163
1642.000000	40.591480
1641.000000	40.579447
1640.000000	40.564271
1639.000000	40.522726
1638.000000	40.520053
1637.000000	40.511309
1636.000000	40.467271
1635.000000	40.442306
1634.000000	40.399722
1633.000000	40.368928
1632.000000	40.362591
1631.000000	40.326113
1630.000000	40.284287
1629.000000	40.245868
1628.000000	40.224197
1627.000000	40.176396
1626.000000	40.159934
1625.000000	40.130672
1624.000000	40.083355
1623.000000	40.065840
1622.000000	40.025881
1621.000000	39.963271
1620.000000	39.918207
1619.000000	39.874100
1618.000000	39.844892
1617.000000	39.810320
1616.000000	39.769256
1615.000000	39.696573
1614.000000	39.665510
1613.000000	39.616382
1612.000000	39.567523
1611.000000	39.530920
1610.000000	39.470776
1609.000000	39.421962
1608.000000	39.378241
1607.000000	39.339160
1606.000000	39.273588
1605.000000	39.230275
1604.000000	39.190131
1603.000000	39.124419
1602.000000	39.075541
1601.000000	39.027852
1600.000000	38.981611
1599.000000	38.934527
1598.000000	38.889854
1597.000000	38.840991
1596.000000	38.795163
1595.000000	38.757139
1594.000000	38.718502
1593.000000	38.666302
1592.000000	38.615138
1591.000000	38.582316
1590.000000	38.552101
1589.000000	38.504705
1588.000000	38.457390
1587.000000	38.438581
1586.000000	38.401611
1585.000000	38.350814
1584.000000	38.320998
1583.000000	38.293841
1582.000000	38.260855
1581.000000	38.227073
1580.000000	38.179421
1579.000000	38.144598
1578.000000	38.122186
1577.000000	38.096128
1576.000000	38.041199
1575.000000	37.994261
1574.000000	37.961787
1573.000000	37.927172
1572.000000	37.886726
1571.000000	37.859850
1570.000000	37.837923
1569.000000	37.784664
1568.000000	37.745266
1567.000000	37.728197
1566.000000	37.710786
1565.000000	37.684222
1564.000000	37.656336
1563.000000	37.635965
1562.000000	37.619727
1561.000000	37.610987
1560.000000	37.597003
1559.000000	37.570558
1558.000000	37.526199
1557.000000	37.519789
1556.000000	37.506904
1555.000000	37.480897
1554.000000	37.472209
1553.000000	37.445056
1552.000000	37.407931
1551.000000	37.374091
1550.000000	37.363698
1549.000000	37.315723
1548.000000	37.287063
1547.000000	37.251250
1546.000000	37.200288
1545.000000	37.146066
1544.000000	37.086679
1543.000000	37.013356
1542.000000	36.958208
1541.000000	36.890058
1540.000000	36.827312
1539.000000	36.764828
1538.000000	36.685021
1537.000000	36.609645
1536.000000	36.530624
1535.000000	36.466523
1534.000000	36.402269
1533.000000	36.329215
1532.000000	36.252213
1531.000000	36.187183
1530.000000	36.118075
1529.000000	36.043168
1528.000000	35.982354
1527.000000	35.918364
1526.000000	35.862341
1525.000000	35.815121
1524.000000	35.771329
1523.000000	35.722867
1522.000000	35.670230
1521.000000	35.629116
1520.000000	35.601851
1519.000000	35.564835
1518.000000	35.554804
1517.000000	35.494527
1516.000000	35.469151
1515.000000	35.457860
1514.000000	35.428451
1513.000000	35.408252
1512.000000	35.387311
1511.000000	35.363930
1510.000000	35.373952
1509.000000	35.331942
1508.000000	35.327884
1507.000000	35.325138
1506.000000	35.307994
1505.000000	35.302960
1504.000000	35.310494
1503.000000	35.312634
1502.000000	35.294793
1501.000000	35.289835
1500.000000	35.298556
1499.000000	35.312807
1498.000000	35.321915
1497.000000	35.322066
1496.000000	35.340778
1495.000000	35.368045
1494.000000	35.373844
1493.000000	35.407405
1492.000000	35.423069
1491.000000	35.444638
1490.000000	35.494656
1489.000000	35.531837
1488.000000	35.582018
1487.000000	35.603025
1486.000000	35.646014
1485.000000	35.686570
1484.000000	35.737346
1483.000000	35.796051
1482.000000	35.819445
1481.000000	35.875420
1480.000000	35.919629
1479.000000	35.975632
1478.000000	36.041464
1477.000000	36.072383
1476.000000	36.099403
1475.000000	36.154908
1474.000000	36.177122
1473.000000	36.235772
1472.000000	36.288506
1471.000000	36.327206
1470.000000	36.371214
1469.000000	36.406485
1468.000000	36.451194
1467.000000	36.503096
1466.000000	36.542374
1465.000000	36.594487
1464.000000	36.611084
1463.000000	36.644129
1462.000000	36.690279
1461.000000	36.724883
1460.000000	36.792091
1459.000000	36.823481
1458.000000	36.877277
1457.000000	36.908295
1456.000000	36.940156
1455.000000	37.020330
1454.000000	37.074252
1453.000000	37.113383
1452.000000	37.162834
1451.000000	37.225916
1450.000000	37.291754
1449.000000	37.328581
1448.000000	37.389026
1447.000000	37.453853
1446.000000	37.502004
1445.000000	37.578553
1444.000000	37.657100
1443.000000	37.719889
1442.000000	37.799788
1441.000000	37.864995
1440.000000	37.931528
1439.000000	38.023074
1438.000000	38.090975
1437.000000	38.173468
1436.000000	38.268687
1435.000000	38.359769
1434.000000	38.439567
1433.000000	38.543015
1432.000000	38.634922
1431.000000	38.738645
1430.000000	38.839973
1429.000000	38.952206
1428.000000	39.060985
1427.000000	39.177900
1426.000000	39.295532
1425.000000	39.406921
1424.000000	39.528206
1423.000000	39.668433
1422.000000	39.805852
1421.000000	39.944639
1420.000000	40.095620
1419.000000	40.222781
1418.000000	40.372156
1417.000000	40.514616
1416.000000	40.667514
1415.000000	40.833738
1414.000000	40.973950
1413.000000	41.124135
1412.000000	41.280869
1411.000000	41.434248
1410.000000	41.587170
1409.000000	41.742267
1408.000000	41.895065
1407.000000	42.035787
1406.000000	42.188717
1405.000000	42.350344
1404.000000	42.486081
1403.000000	42.627290
1402.000000	42.766579
1401.000000	42.904413
1400.000000	43.037446
1399.000000	43.168521
1398.000000	43.297510
1397.000000	43.427378
1396.000000	43.562415
1395.000000	43.704591
1394.000000	43.809631
1393.000000	43.935389
1392.000000	44.063916
1391.000000	44.175603
1390.000000	44.267752
1389.000000	44.348640
1388.000000	44.438499
1387.000000	44.525663
1386.000000	44.607223
1385.000000	44.693995
1384.000000	44.774785
1383.000000	44.851448
1382.000000	44.942414
1381.000000	45.022414
1380.000000	45.076489
1379.000000	45.131847
1378.000000	45.214069
1377.000000	45.290843
1376.000000	45.346788
1375.000000	45.402416
1374.000000	45.454325
1373.000000	45.498964
1372.000000	45.546110
1371.000000	45.589442
1370.000000	45.641847
1369.000000	45.692882
1368.000000	45.724511
1367.000000	45.767778
1366.000000	45.813597
1365.000000	45.845200
1364.000000	45.886465
1363.000000	45.933901
1362.000000	45.976116
1361.000000	46.027077
1360.000000	46.066597
1359.000000	46.107303
1358.000000	46.163349
1357.000000	46.193449
1356.000000	46.242847
1355.000000	46.301715
1354.000000	46.332348
1353.000000	46.375173
1352.000000	46.424057
1351.000000	46.463516
1350.000000	46.510997
1349.000000	46.562936
1348.000000	46.618322
1347.000000	46.664735
1346.000000	46.715090
1345.000000	46.750576
1344.000000	46.774301
1343.000000	46.826698
1342.000000	46.872955
1341.000000	46.920612
1340.000000	46.958475
1339.000000	46.999502
1338.000000	47.033385
1337.000000	47.062214
1336.000000	47.100500
1335.000000	47.122585
1334.000000	47.160966
1333.000000	47.200493
1332.000000	47.228197
1331.000000	47.255722
1330.000000	47.248870
1329.000000	47.263304
1328.000000	47.298400
1327.000000	47.326200
1326.000000	47.332839
1325.000000	47.352550
1324.000000	47.403558
1323.000000	47.417825
1322.000000	47.447937
1321.000000	47.498524
1320.000000	47.507916
1319.000000	47.505649
1318.000000	47.509580
1317.000000	47.492459
1316.000000	47.492426
1315.000000	47.502127
1314.000000	47.512792
1313.000000	47.524524
1312.000000	47.537267
1311.000000	47.531004
1310.000000	47.529448
1309.000000	47.542629
1308.000000	47.560115
1307.000000	47.580828
1306.000000	47.563699
1305.000000	47.590360
1304.000000	47.606381
1303.000000	47.618951
1302.000000	47.617533
1301.000000	47.609160
1300.000000	47.619303
1299.000000	47.606358
1298.000000	47.614470
1297.000000	47.631501
1296.000000	47.636610
1295.000000	47.637628
1294.000000	47.632910
1293.000000	47.641427
1292.000000	47.631837
1291.000000	47.636816
1290.000000	47.636965
1289.000000	47.628480
1288.000000	47.636892
1287.000000	47.620567
1286.000000	47.619838
1285.000000	47.622861
1284.000000	47.605014
1283.000000	47.616989
1282.000000	47.574125
1281.000000	47.575864
1280.000000	47.584100
1279.000000	47.590209
1278.000000	47.582604
1277.000000	47.577506
1276.000000	47.590377
1275.000000	47.590133
1274.000000	47.571762
1273.000000	47.592800
1272.000000	47.572051
1271.000000	47.589981
1270.000000	47.571222
1269.000000	47.586140
1268.000000	47.570603
1267.000000	47.590478
1266.000000	47.613586
1265.000000	47.606987
1264.000000	47.619370
1263.000000	47.627750
1262.000000	47.619693
1261.000000	47.613264
1260.000000	47.631559
1259.000000	47.685622
1258.000000	47.659848
1257.000000	47.646066
1256.000000	47.652891
1255.000000	47.652287
1254.000000	47.660608
1253.000000	47.652116
1252.000000	47.656706
1251.000000	47.670168
1250.000000	47.676398
1249.000000	47.672823
1248.000000	47.677291
1247.000000	47.671691
1246.000000	47.674882
1245.000000	47.676681
1244.000000	47.663788
1243.000000	47.648659
1242.000000	47.651832
1241.000000	47.634336
1240.000000	47.604303
1239.000000	47.581598
1238.000000	47.560571
1237.000000	47.565803
1236.000000	47.536677
1235.000000	47.518237
1234.000000	47.509539
1233.000000	47.501650
1232.000000	47.472402
1231.000000	47.461275
1230.000000	47.449401
1229.000000	47.443588
1228.000000	47.424969
1227.000000	47.401202
1226.000000	47.344052
1225.000000	47.335736
1224.000000	47.336229
1223.000000	47.307706
1222.000000	47.288610
1221.000000	47.267083
1220.000000	47.258549
1219.000000	47.242524
1218.000000	47.210022
1217.000000	47.190586
1216.000000	47.156591
1215.000000	47.127663
1214.000000	47.120434
1213.000000	47.100014
1212.000000	47.054825
1211.000000	47.045236
1210.000000	47.022463
1209.000000	46.981744
1208.000000	46.953997
1207.000000	46.943024
1206.000000	46.907735
1205.000000	46.860756
1204.000000	46.846074
1203.000000	46.845387
1202.000000	46.807144
1201.000000	46.785903
1200.000000	46.777577
1199.000000	46.754563
1198.000000	46.725705
1197.000000	46.697071
1196.000000	46.683049
1195.000000	46.660409
1194.000000	46.657982
1193.000000	46.641223
1192.000000	46.622676
1191.000000	46.610680
1190.000000	46.600948
1189.000000	46.578984
1188.000000	46.580687
1187.000000	46.579435
1186.000000	46.573435
1185.000000	46.575124
1184.000000	46.578306
1183.000000	46.585499
1182.000000	46.608978
1181.000000	46.638176
1180.000000	46.658014
1179.000000	46.694212
1178.000000	46.721207
1177.000000	46.739643
1176.000000	46.761385
1175.000000	46.786314
1174.000000	46.825203
1173.000000	46.877244
1172.000000	46.921660
1171.000000	46.965231
1170.000000	47.020774
1169.000000	47.072298
1168.000000	47.125539
1167.000000	47.188495
1166.000000	47.241299
1165.000000	47.291395
1164.000000	47.358574
1163.000000	47.416501
1162.000000	47.464432
1161.000000	47.513370
1160.000000	47.565557
1159.000000	47.629755
1158.000000	47.681115
1157.000000	47.721222
1156.000000	47.766844
1155.000000	47.814964
1154.000000	47.856193
1153.000000	47.893464
1152.000000	47.942161
1151.000000	47.971590
1150.000000	48.005142
1149.000000	48.038757
1148.000000	48.068562
1147.000000	48.114027
1146.000000	48.159363
1145.000000	48.198440
1144.000000	48.234384
1143.000000	48.259641
1142.000000	48.295188
1141.000000	48.328329
1140.000000	48.353358
1139.000000	48.389062
1138.000000	48.420613
1137.000000	48.442670
1136.000000	48.452759
1135.000000	48.484760
1134.000000	48.510272
1133.000000	48.538173
1132.000000	48.561416
1131.000000	48.588210
1130.000000	48.609586
1129.000000	48.639256
1128.000000	48.664566
1127.000000	48.680585
1126.000000	48.701254
1125.000000	48.716546
1124.000000	48.722209
1123.000000	48.740447
1122.000000	48.754425
1121.000000	48.749439
1120.000000	48.753193
1119.000000	48.762256
1118.000000	48.763913
1117.000000	48.782466
1116.000000	48.797594
1115.000000	48.799268
1114.000000	48.810382
1113.000000	48.810769
1112.000000	48.815489
1111.000000	48.825510
1110.000000	48.832962
1109.000000	48.832573
1108.000000	48.846378
1107.000000	48.852690
1106.000000	48.844115
1105.000000	48.843858
1104.000000	48.845946
1103.000000	48.847968
1102.000000	48.859590
1101.000000	48.868663
1100.000000	48.870866
1099.000000	48.864523
1098.000000	48.864283
1097.000000	48.868593
1096.000000	48.867755
1095.000000	48.866251
1094.000000	48.875482
1093.000000	48.874229
1092.000000	48.873314
1091.000000	48.860205
1090.000000	48.858555
1089.000000	48.890835
1088.000000	48.889744
1087.000000	48.886241
1086.000000	48.885054
1085.000000	48.879070
1084.000000	48.882883
1083.000000	48.869360
1082.000000	48.872779
1081.000000	48.870500
1080.000000	48.881379
1079.000000	48.873272
1078.000000	48.868679
1077.000000	48.865588
1076.000000	48.859770
1075.000000	48.876154
1074.000000	48.866387
1073.000000	48.860852
1072.000000	48.872410
1071.000000	48.847365
1070.000000	48.844898
1069.000000	48.850822
1068.000000	48.854777
1067.000000	48.838180
1066.000000	48.842556
1065.000000	48.845096
1064.000000	48.836036
1063.000000	48.843864
1062.000000	48.836464
1061.000000	48.831551
1060.000000	48.834609
1059.000000	48.817799
1058.000000	48.827073
1057.000000	48.815180
1056.000000	48.802931
1055.000000	48.805121
1054.000000	48.792174
1053.000000	48.789168
1052.000000	48.784597
1051.000000	48.778851
1050.000000	48.765585
1049.000000	48.770388
1048.000000	48.768826
1047.000000	48.755030
1046.000000	48.770078
1045.000000	48.743357
1044.000000	48.746486
1043.000000	48.751359
1042.000000	48.747919
1041.000000	48.746619
1040.000000	48.746977
1039.000000	48.742733
1038.000000	48.733085
1037.000000	48.707653
1036.000000	48.736460
1035.000000	48.727512
1034.000000	48.720186
1033.000000	48.713009
1032.000000	48.701118
1031.000000	48.703874
1030.000000	48.698362
1029.000000	48.699476
1028.000000	48.708119
1027.000000	48.693494
1026.000000	48.691340
1025.000000	48.686385
1024.000000	48.693643
1023.000000	48.687790
1022.000000	48.676857
1021.000000	48.683537
1020.000000	48.676265
1019.000000	48.698874
1018.000000	48.674625
1017.000000	48.682732
1016.000000	48.682635
1015.000000	48.670222
1014.000000	48.684254
1013.000000	48.685929
1012.000000	48.686691
1011.000000	48.691838
1010.000000	48.678829
1009.000000	48.674886
1008.000000	48.673351
1007.000000	48.678012
1006.000000	48.692539
1005.000000	48.688612
1004.000000	48.678663
1003.000000	48.688940
1002.000000	48.692719
1001.000000	48.691136
1000.000000	48.690649
999.000000	48.702186
998.000000	48.706355
997.000000	48.709570
996.000000	48.709926
995.000000	48.703164
994.000000	48.712576
993.000000	48.717934
992.000000	48.693441
991.000000	48.708508
990.000000	48.713210
989.000000	48.698121
988.000000	48.695234
987.000000	48.706098
986.000000	48.716481
985.000000	48.709191
984.000000	48.721467
983.000000	48.732483
982.000000	48.737196
981.000000	48.736180
980.000000	48.733700
979.000000	48.733912
978.000000	48.732235
977.000000	48.724342
976.000000	48.728794
975.000000	48.740143
974.000000	48.748332
973.000000	48.749823
972.000000	48.753764
971.000000	48.753851
970.000000	48.754391
969.000000	48.748944
968.000000	48.756030
967.000000	48.779085
966.000000	48.782397
965.000000	48.768597
964.000000	48.774551
963.000000	48.793612
962.000000	48.804304
961.000000	48.809053
960.000000	48.795256
959.000000	48.792448
958.000000	48.796674
957.000000	48.802866
956.000000	48.814194
955.000000	48.825872
954.000000	48.834217
953.000000	48.844614
952.000000	48.853485
951.000000	48.845954
950.000000	48.831145
949.000000	48.839553
948.000000	48.829807
947.000000	48.804690
946.000000	48.799860
945.000000	48.808693
944.000000	48.820395
943.000000	48.826433
942.000000	48.828152
941.000000	48.826502
940.000000	48.823650
939.000000	48.829092
938.000000	48.831136
937.000000	48.832777
936.000000	48.823724
935.000000	48.804774
934.000000	48.809471
933.000000	48.780688
932.000000	48.763480
931.000000	48.790514
930.000000	48.773161
929.000000	48.743849
928.000000	48.751219
927.000000	48.774539
926.000000	48.746932
925.000000	48.731307
924.000000	48.750996
923.000000	48.747876
922.000000	48.744098
921.000000	48.730113
920.000000	48.713927
919.000000	48.697850
918.000000	48.670704
917.000000	48.693197
916.000000	48.716638
915.000000	48.730615
914.000000	48.715555
913.000000	48.726363
912.000000	48.730671
911.000000	48.697826
910.000000	48.716326
909.000000	48.735683
908.000000	48.714808
907.000000	48.711766
906.000000	48.666311
905.000000	48.688979
904.000000	48.660669
903.000000	48.669717
902.000000	48.681046
901.000000	48.702413
900.000000	48.640523
899.000000	48.618814
898.000000	48.652752
897.000000	48.643321
896.000000	48.635790
895.000000	48.659660
894.000000	48.741574
893.000000	48.765915
892.000000	48.680149
891.000000	48.742936
890.000000	48.691160
889.000000	48.646997
888.000000	48.619644
887.000000	48.660850
886.000000	48.651773
885.000000	48.629510
884.000000	48.622268
883.000000	48.687452
882.000000	48.682902
881.000000	48.616844
880.000000	48.645645
879.000000	48.600613
878.000000	48.567483
877.000000	48.663509
876.000000	48.599051
875.000000	48.653681
874.000000	48.615671
873.000000	48.631805
872.000000	48.698808
871.000000	48.604009
870.000000	48.536438
869.000000	48.528353
868.000000	48.467995
867.000000	48.582570
866.000000	48.511789
865.000000	48.464522
864.000000	48.547104
863.000000	48.476000
862.000000	48.584341
861.000000	48.548930
860.000000	48.461983
859.000000	47.062508
858.000000	47.251636
857.000000	47.563189
856.000000	47.110294
855.000000	47.106586
854.000000	47.483074
853.000000	47.196074
852.000000	47.024889
851.000000	47.203187
850.000000	47.283445
849.000000	47.024575
848.000000	47.243243
847.000000	47.508008
846.000000	47.222009
845.000000	47.208718
844.000000	47.252652
843.000000	47.318081
842.000000	47.111592
841.000000	47.045154
840.000000	47.153961
839.000000	47.273146
838.000000	47.097213
837.000000	47.128322
836.000000	47.107041
835.000000	47.177419
834.000000	47.131573
833.000000	47.015343
832.000000	47.082974
831.000000	46.938582
830.000000	47.008444
829.000000	46.959792
828.000000	47.108594
827.000000	47.052230
826.000000	47.044198
825.000000	46.981504
824.000000	46.937649
823.000000	47.104849
822.000000	46.961916
821.000000	46.830543
820.000000	46.952078
819.000000	46.884802
818.000000	46.852267
817.000000	46.860673
816.000000	46.897832
815.000000	46.933099
814.000000	46.832865
813.000000	46.779244
812.000000	46.809537
811.000000	46.823001
810.000000	46.820328
809.000000	46.675286
808.000000	46.877420
807.000000	46.594287
806.000000	46.776075
805.000000	46.773427
804.000000	46.673867
803.000000	46.593992
802.000000	46.608593
801.000000	46.641042
800.000000	46.672654
799.000000	46.646571
798.000000	46.576142
797.000000	46.567493
796.000000	46.557020
795.000000	46.543347
794.000000	46.440176
793.000000	46.492733
792.000000	46.469059
791.000000	46.540854
790.000000	46.438661
789.000000	46.429174
788.000000	46.387561
787.000000	46.356969
786.000000	46.507436
785.000000	46.323602
784.000000	46.318023
783.000000	46.300696
782.000000	46.297944
781.000000	46.277335
780.000000	46.245949
779.000000	46.290318
778.000000	46.218758
777.000000	46.161676
776.000000	46.245783
775.000000	46.197207
774.000000	46.085070
773.000000	46.052900
772.000000	46.112735
771.000000	46.096671
770.000000	46.074904
769.000000	46.082506
768.000000	45.985591
767.000000	46.001370
766.000000	45.984014
765.000000	45.884891
764.000000	45.849103
763.000000	46.010609
762.000000	45.908330
761.000000	45.814991
760.000000	45.827834
759.000000	45.829025
758.000000	45.778364
757.000000	45.740040
756.000000	45.694672
755.000000	45.678023
754.000000	45.686521
753.000000	45.603499
752.000000	45.641987
751.000000	45.614940
750.000000	45.605380
749.000000	45.557916
748.000000	45.454013
747.000000	45.393750
746.000000	45.446157
745.000000	45.411807
744.000000	45.375582
743.000000	45.428512
742.000000	45.366783
741.000000	45.294496
740.000000	45.299399
739.000000	45.297752
738.000000	45.218466
737.000000	45.144636
736.000000	45.167973
735.000000	45.126192
734.000000	45.043626
733.000000	45.053558
732.000000	45.009892
731.000000	44.955994
730.000000	44.919919
729.000000	44.939385
728.000000	44.914440
727.000000	44.897948
726.000000	44.845228
725.000000	44.795163
724.000000	44.745770
723.000000	44.723373
722.000000	44.698586
721.000000	44.629731
720.000000	44.613512
719.000000	44.493464
718.000000	44.492913
717.000000	44.519372
716.000000	44.457007
715.000000	44.419740
714.000000	44.386006
713.000000	44.339474
712.000000	44.313598
711.000000	44.280128
710.000000	44.230160
709.000000	44.205688
708.000000	44.136154
707.000000	44.082912
706.000000	44.076539
705.000000	44.019617
704.000000	43.979025
703.000000	43.941089
702.000000	43.874189
701.000000	43.886810
700.000000	43.847111
699.000000	43.799217
698.000000	43.802836
697.000000	43.725534
696.000000	43.680313
695.000000	43.609666
694.000000	43.582727
693.000000	43.532357
692.000000	43.458804
691.000000	43.458460
690.000000	43.417193
689.000000	43.335355
688.000000	43.247496
687.000000	43.176487
686.000000	43.116042
685.000000	43.059738
684.000000	43.004329
683.000000	42.936368
682.000000	42.902190
681.000000	42.881273
680.000000	42.802574
679.000000	42.736774
678.000000	42.730476
677.000000	42.674003
676.000000	42.593115
675.000000	42.587773
674.000000	42.540839
673.000000	42.470322
672.000000	42.401437
671.000000	42.368930
670.000000	42.274816
669.000000	42.235655
668.000000	42.190255
667.000000	42.146759
666.000000	42.105952
665.000000	41.993744
664.000000	41.927556
663.000000	41.889601
662.000000	41.844999
661.000000	41.783304
660.000000	41.732749
659.000000	41.681646
658.000000	41.634121
657.000000	41.526397
656.000000	41.493266
655.000000	41.462928
654.000000	41.374154
653.000000	41.303083
652.000000	41.186240
651.000000	41.184793
650.000000	41.158258
649.000000	41.096694
648.000000	41.027483
647.000000	40.935297
646.000000	40.836052
645.000000	40.794987
644.000000	40.771602
643.000000	40.672044
642.000000	40.642206
641.000000	40.614939
640.000000	40.529279
639.000000	40.419849
638.000000	40.381812
637.000000	40.321578
636.000000	40.276000
635.000000	40.197461
634.000000	40.141436
633.000000	40.062922
632.000000	39.966522
631.000000	39.932321
630.000000	39.885830
629.000000	39.812415
628.000000	39.723891
627.000000	39.691051
626.000000	39.580806
625.000000	39.471686
624.000000	39.437933
623.000000	39.372556
622.000000	39.319488
621.000000	39.280082
620.000000	39.207197
619.000000	39.136909
618.000000	39.028681
617.000000	38.984202
616.000000	38.925615
615.000000	38.792678
614.000000	38.728048
613.000000	38.663000
612.000000	38.579322
611.000000	38.518688
610.000000	38.471795
609.000000	38.393679
608.000000	38.289756
607.000000	38.215112
606.000000	38.151578
605.000000	38.047875
604.000000	37.969994
603.000000	37.902503
602.000000	37.827553
601.000000	37.753257
600.000000	37.710741
599.000000	37.631679
598.000000	37.545660
597.000000	37.449398
596.000000	37.386579
595.000000	37.309962
594.000000	37.211140
593.000000	37.122593
592.000000	37.039089
591.000000	36.945273
590.000000	36.861291
589.000000	36.819213
588.000000	36.731963
587.000000	36.618962
586.000000	36.552379
585.000000	36.487592
584.000000	36.388483
583.000000	36.302803
582.000000	36.203264
581.000000	36.135319
580.000000	36.052081
579.000000	35.984923
578.000000	35.870822
577.000000	35.775300
576.000000	35.697901
575.000000	35.620021
574.000000	35.490671
573.000000	35.412136
572.000000	35.380944
571.000000	35.260345
570.000000	35.156112
569.000000	35.067524
568.000000	34.972304
567.000000	34.906895
566.000000	34.772742
565.000000	34.685013
564.000000	34.588875
563.000000	34.508984
562.000000	34.393524
561.000000	34.358353
560.000000	34.247673
559.000000	34.178244
558.000000	34.033511
557.000000	33.945413
556.000000	33.845446
555.000000	33.747455
554.000000	33.605789
553.000000	33.543197
552.000000	33.446880
551.000000	33.326773
550.000000	33.243138
549.000000	33.144752
548.000000	33.056969
547.000000	32.942969
546.000000	32.820888
545.000000	32.740607
544.000000	32.619024
543.000000	32.513789
542.000000	32.366155
541.000000	32.255353
540.000000	32.170663
539.000000	32.069209
538.000000	31.980799
537.000000	31.885675
536.000000	31.765847
535.000000	31.669792
534.000000	31.533930
533.000000	31.445047
532.000000	31.322921
531.000000	31.223348
530.000000	31.095772
529.000000	31.003128
528.000000	30.883222
527.000000	30.761649
526.000000	30.651950
525.000000	30.523737
524.000000	30.418265
523.000000	30.317004
522.000000	30.191553
521.000000	30.084553
520.000000	29.989391
519.000000	29.882104
518.000000	29.746980
517.000000	29.656121
516.000000	29.523333
515.000000	29.429902
514.000000	29.338783
513.000000	29.230440
512.000000	29.101903
511.000000	29.008010
510.000000	28.900881
509.000000	28.787542
508.000000	28.679859
507.000000	28.574849
506.000000	28.459915
505.000000	28.370342
504.000000	28.241899
503.000000	28.131640
502.000000	28.034033
501.000000	27.929973
500.000000	27.799096
499.000000	27.696755
498.000000	27.559591
497.000000	27.446808
496.000000	27.338605
495.000000	27.215688
494.000000	27.100541
493.000000	26.988512
492.000000	26.875098
491.000000	26.731611
490.000000	26.610138
489.000000	26.532574
488.000000	26.405569
487.000000	26.265864
486.000000	26.131196
485.000000	25.995167
484.000000	25.901261
483.000000	25.781920
482.000000	25.655541
481.000000	25.576095
480.000000	25.479481
479.000000	25.397625
478.000000	25.319994
477.000000	25.219657
476.000000	25.111646
475.000000	24.987046
474.000000	24.873906
473.000000	24.772602
472.000000	24.676421
471.000000	24.578971
470.000000	24.486686
469.000000	24.380801
468.000000	24.282003
467.000000	24.177540
466.000000	24.073963
465.000000	23.980486
464.000000	23.865141
463.000000	23.761953
462.000000	23.658629
461.000000	23.518798
460.000000	23.410695
459.000000	23.317045
458.000000	23.184647
457.000000	23.069788
456.000000	22.963158
455.000000	22.839194
454.000000	22.711355
453.000000	22.595352
452.000000	22.459403
451.000000	22.346714
450.000000	22.230389
449.000000	22.098828
448.000000	21.974389
447.000000	21.835105
446.000000	21.707239
445.000000	21.593683
444.000000	21.470720
443.000000	21.346637
442.000000	21.222031
441.000000	21.089300
440.000000	20.963965
439.000000	20.843303
438.000000	20.731116
437.000000	20.573379
436.000000	20.440183
435.000000	20.326175
434.000000	20.203486
433.000000	20.070478
432.000000	19.935454
431.000000	19.787660
430.000000	19.673605
429.000000	19.543835
428.000000	19.411024
427.000000	19.271527
426.000000	19.148216
425.000000	19.022491
424.000000	18.875187
423.000000	18.747799
422.000000	18.621948
421.000000	18.506616
420.000000	18.381553
419.000000	18.260874
418.000000	18.119388
417.000000	17.992142
416.000000	17.860009
415.000000	17.716902
414.000000	17.596954
413.000000	17.478538
412.000000	17.342772
411.000000	17.224208
410.000000	17.088532
409.000000	16.968214
408.000000	16.819594
407.000000	16.719209
406.000000	16.613312
405.000000	16.497113
404.000000	16.359779
403.000000	16.260621
402.000000	16.135458
401.000000	15.979678
400.000000	15.892272
399.000000	15.774505
398.000000	15.655487
397.000000	15.545754
396.000000	15.447710
395.000000	15.359545
394.000000	15.231472
393.000000	15.105450
392.000000	15.036654
391.000000	14.908197
390.000000	14.788976
389.000000	14.683160
388.000000	14.587860
387.000000	14.471885
386.000000	14.376675
385.000000	14.270011
384.000000	14.126649
383.000000	14.028856
382.000000	13.951492
381.000000	13.838660
380.000000	13.708736
379.000000	13.596775
378.000000	13.446082
377.000000	13.412601
376.000000	13.279453
375.000000	13.229187
374.000000	13.100800
373.000000	13.114714
372.000000	12.909568
371.000000	12.844371
370.000000	12.788380
369.000000	12.742087
368.000000	12.666524
367.000000	12.551269
366.000000	12.500638
365.000000	12.398944
364.000000	12.327240
363.000000	12.305656
362.000000	12.199319
361.000000	12.096086
360.000000	12.026607
359.000000	11.956134
358.000000	11.935123
357.000000	11.892992
356.000000	11.762419
355.000000	11.715211
354.000000	11.645429
353.000000	11.634823
352.000000	11.590321
351.000000	11.475433
350.000000	11.500672
349.000000	11.357729
348.000000	11.338574
347.000000	11.293964
346.000000	11.206401
345.000000	11.150394
344.000000	11.092267
343.000000	11.136732
342.000000	10.941531
341.000000	10.909710
340.000000	10.819060
339.000000	10.801523
338.000000	10.773778
337.000000	10.726576
336.000000	10.619396
335.000000	10.603154
334.000000	10.500272
333.000000	10.445302
332.000000	10.421812
331.000000	10.346349
330.000000	10.375513
329.000000	10.267469
328.000000	10.281796
327.000000	10.111797
326.000000	10.113357
325.000000	10.023946
324.000000	10.055364
323.000000	10.004950
322.000000	9.989813
321.000000	9.969640
320.000000	9.857233
319.000000	9.896255
318.000000	9.705218
317.000000	9.751443
316.000000	9.695042
315.000000	9.658669
314.000000	9.714277
313.000000	9.627482
312.000000	9.593799
311.000000	9.553311
310.000000	9.528580
309.000000	9.552553
308.000000	9.517592
307.000000	9.540954
306.000000	9.483202
305.000000	9.483158
304.000000	9.468310
303.000000	9.458139
302.000000	9.554952
301.000000	9.506582
300.000000	9.451203
299.000000	9.473141
298.000000	9.455948
297.000000	9.465864
296.000000	9.407429
295.000000	9.433523
294.000000	9.428612
293.000000	9.418235
292.000000	9.468169
291.000000	9.328280
290.000000	9.351407
289.000000	9.366641
288.000000	9.312767
287.000000	9.347528
286.000000	9.408827
285.000000	9.411864
284.000000	9.401522
283.000000	9.403024
282.000000	9.454970
281.000000	9.441855
280.000000	9.432729
279.000000	9.466442
278.000000	9.509684
277.000000	9.519208
276.000000	9.578237
275.000000	9.572098
274.000000	9.603027
273.000000	9.618360
272.000000	9.649956
271.000000	9.738045
270.000000	9.776523
269.000000	9.778345
268.000000	9.864753
267.000000	9.909219
266.000000	9.914023
265.000000	9.950326
264.000000	10.021622
263.000000	10.078770
262.000000	10.156159
261.000000	10.245368
260.000000	10.329740
259.000000	10.381469
258.000000	10.420188
257.000000	10.534249
256.000000	10.613050
255.000000	10.697542
254.000000	10.772777
253.000000	10.875033
252.000000	10.986586
251.000000	11.109207
250.000000	11.227814
249.000000	11.325980
248.000000	11.394329
247.000000	11.472062
246.000000	11.567767
245.000000	11.658385
244.000000	11.740799
243.000000	11.842092
242.000000	11.888751
241.000000	11.914505
240.000000	11.947591
239.000000	11.989317
238.000000	12.028131
237.000000	12.082731
236.000000	12.138514
235.000000	12.164596
234.000000	12.198205
233.000000	12.106861
232.000000	12.110891
231.000000	12.126754
230.000000	12.111668
229.000000	12.138428
228.000000	12.152678
227.000000	12.191105
226.000000	12.217878
225.000000	12.275582
224.000000	12.278705
223.000000	12.346791
222.000000	12.350392
221.000000	12.349050
220.000000	12.447717
219.000000	12.529037
218.000000	12.579763
217.000000	12.702177
216.000000	12.780097
215.000000	12.957461
214.000000	13.170585
213.000000	13.309550
212.000000	13.363229
211.000000	13.487733
210.000000	13.796669
209.000000	14.057244
208.000000	14.422835
207.000000	14.695724
206.000000	14.867322
205.000000	15.181190
204.000000	15.559240
203.000000	15.949036
202.000000	16.657907
201.000000	17.167542
200.000000	17.507103
