PE UV       SUBTECH     SPECTRUM    ASCII       PEDS        4.00        
   -1
RTmsmeh82.Sample.asc
18/03/20
12:21:22.00
18/03/20
12:21:22.00
Administrator

200.000000
1
Lambda 750
750N8071901
PerkinElmer UV WinLab 6.0.4.0738 / 1.61.00 Lambda 900

0
0
3350/servo 860.8/2
0
0
UV/VIS
1
1
1
CommonBeamDepol,150mm sphere / downward view
0
0
0
0
Program
Program
3350/servo 860.8/2
3350/0.2 860.8/0.2
3350/0.2 860.8/0.2
0
1
 
 
 
0
 
860.8
319.2
860.8
Front
100
on
 
 
0
0
0
 
0
 
 
 
0
 
 
0
0
0
0
0
 
 
 
 
0
0


0
0
#HDR
-1
-1
#GR
nm
%R
1.0
0.0
2350.000000
-1.000000
2151
8
53.239823
8.622509
#DATA
2350.000000	34.993021
2349.000000	34.912986
2348.000000	34.877490
2347.000000	35.248348
2346.000000	34.904167
2345.000000	34.922734
2344.000000	35.099243
2343.000000	34.943204
2342.000000	34.997048
2341.000000	34.964986
2340.000000	34.781804
2339.000000	35.074591
2338.000000	35.525000
2337.000000	35.479163
2336.000000	35.133461
2335.000000	35.452006
2334.000000	35.501293
2333.000000	35.885403
2332.000000	35.769227
2331.000000	35.127192
2330.000000	35.200236
2329.000000	35.356100
2328.000000	35.360318
2327.000000	35.116086
2326.000000	35.287481
2325.000000	35.129629
2324.000000	35.201190
2323.000000	35.164026
2322.000000	35.158578
2321.000000	35.143860
2320.000000	35.276760
2319.000000	35.146117
2318.000000	35.062039
2317.000000	35.059946
2316.000000	34.835204
2315.000000	34.815184
2314.000000	34.736475
2313.000000	34.604465
2312.000000	34.636694
2311.000000	34.535104
2310.000000	34.541046
2309.000000	34.686730
2308.000000	34.393112
2307.000000	34.329653
2306.000000	34.282725
2305.000000	34.588262
2304.000000	34.446719
2303.000000	34.222639
2302.000000	34.285558
2301.000000	34.036722
2300.000000	33.976595
2299.000000	33.905041
2298.000000	33.799663
2297.000000	33.834181
2296.000000	33.831894
2295.000000	33.587188
2294.000000	33.630050
2293.000000	33.431936
2292.000000	33.399191
2291.000000	33.653255
2290.000000	33.594564
2289.000000	33.334951
2288.000000	33.501892
2287.000000	33.550775
2286.000000	33.176851
2285.000000	33.148523
2284.000000	33.064801
2283.000000	33.168548
2282.000000	33.318574
2281.000000	33.407838
2280.000000	33.392526
2279.000000	33.429002
2278.000000	33.250990
2277.000000	33.141098
2276.000000	33.330936
2275.000000	33.487287
2274.000000	33.417742
2273.000000	33.366595
2272.000000	33.398135
2271.000000	33.493283
2270.000000	33.434247
2269.000000	33.496015
2268.000000	33.631932
2267.000000	33.736826
2266.000000	33.819727
2265.000000	33.903491
2264.000000	34.040579
2263.000000	34.038072
2262.000000	34.159811
2261.000000	34.401201
2260.000000	34.541050
2259.000000	34.683125
2258.000000	34.815443
2257.000000	34.996312
2256.000000	35.102875
2255.000000	35.088490
2254.000000	35.236548
2253.000000	35.397590
2252.000000	35.547158
2251.000000	35.604128
2250.000000	35.760731
2249.000000	36.012111
2248.000000	36.112669
2247.000000	36.163594
2246.000000	36.357339
2245.000000	36.473496
2244.000000	36.576674
2243.000000	36.798181
2242.000000	36.848070
2241.000000	36.946926
2240.000000	37.115034
2239.000000	37.229584
2238.000000	37.357784
2237.000000	37.429634
2236.000000	37.465267
2235.000000	37.443500
2234.000000	37.596705
2233.000000	37.753203
2232.000000	37.807043
2231.000000	37.877786
2230.000000	37.875692
2229.000000	37.902542
2228.000000	38.019714
2227.000000	37.964654
2226.000000	37.845004
2225.000000	37.961956
2224.000000	38.015101
2223.000000	37.972059
2222.000000	37.883130
2221.000000	37.778645
2220.000000	37.785695
2219.000000	37.899773
2218.000000	37.896857
2217.000000	37.821449
2216.000000	37.749522
2215.000000	37.747274
2214.000000	37.841971
2213.000000	37.767071
2212.000000	37.709724
2211.000000	37.597085
2210.000000	37.557683
2209.000000	37.493960
2208.000000	37.566850
2207.000000	37.582785
2206.000000	37.489466
2205.000000	37.459898
2204.000000	37.404580
2203.000000	37.256213
2202.000000	37.239244
2201.000000	37.241425
2200.000000	37.166815
2199.000000	37.157512
2198.000000	37.117801
2197.000000	36.953232
2196.000000	36.917437
2195.000000	36.973027
2194.000000	36.854652
2193.000000	36.725092
2192.000000	36.685495
2191.000000	36.615099
2190.000000	36.681878
2189.000000	36.636984
2188.000000	36.629003
2187.000000	36.588552
2186.000000	36.612408
2185.000000	36.553599
2184.000000	36.606018
2183.000000	36.573961
2182.000000	36.495546
2181.000000	36.505939
2180.000000	36.480009
2179.000000	36.433078
2178.000000	36.510263
2177.000000	36.526516
2176.000000	36.446418
2175.000000	36.427930
2174.000000	36.504486
2173.000000	36.557717
2172.000000	36.692174
2171.000000	36.614603
2170.000000	36.780969
2169.000000	36.886238
2168.000000	36.912182
2167.000000	36.910624
2166.000000	36.896989
2165.000000	37.058123
2164.000000	37.074664
2163.000000	37.150423
2162.000000	37.383069
2161.000000	37.390109
2160.000000	37.431525
2159.000000	37.629295
2158.000000	37.663008
2157.000000	37.850409
2156.000000	38.003256
2155.000000	38.000048
2154.000000	38.214869
2153.000000	38.275697
2152.000000	38.375418
2151.000000	38.494725
2150.000000	38.593454
2149.000000	38.592253
2148.000000	38.580552
2147.000000	38.792235
2146.000000	38.956285
2145.000000	39.086181
2144.000000	39.148263
2143.000000	39.078166
2142.000000	39.131236
2141.000000	39.232887
2140.000000	39.629010
2139.000000	39.687082
2138.000000	39.902945
2137.000000	39.941832
2136.000000	39.753832
2135.000000	39.818197
2134.000000	40.029024
2133.000000	40.050935
2132.000000	40.145427
2131.000000	40.183079
2130.000000	40.296760
2129.000000	40.102981
2128.000000	40.306850
2127.000000	40.338634
2126.000000	40.327584
2125.000000	40.309412
2124.000000	40.479372
2123.000000	40.295194
2122.000000	40.520955
2121.000000	40.667755
2120.000000	40.596852
2119.000000	40.661769
2118.000000	40.437911
2117.000000	40.697031
2116.000000	40.672690
2115.000000	40.722198
2114.000000	40.788107
2113.000000	40.631582
2112.000000	40.660473
2111.000000	40.720648
2110.000000	40.807172
2109.000000	40.879622
2108.000000	40.882737
2107.000000	40.908011
2106.000000	40.864851
2105.000000	40.856972
2104.000000	40.880731
2103.000000	40.855068
2102.000000	40.861864
2101.000000	40.857031
2100.000000	40.920732
2099.000000	40.904092
2098.000000	40.878232
2097.000000	40.853243
2096.000000	40.799338
2095.000000	40.918732
2094.000000	40.926122
2093.000000	40.855232
2092.000000	40.813935
2091.000000	40.808325
2090.000000	40.819599
2089.000000	40.945160
2088.000000	40.927655
2087.000000	40.858366
2086.000000	40.849184
2085.000000	40.786700
2084.000000	40.740774
2083.000000	40.685424
2082.000000	40.674024
2081.000000	40.630416
2080.000000	40.587890
2079.000000	40.608412
2078.000000	40.453032
2077.000000	40.421719
2076.000000	40.423089
2075.000000	40.256654
2074.000000	40.240185
2073.000000	40.164363
2072.000000	40.085192
2071.000000	40.032355
2070.000000	39.922808
2069.000000	39.756510
2068.000000	39.712782
2067.000000	39.613271
2066.000000	39.446174
2065.000000	39.303209
2064.000000	39.298749
2063.000000	39.192268
2062.000000	39.134415
2061.000000	39.062688
2060.000000	38.900657
2059.000000	38.753422
2058.000000	38.715422
2057.000000	38.670150
2056.000000	38.555330
2055.000000	38.418801
2054.000000	38.266312
2053.000000	38.123792
2052.000000	38.038144
2051.000000	37.975881
2050.000000	37.902857
2049.000000	37.820173
2048.000000	37.774828
2047.000000	37.761788
2046.000000	37.725173
2045.000000	37.682264
2044.000000	37.710609
2043.000000	37.726937
2042.000000	37.689401
2041.000000	37.686085
2040.000000	37.694266
2039.000000	37.690026
2038.000000	37.687045
2037.000000	37.718177
2036.000000	37.834605
2035.000000	37.895220
2034.000000	37.915589
2033.000000	37.970027
2032.000000	38.059110
2031.000000	38.148313
2030.000000	38.257968
2029.000000	38.353689
2028.000000	38.421598
2027.000000	38.469421
2026.000000	38.534105
2025.000000	38.626783
2024.000000	38.675472
2023.000000	38.723396
2022.000000	38.733946
2021.000000	38.744319
2020.000000	38.797798
2019.000000	38.847938
2018.000000	38.843722
2017.000000	38.854947
2016.000000	38.855709
2015.000000	38.854560
2014.000000	38.865436
2013.000000	38.832634
2012.000000	38.786431
2011.000000	38.776304
2010.000000	38.739627
2009.000000	38.639644
2008.000000	38.658316
2007.000000	38.608170
2006.000000	38.476339
2005.000000	38.436814
2004.000000	38.378511
2003.000000	38.291681
2002.000000	38.234649
2001.000000	38.155643
2000.000000	38.084703
1999.000000	38.033277
1998.000000	37.967165
1997.000000	37.872604
1996.000000	37.811344
1995.000000	37.733529
1994.000000	37.655998
1993.000000	37.586877
1992.000000	37.465574
1991.000000	37.411389
1990.000000	37.363512
1989.000000	37.284348
1988.000000	37.173891
1987.000000	37.103258
1986.000000	37.032337
1985.000000	36.957636
1984.000000	36.818488
1983.000000	36.788855
1982.000000	36.719968
1981.000000	36.658259
1980.000000	36.554506
1979.000000	36.446879
1978.000000	36.415307
1977.000000	36.337428
1976.000000	36.237612
1975.000000	36.186373
1974.000000	36.082289
1973.000000	36.022610
1972.000000	35.951232
1971.000000	35.847556
1970.000000	35.815500
1969.000000	35.756465
1968.000000	35.650569
1967.000000	35.613001
1966.000000	35.527638
1965.000000	35.407828
1964.000000	35.328691
1963.000000	35.272528
1962.000000	35.189279
1961.000000	35.106564
1960.000000	35.084408
1959.000000	35.035690
1958.000000	34.950840
1957.000000	34.883026
1956.000000	34.820467
1955.000000	34.716646
1954.000000	34.718377
1953.000000	34.692822
1952.000000	34.637742
1951.000000	34.669878
1950.000000	34.550096
1949.000000	34.503192
1948.000000	34.483123
1947.000000	34.462658
1946.000000	34.454564
1945.000000	34.523315
1944.000000	34.474337
1943.000000	34.419551
1942.000000	34.461292
1941.000000	34.494338
1940.000000	34.581734
1939.000000	34.563397
1938.000000	34.613335
1937.000000	34.697153
1936.000000	34.794164
1935.000000	34.867086
1934.000000	34.881789
1933.000000	34.979357
1932.000000	35.080202
1931.000000	35.145234
1930.000000	35.330641
1929.000000	35.459737
1928.000000	35.571215
1927.000000	35.690045
1926.000000	35.813668
1925.000000	35.976323
1924.000000	36.089365
1923.000000	36.352778
1922.000000	36.547646
1921.000000	36.761947
1920.000000	36.964797
1919.000000	37.072562
1918.000000	37.382845
1917.000000	37.560998
1916.000000	37.772929
1915.000000	38.089976
1914.000000	38.362070
1913.000000	38.619537
1912.000000	38.831941
1911.000000	39.163542
1910.000000	39.372575
1909.000000	39.649141
1908.000000	40.022323
1907.000000	40.242778
1906.000000	40.470274
1905.000000	40.801428
1904.000000	41.153897
1903.000000	41.384207
1902.000000	41.751860
1901.000000	42.027381
1900.000000	42.356818
1899.000000	42.687458
1898.000000	43.023223
1897.000000	43.301348
1896.000000	43.583818
1895.000000	43.847857
1894.000000	44.109228
1893.000000	44.380943
1892.000000	44.667913
1891.000000	44.957095
1890.000000	45.246087
1889.000000	45.489531
1888.000000	45.741802
1887.000000	45.943527
1886.000000	46.172458
1885.000000	46.368118
1884.000000	46.586533
1883.000000	46.821769
1882.000000	46.942245
1881.000000	47.107232
1880.000000	47.314738
1879.000000	47.494033
1878.000000	47.610724
1877.000000	47.796019
1876.000000	47.884020
1875.000000	47.970259
1874.000000	48.071013
1873.000000	48.233573
1872.000000	48.319078
1871.000000	48.391073
1870.000000	48.484676
1869.000000	48.503917
1868.000000	48.570276
1867.000000	48.596931
1866.000000	48.673546
1865.000000	48.706667
1864.000000	48.717242
1863.000000	48.748891
1862.000000	48.799223
1861.000000	48.851802
1860.000000	48.886668
1859.000000	48.886362
1858.000000	48.950871
1857.000000	48.935954
1856.000000	48.969241
1855.000000	48.952852
1854.000000	48.970089
1853.000000	49.011752
1852.000000	48.989854
1851.000000	49.010869
1850.000000	49.022276
1849.000000	49.023394
1848.000000	48.990032
1847.000000	49.002636
1846.000000	49.018603
1845.000000	49.029743
1844.000000	49.003569
1843.000000	48.979799
1842.000000	48.979093
1841.000000	48.956306
1840.000000	48.948956
1839.000000	48.936019
1838.000000	48.904152
1837.000000	48.859952
1836.000000	48.847896
1835.000000	48.818285
1834.000000	48.820109
1833.000000	48.810063
1832.000000	48.761738
1831.000000	48.724682
1830.000000	48.726656
1829.000000	48.707948
1828.000000	48.672477
1827.000000	48.656367
1826.000000	48.627519
1825.000000	48.594763
1824.000000	48.598046
1823.000000	48.596414
1822.000000	48.576907
1821.000000	48.559468
1820.000000	48.533747
1819.000000	48.504139
1818.000000	48.508742
1817.000000	48.509279
1816.000000	48.476245
1815.000000	48.469069
1814.000000	48.456839
1813.000000	48.441659
1812.000000	48.414965
1811.000000	48.393588
1810.000000	48.410007
1809.000000	48.416961
1808.000000	48.378620
1807.000000	48.360363
1806.000000	48.372778
1805.000000	48.361689
1804.000000	48.343217
1803.000000	48.316131
1802.000000	48.308621
1801.000000	48.322673
1800.000000	48.313454
1799.000000	48.304250
1798.000000	48.292597
1797.000000	48.278692
1796.000000	48.285290
1795.000000	48.280164
1794.000000	48.279677
1793.000000	48.268144
1792.000000	48.268935
1791.000000	48.250782
1790.000000	48.223633
1789.000000	48.237038
1788.000000	48.254729
1787.000000	48.242838
1786.000000	48.237078
1785.000000	48.208468
1784.000000	48.208087
1783.000000	48.224575
1782.000000	48.198470
1781.000000	48.178588
1780.000000	48.152506
1779.000000	48.149884
1778.000000	48.149836
1777.000000	48.112564
1776.000000	48.082239
1775.000000	48.037850
1774.000000	48.019152
1773.000000	48.004442
1772.000000	47.936384
1771.000000	47.921071
1770.000000	47.906367
1769.000000	47.886881
1768.000000	47.848455
1767.000000	47.813956
1766.000000	47.796293
1765.000000	47.747367
1764.000000	47.763073
1763.000000	47.738492
1762.000000	47.734245
1761.000000	47.691747
1760.000000	47.644244
1759.000000	47.619304
1758.000000	47.601213
1757.000000	47.559957
1756.000000	47.544918
1755.000000	47.518978
1754.000000	47.506262
1753.000000	47.484439
1752.000000	47.473615
1751.000000	47.441708
1750.000000	47.414029
1749.000000	47.401613
1748.000000	47.357526
1747.000000	47.335536
1746.000000	47.295553
1745.000000	47.273217
1744.000000	47.256393
1743.000000	47.229405
1742.000000	47.166602
1741.000000	47.131002
1740.000000	47.109782
1739.000000	47.125584
1738.000000	47.086963
1737.000000	47.043145
1736.000000	47.044545
1735.000000	47.035879
1734.000000	47.057950
1733.000000	47.026819
1732.000000	47.017095
1731.000000	47.022123
1730.000000	47.038613
1729.000000	47.064516
1728.000000	47.100442
1727.000000	47.087667
1726.000000	47.158957
1725.000000	47.171213
1724.000000	47.215416
1723.000000	47.259523
1722.000000	47.301032
1721.000000	47.380006
1720.000000	47.431132
1719.000000	47.509395
1718.000000	47.525919
1717.000000	47.552408
1716.000000	47.594211
1715.000000	47.680881
1714.000000	47.685133
1713.000000	47.739013
1712.000000	47.761334
1711.000000	47.817955
1710.000000	47.832548
1709.000000	47.874591
1708.000000	47.928819
1707.000000	47.945104
1706.000000	47.956011
1705.000000	47.972985
1704.000000	48.016925
1703.000000	48.008243
1702.000000	48.061065
1701.000000	48.029690
1700.000000	48.063789
1699.000000	48.054492
1698.000000	48.063877
1697.000000	48.111817
1696.000000	48.108770
1695.000000	48.134677
1694.000000	48.148608
1693.000000	48.199013
1692.000000	48.200743
1691.000000	48.247424
1690.000000	48.283626
1689.000000	48.313662
1688.000000	48.378916
1687.000000	48.415277
1686.000000	48.478548
1685.000000	48.540990
1684.000000	48.642998
1683.000000	48.698346
1682.000000	48.777131
1681.000000	48.847051
1680.000000	48.933670
1679.000000	49.005517
1678.000000	49.078253
1677.000000	49.123336
1676.000000	49.236141
1675.000000	49.328097
1674.000000	49.381076
1673.000000	49.461921
1672.000000	49.551433
1671.000000	49.621897
1670.000000	49.686308
1669.000000	49.772009
1668.000000	49.825974
1667.000000	49.886515
1666.000000	49.916886
1665.000000	49.953165
1664.000000	50.006655
1663.000000	50.020873
1662.000000	50.065173
1661.000000	50.112912
1660.000000	50.142809
1659.000000	50.186846
1658.000000	50.236402
1657.000000	50.246941
1656.000000	50.248884
1655.000000	50.262536
1654.000000	50.283613
1653.000000	50.287009
1652.000000	50.281365
1651.000000	50.273301
1650.000000	50.304139
1649.000000	50.305691
1648.000000	50.272778
1647.000000	50.286637
1646.000000	50.285314
1645.000000	50.266327
1644.000000	50.263119
1643.000000	50.259270
1642.000000	50.265802
1641.000000	50.236213
1640.000000	50.221332
1639.000000	50.213816
1638.000000	50.221666
1637.000000	50.198833
1636.000000	50.186892
1635.000000	50.172993
1634.000000	50.154869
1633.000000	50.123531
1632.000000	50.118916
1631.000000	50.089487
1630.000000	50.086440
1629.000000	50.072479
1628.000000	50.047745
1627.000000	50.019098
1626.000000	49.996952
1625.000000	49.998933
1624.000000	49.978770
1623.000000	49.962520
1622.000000	49.953328
1621.000000	49.921382
1620.000000	49.909136
1619.000000	49.886991
1618.000000	49.856097
1617.000000	49.847301
1616.000000	49.829268
1615.000000	49.800327
1614.000000	49.788188
1613.000000	49.761178
1612.000000	49.733003
1611.000000	49.711015
1610.000000	49.675685
1609.000000	49.662915
1608.000000	49.642965
1607.000000	49.607189
1606.000000	49.576717
1605.000000	49.562788
1604.000000	49.533424
1603.000000	49.504023
1602.000000	49.490532
1601.000000	49.466047
1600.000000	49.441497
1599.000000	49.421643
1598.000000	49.394398
1597.000000	49.361891
1596.000000	49.342971
1595.000000	49.331192
1594.000000	49.303322
1593.000000	49.279693
1592.000000	49.261019
1591.000000	49.232768
1590.000000	49.213026
1589.000000	49.194204
1588.000000	49.170547
1587.000000	49.161084
1586.000000	49.137385
1585.000000	49.118913
1584.000000	49.113666
1583.000000	49.090032
1582.000000	49.072135
1581.000000	49.059888
1580.000000	49.032590
1579.000000	49.023569
1578.000000	49.013919
1577.000000	48.979996
1576.000000	48.959451
1575.000000	48.955888
1574.000000	48.917204
1573.000000	48.884420
1572.000000	48.873722
1571.000000	48.866653
1570.000000	48.846253
1569.000000	48.834023
1568.000000	48.817534
1567.000000	48.794256
1566.000000	48.775826
1565.000000	48.770260
1564.000000	48.758805
1563.000000	48.753000
1562.000000	48.732068
1561.000000	48.704924
1560.000000	48.696829
1559.000000	48.685731
1558.000000	48.669005
1557.000000	48.670209
1556.000000	48.649184
1555.000000	48.649280
1554.000000	48.631158
1553.000000	48.600279
1552.000000	48.600306
1551.000000	48.590228
1550.000000	48.562482
1549.000000	48.538472
1548.000000	48.528571
1547.000000	48.505090
1546.000000	48.470607
1545.000000	48.440966
1544.000000	48.396167
1543.000000	48.364846
1542.000000	48.329285
1541.000000	48.274262
1540.000000	48.254618
1539.000000	48.217960
1538.000000	48.174608
1537.000000	48.114907
1536.000000	48.090337
1535.000000	48.048182
1534.000000	48.012120
1533.000000	47.977739
1532.000000	47.920592
1531.000000	47.881164
1530.000000	47.848232
1529.000000	47.805167
1528.000000	47.763416
1527.000000	47.739431
1526.000000	47.698802
1525.000000	47.676568
1524.000000	47.651669
1523.000000	47.628797
1522.000000	47.600214
1521.000000	47.590382
1520.000000	47.563737
1519.000000	47.545097
1518.000000	47.539818
1517.000000	47.497411
1516.000000	47.461267
1515.000000	47.483186
1514.000000	47.452717
1513.000000	47.448662
1512.000000	47.455963
1511.000000	47.484952
1510.000000	47.518821
1509.000000	47.524664
1508.000000	47.499939
1507.000000	47.473105
1506.000000	47.445983
1505.000000	47.446561
1504.000000	47.440894
1503.000000	47.424603
1502.000000	47.433305
1501.000000	47.401227
1500.000000	47.407772
1499.000000	47.407115
1498.000000	47.432295
1497.000000	47.415643
1496.000000	47.434300
1495.000000	47.449034
1494.000000	47.443031
1493.000000	47.455324
1492.000000	47.471478
1491.000000	47.485829
1490.000000	47.515475
1489.000000	47.548492
1488.000000	47.544725
1487.000000	47.574462
1486.000000	47.589688
1485.000000	47.614521
1484.000000	47.643092
1483.000000	47.662808
1482.000000	47.688487
1481.000000	47.719706
1480.000000	47.741344
1479.000000	47.753344
1478.000000	47.787626
1477.000000	47.797488
1476.000000	47.841315
1475.000000	47.850137
1474.000000	47.870584
1473.000000	47.918769
1472.000000	47.933467
1471.000000	47.936669
1470.000000	47.956190
1469.000000	47.989227
1468.000000	48.015359
1467.000000	48.062532
1466.000000	48.063531
1465.000000	48.083911
1464.000000	48.093331
1463.000000	48.116076
1462.000000	48.154088
1461.000000	48.158863
1460.000000	48.183622
1459.000000	48.203156
1458.000000	48.234932
1457.000000	48.261227
1456.000000	48.274525
1455.000000	48.301226
1454.000000	48.320865
1453.000000	48.353744
1452.000000	48.396858
1451.000000	48.415027
1450.000000	48.434743
1449.000000	48.451239
1448.000000	48.501039
1447.000000	48.527857
1446.000000	48.564200
1445.000000	48.597816
1444.000000	48.631838
1443.000000	48.651107
1442.000000	48.689289
1441.000000	48.726488
1440.000000	48.782491
1439.000000	48.823978
1438.000000	48.840049
1437.000000	48.876597
1436.000000	48.924427
1435.000000	48.978129
1434.000000	49.021341
1433.000000	49.067343
1432.000000	49.111631
1431.000000	49.172867
1430.000000	49.221412
1429.000000	49.279644
1428.000000	49.335459
1427.000000	49.385804
1426.000000	49.448325
1425.000000	49.521225
1424.000000	49.587967
1423.000000	49.650648
1422.000000	49.729544
1421.000000	49.794298
1420.000000	49.866986
1419.000000	49.907149
1418.000000	49.974698
1417.000000	50.052979
1416.000000	50.148901
1415.000000	50.222593
1414.000000	50.294514
1413.000000	50.357443
1412.000000	50.436547
1411.000000	50.517464
1410.000000	50.593603
1409.000000	50.674042
1408.000000	50.753472
1407.000000	50.821146
1406.000000	50.903298
1405.000000	50.982348
1404.000000	51.043935
1403.000000	51.087380
1402.000000	51.149898
1401.000000	51.217426
1400.000000	51.281857
1399.000000	51.352916
1398.000000	51.417919
1397.000000	51.486468
1396.000000	51.558873
1395.000000	51.618932
1394.000000	51.662504
1393.000000	51.710742
1392.000000	51.747228
1391.000000	51.797783
1390.000000	51.839827
1389.000000	51.884191
1388.000000	51.938673
1387.000000	51.975855
1386.000000	52.014484
1385.000000	52.050218
1384.000000	52.087962
1383.000000	52.126841
1382.000000	52.166106
1381.000000	52.195585
1380.000000	52.219404
1379.000000	52.248096
1378.000000	52.272605
1377.000000	52.302012
1376.000000	52.333638
1375.000000	52.354359
1374.000000	52.368514
1373.000000	52.392369
1372.000000	52.418231
1371.000000	52.429618
1370.000000	52.440169
1369.000000	52.468133
1368.000000	52.481661
1367.000000	52.493413
1366.000000	52.504337
1365.000000	52.517233
1364.000000	52.537381
1363.000000	52.544770
1362.000000	52.553380
1361.000000	52.564658
1360.000000	52.585614
1359.000000	52.611756
1358.000000	52.638693
1357.000000	52.643524
1356.000000	52.651263
1355.000000	52.670675
1354.000000	52.697089
1353.000000	52.726695
1352.000000	52.757230
1351.000000	52.763022
1350.000000	52.750388
1349.000000	52.765128
1348.000000	52.798951
1347.000000	52.818290
1346.000000	52.832389
1345.000000	52.855877
1344.000000	52.881278
1343.000000	52.887021
1342.000000	52.895566
1341.000000	52.926085
1340.000000	52.942952
1339.000000	52.959369
1338.000000	52.972287
1337.000000	52.974554
1336.000000	52.979719
1335.000000	52.977677
1334.000000	52.987297
1333.000000	53.002467
1332.000000	53.006044
1331.000000	53.026914
1330.000000	53.025787
1329.000000	53.019163
1328.000000	53.020734
1327.000000	53.053739
1326.000000	53.078249
1325.000000	53.091661
1324.000000	53.114667
1323.000000	53.095967
1322.000000	53.071121
1321.000000	53.085085
1320.000000	53.099852
1319.000000	53.081668
1318.000000	53.105203
1317.000000	53.108897
1316.000000	53.113912
1315.000000	53.120848
1314.000000	53.126490
1313.000000	53.101166
1312.000000	53.142495
1311.000000	53.136610
1310.000000	53.121475
1309.000000	53.147700
1308.000000	53.151736
1307.000000	53.165371
1306.000000	53.141921
1305.000000	53.138168
1304.000000	53.161019
1303.000000	53.182211
1302.000000	53.185452
1301.000000	53.162245
1300.000000	53.161246
1299.000000	53.161965
1298.000000	53.151703
1297.000000	53.147498
1296.000000	53.157956
1295.000000	53.164011
1294.000000	53.142953
1293.000000	53.145270
1292.000000	53.144131
1291.000000	53.144684
1290.000000	53.163374
1289.000000	53.143292
1288.000000	53.162002
1287.000000	53.155499
1286.000000	53.139598
1285.000000	53.112226
1284.000000	53.098676
1283.000000	53.105319
1282.000000	53.096873
1281.000000	53.093352
1280.000000	53.114486
1279.000000	53.103566
1278.000000	53.106606
1277.000000	53.099440
1276.000000	53.105533
1275.000000	53.098343
1274.000000	53.098560
1273.000000	53.083047
1272.000000	53.077851
1271.000000	53.077771
1270.000000	53.069075
1269.000000	53.058803
1268.000000	53.057099
1267.000000	53.058931
1266.000000	53.071425
1265.000000	53.035855
1264.000000	53.088931
1263.000000	53.100486
1262.000000	53.102541
1261.000000	53.074973
1260.000000	53.099736
1259.000000	53.094942
1258.000000	53.095930
1257.000000	53.113855
1256.000000	53.096344
1255.000000	53.108136
1254.000000	53.091633
1253.000000	53.095319
1252.000000	53.095385
1251.000000	53.080269
1250.000000	53.088950
1249.000000	53.086436
1248.000000	53.087018
1247.000000	53.091335
1246.000000	53.072857
1245.000000	53.084344
1244.000000	53.097169
1243.000000	53.097946
1242.000000	53.088397
1241.000000	53.036499
1240.000000	53.032683
1239.000000	53.021069
1238.000000	53.017300
1237.000000	53.017932
1236.000000	53.017849
1235.000000	53.011952
1234.000000	52.991039
1233.000000	52.965980
1232.000000	52.962251
1231.000000	52.948925
1230.000000	52.945532
1229.000000	52.919464
1228.000000	52.896475
1227.000000	52.897393
1226.000000	52.885131
1225.000000	52.873626
1224.000000	52.882122
1223.000000	52.864994
1222.000000	52.854915
1221.000000	52.842211
1220.000000	52.840542
1219.000000	52.818120
1218.000000	52.795022
1217.000000	52.801747
1216.000000	52.785710
1215.000000	52.752313
1214.000000	52.752690
1213.000000	52.766738
1212.000000	52.750238
1211.000000	52.754340
1210.000000	52.754147
1209.000000	52.730472
1208.000000	52.698326
1207.000000	52.694887
1206.000000	52.687795
1205.000000	52.692308
1204.000000	52.671492
1203.000000	52.668093
1202.000000	52.654143
1201.000000	52.645952
1200.000000	52.639058
1199.000000	52.629626
1198.000000	52.639805
1197.000000	52.613546
1196.000000	52.589733
1195.000000	52.566865
1194.000000	52.573536
1193.000000	52.567243
1192.000000	52.560055
1191.000000	52.543275
1190.000000	52.529437
1189.000000	52.495314
1188.000000	52.505231
1187.000000	52.513597
1186.000000	52.507222
1185.000000	52.506662
1184.000000	52.500922
1183.000000	52.507441
1182.000000	52.519542
1181.000000	52.526962
1180.000000	52.527035
1179.000000	52.542414
1178.000000	52.564886
1177.000000	52.569352
1176.000000	52.574159
1175.000000	52.591244
1174.000000	52.607376
1173.000000	52.614961
1172.000000	52.633175
1171.000000	52.650369
1170.000000	52.676848
1169.000000	52.695113
1168.000000	52.706729
1167.000000	52.724620
1166.000000	52.747124
1165.000000	52.764565
1164.000000	52.776783
1163.000000	52.795025
1162.000000	52.819629
1161.000000	52.847045
1160.000000	52.869679
1159.000000	52.898218
1158.000000	52.912803
1157.000000	52.914670
1156.000000	52.927421
1155.000000	52.949399
1154.000000	52.966662
1153.000000	52.955362
1152.000000	52.960807
1151.000000	52.984718
1150.000000	53.003067
1149.000000	53.018697
1148.000000	53.029017
1147.000000	53.043782
1146.000000	53.052088
1145.000000	53.061698
1144.000000	53.072125
1143.000000	53.090546
1142.000000	53.108268
1141.000000	53.112593
1140.000000	53.123152
1139.000000	53.127315
1138.000000	53.133180
1137.000000	53.136387
1136.000000	53.148970
1135.000000	53.144265
1134.000000	53.140321
1133.000000	53.156633
1132.000000	53.161354
1131.000000	53.170359
1130.000000	53.183397
1129.000000	53.190512
1128.000000	53.208590
1127.000000	53.214963
1126.000000	53.220404
1125.000000	53.227654
1124.000000	53.231405
1123.000000	53.239823
1122.000000	53.236711
1121.000000	53.230599
1120.000000	53.202569
1119.000000	53.190189
1118.000000	53.195421
1117.000000	53.196270
1116.000000	53.201677
1115.000000	53.204739
1114.000000	53.216564
1113.000000	53.218046
1112.000000	53.200377
1111.000000	53.210634
1110.000000	53.231098
1109.000000	53.213064
1108.000000	53.218178
1107.000000	53.215768
1106.000000	53.219627
1105.000000	53.221116
1104.000000	53.223271
1103.000000	53.199089
1102.000000	53.188329
1101.000000	53.196508
1100.000000	53.196233
1099.000000	53.194132
1098.000000	53.185281
1097.000000	53.198729
1096.000000	53.210748
1095.000000	53.193969
1094.000000	53.168396
1093.000000	53.162209
1092.000000	53.170089
1091.000000	53.170831
1090.000000	53.167532
1089.000000	53.174265
1088.000000	53.181862
1087.000000	53.144532
1086.000000	53.123713
1085.000000	53.137976
1084.000000	53.152570
1083.000000	53.142296
1082.000000	53.141841
1081.000000	53.162172
1080.000000	53.126871
1079.000000	53.114099
1078.000000	53.107710
1077.000000	53.133136
1076.000000	53.132820
1075.000000	53.135562
1074.000000	53.113493
1073.000000	53.089671
1072.000000	53.076941
1071.000000	53.077968
1070.000000	53.085175
1069.000000	53.105565
1068.000000	53.085151
1067.000000	53.073963
1066.000000	53.055653
1065.000000	53.049795
1064.000000	53.051253
1063.000000	53.047833
1062.000000	53.047645
1061.000000	53.052853
1060.000000	53.055338
1059.000000	53.019184
1058.000000	53.008731
1057.000000	53.024845
1056.000000	53.028906
1055.000000	53.030187
1054.000000	52.994717
1053.000000	52.981581
1052.000000	52.981633
1051.000000	52.973272
1050.000000	52.978394
1049.000000	52.968697
1048.000000	52.949919
1047.000000	52.947495
1046.000000	52.972385
1045.000000	52.955268
1044.000000	52.926086
1043.000000	52.931317
1042.000000	52.932655
1041.000000	52.934337
1040.000000	52.925004
1039.000000	52.924112
1038.000000	52.918425
1037.000000	52.918636
1036.000000	52.900636
1035.000000	52.906501
1034.000000	52.884080
1033.000000	52.899562
1032.000000	52.877980
1031.000000	52.888719
1030.000000	52.894296
1029.000000	52.882795
1028.000000	52.868030
1027.000000	52.854790
1026.000000	52.873778
1025.000000	52.869262
1024.000000	52.856384
1023.000000	52.833768
1022.000000	52.848305
1021.000000	52.841522
1020.000000	52.831680
1019.000000	52.847652
1018.000000	52.826642
1017.000000	52.835641
1016.000000	52.828964
1015.000000	52.823964
1014.000000	52.825182
1013.000000	52.813598
1012.000000	52.819326
1011.000000	52.818424
1010.000000	52.821993
1009.000000	52.813312
1008.000000	52.803052
1007.000000	52.785160
1006.000000	52.797863
1005.000000	52.809657
1004.000000	52.810313
1003.000000	52.812300
1002.000000	52.793062
1001.000000	52.806340
1000.000000	52.805210
999.000000	52.822898
998.000000	52.833348
997.000000	52.819500
996.000000	52.812104
995.000000	52.827553
994.000000	52.841775
993.000000	52.835585
992.000000	52.830578
991.000000	52.836033
990.000000	52.820813
989.000000	52.818026
988.000000	52.803234
987.000000	52.808314
986.000000	52.806845
985.000000	52.798772
984.000000	52.795504
983.000000	52.805569
982.000000	52.795078
981.000000	52.800368
980.000000	52.807091
979.000000	52.799496
978.000000	52.812464
977.000000	52.789826
976.000000	52.777662
975.000000	52.789062
974.000000	52.784300
973.000000	52.772250
972.000000	52.767832
971.000000	52.773548
970.000000	52.767618
969.000000	52.767901
968.000000	52.756481
967.000000	52.762845
966.000000	52.758968
965.000000	52.755713
964.000000	52.760478
963.000000	52.774289
962.000000	52.785477
961.000000	52.778428
960.000000	52.758924
959.000000	52.739036
958.000000	52.725744
957.000000	52.729397
956.000000	52.727478
955.000000	52.724051
954.000000	52.718855
953.000000	52.708217
952.000000	52.706847
951.000000	52.716361
950.000000	52.708489
949.000000	52.703676
948.000000	52.706361
947.000000	52.702851
946.000000	52.689120
945.000000	52.681651
944.000000	52.692611
943.000000	52.682987
942.000000	52.665989
941.000000	52.664680
940.000000	52.664489
939.000000	52.662255
938.000000	52.656217
937.000000	52.657215
936.000000	52.641873
935.000000	52.636693
934.000000	52.619560
933.000000	52.618537
932.000000	52.623466
931.000000	52.614770
930.000000	52.626225
929.000000	52.616256
928.000000	52.592545
927.000000	52.591080
926.000000	52.576132
925.000000	52.544602
924.000000	52.543389
923.000000	52.533411
922.000000	52.532526
921.000000	52.528322
920.000000	52.528755
919.000000	52.552252
918.000000	52.551222
917.000000	52.520216
916.000000	52.485815
915.000000	52.520159
914.000000	52.496702
913.000000	52.495062
912.000000	52.502871
911.000000	52.489812
910.000000	52.477927
909.000000	52.477944
908.000000	52.495726
907.000000	52.465565
906.000000	52.424058
905.000000	52.424986
904.000000	52.424622
903.000000	52.435599
902.000000	52.448474
901.000000	52.453103
900.000000	52.423819
899.000000	52.428353
898.000000	52.404067
897.000000	52.432551
896.000000	52.397549
895.000000	52.407036
894.000000	52.446723
893.000000	52.443016
892.000000	52.448598
891.000000	52.399278
890.000000	52.430821
889.000000	52.417619
888.000000	52.416566
887.000000	52.374628
886.000000	52.411900
885.000000	52.328679
884.000000	52.317996
883.000000	52.232831
882.000000	52.294317
881.000000	52.329813
880.000000	52.280486
879.000000	52.316998
878.000000	52.283472
877.000000	52.257182
876.000000	52.278647
875.000000	52.263516
874.000000	52.305062
873.000000	52.285076
872.000000	52.343758
871.000000	52.279304
870.000000	52.202374
869.000000	52.117379
868.000000	52.245820
867.000000	52.172169
866.000000	52.178990
865.000000	52.153279
864.000000	52.152151
863.000000	52.184771
862.000000	52.140035
861.000000	52.094779
860.000000	52.129194
859.000000	51.866445
858.000000	51.721750
857.000000	52.299911
856.000000	51.864403
855.000000	52.031635
854.000000	52.142203
853.000000	51.946289
852.000000	51.757508
851.000000	51.676072
850.000000	52.167167
849.000000	51.836935
848.000000	51.770899
847.000000	51.873119
846.000000	51.689449
845.000000	51.859398
844.000000	51.836697
843.000000	51.804295
842.000000	51.871309
841.000000	51.726343
840.000000	51.779847
839.000000	51.777973
838.000000	51.833791
837.000000	51.634895
836.000000	51.697087
835.000000	51.607074
834.000000	51.718437
833.000000	51.695814
832.000000	51.421228
831.000000	51.604476
830.000000	51.616990
829.000000	51.571016
828.000000	51.621510
827.000000	51.500724
826.000000	51.519851
825.000000	51.510870
824.000000	51.712909
823.000000	51.545708
822.000000	51.566598
821.000000	51.510797
820.000000	51.501107
819.000000	51.651054
818.000000	51.519204
817.000000	51.300191
816.000000	51.510304
815.000000	51.350165
814.000000	51.510089
813.000000	51.397543
812.000000	51.368456
811.000000	51.400236
810.000000	51.383981
809.000000	51.325295
808.000000	51.336505
807.000000	51.181780
806.000000	51.350244
805.000000	51.365831
804.000000	51.166066
803.000000	51.179953
802.000000	51.157955
801.000000	51.172478
800.000000	51.236331
799.000000	51.178360
798.000000	51.201892
797.000000	51.134306
796.000000	51.086791
795.000000	51.195698
794.000000	51.048459
793.000000	51.168854
792.000000	51.070356
791.000000	51.116114
790.000000	50.941614
789.000000	51.040242
788.000000	51.028394
787.000000	51.018350
786.000000	51.049832
785.000000	50.829117
784.000000	50.896744
783.000000	50.952001
782.000000	50.907680
781.000000	50.850942
780.000000	50.859596
779.000000	50.860668
778.000000	50.882840
777.000000	50.756545
776.000000	50.742192
775.000000	50.773810
774.000000	50.724026
773.000000	50.732908
772.000000	50.709015
771.000000	50.740247
770.000000	50.673657
769.000000	50.645144
768.000000	50.657186
767.000000	50.672533
766.000000	50.658416
765.000000	50.585612
764.000000	50.459771
763.000000	50.580565
762.000000	50.608042
761.000000	50.520761
760.000000	50.511358
759.000000	50.471386
758.000000	50.445059
757.000000	50.441279
756.000000	50.402880
755.000000	50.390370
754.000000	50.374742
753.000000	50.329816
752.000000	50.345888
751.000000	50.288216
750.000000	50.314830
749.000000	50.261797
748.000000	50.204815
747.000000	50.186248
746.000000	50.138866
745.000000	50.147302
744.000000	50.133853
743.000000	50.160960
742.000000	50.190206
741.000000	50.139423
740.000000	50.086235
739.000000	50.049964
738.000000	50.037071
737.000000	50.026041
736.000000	49.992221
735.000000	49.902032
734.000000	49.884199
733.000000	49.861117
732.000000	49.842287
731.000000	49.817177
730.000000	49.775918
729.000000	49.783499
728.000000	49.718369
727.000000	49.669745
726.000000	49.664621
725.000000	49.677812
724.000000	49.644836
723.000000	49.581698
722.000000	49.535464
721.000000	49.546007
720.000000	49.548920
719.000000	49.457538
718.000000	49.443237
717.000000	49.500684
716.000000	49.435201
715.000000	49.400168
714.000000	49.364108
713.000000	49.309020
712.000000	49.341378
711.000000	49.310985
710.000000	49.264825
709.000000	49.237220
708.000000	49.179243
707.000000	49.135024
706.000000	49.079253
705.000000	49.041854
704.000000	49.080153
703.000000	49.041312
702.000000	48.965428
701.000000	48.966299
700.000000	48.942236
699.000000	48.884563
698.000000	48.848275
697.000000	48.848834
696.000000	48.800285
695.000000	48.749131
694.000000	48.719976
693.000000	48.682745
692.000000	48.628931
691.000000	48.581075
690.000000	48.578358
689.000000	48.534001
688.000000	48.458038
687.000000	48.413087
686.000000	48.402906
685.000000	48.345502
684.000000	48.297412
683.000000	48.250874
682.000000	48.186476
681.000000	48.175539
680.000000	48.113077
679.000000	48.097665
678.000000	48.102983
677.000000	48.031923
676.000000	47.957766
675.000000	47.942786
674.000000	47.877694
673.000000	47.855528
672.000000	47.808602
671.000000	47.765531
670.000000	47.682302
669.000000	47.651742
668.000000	47.631325
667.000000	47.567997
666.000000	47.516603
665.000000	47.493438
664.000000	47.453915
663.000000	47.390903
662.000000	47.316784
661.000000	47.245976
660.000000	47.235794
659.000000	47.175172
658.000000	47.131762
657.000000	47.100169
656.000000	47.055782
655.000000	46.999186
654.000000	46.938325
653.000000	46.851271
652.000000	46.766357
651.000000	46.776529
650.000000	46.738700
649.000000	46.728776
648.000000	46.644384
647.000000	46.569580
646.000000	46.500673
645.000000	46.434845
644.000000	46.413173
643.000000	46.381448
642.000000	46.337293
641.000000	46.290581
640.000000	46.202062
639.000000	46.175432
638.000000	46.078807
637.000000	46.019120
636.000000	45.964755
635.000000	45.927283
634.000000	45.875371
633.000000	45.785495
632.000000	45.722580
631.000000	45.690979
630.000000	45.661023
629.000000	45.547998
628.000000	45.500449
627.000000	45.476585
626.000000	45.341291
625.000000	45.282623
624.000000	45.304917
623.000000	45.207044
622.000000	45.108590
621.000000	45.119436
620.000000	45.019896
619.000000	45.019202
618.000000	44.895626
617.000000	44.842081
616.000000	44.760094
615.000000	44.649765
614.000000	44.577568
613.000000	44.550315
612.000000	44.435727
611.000000	44.398663
610.000000	44.354793
609.000000	44.312506
608.000000	44.226902
607.000000	44.134706
606.000000	44.094204
605.000000	43.964538
604.000000	43.907025
603.000000	43.839765
602.000000	43.769370
601.000000	43.687232
600.000000	43.642803
599.000000	43.524855
598.000000	43.468102
597.000000	43.421228
596.000000	43.318321
595.000000	43.235183
594.000000	43.178533
593.000000	43.073236
592.000000	42.973836
591.000000	42.925673
590.000000	42.801185
589.000000	42.782316
588.000000	42.686859
587.000000	42.584810
586.000000	42.526791
585.000000	42.501785
584.000000	42.349673
583.000000	42.281184
582.000000	42.166532
581.000000	42.111304
580.000000	42.008665
579.000000	41.920240
578.000000	41.821185
577.000000	41.719346
576.000000	41.661045
575.000000	41.578501
574.000000	41.436134
573.000000	41.389130
572.000000	41.323773
571.000000	41.207589
570.000000	41.087666
569.000000	41.009818
568.000000	40.890327
567.000000	40.823220
566.000000	40.714093
565.000000	40.612764
564.000000	40.527244
563.000000	40.404702
562.000000	40.293291
561.000000	40.237413
560.000000	40.108314
559.000000	40.077331
558.000000	39.936796
557.000000	39.829286
556.000000	39.735782
555.000000	39.584597
554.000000	39.486035
553.000000	39.408232
552.000000	39.282828
551.000000	39.147302
550.000000	39.068231
549.000000	38.984870
548.000000	38.884241
547.000000	38.780210
546.000000	38.655465
545.000000	38.572562
544.000000	38.413383
543.000000	38.303729
542.000000	38.178188
541.000000	38.081229
540.000000	37.948722
539.000000	37.858555
538.000000	37.751487
537.000000	37.643322
536.000000	37.539672
535.000000	37.408613
534.000000	37.260875
533.000000	37.162413
532.000000	37.054670
531.000000	36.933829
530.000000	36.798554
529.000000	36.703989
528.000000	36.573683
527.000000	36.465444
526.000000	36.328289
525.000000	36.189759
524.000000	36.076410
523.000000	35.967830
522.000000	35.833768
521.000000	35.725769
520.000000	35.586661
519.000000	35.468704
518.000000	35.342604
517.000000	35.241849
516.000000	35.092454
515.000000	34.966848
514.000000	34.849189
513.000000	34.719498
512.000000	34.560917
511.000000	34.465803
510.000000	34.342873
509.000000	34.203031
508.000000	34.056532
507.000000	33.920580
506.000000	33.789702
505.000000	33.678304
504.000000	33.517914
503.000000	33.412735
502.000000	33.293308
501.000000	33.153093
500.000000	33.041270
499.000000	32.907907
498.000000	32.764146
497.000000	32.622268
496.000000	32.485526
495.000000	32.365232
494.000000	32.239054
493.000000	32.100232
492.000000	32.004352
491.000000	31.850819
490.000000	31.694702
489.000000	31.578731
488.000000	31.446287
487.000000	31.307969
486.000000	31.179847
485.000000	31.030294
484.000000	30.937154
483.000000	30.824332
482.000000	30.681879
481.000000	30.552170
480.000000	30.408541
479.000000	30.280452
478.000000	30.138132
477.000000	29.991504
476.000000	29.853067
475.000000	29.709953
474.000000	29.570472
473.000000	29.443014
472.000000	29.314526
471.000000	29.168780
470.000000	29.039145
469.000000	28.919226
468.000000	28.771205
467.000000	28.615017
466.000000	28.473087
465.000000	28.335102
464.000000	28.191149
463.000000	28.037089
462.000000	27.885576
461.000000	27.718744
460.000000	27.560197
459.000000	27.441133
458.000000	27.303731
457.000000	27.127055
456.000000	26.942879
455.000000	26.797932
454.000000	26.648188
453.000000	26.487101
452.000000	26.318351
451.000000	26.153814
450.000000	25.981959
449.000000	25.819429
448.000000	25.657872
447.000000	25.466729
446.000000	25.314834
445.000000	25.152170
444.000000	24.977567
443.000000	24.842520
442.000000	24.704565
441.000000	24.540170
440.000000	24.406725
439.000000	24.266859
438.000000	24.107102
437.000000	23.948777
436.000000	23.803261
435.000000	23.664126
434.000000	23.523179
433.000000	23.385830
432.000000	23.254649
431.000000	23.087819
430.000000	22.954159
429.000000	22.792289
428.000000	22.641148
427.000000	22.502896
426.000000	22.380736
425.000000	22.226836
424.000000	22.054360
423.000000	21.915929
422.000000	21.774165
421.000000	21.604316
420.000000	21.474243
419.000000	21.360846
418.000000	21.159199
417.000000	21.001757
416.000000	20.894395
415.000000	20.726195
414.000000	20.542277
413.000000	20.415936
412.000000	20.260126
411.000000	20.095837
410.000000	19.919430
409.000000	19.756607
408.000000	19.606865
407.000000	19.465380
406.000000	19.327361
405.000000	19.182812
404.000000	18.988098
403.000000	18.851559
402.000000	18.700530
401.000000	18.560613
400.000000	18.440851
399.000000	18.278780
398.000000	18.099330
397.000000	17.926162
396.000000	17.808705
395.000000	17.657619
394.000000	17.502087
393.000000	17.349894
392.000000	17.207227
391.000000	17.094128
390.000000	16.946159
389.000000	16.775076
388.000000	16.627389
387.000000	16.456241
386.000000	16.323819
385.000000	16.210344
384.000000	16.049165
383.000000	15.918673
382.000000	15.766713
381.000000	15.621805
380.000000	15.469753
379.000000	15.288899
378.000000	15.149603
377.000000	15.054318
376.000000	14.972327
375.000000	14.821499
374.000000	14.640958
373.000000	14.570904
372.000000	14.420831
371.000000	14.254802
370.000000	14.090000
369.000000	13.960071
368.000000	13.861527
367.000000	13.674007
366.000000	13.553282
365.000000	13.438863
364.000000	13.341859
363.000000	13.253903
362.000000	13.042259
361.000000	13.009188
360.000000	12.830653
359.000000	12.761932
358.000000	12.606487
357.000000	12.494734
356.000000	12.444456
355.000000	12.334235
354.000000	12.152570
353.000000	12.102783
352.000000	11.992408
351.000000	11.845280
350.000000	11.796689
349.000000	11.684446
348.000000	11.625547
347.000000	11.479354
346.000000	11.369661
345.000000	11.318181
344.000000	11.214189
343.000000	11.128223
342.000000	11.004919
341.000000	10.889060
340.000000	10.763043
339.000000	10.671127
338.000000	10.632077
337.000000	10.589975
336.000000	10.390018
335.000000	10.354884
334.000000	10.248858
333.000000	10.211136
332.000000	10.084589
331.000000	10.013612
330.000000	9.925346
329.000000	9.819037
328.000000	9.724729
327.000000	9.650706
326.000000	9.655466
325.000000	9.532623
324.000000	9.513936
323.000000	9.406693
322.000000	9.286221
321.000000	9.334676
320.000000	9.196926
319.000000	9.206842
318.000000	9.174105
317.000000	9.165867
316.000000	9.153968
315.000000	9.090578
314.000000	9.045016
313.000000	8.977745
312.000000	8.964480
311.000000	8.944151
310.000000	8.923724
309.000000	8.885116
308.000000	8.868198
307.000000	8.840262
306.000000	8.765275
305.000000	8.768195
304.000000	8.746362
303.000000	8.726747
302.000000	8.770060
301.000000	8.762515
300.000000	8.748812
299.000000	8.749586
298.000000	8.683826
297.000000	8.665332
296.000000	8.680596
295.000000	8.688830
294.000000	8.673105
293.000000	8.673986
292.000000	8.656783
291.000000	8.624172
290.000000	8.636023
289.000000	8.645487
288.000000	8.622509
287.000000	8.623080
286.000000	8.661817
285.000000	8.675205
284.000000	8.707568
283.000000	8.689714
282.000000	8.763324
281.000000	8.817974
280.000000	8.856326
279.000000	8.920874
278.000000	8.949062
277.000000	8.953637
276.000000	9.033925
275.000000	9.070165
274.000000	9.144050
273.000000	9.169231
272.000000	9.214967
271.000000	9.282580
270.000000	9.381208
269.000000	9.432913
268.000000	9.522911
267.000000	9.608949
266.000000	9.663814
265.000000	9.720508
264.000000	9.824782
263.000000	9.920308
262.000000	10.043372
261.000000	10.196178
260.000000	10.271086
259.000000	10.355956
258.000000	10.409643
257.000000	10.465027
256.000000	10.588406
255.000000	10.722190
254.000000	10.816899
253.000000	10.963710
252.000000	11.093922
251.000000	11.209670
250.000000	11.328937
249.000000	11.447911
248.000000	11.551791
247.000000	11.674017
246.000000	11.757939
245.000000	11.801740
244.000000	11.862121
243.000000	11.897731
242.000000	11.952600
241.000000	11.989910
240.000000	12.007010
239.000000	11.982248
238.000000	11.972019
237.000000	11.987317
236.000000	12.019012
235.000000	11.994819
234.000000	11.986629
233.000000	11.981159
232.000000	12.029044
231.000000	11.999926
230.000000	11.980989
229.000000	12.038378
228.000000	12.071620
227.000000	12.078912
226.000000	12.194297
225.000000	12.250118
224.000000	12.234978
223.000000	12.339943
222.000000	12.469454
221.000000	12.631452
220.000000	12.718937
219.000000	12.847541
218.000000	12.992250
217.000000	13.190398
216.000000	13.322650
215.000000	13.457741
214.000000	13.792377
213.000000	13.962122
212.000000	14.174115
211.000000	14.398117
210.000000	14.638231
209.000000	15.017292
208.000000	15.472324
207.000000	15.854932
206.000000	16.262366
205.000000	16.714776
204.000000	16.988976
203.000000	17.443526
202.000000	18.170138
201.000000	18.785806
200.000000	19.252489
