PE UV       SUBTECH     SPECTRUM    ASCII       PEDS        4.00        
   -1
RTmsfkat102.Sample.asc
18/03/20
15:30:35.00
18/03/20
15:30:35.00
Administrator

200.000000
1
Lambda 750
750N8071901
PerkinElmer UV WinLab 6.0.4.0738 / 1.61.00 Lambda 900

0
0
3350/servo 860.8/2
0
0
UV/VIS
1
1
1
CommonBeamDepol,150mm sphere / downward view
0
0
0
0
Program
Program
3350/servo 860.8/2
3350/0.2 860.8/0.2
3350/0.2 860.8/0.2
0
1
 
 
 
0
 
860.8
319.2
860.8
Front
100
on
 
 
0
0
0
 
0
 
 
 
0
 
 
0
0
0
0
0
 
 
 
 
0
0


0
0
#HDR
-1
-1
#GR
nm
%R
1.0
0.0
2350.000000
-1.000000
2151
8
48.482683
9.419039
#DATA
2350.000000	18.463012
2349.000000	18.811671
2348.000000	18.671655
2347.000000	19.007456
2346.000000	18.684081
2345.000000	18.796780
2344.000000	18.274316
2343.000000	18.433078
2342.000000	18.337593
2341.000000	18.826762
2340.000000	18.650469
2339.000000	19.244568
2338.000000	19.077653
2337.000000	19.309424
2336.000000	19.264006
2335.000000	19.335442
2334.000000	19.322713
2333.000000	19.323931
2332.000000	19.309954
2331.000000	19.284330
2330.000000	19.211777
2329.000000	19.287061
2328.000000	19.461585
2327.000000	19.113534
2326.000000	19.215148
2325.000000	19.386732
2324.000000	19.216876
2323.000000	18.914069
2322.000000	18.948425
2321.000000	19.018991
2320.000000	19.208468
2319.000000	19.220296
2318.000000	19.028767
2317.000000	18.960140
2316.000000	19.179976
2315.000000	18.930874
2314.000000	18.804628
2313.000000	18.764674
2312.000000	18.772169
2311.000000	18.754443
2310.000000	18.580459
2309.000000	18.759896
2308.000000	18.693308
2307.000000	18.676681
2306.000000	18.612743
2305.000000	18.456862
2304.000000	18.463074
2303.000000	18.453587
2302.000000	18.392795
2301.000000	18.367940
2300.000000	18.184565
2299.000000	18.256358
2298.000000	18.178426
2297.000000	17.865631
2296.000000	18.067956
2295.000000	18.037802
2294.000000	17.941462
2293.000000	17.764705
2292.000000	17.648220
2291.000000	17.641008
2290.000000	17.729467
2289.000000	17.759554
2288.000000	17.757635
2287.000000	17.916981
2286.000000	17.676950
2285.000000	17.649729
2284.000000	17.594095
2283.000000	17.499165
2282.000000	17.530324
2281.000000	17.629701
2280.000000	17.649730
2279.000000	17.814728
2278.000000	17.505925
2277.000000	17.527134
2276.000000	17.773400
2275.000000	17.813457
2274.000000	17.866769
2273.000000	17.867523
2272.000000	17.861646
2271.000000	17.900363
2270.000000	17.802688
2269.000000	17.837149
2268.000000	17.909521
2267.000000	17.942531
2266.000000	18.154753
2265.000000	18.135442
2264.000000	18.246436
2263.000000	18.299874
2262.000000	18.329393
2261.000000	18.362310
2260.000000	18.619096
2259.000000	18.754285
2258.000000	18.793751
2257.000000	18.954099
2256.000000	19.083223
2255.000000	19.159205
2254.000000	19.336782
2253.000000	19.498847
2252.000000	19.589321
2251.000000	19.717353
2250.000000	19.875203
2249.000000	20.054609
2248.000000	20.154146
2247.000000	20.269957
2246.000000	20.473537
2245.000000	20.617062
2244.000000	20.756012
2243.000000	20.900226
2242.000000	20.974988
2241.000000	21.020632
2240.000000	21.124923
2239.000000	21.315355
2238.000000	21.351011
2237.000000	21.291490
2236.000000	21.455920
2235.000000	21.580022
2234.000000	21.670419
2233.000000	21.643035
2232.000000	21.617413
2231.000000	21.732440
2230.000000	21.855261
2229.000000	21.901480
2228.000000	21.895038
2227.000000	21.881646
2226.000000	21.818145
2225.000000	21.828548
2224.000000	21.866493
2223.000000	21.878224
2222.000000	21.790722
2221.000000	21.782476
2220.000000	21.932463
2219.000000	21.938379
2218.000000	21.673989
2217.000000	21.587871
2216.000000	21.700092
2215.000000	21.654523
2214.000000	21.698535
2213.000000	21.695472
2212.000000	21.619809
2211.000000	21.575153
2210.000000	21.610401
2209.000000	21.440473
2208.000000	21.405996
2207.000000	21.423022
2206.000000	21.402255
2205.000000	21.251626
2204.000000	21.236489
2203.000000	21.168575
2202.000000	21.053969
2201.000000	21.008180
2200.000000	21.083339
2199.000000	20.935091
2198.000000	20.945310
2197.000000	20.950585
2196.000000	20.798637
2195.000000	20.852960
2194.000000	20.858142
2193.000000	20.732436
2192.000000	20.668819
2191.000000	20.669210
2190.000000	20.573657
2189.000000	20.502660
2188.000000	20.486036
2187.000000	20.642127
2186.000000	20.434433
2185.000000	20.329600
2184.000000	20.362051
2183.000000	20.327832
2182.000000	20.401529
2181.000000	20.360747
2180.000000	20.331222
2179.000000	20.209650
2178.000000	20.154062
2177.000000	20.231398
2176.000000	20.213932
2175.000000	20.236470
2174.000000	20.317465
2173.000000	20.358575
2172.000000	20.463568
2171.000000	20.412298
2170.000000	20.400764
2169.000000	20.401552
2168.000000	20.672780
2167.000000	20.598193
2166.000000	20.583458
2165.000000	20.788558
2164.000000	20.875344
2163.000000	20.819634
2162.000000	20.995083
2161.000000	21.230863
2160.000000	21.213780
2159.000000	21.210893
2158.000000	21.239064
2157.000000	21.482288
2156.000000	21.663211
2155.000000	21.593885
2154.000000	21.831594
2153.000000	22.079063
2152.000000	22.016390
2151.000000	22.067268
2150.000000	22.140368
2149.000000	22.225691
2148.000000	22.312585
2147.000000	22.424021
2146.000000	22.425835
2145.000000	22.569173
2144.000000	22.770365
2143.000000	22.819800
2142.000000	22.976935
2141.000000	22.949978
2140.000000	23.113340
2139.000000	23.218706
2138.000000	23.358809
2137.000000	23.518305
2136.000000	23.545967
2135.000000	23.594466
2134.000000	23.765341
2133.000000	23.649217
2132.000000	23.860048
2131.000000	23.864149
2130.000000	23.977866
2129.000000	23.986563
2128.000000	24.034593
2127.000000	23.998165
2126.000000	23.991452
2125.000000	24.015794
2124.000000	24.199887
2123.000000	24.182626
2122.000000	24.271682
2121.000000	24.221000
2120.000000	24.323893
2119.000000	24.320356
2118.000000	24.258249
2117.000000	24.354117
2116.000000	24.557959
2115.000000	24.589483
2114.000000	24.634346
2113.000000	24.471390
2112.000000	24.478186
2111.000000	24.605599
2110.000000	24.487579
2109.000000	24.566141
2108.000000	24.617264
2107.000000	24.720803
2106.000000	24.759210
2105.000000	24.591461
2104.000000	24.703982
2103.000000	24.664073
2102.000000	24.706339
2101.000000	24.795946
2100.000000	24.879743
2099.000000	24.975896
2098.000000	24.884852
2097.000000	24.798073
2096.000000	24.753145
2095.000000	24.786377
2094.000000	24.823998
2093.000000	24.870458
2092.000000	24.876016
2091.000000	24.788288
2090.000000	24.708600
2089.000000	24.781177
2088.000000	24.763669
2087.000000	24.669423
2086.000000	24.754257
2085.000000	24.666767
2084.000000	24.608584
2083.000000	24.558524
2082.000000	24.557687
2081.000000	24.492908
2080.000000	24.508404
2079.000000	24.468721
2078.000000	24.355549
2077.000000	24.284360
2076.000000	24.183686
2075.000000	24.076731
2074.000000	24.083953
2073.000000	24.061378
2072.000000	23.952842
2071.000000	23.882644
2070.000000	23.870702
2069.000000	23.648470
2068.000000	23.543066
2067.000000	23.420844
2066.000000	23.297549
2065.000000	23.214248
2064.000000	23.135168
2063.000000	23.093484
2062.000000	23.067675
2061.000000	22.871269
2060.000000	22.727397
2059.000000	22.618194
2058.000000	22.526003
2057.000000	22.455643
2056.000000	22.340532
2055.000000	22.236446
2054.000000	22.121844
2053.000000	22.011855
2052.000000	21.932593
2051.000000	21.841911
2050.000000	21.814609
2049.000000	21.716088
2048.000000	21.598253
2047.000000	21.578164
2046.000000	21.556503
2045.000000	21.545313
2044.000000	21.535404
2043.000000	21.520394
2042.000000	21.519712
2041.000000	21.541928
2040.000000	21.555206
2039.000000	21.572733
2038.000000	21.612394
2037.000000	21.658128
2036.000000	21.677988
2035.000000	21.759707
2034.000000	21.851311
2033.000000	21.893188
2032.000000	22.008858
2031.000000	22.099328
2030.000000	22.176420
2029.000000	22.311574
2028.000000	22.382077
2027.000000	22.455046
2026.000000	22.561263
2025.000000	22.619109
2024.000000	22.700792
2023.000000	22.734851
2022.000000	22.781868
2021.000000	22.848766
2020.000000	22.861199
2019.000000	22.917377
2018.000000	22.974250
2017.000000	22.981534
2016.000000	22.958613
2015.000000	22.955202
2014.000000	22.978713
2013.000000	22.994558
2012.000000	22.968959
2011.000000	22.933033
2010.000000	22.944743
2009.000000	22.873066
2008.000000	22.816727
2007.000000	22.804993
2006.000000	22.726903
2005.000000	22.675121
2004.000000	22.624172
2003.000000	22.593078
2002.000000	22.544737
2001.000000	22.447435
2000.000000	22.352577
1999.000000	22.277510
1998.000000	22.238046
1997.000000	22.192607
1996.000000	22.130687
1995.000000	22.037560
1994.000000	21.973215
1993.000000	21.944332
1992.000000	21.856231
1991.000000	21.749800
1990.000000	21.695290
1989.000000	21.618475
1988.000000	21.545038
1987.000000	21.462150
1986.000000	21.382721
1985.000000	21.324572
1984.000000	21.252631
1983.000000	21.199516
1982.000000	21.130755
1981.000000	21.096291
1980.000000	20.986574
1979.000000	20.906394
1978.000000	20.843649
1977.000000	20.803119
1976.000000	20.734253
1975.000000	20.678494
1974.000000	20.573292
1973.000000	20.513319
1972.000000	20.437207
1971.000000	20.319387
1970.000000	20.278866
1969.000000	20.284992
1968.000000	20.224818
1967.000000	20.176898
1966.000000	20.126107
1965.000000	20.003294
1964.000000	19.964890
1963.000000	19.931658
1962.000000	19.818601
1961.000000	19.731575
1960.000000	19.707240
1959.000000	19.632431
1958.000000	19.585275
1957.000000	19.550502
1956.000000	19.469428
1955.000000	19.459096
1954.000000	19.433147
1953.000000	19.405669
1952.000000	19.353465
1951.000000	19.342449
1950.000000	19.309536
1949.000000	19.243279
1948.000000	19.234666
1947.000000	19.208080
1946.000000	19.186285
1945.000000	19.207149
1944.000000	19.217182
1943.000000	19.274758
1942.000000	19.224309
1941.000000	19.245643
1940.000000	19.299028
1939.000000	19.334807
1938.000000	19.396507
1937.000000	19.433293
1936.000000	19.557049
1935.000000	19.542859
1934.000000	19.622009
1933.000000	19.765283
1932.000000	19.775104
1931.000000	19.955836
1930.000000	20.040946
1929.000000	20.089851
1928.000000	20.219746
1927.000000	20.396169
1926.000000	20.476258
1925.000000	20.648214
1924.000000	20.828047
1923.000000	21.015116
1922.000000	21.176540
1921.000000	21.409139
1920.000000	21.612852
1919.000000	21.776068
1918.000000	22.038870
1917.000000	22.277966
1916.000000	22.405426
1915.000000	22.802798
1914.000000	22.993941
1913.000000	23.285916
1912.000000	23.519096
1911.000000	23.820925
1910.000000	24.126309
1909.000000	24.394526
1908.000000	24.763159
1907.000000	25.065396
1906.000000	25.301661
1905.000000	25.752937
1904.000000	26.104449
1903.000000	26.463695
1902.000000	26.827674
1901.000000	27.224184
1900.000000	27.690753
1899.000000	28.005885
1898.000000	28.397618
1897.000000	28.773137
1896.000000	29.217130
1895.000000	29.620059
1894.000000	29.991285
1893.000000	30.401022
1892.000000	30.756328
1891.000000	31.154724
1890.000000	31.521362
1889.000000	31.891952
1888.000000	32.244489
1887.000000	32.585415
1886.000000	32.921419
1885.000000	33.329241
1884.000000	33.620017
1883.000000	33.943368
1882.000000	34.203061
1881.000000	34.482685
1880.000000	34.750108
1879.000000	35.043062
1878.000000	35.244605
1877.000000	35.511322
1876.000000	35.712214
1875.000000	35.958934
1874.000000	36.138660
1873.000000	36.301443
1872.000000	36.500714
1871.000000	36.653828
1870.000000	36.770980
1869.000000	36.931690
1868.000000	37.070444
1867.000000	37.095259
1866.000000	37.203872
1865.000000	37.290571
1864.000000	37.328136
1863.000000	37.407364
1862.000000	37.488605
1861.000000	37.571490
1860.000000	37.630506
1859.000000	37.659819
1858.000000	37.696522
1857.000000	37.759722
1856.000000	37.798552
1855.000000	37.819660
1854.000000	37.845738
1853.000000	37.851155
1852.000000	37.857820
1851.000000	37.894856
1850.000000	37.890636
1849.000000	37.872610
1848.000000	37.876229
1847.000000	37.893249
1846.000000	37.911460
1845.000000	37.912185
1844.000000	37.883759
1843.000000	37.847317
1842.000000	37.853875
1841.000000	37.837421
1840.000000	37.806138
1839.000000	37.813648
1838.000000	37.763766
1837.000000	37.688537
1836.000000	37.662613
1835.000000	37.662873
1834.000000	37.601022
1833.000000	37.542095
1832.000000	37.532673
1831.000000	37.520682
1830.000000	37.510609
1829.000000	37.434677
1828.000000	37.391226
1827.000000	37.378598
1826.000000	37.353877
1825.000000	37.340279
1824.000000	37.305239
1823.000000	37.259976
1822.000000	37.224766
1821.000000	37.186163
1820.000000	37.162007
1819.000000	37.131291
1818.000000	37.110096
1817.000000	37.092648
1816.000000	37.071630
1815.000000	37.053805
1814.000000	37.013812
1813.000000	36.986282
1812.000000	36.974196
1811.000000	36.948147
1810.000000	36.930229
1809.000000	36.922301
1808.000000	36.888330
1807.000000	36.835386
1806.000000	36.811112
1805.000000	36.806779
1804.000000	36.786563
1803.000000	36.741506
1802.000000	36.714702
1801.000000	36.703003
1800.000000	36.687817
1799.000000	36.663322
1798.000000	36.667917
1797.000000	36.658068
1796.000000	36.618103
1795.000000	36.604722
1794.000000	36.616768
1793.000000	36.604199
1792.000000	36.583944
1791.000000	36.568041
1790.000000	36.550249
1789.000000	36.541894
1788.000000	36.537777
1787.000000	36.520932
1786.000000	36.489961
1785.000000	36.467370
1784.000000	36.469448
1783.000000	36.445100
1782.000000	36.402026
1781.000000	36.388785
1780.000000	36.374083
1779.000000	36.350555
1778.000000	36.314866
1777.000000	36.275470
1776.000000	36.222891
1775.000000	36.170263
1774.000000	36.114741
1773.000000	36.074011
1772.000000	36.024905
1771.000000	35.980436
1770.000000	35.941242
1769.000000	35.889965
1768.000000	35.848613
1767.000000	35.795520
1766.000000	35.753970
1765.000000	35.691531
1764.000000	35.683037
1763.000000	35.630775
1762.000000	35.585628
1761.000000	35.542552
1760.000000	35.480266
1759.000000	35.436061
1758.000000	35.415588
1757.000000	35.357150
1756.000000	35.325134
1755.000000	35.289912
1754.000000	35.244574
1753.000000	35.196501
1752.000000	35.148632
1751.000000	35.115028
1750.000000	35.068906
1749.000000	35.046268
1748.000000	34.958676
1747.000000	34.908961
1746.000000	34.865055
1745.000000	34.794749
1744.000000	34.767986
1743.000000	34.718851
1742.000000	34.690458
1741.000000	34.637650
1740.000000	34.585504
1739.000000	34.553393
1738.000000	34.527193
1737.000000	34.479765
1736.000000	34.430149
1735.000000	34.423471
1734.000000	34.418794
1733.000000	34.409193
1732.000000	34.435070
1731.000000	34.441248
1730.000000	34.444292
1729.000000	34.458283
1728.000000	34.524588
1727.000000	34.563564
1726.000000	34.605653
1725.000000	34.645684
1724.000000	34.722152
1723.000000	34.772815
1722.000000	34.865339
1721.000000	34.968258
1720.000000	35.055128
1719.000000	35.161817
1718.000000	35.226069
1717.000000	35.298237
1716.000000	35.363689
1715.000000	35.471725
1714.000000	35.542199
1713.000000	35.577210
1712.000000	35.680810
1711.000000	35.704114
1710.000000	35.763827
1709.000000	35.827808
1708.000000	35.870650
1707.000000	35.936080
1706.000000	35.959155
1705.000000	36.000374
1704.000000	36.031959
1703.000000	36.035233
1702.000000	36.055050
1701.000000	36.052306
1700.000000	36.084414
1699.000000	36.077774
1698.000000	36.156012
1697.000000	36.187816
1696.000000	36.189734
1695.000000	36.226758
1694.000000	36.274096
1693.000000	36.325861
1692.000000	36.348205
1691.000000	36.438971
1690.000000	36.502052
1689.000000	36.582956
1688.000000	36.692965
1687.000000	36.762936
1686.000000	36.847160
1685.000000	36.968612
1684.000000	37.120166
1683.000000	37.233161
1682.000000	37.388725
1681.000000	37.534556
1680.000000	37.693161
1679.000000	37.830609
1678.000000	37.989440
1677.000000	38.096356
1676.000000	38.264317
1675.000000	38.421777
1674.000000	38.567593
1673.000000	38.738652
1672.000000	38.895622
1671.000000	39.032780
1670.000000	39.163400
1669.000000	39.304242
1668.000000	39.393946
1667.000000	39.529723
1666.000000	39.625745
1665.000000	39.696434
1664.000000	39.778476
1663.000000	39.853795
1662.000000	39.953693
1661.000000	40.019017
1660.000000	40.059724
1659.000000	40.130396
1658.000000	40.188715
1657.000000	40.226042
1656.000000	40.249859
1655.000000	40.299684
1654.000000	40.324608
1653.000000	40.337626
1652.000000	40.363804
1651.000000	40.350369
1650.000000	40.360882
1649.000000	40.360714
1648.000000	40.351914
1647.000000	40.349592
1646.000000	40.350972
1645.000000	40.352834
1644.000000	40.358249
1643.000000	40.317504
1642.000000	40.315062
1641.000000	40.290668
1640.000000	40.264319
1639.000000	40.243293
1638.000000	40.231541
1637.000000	40.201708
1636.000000	40.179721
1635.000000	40.152596
1634.000000	40.127471
1633.000000	40.098500
1632.000000	40.071929
1631.000000	40.017430
1630.000000	39.973570
1629.000000	39.962862
1628.000000	39.930922
1627.000000	39.892155
1626.000000	39.854572
1625.000000	39.832536
1624.000000	39.805844
1623.000000	39.766808
1622.000000	39.740768
1621.000000	39.678356
1620.000000	39.633677
1619.000000	39.594141
1618.000000	39.569075
1617.000000	39.529509
1616.000000	39.485499
1615.000000	39.439147
1614.000000	39.395488
1613.000000	39.350437
1612.000000	39.294178
1611.000000	39.245287
1610.000000	39.201918
1609.000000	39.165276
1608.000000	39.126641
1607.000000	39.068347
1606.000000	39.000980
1605.000000	38.959385
1604.000000	38.913721
1603.000000	38.851873
1602.000000	38.809582
1601.000000	38.772152
1600.000000	38.717191
1599.000000	38.656193
1598.000000	38.611916
1597.000000	38.572399
1596.000000	38.535115
1595.000000	38.492724
1594.000000	38.438957
1593.000000	38.407697
1592.000000	38.373093
1591.000000	38.318752
1590.000000	38.281007
1589.000000	38.227321
1588.000000	38.184579
1587.000000	38.174264
1586.000000	38.143278
1585.000000	38.101005
1584.000000	38.063261
1583.000000	38.025549
1582.000000	37.973607
1581.000000	37.940449
1580.000000	37.910476
1579.000000	37.883072
1578.000000	37.872199
1577.000000	37.821865
1576.000000	37.773038
1575.000000	37.739594
1574.000000	37.692852
1573.000000	37.655297
1572.000000	37.628824
1571.000000	37.599711
1570.000000	37.564111
1569.000000	37.537351
1568.000000	37.506487
1567.000000	37.460017
1566.000000	37.436999
1565.000000	37.428708
1564.000000	37.407559
1563.000000	37.377009
1562.000000	37.342365
1561.000000	37.338008
1560.000000	37.325837
1559.000000	37.296553
1558.000000	37.270704
1557.000000	37.247342
1556.000000	37.234507
1555.000000	37.229264
1554.000000	37.206820
1553.000000	37.182384
1552.000000	37.168506
1551.000000	37.142277
1550.000000	37.108433
1549.000000	37.062912
1548.000000	37.038703
1547.000000	36.991089
1546.000000	36.943265
1545.000000	36.897348
1544.000000	36.838615
1543.000000	36.781641
1542.000000	36.719477
1541.000000	36.662639
1540.000000	36.596097
1539.000000	36.512181
1538.000000	36.443362
1537.000000	36.365399
1536.000000	36.305116
1535.000000	36.245086
1534.000000	36.161914
1533.000000	36.096391
1532.000000	36.013215
1531.000000	35.939938
1530.000000	35.884016
1529.000000	35.810716
1528.000000	35.759346
1527.000000	35.709875
1526.000000	35.639761
1525.000000	35.595414
1524.000000	35.530417
1523.000000	35.500559
1522.000000	35.451200
1521.000000	35.400838
1520.000000	35.366683
1519.000000	35.345277
1518.000000	35.315331
1517.000000	35.281180
1516.000000	35.259874
1515.000000	35.244743
1514.000000	35.195555
1513.000000	35.180647
1512.000000	35.168660
1511.000000	35.145478
1510.000000	35.130350
1509.000000	35.106907
1508.000000	35.094392
1507.000000	35.101791
1506.000000	35.098295
1505.000000	35.121656
1504.000000	35.140771
1503.000000	35.144730
1502.000000	35.120886
1501.000000	35.101053
1500.000000	35.094729
1499.000000	35.101334
1498.000000	35.092034
1497.000000	35.090194
1496.000000	35.110833
1495.000000	35.116021
1494.000000	35.119127
1493.000000	35.146280
1492.000000	35.164509
1491.000000	35.188438
1490.000000	35.240054
1489.000000	35.267899
1488.000000	35.298461
1487.000000	35.319161
1486.000000	35.349618
1485.000000	35.411062
1484.000000	35.460917
1483.000000	35.518936
1482.000000	35.550465
1481.000000	35.611241
1480.000000	35.659141
1479.000000	35.703873
1478.000000	35.748660
1477.000000	35.783039
1476.000000	35.846318
1475.000000	35.898136
1474.000000	35.951664
1473.000000	35.998883
1472.000000	36.040242
1471.000000	36.077403
1470.000000	36.131309
1469.000000	36.181932
1468.000000	36.201808
1467.000000	36.248401
1466.000000	36.281180
1465.000000	36.332327
1464.000000	36.373512
1463.000000	36.393710
1462.000000	36.416434
1461.000000	36.464713
1460.000000	36.517537
1459.000000	36.571531
1458.000000	36.608735
1457.000000	36.630766
1456.000000	36.663463
1455.000000	36.726313
1454.000000	36.793965
1453.000000	36.837874
1452.000000	36.860040
1451.000000	36.916128
1450.000000	36.983941
1449.000000	37.051103
1448.000000	37.083316
1447.000000	37.132675
1446.000000	37.187099
1445.000000	37.234604
1444.000000	37.331327
1443.000000	37.394985
1442.000000	37.452721
1441.000000	37.523220
1440.000000	37.572431
1439.000000	37.658574
1438.000000	37.719905
1437.000000	37.784961
1436.000000	37.890942
1435.000000	38.003766
1434.000000	38.078311
1433.000000	38.163658
1432.000000	38.257346
1431.000000	38.359132
1430.000000	38.440734
1429.000000	38.539965
1428.000000	38.648102
1427.000000	38.764749
1426.000000	38.874203
1425.000000	38.989584
1424.000000	39.123174
1423.000000	39.238680
1422.000000	39.352894
1421.000000	39.484548
1420.000000	39.625531
1419.000000	39.772675
1418.000000	39.916316
1417.000000	40.057430
1416.000000	40.212852
1415.000000	40.369086
1414.000000	40.525413
1413.000000	40.676192
1412.000000	40.832920
1411.000000	40.994051
1410.000000	41.156546
1409.000000	41.312930
1408.000000	41.465552
1407.000000	41.606403
1406.000000	41.763069
1405.000000	41.930871
1404.000000	42.080720
1403.000000	42.224515
1402.000000	42.358494
1401.000000	42.496596
1400.000000	42.641775
1399.000000	42.769857
1398.000000	42.904434
1397.000000	43.026311
1396.000000	43.149724
1395.000000	43.284148
1394.000000	43.405070
1393.000000	43.536575
1392.000000	43.652477
1391.000000	43.759629
1390.000000	43.877832
1389.000000	43.998159
1388.000000	44.087879
1387.000000	44.166399
1386.000000	44.254323
1385.000000	44.348043
1384.000000	44.436992
1383.000000	44.508937
1382.000000	44.579550
1381.000000	44.655277
1380.000000	44.719029
1379.000000	44.776728
1378.000000	44.848562
1377.000000	44.923027
1376.000000	44.960883
1375.000000	45.000369
1374.000000	45.062717
1373.000000	45.111725
1372.000000	45.152614
1371.000000	45.176826
1370.000000	45.206558
1369.000000	45.255038
1368.000000	45.292390
1367.000000	45.330521
1366.000000	45.370171
1365.000000	45.420233
1364.000000	45.477357
1363.000000	45.514350
1362.000000	45.537969
1361.000000	45.573907
1360.000000	45.610455
1359.000000	45.636586
1358.000000	45.675364
1357.000000	45.721013
1356.000000	45.793446
1355.000000	45.834683
1354.000000	45.856379
1353.000000	45.912388
1352.000000	45.973988
1351.000000	46.001991
1350.000000	46.050286
1349.000000	46.093674
1348.000000	46.133865
1347.000000	46.184028
1346.000000	46.223667
1345.000000	46.246815
1344.000000	46.297988
1343.000000	46.359389
1342.000000	46.393687
1341.000000	46.432331
1340.000000	46.456189
1339.000000	46.488731
1338.000000	46.541575
1337.000000	46.583319
1336.000000	46.610270
1335.000000	46.625326
1334.000000	46.640525
1333.000000	46.658659
1332.000000	46.680318
1331.000000	46.710907
1330.000000	46.748453
1329.000000	46.775516
1328.000000	46.783858
1327.000000	46.798113
1326.000000	46.831939
1325.000000	46.836447
1324.000000	46.846140
1323.000000	46.847935
1322.000000	46.865401
1321.000000	46.905903
1320.000000	46.916046
1319.000000	46.886846
1318.000000	46.900266
1317.000000	46.907304
1316.000000	46.932059
1315.000000	46.969494
1314.000000	46.960091
1313.000000	46.940040
1312.000000	46.966291
1311.000000	46.961107
1310.000000	46.974002
1309.000000	46.999461
1308.000000	47.005013
1307.000000	47.040725
1306.000000	47.036408
1305.000000	47.038546
1304.000000	47.049165
1303.000000	47.079137
1302.000000	47.094534
1301.000000	47.086618
1300.000000	47.085600
1299.000000	47.069464
1298.000000	47.081066
1297.000000	47.084956
1296.000000	47.088295
1295.000000	47.085374
1294.000000	47.085146
1293.000000	47.092147
1292.000000	47.089814
1291.000000	47.088166
1290.000000	47.086087
1289.000000	47.072918
1288.000000	47.079651
1287.000000	47.080845
1286.000000	47.034543
1285.000000	47.022438
1284.000000	47.031716
1283.000000	47.034182
1282.000000	47.033197
1281.000000	47.024054
1280.000000	47.034907
1279.000000	47.042193
1278.000000	47.034475
1277.000000	47.032124
1276.000000	47.043952
1275.000000	47.056901
1274.000000	47.036010
1273.000000	47.025109
1272.000000	47.020166
1271.000000	47.034414
1270.000000	47.030661
1269.000000	47.023420
1268.000000	47.013387
1267.000000	47.008730
1266.000000	47.028196
1265.000000	47.001353
1264.000000	47.048845
1263.000000	47.064053
1262.000000	47.086690
1261.000000	47.067913
1260.000000	47.079776
1259.000000	47.089577
1258.000000	47.087022
1257.000000	47.109824
1256.000000	47.133210
1255.000000	47.129224
1254.000000	47.127901
1253.000000	47.129286
1252.000000	47.125985
1251.000000	47.119753
1250.000000	47.142130
1249.000000	47.132503
1248.000000	47.137077
1247.000000	47.134661
1246.000000	47.128664
1245.000000	47.138422
1244.000000	47.135618
1243.000000	47.120150
1242.000000	47.085085
1241.000000	47.064288
1240.000000	47.051628
1239.000000	47.060810
1238.000000	47.020093
1237.000000	47.002082
1236.000000	46.992967
1235.000000	46.977537
1234.000000	46.970665
1233.000000	46.939039
1232.000000	46.916911
1231.000000	46.906935
1230.000000	46.893364
1229.000000	46.846143
1228.000000	46.832273
1227.000000	46.821784
1226.000000	46.807441
1225.000000	46.804660
1224.000000	46.789998
1223.000000	46.778503
1222.000000	46.763259
1221.000000	46.739281
1220.000000	46.716676
1219.000000	46.699151
1218.000000	46.665887
1217.000000	46.653874
1216.000000	46.622680
1215.000000	46.590988
1214.000000	46.564924
1213.000000	46.556632
1212.000000	46.518019
1211.000000	46.510235
1210.000000	46.479974
1209.000000	46.451753
1208.000000	46.447708
1207.000000	46.413003
1206.000000	46.379433
1205.000000	46.353717
1204.000000	46.319772
1203.000000	46.302691
1202.000000	46.270448
1201.000000	46.263035
1200.000000	46.233648
1199.000000	46.199153
1198.000000	46.196494
1197.000000	46.180109
1196.000000	46.150744
1195.000000	46.130974
1194.000000	46.113028
1193.000000	46.093199
1192.000000	46.075342
1191.000000	46.064901
1190.000000	46.034851
1189.000000	45.982016
1188.000000	45.991096
1187.000000	45.991696
1186.000000	45.990149
1185.000000	45.988726
1184.000000	45.982738
1183.000000	46.005421
1182.000000	46.031015
1181.000000	46.044006
1180.000000	46.058213
1179.000000	46.095102
1178.000000	46.131861
1177.000000	46.157055
1176.000000	46.190917
1175.000000	46.232360
1174.000000	46.276918
1173.000000	46.323726
1172.000000	46.363793
1171.000000	46.401269
1170.000000	46.452971
1169.000000	46.505022
1168.000000	46.554382
1167.000000	46.608596
1166.000000	46.660949
1165.000000	46.709153
1164.000000	46.767331
1163.000000	46.830326
1162.000000	46.884135
1161.000000	46.943669
1160.000000	46.995706
1159.000000	47.049870
1158.000000	47.111139
1157.000000	47.141456
1156.000000	47.174662
1155.000000	47.212001
1154.000000	47.257753
1153.000000	47.312133
1152.000000	47.351206
1151.000000	47.394328
1150.000000	47.442893
1149.000000	47.484704
1148.000000	47.516507
1147.000000	47.555368
1146.000000	47.591113
1145.000000	47.627686
1144.000000	47.659572
1143.000000	47.686986
1142.000000	47.715469
1141.000000	47.748446
1140.000000	47.779361
1139.000000	47.805338
1138.000000	47.829849
1137.000000	47.845970
1136.000000	47.884598
1135.000000	47.913623
1134.000000	47.939341
1133.000000	47.977919
1132.000000	47.996454
1131.000000	48.022110
1130.000000	48.058154
1129.000000	48.074422
1128.000000	48.083730
1127.000000	48.101696
1126.000000	48.115426
1125.000000	48.137435
1124.000000	48.135574
1123.000000	48.139883
1122.000000	48.159720
1121.000000	48.168843
1120.000000	48.179578
1119.000000	48.187931
1118.000000	48.195491
1117.000000	48.204467
1116.000000	48.225429
1115.000000	48.228811
1114.000000	48.240250
1113.000000	48.239101
1112.000000	48.227662
1111.000000	48.249573
1110.000000	48.247391
1109.000000	48.250134
1108.000000	48.268266
1107.000000	48.278635
1106.000000	48.277949
1105.000000	48.272638
1104.000000	48.258070
1103.000000	48.249585
1102.000000	48.262147
1101.000000	48.268362
1100.000000	48.279966
1099.000000	48.269685
1098.000000	48.286485
1097.000000	48.296695
1096.000000	48.299511
1095.000000	48.271569
1094.000000	48.276385
1093.000000	48.272840
1092.000000	48.273347
1091.000000	48.267508
1090.000000	48.280001
1089.000000	48.288294
1088.000000	48.264104
1087.000000	48.272571
1086.000000	48.274917
1085.000000	48.287674
1084.000000	48.293421
1083.000000	48.301448
1082.000000	48.296689
1081.000000	48.264135
1080.000000	48.254560
1079.000000	48.262532
1078.000000	48.266602
1077.000000	48.273617
1076.000000	48.280348
1075.000000	48.248544
1074.000000	48.245529
1073.000000	48.242809
1072.000000	48.237777
1071.000000	48.242411
1070.000000	48.245180
1069.000000	48.246807
1068.000000	48.254015
1067.000000	48.233352
1066.000000	48.249030
1065.000000	48.232902
1064.000000	48.227364
1063.000000	48.256587
1062.000000	48.250378
1061.000000	48.224056
1060.000000	48.208430
1059.000000	48.212614
1058.000000	48.206741
1057.000000	48.226760
1056.000000	48.210791
1055.000000	48.219650
1054.000000	48.186403
1053.000000	48.188680
1052.000000	48.184497
1051.000000	48.179662
1050.000000	48.155554
1049.000000	48.177925
1048.000000	48.158607
1047.000000	48.180960
1046.000000	48.184642
1045.000000	48.153816
1044.000000	48.160853
1043.000000	48.167605
1042.000000	48.170962
1041.000000	48.154555
1040.000000	48.180529
1039.000000	48.163618
1038.000000	48.177317
1037.000000	48.178319
1036.000000	48.150768
1035.000000	48.166434
1034.000000	48.161701
1033.000000	48.147520
1032.000000	48.151922
1031.000000	48.154191
1030.000000	48.163897
1029.000000	48.165226
1028.000000	48.169905
1027.000000	48.162508
1026.000000	48.161992
1025.000000	48.162689
1024.000000	48.174837
1023.000000	48.173954
1022.000000	48.183110
1021.000000	48.194929
1020.000000	48.176169
1019.000000	48.177148
1018.000000	48.197007
1017.000000	48.201531
1016.000000	48.203254
1015.000000	48.201310
1014.000000	48.210319
1013.000000	48.220255
1012.000000	48.221056
1011.000000	48.230750
1010.000000	48.230266
1009.000000	48.226920
1008.000000	48.245904
1007.000000	48.245856
1006.000000	48.273189
1005.000000	48.283582
1004.000000	48.273458
1003.000000	48.276751
1002.000000	48.293655
1001.000000	48.295764
1000.000000	48.309051
999.000000	48.331006
998.000000	48.343092
997.000000	48.350270
996.000000	48.346022
995.000000	48.340831
994.000000	48.361022
993.000000	48.364720
992.000000	48.354198
991.000000	48.368614
990.000000	48.365169
989.000000	48.361836
988.000000	48.366361
987.000000	48.369681
986.000000	48.376143
985.000000	48.371923
984.000000	48.372314
983.000000	48.377131
982.000000	48.382648
981.000000	48.396166
980.000000	48.399936
979.000000	48.397442
978.000000	48.408984
977.000000	48.406104
976.000000	48.408204
975.000000	48.399354
974.000000	48.384908
973.000000	48.407747
972.000000	48.418953
971.000000	48.422964
970.000000	48.422942
969.000000	48.416094
968.000000	48.411897
967.000000	48.419644
966.000000	48.446665
965.000000	48.436290
964.000000	48.450755
963.000000	48.465034
962.000000	48.475675
961.000000	48.455203
960.000000	48.434940
959.000000	48.441357
958.000000	48.440435
957.000000	48.442142
956.000000	48.445704
955.000000	48.450507
954.000000	48.457819
953.000000	48.450606
952.000000	48.442912
951.000000	48.443884
950.000000	48.462654
949.000000	48.482683
948.000000	48.479496
947.000000	48.480423
946.000000	48.464909
945.000000	48.446750
944.000000	48.462254
943.000000	48.459590
942.000000	48.443544
941.000000	48.434704
940.000000	48.445885
939.000000	48.441724
938.000000	48.425339
937.000000	48.438156
936.000000	48.467600
935.000000	48.469999
934.000000	48.445230
933.000000	48.438119
932.000000	48.442372
931.000000	48.442230
930.000000	48.438137
929.000000	48.413602
928.000000	48.397874
927.000000	48.428580
926.000000	48.416283
925.000000	48.376388
924.000000	48.383540
923.000000	48.394647
922.000000	48.402349
921.000000	48.389844
920.000000	48.393145
919.000000	48.396294
918.000000	48.391878
917.000000	48.374163
916.000000	48.341610
915.000000	48.339434
914.000000	48.359036
913.000000	48.362639
912.000000	48.366309
911.000000	48.351810
910.000000	48.340295
909.000000	48.338856
908.000000	48.328566
907.000000	48.326285
906.000000	48.333050
905.000000	48.334821
904.000000	48.333441
903.000000	48.338757
902.000000	48.333183
901.000000	48.334314
900.000000	48.298082
899.000000	48.315126
898.000000	48.310290
897.000000	48.308605
896.000000	48.322951
895.000000	48.304369
894.000000	48.307830
893.000000	48.300913
892.000000	48.319559
891.000000	48.311427
890.000000	48.348939
889.000000	48.338833
888.000000	48.323506
887.000000	48.336027
886.000000	48.277719
885.000000	48.275940
884.000000	48.277722
883.000000	48.248280
882.000000	48.277918
881.000000	48.271924
880.000000	48.242975
879.000000	48.262916
878.000000	48.227695
877.000000	48.262274
876.000000	48.236658
875.000000	48.209170
874.000000	48.301614
873.000000	48.310520
872.000000	48.251610
871.000000	48.284138
870.000000	48.259986
869.000000	48.201341
868.000000	48.199768
867.000000	48.260206
866.000000	48.191872
865.000000	48.136195
864.000000	48.117340
863.000000	48.178951
862.000000	48.166838
861.000000	48.045608
860.000000	48.169939
859.000000	47.253817
858.000000	46.925757
857.000000	46.993348
856.000000	46.866989
855.000000	47.022694
854.000000	47.063602
853.000000	46.875479
852.000000	46.732331
851.000000	46.880044
850.000000	46.956279
849.000000	46.779327
848.000000	46.988082
847.000000	46.967953
846.000000	46.784175
845.000000	46.917989
844.000000	46.818589
843.000000	47.042537
842.000000	47.050036
841.000000	46.790398
840.000000	46.877687
839.000000	46.771036
838.000000	46.700303
837.000000	46.812256
836.000000	46.802431
835.000000	46.664406
834.000000	46.768515
833.000000	46.779428
832.000000	46.643430
831.000000	46.738012
830.000000	46.772034
829.000000	46.777261
828.000000	46.647635
827.000000	46.789011
826.000000	46.683172
825.000000	46.646583
824.000000	46.738804
823.000000	46.663944
822.000000	46.632028
821.000000	46.556784
820.000000	46.595876
819.000000	46.696576
818.000000	46.612672
817.000000	46.460823
816.000000	46.489507
815.000000	46.508931
814.000000	46.557642
813.000000	46.449535
812.000000	46.389255
811.000000	46.483872
810.000000	46.392094
809.000000	46.448574
808.000000	46.350141
807.000000	46.338451
806.000000	46.388608
805.000000	46.461443
804.000000	46.357640
803.000000	46.229829
802.000000	46.277008
801.000000	46.297460
800.000000	46.292501
799.000000	46.312839
798.000000	46.324238
797.000000	46.270994
796.000000	46.233559
795.000000	46.179016
794.000000	46.176067
793.000000	46.167103
792.000000	46.190273
791.000000	46.098876
790.000000	46.055065
789.000000	46.102020
788.000000	46.064754
787.000000	46.061830
786.000000	46.085750
785.000000	46.003243
784.000000	45.945191
783.000000	46.036872
782.000000	45.953983
781.000000	45.973284
780.000000	45.885871
779.000000	45.953647
778.000000	45.943490
777.000000	45.894069
776.000000	45.890320
775.000000	45.825444
774.000000	45.776138
773.000000	45.770160
772.000000	45.834599
771.000000	45.792278
770.000000	45.750625
769.000000	45.724361
768.000000	45.691486
767.000000	45.682494
766.000000	45.684783
765.000000	45.671088
764.000000	45.592324
763.000000	45.597429
762.000000	45.600124
761.000000	45.499842
760.000000	45.510418
759.000000	45.470445
758.000000	45.465859
757.000000	45.467559
756.000000	45.371291
755.000000	45.343651
754.000000	45.351282
753.000000	45.299537
752.000000	45.293583
751.000000	45.246886
750.000000	45.215317
749.000000	45.229489
748.000000	45.220930
747.000000	45.150520
746.000000	45.120712
745.000000	45.108548
744.000000	45.106703
743.000000	45.095493
742.000000	45.093577
741.000000	45.074022
740.000000	45.048288
739.000000	44.987841
738.000000	44.896038
737.000000	44.824007
736.000000	44.783885
735.000000	44.783891
734.000000	44.703004
733.000000	44.673156
732.000000	44.689122
731.000000	44.680535
730.000000	44.653995
729.000000	44.630732
728.000000	44.591487
727.000000	44.530636
726.000000	44.495280
725.000000	44.454306
724.000000	44.431946
723.000000	44.391676
722.000000	44.353991
721.000000	44.334040
720.000000	44.300512
719.000000	44.221755
718.000000	44.213575
717.000000	44.216229
716.000000	44.169300
715.000000	44.146078
714.000000	44.100835
713.000000	44.051030
712.000000	44.045385
711.000000	43.997856
710.000000	43.956164
709.000000	43.923150
708.000000	43.845123
707.000000	43.783968
706.000000	43.728541
705.000000	43.674482
704.000000	43.689081
703.000000	43.676706
702.000000	43.597175
701.000000	43.555560
700.000000	43.552310
699.000000	43.520942
698.000000	43.472215
697.000000	43.430389
696.000000	43.389187
695.000000	43.323289
694.000000	43.270725
693.000000	43.236831
692.000000	43.174372
691.000000	43.123305
690.000000	43.080977
689.000000	43.012361
688.000000	42.967689
687.000000	42.929424
686.000000	42.840893
685.000000	42.791089
684.000000	42.749095
683.000000	42.705686
682.000000	42.663395
681.000000	42.626389
680.000000	42.555091
679.000000	42.510964
678.000000	42.465083
677.000000	42.374200
676.000000	42.297526
675.000000	42.304337
674.000000	42.238462
673.000000	42.189468
672.000000	42.137105
671.000000	42.075582
670.000000	42.000142
669.000000	41.988519
668.000000	41.951595
667.000000	41.876670
666.000000	41.824738
665.000000	41.743360
664.000000	41.668887
663.000000	41.622541
662.000000	41.597116
661.000000	41.519440
660.000000	41.478628
659.000000	41.433241
658.000000	41.352649
657.000000	41.286291
656.000000	41.231515
655.000000	41.199125
654.000000	41.111005
653.000000	41.022418
652.000000	40.937906
651.000000	40.921411
650.000000	40.871209
649.000000	40.835625
648.000000	40.758801
647.000000	40.693720
646.000000	40.625809
645.000000	40.543219
644.000000	40.505599
643.000000	40.424581
642.000000	40.374451
641.000000	40.326707
640.000000	40.289136
639.000000	40.201099
638.000000	40.137056
637.000000	40.083386
636.000000	40.039884
635.000000	39.985949
634.000000	39.902959
633.000000	39.790211
632.000000	39.731754
631.000000	39.725462
630.000000	39.647937
629.000000	39.549578
628.000000	39.463491
627.000000	39.431536
626.000000	39.325302
625.000000	39.250720
624.000000	39.238507
623.000000	39.184377
622.000000	39.078662
621.000000	39.005943
620.000000	38.966751
619.000000	38.885152
618.000000	38.824883
617.000000	38.735939
616.000000	38.679607
615.000000	38.579258
614.000000	38.506959
613.000000	38.423490
612.000000	38.348233
611.000000	38.288325
610.000000	38.238048
609.000000	38.157231
608.000000	38.051099
607.000000	38.007859
606.000000	37.928456
605.000000	37.807674
604.000000	37.753328
603.000000	37.684089
602.000000	37.613246
601.000000	37.507395
600.000000	37.520633
599.000000	37.377739
598.000000	37.328203
597.000000	37.253370
596.000000	37.134443
595.000000	37.079725
594.000000	36.986278
593.000000	36.910383
592.000000	36.848192
591.000000	36.746852
590.000000	36.671534
589.000000	36.601223
588.000000	36.535673
587.000000	36.416787
586.000000	36.350651
585.000000	36.284882
584.000000	36.148422
583.000000	36.090181
582.000000	36.031679
581.000000	35.905197
580.000000	35.818630
579.000000	35.739692
578.000000	35.668638
577.000000	35.526984
576.000000	35.491709
575.000000	35.396047
574.000000	35.259921
573.000000	35.217622
572.000000	35.157246
571.000000	35.030841
570.000000	34.897525
569.000000	34.851939
568.000000	34.737522
567.000000	34.687793
566.000000	34.587130
565.000000	34.477856
564.000000	34.418661
563.000000	34.280368
562.000000	34.180087
561.000000	34.082721
560.000000	34.000767
559.000000	33.940834
558.000000	33.836548
557.000000	33.738246
556.000000	33.619742
555.000000	33.509823
554.000000	33.414834
553.000000	33.335045
552.000000	33.225044
551.000000	33.103645
550.000000	33.029116
549.000000	32.961615
548.000000	32.831651
547.000000	32.729194
546.000000	32.606124
545.000000	32.533887
544.000000	32.425418
543.000000	32.299309
542.000000	32.181804
541.000000	32.109748
540.000000	31.974504
539.000000	31.886868
538.000000	31.786046
537.000000	31.682151
536.000000	31.565947
535.000000	31.460427
534.000000	31.345975
533.000000	31.238380
532.000000	31.120335
531.000000	31.028255
530.000000	30.915305
529.000000	30.814349
528.000000	30.681300
527.000000	30.568352
526.000000	30.447865
525.000000	30.329352
524.000000	30.216773
523.000000	30.130294
522.000000	30.015587
521.000000	29.918270
520.000000	29.805529
519.000000	29.697704
518.000000	29.576892
517.000000	29.484130
516.000000	29.358243
515.000000	29.246618
514.000000	29.162183
513.000000	29.064949
512.000000	28.933345
511.000000	28.824434
510.000000	28.733903
509.000000	28.622404
508.000000	28.517434
507.000000	28.401742
506.000000	28.280266
505.000000	28.186054
504.000000	28.074683
503.000000	27.981441
502.000000	27.870376
501.000000	27.756468
500.000000	27.639711
499.000000	27.524083
498.000000	27.393709
497.000000	27.294283
496.000000	27.196930
495.000000	27.071091
494.000000	26.938608
493.000000	26.809761
492.000000	26.716766
491.000000	26.601566
490.000000	26.465338
489.000000	26.355176
488.000000	26.242901
487.000000	26.124266
486.000000	26.005190
485.000000	25.876018
484.000000	25.759657
483.000000	25.642595
482.000000	25.497224
481.000000	25.425439
480.000000	25.353857
479.000000	25.283763
478.000000	25.175116
477.000000	25.062219
476.000000	24.970234
475.000000	24.859755
474.000000	24.750346
473.000000	24.659349
472.000000	24.554240
471.000000	24.455001
470.000000	24.366226
469.000000	24.270805
468.000000	24.161189
467.000000	24.052844
466.000000	23.954671
465.000000	23.868075
464.000000	23.763554
463.000000	23.659912
462.000000	23.542603
461.000000	23.425196
460.000000	23.306577
459.000000	23.179836
458.000000	23.067609
457.000000	22.971578
456.000000	22.863458
455.000000	22.740421
454.000000	22.617267
453.000000	22.495395
452.000000	22.365369
451.000000	22.237636
450.000000	22.121222
449.000000	22.012981
448.000000	21.883178
447.000000	21.748615
446.000000	21.625235
445.000000	21.477766
444.000000	21.380424
443.000000	21.270146
442.000000	21.143411
441.000000	21.012182
440.000000	20.888079
439.000000	20.778441
438.000000	20.653063
437.000000	20.500319
436.000000	20.372397
435.000000	20.246395
434.000000	20.116868
433.000000	20.002057
432.000000	19.872230
431.000000	19.751069
430.000000	19.625295
429.000000	19.481289
428.000000	19.358673
427.000000	19.226815
426.000000	19.089154
425.000000	18.968788
424.000000	18.827512
423.000000	18.696906
422.000000	18.566245
421.000000	18.454973
420.000000	18.353683
419.000000	18.224860
418.000000	18.081420
417.000000	17.933204
416.000000	17.809052
415.000000	17.679954
414.000000	17.552754
413.000000	17.422050
412.000000	17.291600
411.000000	17.163885
410.000000	17.030348
409.000000	16.920114
408.000000	16.777938
407.000000	16.669676
406.000000	16.571794
405.000000	16.450690
404.000000	16.326043
403.000000	16.213730
402.000000	16.108432
401.000000	15.976653
400.000000	15.866150
399.000000	15.783405
398.000000	15.652270
397.000000	15.525812
396.000000	15.432956
395.000000	15.315635
394.000000	15.217087
393.000000	15.088423
392.000000	14.975303
391.000000	14.877811
390.000000	14.790397
389.000000	14.680511
388.000000	14.583029
387.000000	14.462507
386.000000	14.369756
385.000000	14.270580
384.000000	14.127218
383.000000	14.026677
382.000000	13.937851
381.000000	13.840364
380.000000	13.709020
379.000000	13.624965
378.000000	13.456014
377.000000	13.451613
376.000000	13.321612
375.000000	13.226062
374.000000	13.106474
373.000000	13.091983
372.000000	12.992981
371.000000	12.871219
370.000000	12.783083
369.000000	12.736698
368.000000	12.677114
367.000000	12.536043
366.000000	12.539226
365.000000	12.409912
364.000000	12.351832
363.000000	12.289675
362.000000	12.188652
361.000000	12.172383
360.000000	12.084760
359.000000	12.001950
358.000000	11.980964
357.000000	11.887325
356.000000	11.866177
355.000000	11.775056
354.000000	11.703007
353.000000	11.643319
352.000000	11.614507
351.000000	11.560158
350.000000	11.503698
349.000000	11.375372
348.000000	11.379301
347.000000	11.339061
346.000000	11.250548
345.000000	11.228991
344.000000	11.172637
343.000000	11.065164
342.000000	11.063693
341.000000	11.022008
340.000000	10.869711
339.000000	10.853945
338.000000	10.863591
337.000000	10.724598
336.000000	10.708227
335.000000	10.607302
334.000000	10.557582
333.000000	10.497370
332.000000	10.533718
331.000000	10.436753
330.000000	10.373910
329.000000	10.302000
328.000000	10.256410
327.000000	10.205196
326.000000	10.150483
325.000000	10.143678
324.000000	10.120847
323.000000	9.963338
322.000000	10.045395
321.000000	9.964651
320.000000	10.044375
319.000000	9.870832
318.000000	9.772447
317.000000	9.776582
316.000000	9.772499
315.000000	9.731619
314.000000	9.809524
313.000000	9.687943
312.000000	9.616388
311.000000	9.642322
310.000000	9.624472
309.000000	9.588962
308.000000	9.583811
307.000000	9.600724
306.000000	9.599711
305.000000	9.543828
304.000000	9.562518
303.000000	9.530416
302.000000	9.527085
301.000000	9.587135
300.000000	9.586773
299.000000	9.545243
298.000000	9.462235
297.000000	9.525003
296.000000	9.561751
295.000000	9.495627
294.000000	9.541619
293.000000	9.508473
292.000000	9.492318
291.000000	9.478778
290.000000	9.473734
289.000000	9.487771
288.000000	9.419039
287.000000	9.487656
286.000000	9.507652
285.000000	9.456135
284.000000	9.525721
283.000000	9.508390
282.000000	9.522110
281.000000	9.517294
280.000000	9.582820
279.000000	9.587680
278.000000	9.619312
277.000000	9.676532
276.000000	9.732327
275.000000	9.731657
274.000000	9.787230
273.000000	9.811337
272.000000	9.850757
271.000000	9.921232
270.000000	9.973842
269.000000	9.966192
268.000000	10.003833
267.000000	10.061152
266.000000	10.127723
265.000000	10.184928
264.000000	10.230208
263.000000	10.268806
262.000000	10.374251
261.000000	10.463562
260.000000	10.547513
259.000000	10.627562
258.000000	10.684801
257.000000	10.810139
256.000000	10.902169
255.000000	10.972994
254.000000	11.074865
253.000000	11.189304
252.000000	11.281150
251.000000	11.386524
250.000000	11.461584
249.000000	11.581151
248.000000	11.676585
247.000000	11.772565
246.000000	11.840226
245.000000	11.904923
244.000000	12.031619
243.000000	12.144151
242.000000	12.156853
241.000000	12.171965
240.000000	12.205975
239.000000	12.229149
238.000000	12.255174
237.000000	12.261931
236.000000	12.318077
235.000000	12.309957
234.000000	12.282236
233.000000	12.333804
232.000000	12.320308
231.000000	12.287066
230.000000	12.278258
229.000000	12.303355
228.000000	12.287017
227.000000	12.319209
226.000000	12.337233
225.000000	12.279309
224.000000	12.268885
223.000000	12.363390
222.000000	12.399515
221.000000	12.420067
220.000000	12.527297
219.000000	12.631395
218.000000	12.688002
217.000000	12.782246
216.000000	12.866403
215.000000	12.928071
214.000000	13.128998
213.000000	13.256287
212.000000	13.383874
211.000000	13.619402
210.000000	13.838828
209.000000	14.082177
208.000000	14.291284
207.000000	14.496600
206.000000	14.818346
205.000000	15.288156
204.000000	15.640108
203.000000	15.900537
202.000000	16.379680
201.000000	16.803890
200.000000	17.496235
