PE UV       SUBTECH     SPECTRUM    ASCII       PEDS        4.00        
   -1
RTms148362.Sample.asc
18/03/20
10:36:43.00
18/03/20
10:36:43.00
Administrator

200.000000
1
Lambda 750
750N8071901
PerkinElmer UV WinLab 6.0.4.0738 / 1.61.00 Lambda 900

0
0
3350/servo 860.8/2
0
0
UV/VIS
1
1
1
CommonBeamDepol,150mm sphere / downward view
0
0
0
0
Program
Program
3350/servo 860.8/2
3350/0.2 860.8/0.2
3350/0.2 860.8/0.2
0
1
 
 
 
0
 
860.8
319.2
860.8
Front
100
on
 
 
0
0
0
 
0
 
 
 
0
 
 
0
0
0
0
0
 
 
 
 
0
0


0
0
#HDR
-1
-1
#GR
nm
%R
1.0
0.0
2350.000000
-1.000000
2151
8
57.535741
9.546286
#DATA
2350.000000	29.608430
2349.000000	29.727702
2348.000000	29.258732
2347.000000	30.045727
2346.000000	29.668213
2345.000000	29.615053
2344.000000	29.548967
2343.000000	29.458430
2342.000000	29.678609
2341.000000	29.717001
2340.000000	29.604298
2339.000000	29.541912
2338.000000	29.869972
2337.000000	29.845764
2336.000000	29.960708
2335.000000	30.303736
2334.000000	30.200622
2333.000000	30.301190
2332.000000	30.591758
2331.000000	30.308511
2330.000000	30.375474
2329.000000	30.295824
2328.000000	30.144468
2327.000000	29.627492
2326.000000	30.042420
2325.000000	30.260536
2324.000000	29.988837
2323.000000	29.827392
2322.000000	29.918135
2321.000000	29.839406
2320.000000	29.776007
2319.000000	29.705639
2318.000000	29.678579
2317.000000	29.725339
2316.000000	29.619901
2315.000000	29.231888
2314.000000	29.378951
2313.000000	29.559765
2312.000000	29.265236
2311.000000	29.400102
2310.000000	29.349778
2309.000000	29.089249
2308.000000	28.699144
2307.000000	28.901060
2306.000000	28.939699
2305.000000	28.898766
2304.000000	28.913603
2303.000000	28.839481
2302.000000	28.875208
2301.000000	28.830006
2300.000000	28.540692
2299.000000	28.574993
2298.000000	28.563217
2297.000000	28.499778
2296.000000	28.636169
2295.000000	28.444149
2294.000000	28.243672
2293.000000	28.359082
2292.000000	28.332061
2291.000000	28.470124
2290.000000	28.447590
2289.000000	28.275501
2288.000000	28.290971
2287.000000	28.198165
2286.000000	28.169030
2285.000000	28.234966
2284.000000	28.089275
2283.000000	27.969926
2282.000000	28.216958
2281.000000	28.391430
2280.000000	28.386495
2279.000000	28.435609
2278.000000	28.336167
2277.000000	28.268063
2276.000000	28.228454
2275.000000	28.318933
2274.000000	28.682529
2273.000000	28.701794
2272.000000	28.650618
2271.000000	28.607773
2270.000000	28.597580
2269.000000	28.708715
2268.000000	28.724004
2267.000000	28.813631
2266.000000	29.132206
2265.000000	29.255130
2264.000000	29.210724
2263.000000	29.282453
2262.000000	29.482334
2261.000000	29.643316
2260.000000	29.714575
2259.000000	29.912252
2258.000000	30.114140
2257.000000	30.259410
2256.000000	30.419528
2255.000000	30.479087
2254.000000	30.608885
2253.000000	30.882630
2252.000000	31.072199
2251.000000	31.272864
2250.000000	31.479687
2249.000000	31.607967
2248.000000	31.692721
2247.000000	31.897647
2246.000000	32.242073
2245.000000	32.454778
2244.000000	32.587126
2243.000000	32.706621
2242.000000	32.853722
2241.000000	32.869671
2240.000000	32.888000
2239.000000	33.100522
2238.000000	33.213291
2237.000000	33.344858
2236.000000	33.477756
2235.000000	33.617164
2234.000000	33.646714
2233.000000	33.662199
2232.000000	33.799732
2231.000000	33.919835
2230.000000	33.862599
2229.000000	33.797661
2228.000000	33.965749
2227.000000	34.062711
2226.000000	33.927363
2225.000000	33.859288
2224.000000	33.994912
2223.000000	33.949639
2222.000000	34.013812
2221.000000	33.981685
2220.000000	33.853453
2219.000000	33.837844
2218.000000	33.787019
2217.000000	33.722913
2216.000000	33.862837
2215.000000	33.758449
2214.000000	33.742122
2213.000000	33.651322
2212.000000	33.615835
2211.000000	33.511544
2210.000000	33.470439
2209.000000	33.349642
2208.000000	33.360094
2207.000000	33.413659
2206.000000	33.368963
2205.000000	33.295895
2204.000000	33.307093
2203.000000	33.176669
2202.000000	33.117975
2201.000000	32.997003
2200.000000	33.017116
2199.000000	32.965538
2198.000000	32.908997
2197.000000	32.915214
2196.000000	32.755827
2195.000000	32.704685
2194.000000	32.585400
2193.000000	32.427552
2192.000000	32.497656
2191.000000	32.437806
2190.000000	32.455002
2189.000000	32.459024
2188.000000	32.341094
2187.000000	32.347436
2186.000000	32.234006
2185.000000	32.135580
2184.000000	32.234901
2183.000000	32.419674
2182.000000	32.162950
2181.000000	32.217965
2180.000000	32.147735
2179.000000	32.020258
2178.000000	32.150139
2177.000000	32.112097
2176.000000	32.043599
2175.000000	32.192749
2174.000000	32.152518
2173.000000	32.084668
2172.000000	32.254783
2171.000000	32.272272
2170.000000	32.404022
2169.000000	32.385412
2168.000000	32.664721
2167.000000	32.591137
2166.000000	32.621915
2165.000000	32.765449
2164.000000	32.788797
2163.000000	32.761519
2162.000000	33.054232
2161.000000	33.092453
2160.000000	33.065613
2159.000000	33.374301
2158.000000	33.382846
2157.000000	33.502907
2156.000000	33.638294
2155.000000	33.636778
2154.000000	33.961625
2153.000000	34.103226
2152.000000	34.245655
2151.000000	34.325796
2150.000000	34.358942
2149.000000	34.468082
2148.000000	34.593389
2147.000000	34.965398
2146.000000	34.935296
2145.000000	35.075253
2144.000000	34.958693
2143.000000	35.096036
2142.000000	35.306129
2141.000000	35.335920
2140.000000	35.667965
2139.000000	35.562983
2138.000000	35.788292
2137.000000	35.930332
2136.000000	35.771496
2135.000000	35.964540
2134.000000	36.055469
2133.000000	36.015611
2132.000000	36.143200
2131.000000	36.283315
2130.000000	36.434047
2129.000000	36.373861
2128.000000	36.520343
2127.000000	36.500913
2126.000000	36.519386
2125.000000	36.653623
2124.000000	36.689972
2123.000000	36.607236
2122.000000	36.694809
2121.000000	36.667932
2120.000000	36.713575
2119.000000	36.824680
2118.000000	36.911873
2117.000000	36.841750
2116.000000	36.830927
2115.000000	37.053211
2114.000000	36.995129
2113.000000	37.028042
2112.000000	37.050697
2111.000000	36.927748
2110.000000	36.929370
2109.000000	36.892190
2108.000000	37.038005
2107.000000	36.925390
2106.000000	37.118068
2105.000000	37.075125
2104.000000	37.129504
2103.000000	37.136754
2102.000000	37.119802
2101.000000	37.107598
2100.000000	37.248959
2099.000000	37.218300
2098.000000	37.092631
2097.000000	37.147729
2096.000000	37.081448
2095.000000	37.119556
2094.000000	37.159331
2093.000000	37.086300
2092.000000	37.132542
2091.000000	37.151917
2090.000000	37.005824
2089.000000	37.087162
2088.000000	37.059543
2087.000000	36.991086
2086.000000	37.033574
2085.000000	36.945733
2084.000000	36.870454
2083.000000	36.872463
2082.000000	36.839670
2081.000000	36.762684
2080.000000	36.714561
2079.000000	36.712904
2078.000000	36.612092
2077.000000	36.478855
2076.000000	36.425685
2075.000000	36.254371
2074.000000	36.158053
2073.000000	36.115392
2072.000000	36.077088
2071.000000	35.984981
2070.000000	35.905782
2069.000000	35.796374
2068.000000	35.684766
2067.000000	35.519372
2066.000000	35.428985
2065.000000	35.333453
2064.000000	35.251979
2063.000000	35.130905
2062.000000	35.023326
2061.000000	34.889404
2060.000000	34.762242
2059.000000	34.679699
2058.000000	34.539318
2057.000000	34.423971
2056.000000	34.350473
2055.000000	34.203856
2054.000000	34.040041
2053.000000	33.938302
2052.000000	33.818912
2051.000000	33.689455
2050.000000	33.643780
2049.000000	33.568560
2048.000000	33.501910
2047.000000	33.445202
2046.000000	33.388154
2045.000000	33.325668
2044.000000	33.244198
2043.000000	33.293171
2042.000000	33.353912
2041.000000	33.339854
2040.000000	33.336881
2039.000000	33.354998
2038.000000	33.388296
2037.000000	33.420543
2036.000000	33.516740
2035.000000	33.596061
2034.000000	33.647162
2033.000000	33.699175
2032.000000	33.792098
2031.000000	33.893710
2030.000000	33.962565
2029.000000	34.055960
2028.000000	34.189915
2027.000000	34.291877
2026.000000	34.365168
2025.000000	34.451759
2024.000000	34.508742
2023.000000	34.551263
2022.000000	34.594482
2021.000000	34.604671
2020.000000	34.662787
2019.000000	34.751836
2018.000000	34.757564
2017.000000	34.765749
2016.000000	34.753596
2015.000000	34.710239
2014.000000	34.721943
2013.000000	34.718056
2012.000000	34.696126
2011.000000	34.658970
2010.000000	34.616873
2009.000000	34.562455
2008.000000	34.531372
2007.000000	34.460228
2006.000000	34.379076
2005.000000	34.317851
2004.000000	34.219048
2003.000000	34.113052
2002.000000	34.061413
2001.000000	33.994550
2000.000000	33.931305
1999.000000	33.873121
1998.000000	33.762677
1997.000000	33.669717
1996.000000	33.595037
1995.000000	33.545397
1994.000000	33.450722
1993.000000	33.356409
1992.000000	33.259959
1991.000000	33.164880
1990.000000	33.100732
1989.000000	32.998193
1988.000000	32.880820
1987.000000	32.858356
1986.000000	32.746438
1985.000000	32.613333
1984.000000	32.514176
1983.000000	32.431257
1982.000000	32.349763
1981.000000	32.287349
1980.000000	32.226262
1979.000000	32.095132
1978.000000	32.002079
1977.000000	31.898502
1976.000000	31.806512
1975.000000	31.772024
1974.000000	31.679602
1973.000000	31.604881
1972.000000	31.519554
1971.000000	31.450056
1970.000000	31.328891
1969.000000	31.278009
1968.000000	31.191910
1967.000000	31.100471
1966.000000	31.034465
1965.000000	30.943369
1964.000000	30.848666
1963.000000	30.806930
1962.000000	30.686345
1961.000000	30.581410
1960.000000	30.539947
1959.000000	30.406355
1958.000000	30.368741
1957.000000	30.364162
1956.000000	30.215501
1955.000000	30.170102
1954.000000	30.163939
1953.000000	30.111779
1952.000000	30.044473
1951.000000	30.056187
1950.000000	29.966135
1949.000000	29.907041
1948.000000	29.921054
1947.000000	29.889049
1946.000000	29.876681
1945.000000	29.894318
1944.000000	29.868043
1943.000000	29.940819
1942.000000	29.922817
1941.000000	29.991079
1940.000000	29.997267
1939.000000	30.120887
1938.000000	30.122909
1937.000000	30.168109
1936.000000	30.310121
1935.000000	30.341460
1934.000000	30.434659
1933.000000	30.555547
1932.000000	30.674861
1931.000000	30.783095
1930.000000	30.883134
1929.000000	31.123035
1928.000000	31.272971
1927.000000	31.472383
1926.000000	31.641317
1925.000000	31.824947
1924.000000	31.998523
1923.000000	32.191570
1922.000000	32.441945
1921.000000	32.832394
1920.000000	32.864384
1919.000000	33.167586
1918.000000	33.478641
1917.000000	33.777250
1916.000000	33.911044
1915.000000	34.314051
1914.000000	34.644760
1913.000000	34.969376
1912.000000	35.268494
1911.000000	35.531098
1910.000000	35.873955
1909.000000	36.215390
1908.000000	36.675882
1907.000000	36.957233
1906.000000	37.294613
1905.000000	37.675721
1904.000000	38.024027
1903.000000	38.424690
1902.000000	38.809600
1901.000000	39.181209
1900.000000	39.591408
1899.000000	40.090179
1898.000000	40.438686
1897.000000	40.821863
1896.000000	41.145350
1895.000000	41.511924
1894.000000	41.903858
1893.000000	42.280396
1892.000000	42.640959
1891.000000	43.030862
1890.000000	43.352686
1889.000000	43.697470
1888.000000	44.008126
1887.000000	44.278240
1886.000000	44.599160
1885.000000	44.863640
1884.000000	45.147196
1883.000000	45.461011
1882.000000	45.645768
1881.000000	45.895133
1880.000000	46.140675
1879.000000	46.343316
1878.000000	46.514229
1877.000000	46.739913
1876.000000	46.916671
1875.000000	47.088715
1874.000000	47.205202
1873.000000	47.341081
1872.000000	47.485157
1871.000000	47.615597
1870.000000	47.700654
1869.000000	47.788692
1868.000000	47.879844
1867.000000	47.918329
1866.000000	47.972147
1865.000000	48.038502
1864.000000	48.074392
1863.000000	48.156509
1862.000000	48.196882
1861.000000	48.220644
1860.000000	48.271318
1859.000000	48.316460
1858.000000	48.361991
1857.000000	48.372893
1856.000000	48.427660
1855.000000	48.466533
1854.000000	48.486625
1853.000000	48.491947
1852.000000	48.483337
1851.000000	48.495819
1850.000000	48.510876
1849.000000	48.502970
1848.000000	48.512117
1847.000000	48.536736
1846.000000	48.547509
1845.000000	48.528969
1844.000000	48.515875
1843.000000	48.452056
1842.000000	48.434616
1841.000000	48.403433
1840.000000	48.380260
1839.000000	48.393200
1838.000000	48.378725
1837.000000	48.348158
1836.000000	48.319153
1835.000000	48.299325
1834.000000	48.263022
1833.000000	48.248182
1832.000000	48.209934
1831.000000	48.170258
1830.000000	48.161808
1829.000000	48.123541
1828.000000	48.092010
1827.000000	48.085636
1826.000000	48.065106
1825.000000	48.018881
1824.000000	48.019615
1823.000000	48.004960
1822.000000	47.967939
1821.000000	47.965214
1820.000000	47.963662
1819.000000	47.925640
1818.000000	47.911508
1817.000000	47.896206
1816.000000	47.866722
1815.000000	47.868180
1814.000000	47.852927
1813.000000	47.829887
1812.000000	47.810706
1811.000000	47.796652
1810.000000	47.813608
1809.000000	47.820341
1808.000000	47.785387
1807.000000	47.733702
1806.000000	47.729311
1805.000000	47.745086
1804.000000	47.723175
1803.000000	47.702188
1802.000000	47.681115
1801.000000	47.665572
1800.000000	47.661654
1799.000000	47.653849
1798.000000	47.639223
1797.000000	47.631288
1796.000000	47.624906
1795.000000	47.621270
1794.000000	47.615852
1793.000000	47.618113
1792.000000	47.615565
1791.000000	47.613584
1790.000000	47.610882
1789.000000	47.606445
1788.000000	47.597227
1787.000000	47.587456
1786.000000	47.571228
1785.000000	47.542249
1784.000000	47.541097
1783.000000	47.537720
1782.000000	47.513781
1781.000000	47.487206
1780.000000	47.461183
1779.000000	47.451451
1778.000000	47.412699
1777.000000	47.361800
1776.000000	47.326849
1775.000000	47.276707
1774.000000	47.234644
1773.000000	47.219541
1772.000000	47.169905
1771.000000	47.118155
1770.000000	47.090129
1769.000000	47.044604
1768.000000	46.999938
1767.000000	46.978868
1766.000000	46.955598
1765.000000	46.902585
1764.000000	46.885875
1763.000000	46.844649
1762.000000	46.793563
1761.000000	46.753556
1760.000000	46.715037
1759.000000	46.704348
1758.000000	46.673740
1757.000000	46.626436
1756.000000	46.603135
1755.000000	46.591353
1754.000000	46.557235
1753.000000	46.520619
1752.000000	46.493343
1751.000000	46.481948
1750.000000	46.430035
1749.000000	46.409630
1748.000000	46.358916
1747.000000	46.330229
1746.000000	46.305165
1745.000000	46.242946
1744.000000	46.200768
1743.000000	46.167939
1742.000000	46.107020
1741.000000	46.072967
1740.000000	46.008790
1739.000000	45.972055
1738.000000	45.969594
1737.000000	45.924261
1736.000000	45.884197
1735.000000	45.883188
1734.000000	45.873932
1733.000000	45.879873
1732.000000	45.874587
1731.000000	45.889906
1730.000000	45.871832
1729.000000	45.895892
1728.000000	45.967630
1727.000000	45.952171
1726.000000	46.012518
1725.000000	46.053545
1724.000000	46.116508
1723.000000	46.171628
1722.000000	46.255559
1721.000000	46.325360
1720.000000	46.368110
1719.000000	46.512198
1718.000000	46.519146
1717.000000	46.582660
1716.000000	46.682599
1715.000000	46.741215
1714.000000	46.815000
1713.000000	46.856227
1712.000000	46.919381
1711.000000	46.987523
1710.000000	47.020757
1709.000000	47.073477
1708.000000	47.128160
1707.000000	47.174670
1706.000000	47.217207
1705.000000	47.221177
1704.000000	47.285871
1703.000000	47.271176
1702.000000	47.305987
1701.000000	47.342933
1700.000000	47.353595
1699.000000	47.370898
1698.000000	47.409354
1697.000000	47.463348
1696.000000	47.471161
1695.000000	47.518019
1694.000000	47.548574
1693.000000	47.595499
1692.000000	47.602668
1691.000000	47.667518
1690.000000	47.735509
1689.000000	47.819549
1688.000000	47.867150
1687.000000	47.942503
1686.000000	48.000512
1685.000000	48.107809
1684.000000	48.203471
1683.000000	48.330380
1682.000000	48.438007
1681.000000	48.537064
1680.000000	48.630529
1679.000000	48.748624
1678.000000	48.842912
1677.000000	48.932011
1676.000000	49.075034
1675.000000	49.203344
1674.000000	49.257596
1673.000000	49.367100
1672.000000	49.510765
1671.000000	49.598517
1670.000000	49.701149
1669.000000	49.829921
1668.000000	49.884592
1667.000000	49.970232
1666.000000	50.037188
1665.000000	50.083714
1664.000000	50.138935
1663.000000	50.179632
1662.000000	50.267958
1661.000000	50.281238
1660.000000	50.321981
1659.000000	50.387001
1658.000000	50.415749
1657.000000	50.440288
1656.000000	50.466784
1655.000000	50.489874
1654.000000	50.512921
1653.000000	50.531610
1652.000000	50.544853
1651.000000	50.521054
1650.000000	50.544016
1649.000000	50.555405
1648.000000	50.515439
1647.000000	50.521818
1646.000000	50.512062
1645.000000	50.511777
1644.000000	50.497184
1643.000000	50.504520
1642.000000	50.494271
1641.000000	50.467500
1640.000000	50.452314
1639.000000	50.442563
1638.000000	50.430533
1637.000000	50.408891
1636.000000	50.389935
1635.000000	50.393425
1634.000000	50.369724
1633.000000	50.337171
1632.000000	50.334906
1631.000000	50.317418
1630.000000	50.288878
1629.000000	50.246793
1628.000000	50.246648
1627.000000	50.223899
1626.000000	50.196058
1625.000000	50.173447
1624.000000	50.158969
1623.000000	50.133569
1622.000000	50.114522
1621.000000	50.087354
1620.000000	50.080706
1619.000000	50.047489
1618.000000	50.014273
1617.000000	49.995123
1616.000000	49.980646
1615.000000	49.957485
1614.000000	49.917510
1613.000000	49.890493
1612.000000	49.845653
1611.000000	49.815436
1610.000000	49.793812
1609.000000	49.756671
1608.000000	49.733164
1607.000000	49.710598
1606.000000	49.663557
1605.000000	49.631450
1604.000000	49.603212
1603.000000	49.567715
1602.000000	49.554634
1601.000000	49.528219
1600.000000	49.489749
1599.000000	49.464612
1598.000000	49.434423
1597.000000	49.405471
1596.000000	49.375681
1595.000000	49.356079
1594.000000	49.332576
1593.000000	49.299602
1592.000000	49.270262
1591.000000	49.242010
1590.000000	49.216276
1589.000000	49.186993
1588.000000	49.162117
1587.000000	49.155903
1586.000000	49.129563
1585.000000	49.098290
1584.000000	49.092128
1583.000000	49.068292
1582.000000	49.028459
1581.000000	49.001589
1580.000000	48.978151
1579.000000	48.947701
1578.000000	48.936922
1577.000000	48.914275
1576.000000	48.886417
1575.000000	48.861721
1574.000000	48.820619
1573.000000	48.804798
1572.000000	48.787992
1571.000000	48.763755
1570.000000	48.739003
1569.000000	48.721285
1568.000000	48.700938
1567.000000	48.662146
1566.000000	48.647057
1565.000000	48.634480
1564.000000	48.607508
1563.000000	48.603821
1562.000000	48.578610
1561.000000	48.565489
1560.000000	48.549465
1559.000000	48.531769
1558.000000	48.531305
1557.000000	48.511290
1556.000000	48.490802
1555.000000	48.492695
1554.000000	48.479216
1553.000000	48.450616
1552.000000	48.425357
1551.000000	48.409996
1550.000000	48.398397
1549.000000	48.373181
1548.000000	48.352810
1547.000000	48.321901
1546.000000	48.278474
1545.000000	48.245667
1544.000000	48.188719
1543.000000	48.148566
1542.000000	48.110862
1541.000000	48.039636
1540.000000	48.002181
1539.000000	47.951501
1538.000000	47.898832
1537.000000	47.846297
1536.000000	47.800659
1535.000000	47.736484
1534.000000	47.690327
1533.000000	47.649165
1532.000000	47.594178
1531.000000	47.527306
1530.000000	47.478714
1529.000000	47.438363
1528.000000	47.400875
1527.000000	47.370693
1526.000000	47.310505
1525.000000	47.276565
1524.000000	47.243582
1523.000000	47.215663
1522.000000	47.175557
1521.000000	47.151088
1520.000000	47.113303
1519.000000	47.096231
1518.000000	47.076005
1517.000000	47.056906
1516.000000	47.017227
1515.000000	47.023736
1514.000000	46.991394
1513.000000	46.975069
1512.000000	46.966055
1511.000000	46.984268
1510.000000	47.001446
1509.000000	47.035903
1508.000000	47.039252
1507.000000	47.024787
1506.000000	46.991855
1505.000000	46.982383
1504.000000	46.972656
1503.000000	46.957559
1502.000000	46.940129
1501.000000	46.923636
1500.000000	46.916839
1499.000000	46.944250
1498.000000	46.940635
1497.000000	46.949463
1496.000000	46.956535
1495.000000	46.966014
1494.000000	46.978691
1493.000000	46.997161
1492.000000	47.019253
1491.000000	47.048675
1490.000000	47.057760
1489.000000	47.107342
1488.000000	47.112585
1487.000000	47.145061
1486.000000	47.165148
1485.000000	47.208826
1484.000000	47.242869
1483.000000	47.278971
1482.000000	47.300907
1481.000000	47.355928
1480.000000	47.374875
1479.000000	47.416310
1478.000000	47.462537
1477.000000	47.475759
1476.000000	47.524578
1475.000000	47.544123
1474.000000	47.574982
1473.000000	47.622074
1472.000000	47.655249
1471.000000	47.676920
1470.000000	47.709381
1469.000000	47.737468
1468.000000	47.780385
1467.000000	47.835042
1466.000000	47.863956
1465.000000	47.900643
1464.000000	47.905812
1463.000000	47.929505
1462.000000	47.972810
1461.000000	48.015226
1460.000000	48.064723
1459.000000	48.073323
1458.000000	48.137770
1457.000000	48.173827
1456.000000	48.185102
1455.000000	48.241834
1454.000000	48.269904
1453.000000	48.313748
1452.000000	48.376556
1451.000000	48.412692
1450.000000	48.447027
1449.000000	48.487878
1448.000000	48.532198
1447.000000	48.590875
1446.000000	48.634732
1445.000000	48.677688
1444.000000	48.740259
1443.000000	48.785697
1442.000000	48.847037
1441.000000	48.925747
1440.000000	48.978786
1439.000000	49.027087
1438.000000	49.075013
1437.000000	49.138038
1436.000000	49.214156
1435.000000	49.282564
1434.000000	49.335499
1433.000000	49.404166
1432.000000	49.464137
1431.000000	49.545376
1430.000000	49.622884
1429.000000	49.711573
1428.000000	49.796350
1427.000000	49.880754
1426.000000	49.965041
1425.000000	50.060931
1424.000000	50.158178
1423.000000	50.248812
1422.000000	50.347048
1421.000000	50.433516
1420.000000	50.542555
1419.000000	50.659793
1418.000000	50.747648
1417.000000	50.832802
1416.000000	50.946892
1415.000000	51.062982
1414.000000	51.164830
1413.000000	51.251708
1412.000000	51.377441
1411.000000	51.493619
1410.000000	51.612511
1409.000000	51.701997
1408.000000	51.790280
1407.000000	51.896328
1406.000000	52.001394
1405.000000	52.107390
1404.000000	52.214652
1403.000000	52.319296
1402.000000	52.410702
1401.000000	52.494420
1400.000000	52.586285
1399.000000	52.685540
1398.000000	52.774761
1397.000000	52.860804
1396.000000	52.945504
1395.000000	53.018081
1394.000000	53.090556
1393.000000	53.170631
1392.000000	53.235776
1391.000000	53.304577
1390.000000	53.368042
1389.000000	53.434444
1388.000000	53.490461
1387.000000	53.550369
1386.000000	53.623927
1385.000000	53.704412
1384.000000	53.763875
1383.000000	53.806524
1382.000000	53.870565
1381.000000	53.920185
1380.000000	53.949349
1379.000000	53.989912
1378.000000	54.045409
1377.000000	54.099807
1376.000000	54.133243
1375.000000	54.169639
1374.000000	54.213148
1373.000000	54.236302
1372.000000	54.251073
1371.000000	54.283911
1370.000000	54.323152
1369.000000	54.362557
1368.000000	54.396164
1367.000000	54.430469
1366.000000	54.450092
1365.000000	54.457799
1364.000000	54.472175
1363.000000	54.497282
1362.000000	54.528178
1361.000000	54.555165
1360.000000	54.563747
1359.000000	54.583952
1358.000000	54.625745
1357.000000	54.659445
1356.000000	54.694721
1355.000000	54.718101
1354.000000	54.726080
1353.000000	54.766856
1352.000000	54.817380
1351.000000	54.836491
1350.000000	54.860197
1349.000000	54.890934
1348.000000	54.928861
1347.000000	54.963185
1346.000000	54.995720
1345.000000	55.021450
1344.000000	55.053861
1343.000000	55.074954
1342.000000	55.095580
1341.000000	55.144878
1340.000000	55.168693
1339.000000	55.182569
1338.000000	55.204327
1337.000000	55.206154
1336.000000	55.228195
1335.000000	55.240355
1334.000000	55.254392
1333.000000	55.283941
1332.000000	55.308453
1331.000000	55.328403
1330.000000	55.324183
1329.000000	55.332866
1328.000000	55.351867
1327.000000	55.393827
1326.000000	55.390468
1325.000000	55.395345
1324.000000	55.425057
1323.000000	55.448940
1322.000000	55.452594
1321.000000	55.479368
1320.000000	55.472904
1319.000000	55.455841
1318.000000	55.473598
1317.000000	55.501260
1316.000000	55.523265
1315.000000	55.547825
1314.000000	55.549345
1313.000000	55.524755
1312.000000	55.566079
1311.000000	55.589455
1310.000000	55.580384
1309.000000	55.604362
1308.000000	55.615568
1307.000000	55.639536
1306.000000	55.628906
1305.000000	55.641837
1304.000000	55.689004
1303.000000	55.697631
1302.000000	55.689122
1301.000000	55.671541
1300.000000	55.692918
1299.000000	55.688741
1298.000000	55.697072
1297.000000	55.703885
1296.000000	55.716493
1295.000000	55.721981
1294.000000	55.718190
1293.000000	55.726573
1292.000000	55.718541
1291.000000	55.721423
1290.000000	55.728266
1289.000000	55.723831
1288.000000	55.722251
1287.000000	55.732796
1286.000000	55.735614
1285.000000	55.736166
1284.000000	55.696183
1283.000000	55.703504
1282.000000	55.692497
1281.000000	55.704124
1280.000000	55.713080
1279.000000	55.721065
1278.000000	55.712649
1277.000000	55.708855
1276.000000	55.716308
1275.000000	55.708033
1274.000000	55.705685
1273.000000	55.722899
1272.000000	55.709217
1271.000000	55.711453
1270.000000	55.704711
1269.000000	55.707956
1268.000000	55.697247
1267.000000	55.702386
1266.000000	55.726918
1265.000000	55.720664
1264.000000	55.791948
1263.000000	55.779513
1262.000000	55.753496
1261.000000	55.762193
1260.000000	55.758530
1259.000000	55.806785
1258.000000	55.822315
1257.000000	55.802548
1256.000000	55.813772
1255.000000	55.831156
1254.000000	55.822213
1253.000000	55.815757
1252.000000	55.849210
1251.000000	55.829004
1250.000000	55.846044
1249.000000	55.844059
1248.000000	55.841584
1247.000000	55.847771
1246.000000	55.845304
1245.000000	55.851071
1244.000000	55.864522
1243.000000	55.842105
1242.000000	55.842771
1241.000000	55.838620
1240.000000	55.791001
1239.000000	55.796351
1238.000000	55.772243
1237.000000	55.776291
1236.000000	55.777337
1235.000000	55.759416
1234.000000	55.744723
1233.000000	55.728912
1232.000000	55.713642
1231.000000	55.693254
1230.000000	55.688143
1229.000000	55.686234
1228.000000	55.677470
1227.000000	55.625444
1226.000000	55.606149
1225.000000	55.599871
1224.000000	55.611660
1223.000000	55.607705
1222.000000	55.597745
1221.000000	55.570738
1220.000000	55.563729
1219.000000	55.558089
1218.000000	55.527299
1217.000000	55.528182
1216.000000	55.515185
1215.000000	55.486018
1214.000000	55.493933
1213.000000	55.522381
1212.000000	55.482475
1211.000000	55.475545
1210.000000	55.481316
1209.000000	55.465734
1208.000000	55.431843
1207.000000	55.454023
1206.000000	55.457673
1205.000000	55.432919
1204.000000	55.420683
1203.000000	55.433410
1202.000000	55.410019
1201.000000	55.411754
1200.000000	55.428497
1199.000000	55.418473
1198.000000	55.397695
1197.000000	55.381061
1196.000000	55.371857
1195.000000	55.359629
1194.000000	55.366566
1193.000000	55.365341
1192.000000	55.363577
1191.000000	55.365641
1190.000000	55.356392
1189.000000	55.344522
1188.000000	55.360011
1187.000000	55.354691
1186.000000	55.350047
1185.000000	55.354869
1184.000000	55.365053
1183.000000	55.374471
1182.000000	55.389601
1181.000000	55.406999
1180.000000	55.422647
1179.000000	55.447267
1178.000000	55.469290
1177.000000	55.489043
1176.000000	55.488656
1175.000000	55.490234
1174.000000	55.523238
1173.000000	55.557189
1172.000000	55.591713
1171.000000	55.625771
1170.000000	55.660857
1169.000000	55.689068
1168.000000	55.718366
1167.000000	55.762950
1166.000000	55.793635
1165.000000	55.834794
1164.000000	55.873893
1163.000000	55.901201
1162.000000	55.925784
1161.000000	55.962892
1160.000000	56.005268
1159.000000	56.037988
1158.000000	56.066884
1157.000000	56.098351
1156.000000	56.128506
1155.000000	56.150451
1154.000000	56.182170
1153.000000	56.217876
1152.000000	56.237347
1151.000000	56.251483
1150.000000	56.275146
1149.000000	56.301807
1148.000000	56.322857
1147.000000	56.325999
1146.000000	56.333596
1145.000000	56.357945
1144.000000	56.376063
1143.000000	56.399830
1142.000000	56.425909
1141.000000	56.451014
1140.000000	56.468945
1139.000000	56.487216
1138.000000	56.514569
1137.000000	56.539663
1136.000000	56.565263
1135.000000	56.574902
1134.000000	56.584266
1133.000000	56.606033
1132.000000	56.613614
1131.000000	56.608175
1130.000000	56.621150
1129.000000	56.636869
1128.000000	56.660825
1127.000000	56.665942
1126.000000	56.674337
1125.000000	56.688486
1124.000000	56.698908
1123.000000	56.720253
1122.000000	56.716765
1121.000000	56.739524
1120.000000	56.748845
1119.000000	56.746318
1118.000000	56.746956
1117.000000	56.756895
1116.000000	56.765739
1115.000000	56.770243
1114.000000	56.773505
1113.000000	56.778081
1112.000000	56.751759
1111.000000	56.757322
1110.000000	56.771544
1109.000000	56.756914
1108.000000	56.771678
1107.000000	56.790733
1106.000000	56.794545
1105.000000	56.792945
1104.000000	56.811728
1103.000000	56.819375
1102.000000	56.830663
1101.000000	56.828999
1100.000000	56.805486
1099.000000	56.799924
1098.000000	56.809405
1097.000000	56.818713
1096.000000	56.836667
1095.000000	56.835147
1094.000000	56.851630
1093.000000	56.861377
1092.000000	56.822886
1091.000000	56.823502
1090.000000	56.841088
1089.000000	56.840988
1088.000000	56.848438
1087.000000	56.851579
1086.000000	56.839270
1085.000000	56.829613
1084.000000	56.832995
1083.000000	56.842737
1082.000000	56.863908
1081.000000	56.838116
1080.000000	56.857003
1079.000000	56.859203
1078.000000	56.824615
1077.000000	56.832706
1076.000000	56.831525
1075.000000	56.845389
1074.000000	56.846102
1073.000000	56.846973
1072.000000	56.869721
1071.000000	56.835465
1070.000000	56.825836
1069.000000	56.834232
1068.000000	56.832034
1067.000000	56.829799
1066.000000	56.846903
1065.000000	56.862225
1064.000000	56.822852
1063.000000	56.834404
1062.000000	56.825788
1061.000000	56.823247
1060.000000	56.850512
1059.000000	56.843134
1058.000000	56.851910
1057.000000	56.819622
1056.000000	56.818385
1055.000000	56.823608
1054.000000	56.830310
1053.000000	56.831001
1052.000000	56.817558
1051.000000	56.815923
1050.000000	56.826946
1049.000000	56.834650
1048.000000	56.826842
1047.000000	56.804856
1046.000000	56.818919
1045.000000	56.825001
1044.000000	56.835212
1043.000000	56.803044
1042.000000	56.800704
1041.000000	56.821626
1040.000000	56.841145
1039.000000	56.829609
1038.000000	56.833878
1037.000000	56.827059
1036.000000	56.830672
1035.000000	56.831781
1034.000000	56.822962
1033.000000	56.832748
1032.000000	56.825526
1031.000000	56.848331
1030.000000	56.825657
1029.000000	56.822915
1028.000000	56.835377
1027.000000	56.835219
1026.000000	56.851660
1025.000000	56.836170
1024.000000	56.850779
1023.000000	56.832415
1022.000000	56.835520
1021.000000	56.858151
1020.000000	56.834111
1019.000000	56.857014
1018.000000	56.858421
1017.000000	56.875805
1016.000000	56.861626
1015.000000	56.862022
1014.000000	56.850738
1013.000000	56.875119
1012.000000	56.872134
1011.000000	56.877056
1010.000000	56.865129
1009.000000	56.880615
1008.000000	56.903115
1007.000000	56.885365
1006.000000	56.888133
1005.000000	56.880966
1004.000000	56.889616
1003.000000	56.885577
1002.000000	56.897407
1001.000000	56.916568
1000.000000	56.930696
999.000000	56.931033
998.000000	56.946208
997.000000	56.961481
996.000000	56.951967
995.000000	56.958464
994.000000	56.987130
993.000000	56.992925
992.000000	56.986188
991.000000	57.002242
990.000000	57.000706
989.000000	56.998915
988.000000	56.995103
987.000000	57.008534
986.000000	57.013306
985.000000	57.005072
984.000000	57.001914
983.000000	57.022810
982.000000	57.033478
981.000000	57.031078
980.000000	57.035607
979.000000	57.040229
978.000000	57.059589
977.000000	57.056709
976.000000	57.056227
975.000000	57.047958
974.000000	57.062775
973.000000	57.071250
972.000000	57.066759
971.000000	57.079698
970.000000	57.079738
969.000000	57.074359
968.000000	57.070077
967.000000	57.074113
966.000000	57.080886
965.000000	57.086763
964.000000	57.095942
963.000000	57.106109
962.000000	57.114667
961.000000	57.100981
960.000000	57.103324
959.000000	57.111819
958.000000	57.109185
957.000000	57.112526
956.000000	57.118661
955.000000	57.110863
954.000000	57.108192
953.000000	57.118580
952.000000	57.111520
951.000000	57.113388
950.000000	57.123127
949.000000	57.132827
948.000000	57.144041
947.000000	57.138698
946.000000	57.131720
945.000000	57.131210
944.000000	57.135232
943.000000	57.128674
942.000000	57.130960
941.000000	57.127896
940.000000	57.128148
939.000000	57.133174
938.000000	57.117331
937.000000	57.111685
936.000000	57.122758
935.000000	57.140523
934.000000	57.138126
933.000000	57.138506
932.000000	57.131416
931.000000	57.138418
930.000000	57.143502
929.000000	57.134864
928.000000	57.095654
927.000000	57.102450
926.000000	57.123113
925.000000	57.106253
924.000000	57.108348
923.000000	57.122675
922.000000	57.138514
921.000000	57.140747
920.000000	57.133863
919.000000	57.145325
918.000000	57.160568
917.000000	57.099012
916.000000	57.079439
915.000000	57.135613
914.000000	57.113414
913.000000	57.097864
912.000000	57.095885
911.000000	57.109603
910.000000	57.121597
909.000000	57.116166
908.000000	57.102601
907.000000	57.115277
906.000000	57.116210
905.000000	57.132852
904.000000	57.109147
903.000000	57.098590
902.000000	57.118358
901.000000	57.133189
900.000000	57.133855
899.000000	57.134912
898.000000	57.101531
897.000000	57.123882
896.000000	57.137640
895.000000	57.117336
894.000000	57.129282
893.000000	57.115036
892.000000	57.143196
891.000000	57.170671
890.000000	57.147708
889.000000	57.098366
888.000000	57.068200
887.000000	57.087479
886.000000	57.113283
885.000000	57.109296
884.000000	57.113503
883.000000	57.114438
882.000000	57.158721
881.000000	57.105885
880.000000	57.143617
879.000000	57.181410
878.000000	57.095023
877.000000	57.074788
876.000000	57.053324
875.000000	57.061705
874.000000	57.139628
873.000000	57.098342
872.000000	57.068810
871.000000	57.116457
870.000000	57.072966
869.000000	57.019270
868.000000	57.024858
867.000000	57.059694
866.000000	57.141890
865.000000	56.988734
864.000000	56.957252
863.000000	56.982398
862.000000	56.996943
861.000000	57.064712
860.000000	57.099883
859.000000	57.421630
858.000000	57.086652
857.000000	57.194705
856.000000	57.300864
855.000000	57.535741
854.000000	57.475779
853.000000	57.315554
852.000000	56.920567
851.000000	57.283760
850.000000	57.327047
849.000000	57.184375
848.000000	57.102092
847.000000	57.250754
846.000000	57.150154
845.000000	57.143639
844.000000	57.326187
843.000000	57.323401
842.000000	57.161843
841.000000	57.192590
840.000000	56.996655
839.000000	57.035746
838.000000	57.143977
837.000000	57.091948
836.000000	57.033510
835.000000	57.161932
834.000000	56.988529
833.000000	57.103952
832.000000	56.829310
831.000000	57.050211
830.000000	57.046605
829.000000	57.034435
828.000000	57.010416
827.000000	57.011655
826.000000	56.873697
825.000000	56.936397
824.000000	56.989493
823.000000	56.966881
822.000000	56.889761
821.000000	56.908094
820.000000	56.895414
819.000000	56.970056
818.000000	56.884596
817.000000	56.885567
816.000000	56.842361
815.000000	56.751001
814.000000	56.877786
813.000000	56.799295
812.000000	56.896547
811.000000	56.901450
810.000000	56.773595
809.000000	56.780953
808.000000	56.826088
807.000000	56.676317
806.000000	56.791400
805.000000	56.815795
804.000000	56.645640
803.000000	56.575955
802.000000	56.628219
801.000000	56.575921
800.000000	56.674571
799.000000	56.555921
798.000000	56.644282
797.000000	56.520257
796.000000	56.494715
795.000000	56.605727
794.000000	56.566978
793.000000	56.531602
792.000000	56.441269
791.000000	56.504699
790.000000	56.385078
789.000000	56.442255
788.000000	56.430811
787.000000	56.493333
786.000000	56.441000
785.000000	56.259230
784.000000	56.318342
783.000000	56.322756
782.000000	56.361379
781.000000	56.263745
780.000000	56.271142
779.000000	56.342975
778.000000	56.311287
777.000000	56.234790
776.000000	56.137208
775.000000	56.184480
774.000000	56.083675
773.000000	56.081743
772.000000	56.129279
771.000000	56.146098
770.000000	56.092692
769.000000	56.084022
768.000000	56.099646
767.000000	56.012612
766.000000	56.043056
765.000000	55.984970
764.000000	55.915201
763.000000	56.026649
762.000000	55.966148
761.000000	55.812460
760.000000	55.835803
759.000000	55.786734
758.000000	55.734077
757.000000	55.778607
756.000000	55.760361
755.000000	55.675169
754.000000	55.664668
753.000000	55.624290
752.000000	55.598180
751.000000	55.554637
750.000000	55.569036
749.000000	55.532191
748.000000	55.580053
747.000000	55.494103
746.000000	55.378934
745.000000	55.398717
744.000000	55.454053
743.000000	55.366094
742.000000	55.317904
741.000000	55.297894
740.000000	55.304605
739.000000	55.303983
738.000000	55.214632
737.000000	55.124635
736.000000	55.098699
735.000000	55.072006
734.000000	54.969662
733.000000	55.018305
732.000000	54.997808
731.000000	54.945026
730.000000	54.952423
729.000000	54.891187
728.000000	54.788552
727.000000	54.772024
726.000000	54.809362
725.000000	54.751602
724.000000	54.663834
723.000000	54.610414
722.000000	54.560593
721.000000	54.567574
720.000000	54.544454
719.000000	54.455086
718.000000	54.457203
717.000000	54.462953
716.000000	54.397088
715.000000	54.349146
714.000000	54.289879
713.000000	54.263525
712.000000	54.226153
711.000000	54.175091
710.000000	54.122945
709.000000	54.080181
708.000000	53.983958
707.000000	53.938579
706.000000	53.924641
705.000000	53.863790
704.000000	53.873233
703.000000	53.847512
702.000000	53.742340
701.000000	53.734402
700.000000	53.683675
699.000000	53.626966
698.000000	53.570238
697.000000	53.513976
696.000000	53.491040
695.000000	53.396814
694.000000	53.366518
693.000000	53.300157
692.000000	53.212675
691.000000	53.201095
690.000000	53.130642
689.000000	53.019491
688.000000	52.943653
687.000000	52.916575
686.000000	52.850918
685.000000	52.800160
684.000000	52.732798
683.000000	52.656702
682.000000	52.623629
681.000000	52.619732
680.000000	52.522730
679.000000	52.446410
678.000000	52.449046
677.000000	52.322691
676.000000	52.210394
675.000000	52.173901
674.000000	52.110892
673.000000	52.075248
672.000000	52.005786
671.000000	51.919108
670.000000	51.808864
669.000000	51.797960
668.000000	51.753910
667.000000	51.682943
666.000000	51.593009
665.000000	51.518853
664.000000	51.421252
663.000000	51.387959
662.000000	51.328854
661.000000	51.236964
660.000000	51.161626
659.000000	51.108689
658.000000	51.004714
657.000000	50.945932
656.000000	50.884923
655.000000	50.795286
654.000000	50.725205
653.000000	50.656732
652.000000	50.539733
651.000000	50.505000
650.000000	50.452861
649.000000	50.380506
648.000000	50.294524
647.000000	50.181298
646.000000	50.087277
645.000000	49.950627
644.000000	49.895079
643.000000	49.830847
642.000000	49.774787
641.000000	49.732885
640.000000	49.629551
639.000000	49.549580
638.000000	49.422975
637.000000	49.336126
636.000000	49.296794
635.000000	49.225646
634.000000	49.152116
633.000000	49.032256
632.000000	48.891822
631.000000	48.869650
630.000000	48.753634
629.000000	48.692306
628.000000	48.581200
627.000000	48.528672
626.000000	48.375995
625.000000	48.283044
624.000000	48.231772
623.000000	48.144851
622.000000	48.020402
621.000000	47.984797
620.000000	47.855357
619.000000	47.773296
618.000000	47.665846
617.000000	47.585426
616.000000	47.465341
615.000000	47.320123
614.000000	47.245305
613.000000	47.160582
612.000000	47.013630
611.000000	46.957933
610.000000	46.859528
609.000000	46.800046
608.000000	46.663214
607.000000	46.587435
606.000000	46.486973
605.000000	46.335979
604.000000	46.269712
603.000000	46.141854
602.000000	46.038200
601.000000	45.927892
600.000000	45.859389
599.000000	45.710600
598.000000	45.651235
597.000000	45.552301
596.000000	45.408466
595.000000	45.256707
594.000000	45.212897
593.000000	45.076391
592.000000	44.995665
591.000000	44.829908
590.000000	44.702386
589.000000	44.646263
588.000000	44.508871
587.000000	44.395080
586.000000	44.309265
585.000000	44.204827
584.000000	44.058885
583.000000	43.976103
582.000000	43.837015
581.000000	43.753831
580.000000	43.604612
579.000000	43.484275
578.000000	43.362537
577.000000	43.250136
576.000000	43.108110
575.000000	43.013410
574.000000	42.878977
573.000000	42.776004
572.000000	42.649730
571.000000	42.537164
570.000000	42.379480
569.000000	42.269200
568.000000	42.128736
567.000000	42.045640
566.000000	41.893147
565.000000	41.765366
564.000000	41.649536
563.000000	41.515895
562.000000	41.400570
561.000000	41.241501
560.000000	41.101069
559.000000	41.023886
558.000000	40.809087
557.000000	40.700767
556.000000	40.593701
555.000000	40.423166
554.000000	40.300883
553.000000	40.197343
552.000000	40.034101
551.000000	39.892988
550.000000	39.771062
549.000000	39.640223
548.000000	39.528260
547.000000	39.377716
546.000000	39.233927
545.000000	39.111172
544.000000	38.964782
543.000000	38.822609
542.000000	38.648538
541.000000	38.534201
540.000000	38.383241
539.000000	38.252553
538.000000	38.127824
537.000000	37.983744
536.000000	37.844521
535.000000	37.700415
534.000000	37.549067
533.000000	37.405799
532.000000	37.289588
531.000000	37.140041
530.000000	36.972011
529.000000	36.841623
528.000000	36.711102
527.000000	36.539344
526.000000	36.410614
525.000000	36.243189
524.000000	36.106970
523.000000	35.991298
522.000000	35.821152
521.000000	35.688381
520.000000	35.548244
519.000000	35.399882
518.000000	35.269294
517.000000	35.130461
516.000000	34.945406
515.000000	34.781975
514.000000	34.657818
513.000000	34.530726
512.000000	34.361415
511.000000	34.234627
510.000000	34.096288
509.000000	33.940177
508.000000	33.795735
507.000000	33.646191
506.000000	33.487451
505.000000	33.357157
504.000000	33.199753
503.000000	33.070812
502.000000	32.916336
501.000000	32.775310
500.000000	32.650063
499.000000	32.501355
498.000000	32.326753
497.000000	32.166471
496.000000	32.016425
495.000000	31.871354
494.000000	31.703365
493.000000	31.562387
492.000000	31.441811
491.000000	31.277649
490.000000	31.105674
489.000000	30.958539
488.000000	30.834201
487.000000	30.674709
486.000000	30.487378
485.000000	30.330190
484.000000	30.217982
483.000000	30.065828
482.000000	29.862376
481.000000	29.734199
480.000000	29.603421
479.000000	29.485859
478.000000	29.351248
477.000000	29.208541
476.000000	29.056711
475.000000	28.919923
474.000000	28.779918
473.000000	28.632589
472.000000	28.486209
471.000000	28.346632
470.000000	28.222051
469.000000	28.083537
468.000000	27.949670
467.000000	27.795799
466.000000	27.652146
465.000000	27.513790
464.000000	27.352868
463.000000	27.225079
462.000000	27.086277
461.000000	26.917305
460.000000	26.771418
459.000000	26.619758
458.000000	26.466498
457.000000	26.322092
456.000000	26.172932
455.000000	26.019316
454.000000	25.853238
453.000000	25.686219
452.000000	25.534080
451.000000	25.381797
450.000000	25.225980
449.000000	25.056408
448.000000	24.902388
447.000000	24.742907
446.000000	24.595725
445.000000	24.430115
444.000000	24.254165
443.000000	24.108225
442.000000	23.977478
441.000000	23.826125
440.000000	23.653807
439.000000	23.481442
438.000000	23.318936
437.000000	23.188947
436.000000	23.036123
435.000000	22.843784
434.000000	22.685306
433.000000	22.539297
432.000000	22.380546
431.000000	22.219068
430.000000	22.060518
429.000000	21.883526
428.000000	21.703824
427.000000	21.548842
426.000000	21.390940
425.000000	21.246496
424.000000	21.101250
423.000000	20.946596
422.000000	20.790301
421.000000	20.634344
420.000000	20.495873
419.000000	20.349451
418.000000	20.195545
417.000000	20.040237
416.000000	19.906537
415.000000	19.744391
414.000000	19.587073
413.000000	19.454972
412.000000	19.274363
411.000000	19.112635
410.000000	18.986030
409.000000	18.821064
408.000000	18.690338
407.000000	18.571416
406.000000	18.425610
405.000000	18.268449
404.000000	18.109629
403.000000	17.989079
402.000000	17.861004
401.000000	17.703861
400.000000	17.596530
399.000000	17.480597
398.000000	17.321679
397.000000	17.166590
396.000000	17.051182
395.000000	16.918817
394.000000	16.781429
393.000000	16.627885
392.000000	16.522710
391.000000	16.393441
390.000000	16.290667
389.000000	16.139476
388.000000	16.020513
387.000000	15.908662
386.000000	15.788411
385.000000	15.641776
384.000000	15.506128
383.000000	15.393303
382.000000	15.276674
381.000000	15.139073
380.000000	14.988237
379.000000	14.839949
378.000000	14.715422
377.000000	14.675752
376.000000	14.598759
375.000000	14.469914
374.000000	14.291334
373.000000	14.199635
372.000000	14.094557
371.000000	13.932729
370.000000	13.847986
369.000000	13.691950
368.000000	13.643214
367.000000	13.496120
366.000000	13.421441
365.000000	13.289277
364.000000	13.222681
363.000000	13.090409
362.000000	12.999216
361.000000	12.921735
360.000000	12.823289
359.000000	12.754563
358.000000	12.630022
357.000000	12.548382
356.000000	12.472358
355.000000	12.356984
354.000000	12.277086
353.000000	12.202568
352.000000	12.159157
351.000000	11.995388
350.000000	11.950939
349.000000	11.879929
348.000000	11.816515
347.000000	11.691538
346.000000	11.616866
345.000000	11.592562
344.000000	11.490916
343.000000	11.502132
342.000000	11.329491
341.000000	11.279040
340.000000	11.125128
339.000000	11.177529
338.000000	11.139728
337.000000	10.928558
336.000000	10.913678
335.000000	10.892615
334.000000	10.835208
333.000000	10.748955
332.000000	10.673600
331.000000	10.569302
330.000000	10.585320
329.000000	10.536567
328.000000	10.480741
327.000000	10.416725
326.000000	10.295614
325.000000	10.230073
324.000000	10.257824
323.000000	10.204745
322.000000	10.111867
321.000000	10.094186
320.000000	10.025106
319.000000	10.071399
318.000000	9.941921
317.000000	9.998813
316.000000	9.961048
315.000000	9.917402
314.000000	9.922209
313.000000	9.898199
312.000000	9.826223
311.000000	9.844721
310.000000	9.805985
309.000000	9.805450
308.000000	9.785176
307.000000	9.789764
306.000000	9.747427
305.000000	9.748931
304.000000	9.737836
303.000000	9.802931
302.000000	9.742613
301.000000	9.718353
300.000000	9.741711
299.000000	9.727424
298.000000	9.668191
297.000000	9.688620
296.000000	9.649894
295.000000	9.667566
294.000000	9.611472
293.000000	9.602842
292.000000	9.596149
291.000000	9.609773
290.000000	9.587711
289.000000	9.547445
288.000000	9.546286
287.000000	9.563860
286.000000	9.600652
285.000000	9.599452
284.000000	9.615227
283.000000	9.679269
282.000000	9.700271
281.000000	9.676470
280.000000	9.739798
279.000000	9.793556
278.000000	9.802529
277.000000	9.883263
276.000000	9.931435
275.000000	9.989582
274.000000	10.035129
273.000000	10.115709
272.000000	10.194411
271.000000	10.265765
270.000000	10.283764
269.000000	10.364023
268.000000	10.375195
267.000000	10.471389
266.000000	10.537112
265.000000	10.646517
264.000000	10.737529
263.000000	10.782040
262.000000	10.911117
261.000000	11.041200
260.000000	11.143267
259.000000	11.220409
258.000000	11.272123
257.000000	11.369809
256.000000	11.468185
255.000000	11.626915
254.000000	11.696406
253.000000	11.806090
252.000000	11.962876
251.000000	12.070179
250.000000	12.136590
249.000000	12.202935
248.000000	12.342603
247.000000	12.447094
246.000000	12.497798
245.000000	12.532841
244.000000	12.618253
243.000000	12.647721
242.000000	12.632228
241.000000	12.649287
240.000000	12.607443
239.000000	12.588326
238.000000	12.574698
237.000000	12.526267
236.000000	12.528034
235.000000	12.451801
234.000000	12.337119
233.000000	12.240405
232.000000	12.199344
231.000000	12.110269
230.000000	12.090162
229.000000	12.056428
228.000000	12.020197
227.000000	11.968784
226.000000	11.887431
225.000000	11.838444
224.000000	11.804225
223.000000	11.889990
222.000000	11.962816
221.000000	11.960851
220.000000	12.002402
219.000000	12.123068
218.000000	12.200871
217.000000	12.275142
216.000000	12.327125
215.000000	12.378948
214.000000	12.588254
213.000000	12.787045
212.000000	12.836472
211.000000	13.012551
210.000000	13.320911
209.000000	13.413271
208.000000	13.639903
207.000000	13.884820
206.000000	14.096066
205.000000	14.516733
204.000000	14.937425
203.000000	15.216844
202.000000	15.635905
201.000000	16.300591
200.000000	16.599445
