PE UV       SUBTECH     SPECTRUM    ASCII       PEDS        4.00        
   -1
RTmsmeh72.Sample.asc
18/03/20
11:28:27.00
18/03/20
11:28:27.00
Administrator

200.000000
1
Lambda 750
750N8071901
PerkinElmer UV WinLab 6.0.4.0738 / 1.61.00 Lambda 900

0
0
3350/servo 860.8/2
0
0
UV/VIS
1
1
1
CommonBeamDepol,150mm sphere / downward view
0
0
0
0
Program
Program
3350/servo 860.8/2
3350/0.2 860.8/0.2
3350/0.2 860.8/0.2
0
1
 
 
 
0
 
860.8
319.2
860.8
Front
100
on
 
 
0
0
0
 
0
 
 
 
0
 
 
0
0
0
0
0
 
 
 
 
0
0


0
0
#HDR
-1
-1
#GR
nm
%R
1.0
0.0
2350.000000
-1.000000
2151
8
61.209585
9.621681
#DATA
2350.000000	40.328423
2349.000000	39.980657
2348.000000	39.885007
2347.000000	40.537636
2346.000000	40.018109
2345.000000	40.282638
2344.000000	39.981254
2343.000000	40.195040
2342.000000	39.961396
2341.000000	40.332133
2340.000000	40.451145
2339.000000	40.323855
2338.000000	40.498778
2337.000000	40.397826
2336.000000	40.469688
2335.000000	40.403839
2334.000000	40.612330
2333.000000	40.889330
2332.000000	40.681356
2331.000000	40.357734
2330.000000	40.638131
2329.000000	40.409489
2328.000000	40.431680
2327.000000	40.451080
2326.000000	40.467810
2325.000000	40.266123
2324.000000	40.227052
2323.000000	40.185518
2322.000000	40.117524
2321.000000	40.200039
2320.000000	40.211351
2319.000000	40.257796
2318.000000	40.246942
2317.000000	40.074070
2316.000000	39.849533
2315.000000	39.604638
2314.000000	39.750948
2313.000000	39.764275
2312.000000	39.762461
2311.000000	39.842721
2310.000000	39.666903
2309.000000	39.706392
2308.000000	39.625029
2307.000000	39.443869
2306.000000	39.402658
2305.000000	39.496852
2304.000000	39.472964
2303.000000	39.412647
2302.000000	39.351942
2301.000000	39.060751
2300.000000	39.029541
2299.000000	38.911071
2298.000000	38.712392
2297.000000	38.648177
2296.000000	38.905307
2295.000000	38.775556
2294.000000	38.539501
2293.000000	38.408717
2292.000000	38.335990
2291.000000	38.419947
2290.000000	38.403574
2289.000000	38.259795
2288.000000	38.487088
2287.000000	38.498812
2286.000000	38.503580
2285.000000	38.447273
2284.000000	38.424978
2283.000000	38.271480
2282.000000	38.332243
2281.000000	38.319290
2280.000000	38.160975
2279.000000	38.243879
2278.000000	38.300538
2277.000000	38.145047
2276.000000	38.167527
2275.000000	38.190641
2274.000000	38.266602
2273.000000	38.444931
2272.000000	38.500405
2271.000000	38.588827
2270.000000	38.605954
2269.000000	38.581205
2268.000000	38.611690
2267.000000	38.659312
2266.000000	38.838110
2265.000000	38.939857
2264.000000	39.082558
2263.000000	39.124652
2262.000000	39.128801
2261.000000	39.333057
2260.000000	39.499392
2259.000000	39.577020
2258.000000	39.815737
2257.000000	40.024311
2256.000000	40.084906
2255.000000	40.210128
2254.000000	40.385130
2253.000000	40.580795
2252.000000	40.772458
2251.000000	40.975191
2250.000000	41.038104
2249.000000	41.213172
2248.000000	41.347362
2247.000000	41.396263
2246.000000	41.589150
2245.000000	41.725387
2244.000000	41.959383
2243.000000	42.163784
2242.000000	42.196810
2241.000000	42.299285
2240.000000	42.410442
2239.000000	42.557206
2238.000000	42.743465
2237.000000	42.758894
2236.000000	42.810164
2235.000000	42.943421
2234.000000	43.116000
2233.000000	43.196314
2232.000000	43.179810
2231.000000	43.221183
2230.000000	43.179769
2229.000000	43.146795
2228.000000	43.231825
2227.000000	43.225776
2226.000000	43.209301
2225.000000	43.198742
2224.000000	43.220573
2223.000000	43.208613
2222.000000	43.154233
2221.000000	43.149589
2220.000000	43.239342
2219.000000	43.235497
2218.000000	43.133827
2217.000000	43.013454
2216.000000	43.049556
2215.000000	43.050572
2214.000000	43.089693
2213.000000	43.136466
2212.000000	42.972007
2211.000000	42.954338
2210.000000	42.939768
2209.000000	42.855522
2208.000000	42.760904
2207.000000	42.799999
2206.000000	42.784126
2205.000000	42.805297
2204.000000	42.859983
2203.000000	42.712596
2202.000000	42.582901
2201.000000	42.568339
2200.000000	42.523587
2199.000000	42.470466
2198.000000	42.495639
2197.000000	42.382876
2196.000000	42.279270
2195.000000	42.224549
2194.000000	42.087282
2193.000000	42.120688
2192.000000	42.107965
2191.000000	41.927897
2190.000000	41.940417
2189.000000	42.007560
2188.000000	41.840969
2187.000000	41.790743
2186.000000	41.753019
2185.000000	41.733005
2184.000000	41.784254
2183.000000	41.798176
2182.000000	41.696725
2181.000000	41.767745
2180.000000	41.813632
2179.000000	41.763471
2178.000000	41.673852
2177.000000	41.874877
2176.000000	41.864392
2175.000000	41.954288
2174.000000	41.828204
2173.000000	41.849558
2172.000000	41.907133
2171.000000	41.798307
2170.000000	41.789162
2169.000000	42.006873
2168.000000	42.320461
2167.000000	42.199063
2166.000000	42.209107
2165.000000	42.307700
2164.000000	42.418950
2163.000000	42.416885
2162.000000	42.623602
2161.000000	42.666001
2160.000000	42.871920
2159.000000	43.000115
2158.000000	42.946631
2157.000000	43.284886
2156.000000	43.195854
2155.000000	43.355503
2154.000000	43.631628
2153.000000	43.868622
2152.000000	43.786588
2151.000000	43.804534
2150.000000	44.061648
2149.000000	44.134557
2148.000000	44.039875
2147.000000	44.175500
2146.000000	44.396796
2145.000000	44.484912
2144.000000	44.665646
2143.000000	44.673546
2142.000000	45.041666
2141.000000	44.892976
2140.000000	45.101642
2139.000000	45.080956
2138.000000	45.475750
2137.000000	45.385831
2136.000000	45.360063
2135.000000	45.515017
2134.000000	45.636042
2133.000000	45.618032
2132.000000	45.682620
2131.000000	45.745542
2130.000000	45.973525
2129.000000	45.753151
2128.000000	46.008068
2127.000000	46.060930
2126.000000	45.982752
2125.000000	46.014956
2124.000000	46.117656
2123.000000	46.194939
2122.000000	46.196886
2121.000000	46.088843
2120.000000	46.165079
2119.000000	46.120101
2118.000000	46.238308
2117.000000	46.185312
2116.000000	46.347178
2115.000000	46.382339
2114.000000	46.453722
2113.000000	46.370281
2112.000000	46.363765
2111.000000	46.424800
2110.000000	46.385475
2109.000000	46.413384
2108.000000	46.487596
2107.000000	46.406410
2106.000000	46.474399
2105.000000	46.382216
2104.000000	46.449050
2103.000000	46.474418
2102.000000	46.548087
2101.000000	46.507258
2100.000000	46.588783
2099.000000	46.551607
2098.000000	46.433366
2097.000000	46.405088
2096.000000	46.451331
2095.000000	46.506636
2094.000000	46.476819
2093.000000	46.404583
2092.000000	46.540446
2091.000000	46.455686
2090.000000	46.421407
2089.000000	46.465795
2088.000000	46.420585
2087.000000	46.430623
2086.000000	46.421758
2085.000000	46.395328
2084.000000	46.314959
2083.000000	46.185723
2082.000000	46.227712
2081.000000	46.109249
2080.000000	46.042831
2079.000000	46.075429
2078.000000	45.937283
2077.000000	45.877878
2076.000000	45.848643
2075.000000	45.751647
2074.000000	45.723868
2073.000000	45.577462
2072.000000	45.534092
2071.000000	45.483858
2070.000000	45.385154
2069.000000	45.224367
2068.000000	45.195023
2067.000000	45.089589
2066.000000	44.951536
2065.000000	44.837514
2064.000000	44.794759
2063.000000	44.676309
2062.000000	44.598025
2061.000000	44.510946
2060.000000	44.353405
2059.000000	44.204695
2058.000000	44.119256
2057.000000	44.031092
2056.000000	43.896504
2055.000000	43.794960
2054.000000	43.630720
2053.000000	43.524960
2052.000000	43.458776
2051.000000	43.355391
2050.000000	43.285197
2049.000000	43.217351
2048.000000	43.143309
2047.000000	43.099685
2046.000000	43.019578
2045.000000	42.969767
2044.000000	42.976811
2043.000000	42.986879
2042.000000	42.986812
2041.000000	43.018888
2040.000000	43.029826
2039.000000	42.977353
2038.000000	42.984351
2037.000000	43.100361
2036.000000	43.186060
2035.000000	43.209860
2034.000000	43.292016
2033.000000	43.361319
2032.000000	43.415111
2031.000000	43.478839
2030.000000	43.586304
2029.000000	43.665732
2028.000000	43.697003
2027.000000	43.758643
2026.000000	43.844046
2025.000000	43.917088
2024.000000	43.951064
2023.000000	44.024464
2022.000000	44.046400
2021.000000	44.043986
2020.000000	44.108949
2019.000000	44.183846
2018.000000	44.196028
2017.000000	44.189285
2016.000000	44.135756
2015.000000	44.137153
2014.000000	44.114577
2013.000000	44.058564
2012.000000	44.066570
2011.000000	44.047071
2010.000000	44.022535
2009.000000	43.914028
2008.000000	43.851531
2007.000000	43.809731
2006.000000	43.739054
2005.000000	43.676184
2004.000000	43.620579
2003.000000	43.541070
2002.000000	43.475523
2001.000000	43.382300
2000.000000	43.290621
1999.000000	43.197154
1998.000000	43.102835
1997.000000	43.018517
1996.000000	42.964643
1995.000000	42.899776
1994.000000	42.810042
1993.000000	42.686087
1992.000000	42.597922
1991.000000	42.556384
1990.000000	42.472443
1989.000000	42.368697
1988.000000	42.258090
1987.000000	42.179751
1986.000000	42.098424
1985.000000	42.028921
1984.000000	41.924714
1983.000000	41.845120
1982.000000	41.775673
1981.000000	41.699176
1980.000000	41.573081
1979.000000	41.443189
1978.000000	41.392228
1977.000000	41.311747
1976.000000	41.234343
1975.000000	41.123101
1974.000000	41.025081
1973.000000	40.980160
1972.000000	40.912355
1971.000000	40.800553
1970.000000	40.717675
1969.000000	40.655808
1968.000000	40.557787
1967.000000	40.483230
1966.000000	40.469884
1965.000000	40.343509
1964.000000	40.241643
1963.000000	40.197194
1962.000000	40.104121
1961.000000	40.028935
1960.000000	39.988894
1959.000000	39.901301
1958.000000	39.792993
1957.000000	39.763968
1956.000000	39.680559
1955.000000	39.563591
1954.000000	39.564420
1953.000000	39.538877
1952.000000	39.486446
1951.000000	39.505592
1950.000000	39.444367
1949.000000	39.394204
1948.000000	39.322503
1947.000000	39.344441
1946.000000	39.296397
1945.000000	39.305259
1944.000000	39.275457
1943.000000	39.359076
1942.000000	39.345060
1941.000000	39.348043
1940.000000	39.417512
1939.000000	39.450270
1938.000000	39.531523
1937.000000	39.596672
1936.000000	39.711937
1935.000000	39.788840
1934.000000	39.874680
1933.000000	39.938138
1932.000000	40.053620
1931.000000	40.144366
1930.000000	40.355374
1929.000000	40.477885
1928.000000	40.623004
1927.000000	40.788173
1926.000000	40.835749
1925.000000	41.146062
1924.000000	41.271198
1923.000000	41.469827
1922.000000	41.711637
1921.000000	41.971383
1920.000000	42.169503
1919.000000	42.285590
1918.000000	42.634315
1917.000000	42.924650
1916.000000	43.079242
1915.000000	43.399692
1914.000000	43.682806
1913.000000	44.057323
1912.000000	44.252570
1911.000000	44.545038
1910.000000	44.824145
1909.000000	45.170581
1908.000000	45.393793
1907.000000	45.785403
1906.000000	46.095967
1905.000000	46.412824
1904.000000	46.767033
1903.000000	47.055050
1902.000000	47.357334
1901.000000	47.771174
1900.000000	48.112444
1899.000000	48.491305
1898.000000	48.823937
1897.000000	49.097580
1896.000000	49.439632
1895.000000	49.789779
1894.000000	50.079329
1893.000000	50.296974
1892.000000	50.656173
1891.000000	50.939958
1890.000000	51.240641
1889.000000	51.536262
1888.000000	51.790278
1887.000000	52.005406
1886.000000	52.266423
1885.000000	52.504132
1884.000000	52.774111
1883.000000	53.001288
1882.000000	53.157359
1881.000000	53.323306
1880.000000	53.541819
1879.000000	53.683461
1878.000000	53.838901
1877.000000	54.027399
1876.000000	54.144665
1875.000000	54.291555
1874.000000	54.413162
1873.000000	54.533840
1872.000000	54.644815
1871.000000	54.721169
1870.000000	54.838978
1869.000000	54.921478
1868.000000	54.951018
1867.000000	54.997278
1866.000000	55.069075
1865.000000	55.151227
1864.000000	55.171585
1863.000000	55.200020
1862.000000	55.237879
1861.000000	55.301449
1860.000000	55.300168
1859.000000	55.312802
1858.000000	55.360378
1857.000000	55.392956
1856.000000	55.424889
1855.000000	55.457088
1854.000000	55.470138
1853.000000	55.461147
1852.000000	55.454928
1851.000000	55.464356
1850.000000	55.471714
1849.000000	55.463894
1848.000000	55.446750
1847.000000	55.450997
1846.000000	55.449087
1845.000000	55.446594
1844.000000	55.430401
1843.000000	55.400922
1842.000000	55.399337
1841.000000	55.384040
1840.000000	55.402970
1839.000000	55.408870
1838.000000	55.389454
1837.000000	55.341527
1836.000000	55.299961
1835.000000	55.276468
1834.000000	55.256911
1833.000000	55.225209
1832.000000	55.200882
1831.000000	55.189075
1830.000000	55.179566
1829.000000	55.135519
1828.000000	55.115484
1827.000000	55.130536
1826.000000	55.086743
1825.000000	55.067249
1824.000000	55.051065
1823.000000	55.031827
1822.000000	55.010989
1821.000000	54.997013
1820.000000	54.976768
1819.000000	54.924707
1818.000000	54.909714
1817.000000	54.908547
1816.000000	54.890254
1815.000000	54.882718
1814.000000	54.876413
1813.000000	54.873291
1812.000000	54.862218
1811.000000	54.848505
1810.000000	54.834923
1809.000000	54.804825
1808.000000	54.780277
1807.000000	54.768979
1806.000000	54.760883
1805.000000	54.750817
1804.000000	54.742449
1803.000000	54.723385
1802.000000	54.703144
1801.000000	54.694685
1800.000000	54.677608
1799.000000	54.654836
1798.000000	54.666292
1797.000000	54.663553
1796.000000	54.636565
1795.000000	54.624868
1794.000000	54.623746
1793.000000	54.622520
1792.000000	54.619664
1791.000000	54.620829
1790.000000	54.615360
1789.000000	54.608865
1788.000000	54.599161
1787.000000	54.585079
1786.000000	54.573894
1785.000000	54.550363
1784.000000	54.553341
1783.000000	54.543291
1782.000000	54.521369
1781.000000	54.508527
1780.000000	54.484345
1779.000000	54.475443
1778.000000	54.446008
1777.000000	54.408832
1776.000000	54.396167
1775.000000	54.370776
1774.000000	54.350035
1773.000000	54.307954
1772.000000	54.270839
1771.000000	54.248817
1770.000000	54.221995
1769.000000	54.193083
1768.000000	54.148773
1767.000000	54.115501
1766.000000	54.105721
1765.000000	54.056896
1764.000000	54.059864
1763.000000	54.022447
1762.000000	54.002376
1761.000000	53.969820
1760.000000	53.912907
1759.000000	53.923826
1758.000000	53.901685
1757.000000	53.849581
1756.000000	53.850010
1755.000000	53.824710
1754.000000	53.786192
1753.000000	53.746521
1752.000000	53.740438
1751.000000	53.718993
1750.000000	53.681105
1749.000000	53.689223
1748.000000	53.618716
1747.000000	53.585987
1746.000000	53.571570
1745.000000	53.523891
1744.000000	53.502071
1743.000000	53.467898
1742.000000	53.424755
1741.000000	53.417895
1740.000000	53.380971
1739.000000	53.346504
1738.000000	53.329382
1737.000000	53.323107
1736.000000	53.280129
1735.000000	53.287594
1734.000000	53.303813
1733.000000	53.283359
1732.000000	53.269828
1731.000000	53.300409
1730.000000	53.340553
1729.000000	53.344406
1728.000000	53.377843
1727.000000	53.361510
1726.000000	53.394339
1725.000000	53.465290
1724.000000	53.510038
1723.000000	53.546690
1722.000000	53.615447
1721.000000	53.681351
1720.000000	53.726625
1719.000000	53.818574
1718.000000	53.858432
1717.000000	53.881075
1716.000000	53.951301
1715.000000	54.007285
1714.000000	54.037546
1713.000000	54.061219
1712.000000	54.128942
1711.000000	54.162681
1710.000000	54.208364
1709.000000	54.235726
1708.000000	54.260794
1707.000000	54.314245
1706.000000	54.342853
1705.000000	54.359794
1704.000000	54.381390
1703.000000	54.395814
1702.000000	54.391134
1701.000000	54.417161
1700.000000	54.440292
1699.000000	54.424501
1698.000000	54.474115
1697.000000	54.486327
1696.000000	54.504979
1695.000000	54.552755
1694.000000	54.552664
1693.000000	54.587056
1692.000000	54.623748
1691.000000	54.680468
1690.000000	54.718719
1689.000000	54.773527
1688.000000	54.815480
1687.000000	54.857039
1686.000000	54.922477
1685.000000	54.981980
1684.000000	55.065329
1683.000000	55.144152
1682.000000	55.236548
1681.000000	55.329745
1680.000000	55.425887
1679.000000	55.498299
1678.000000	55.601845
1677.000000	55.650456
1676.000000	55.764266
1675.000000	55.857105
1674.000000	55.923375
1673.000000	56.015724
1672.000000	56.109848
1671.000000	56.179611
1670.000000	56.271702
1669.000000	56.353975
1668.000000	56.403314
1667.000000	56.462644
1666.000000	56.514658
1665.000000	56.552169
1664.000000	56.602196
1663.000000	56.635934
1662.000000	56.682180
1661.000000	56.725894
1660.000000	56.742303
1659.000000	56.796351
1658.000000	56.811570
1657.000000	56.827023
1656.000000	56.850698
1655.000000	56.874538
1654.000000	56.914042
1653.000000	56.911839
1652.000000	56.909595
1651.000000	56.903114
1650.000000	56.909541
1649.000000	56.909499
1648.000000	56.895625
1647.000000	56.898431
1646.000000	56.905399
1645.000000	56.901602
1644.000000	56.879506
1643.000000	56.875431
1642.000000	56.875655
1641.000000	56.857198
1640.000000	56.844647
1639.000000	56.838959
1638.000000	56.828687
1637.000000	56.805381
1636.000000	56.784497
1635.000000	56.771621
1634.000000	56.762358
1633.000000	56.742208
1632.000000	56.737597
1631.000000	56.703463
1630.000000	56.689805
1629.000000	56.672548
1628.000000	56.647501
1627.000000	56.631931
1626.000000	56.613240
1625.000000	56.594400
1624.000000	56.571786
1623.000000	56.550352
1622.000000	56.539157
1621.000000	56.516175
1620.000000	56.504099
1619.000000	56.483898
1618.000000	56.441783
1617.000000	56.422497
1616.000000	56.401702
1615.000000	56.376294
1614.000000	56.345722
1613.000000	56.314099
1612.000000	56.296135
1611.000000	56.272144
1610.000000	56.230448
1609.000000	56.207560
1608.000000	56.182643
1607.000000	56.163682
1606.000000	56.125599
1605.000000	56.100710
1604.000000	56.078183
1603.000000	56.042892
1602.000000	56.016092
1601.000000	55.987976
1600.000000	55.959054
1599.000000	55.930303
1598.000000	55.914254
1597.000000	55.890889
1596.000000	55.867241
1595.000000	55.845366
1594.000000	55.814525
1593.000000	55.786477
1592.000000	55.756802
1591.000000	55.735655
1590.000000	55.725473
1589.000000	55.691251
1588.000000	55.653207
1587.000000	55.637860
1586.000000	55.616417
1585.000000	55.602874
1584.000000	55.586970
1583.000000	55.569270
1582.000000	55.552463
1581.000000	55.535344
1580.000000	55.511239
1579.000000	55.486662
1578.000000	55.473750
1577.000000	55.452803
1576.000000	55.420527
1575.000000	55.403205
1574.000000	55.374776
1573.000000	55.350202
1572.000000	55.336715
1571.000000	55.317007
1570.000000	55.296572
1569.000000	55.276249
1568.000000	55.253074
1567.000000	55.226922
1566.000000	55.223950
1565.000000	55.208900
1564.000000	55.190152
1563.000000	55.190851
1562.000000	55.172729
1561.000000	55.168779
1560.000000	55.147532
1559.000000	55.138150
1558.000000	55.128906
1557.000000	55.116326
1556.000000	55.082541
1555.000000	55.078897
1554.000000	55.075661
1553.000000	55.057444
1552.000000	55.042351
1551.000000	55.034016
1550.000000	55.017632
1549.000000	54.990416
1548.000000	54.979342
1547.000000	54.954888
1546.000000	54.930200
1545.000000	54.894439
1544.000000	54.843892
1543.000000	54.809099
1542.000000	54.775444
1541.000000	54.719535
1540.000000	54.696339
1539.000000	54.655300
1538.000000	54.601531
1537.000000	54.544901
1536.000000	54.508339
1535.000000	54.464387
1534.000000	54.419254
1533.000000	54.366140
1532.000000	54.308570
1531.000000	54.277525
1530.000000	54.245097
1529.000000	54.197428
1528.000000	54.170746
1527.000000	54.128940
1526.000000	54.089355
1525.000000	54.077839
1524.000000	54.018462
1523.000000	54.011145
1522.000000	53.968030
1521.000000	53.953443
1520.000000	53.922614
1519.000000	53.904274
1518.000000	53.877113
1517.000000	53.862182
1516.000000	53.838968
1515.000000	53.821517
1514.000000	53.836083
1513.000000	53.856029
1512.000000	53.892096
1511.000000	53.899292
1510.000000	53.901448
1509.000000	53.846162
1508.000000	53.825044
1507.000000	53.817410
1506.000000	53.785201
1505.000000	53.796361
1504.000000	53.774188
1503.000000	53.778051
1502.000000	53.782924
1501.000000	53.760203
1500.000000	53.755072
1499.000000	53.786359
1498.000000	53.783954
1497.000000	53.788809
1496.000000	53.784183
1495.000000	53.792597
1494.000000	53.791248
1493.000000	53.814653
1492.000000	53.815531
1491.000000	53.828782
1490.000000	53.864778
1489.000000	53.899665
1488.000000	53.928512
1487.000000	53.948551
1486.000000	53.943672
1485.000000	53.993231
1484.000000	54.012030
1483.000000	54.054202
1482.000000	54.067246
1481.000000	54.094213
1480.000000	54.134042
1479.000000	54.158308
1478.000000	54.199968
1477.000000	54.223550
1476.000000	54.245090
1475.000000	54.280995
1474.000000	54.291924
1473.000000	54.331421
1472.000000	54.350766
1471.000000	54.341698
1470.000000	54.395243
1469.000000	54.420959
1468.000000	54.465214
1467.000000	54.480459
1466.000000	54.511355
1465.000000	54.536769
1464.000000	54.549303
1463.000000	54.567066
1462.000000	54.606585
1461.000000	54.625048
1460.000000	54.658169
1459.000000	54.683509
1458.000000	54.737611
1457.000000	54.737595
1456.000000	54.745449
1455.000000	54.793573
1454.000000	54.817214
1453.000000	54.884152
1452.000000	54.897534
1451.000000	54.909104
1450.000000	54.950894
1449.000000	54.964356
1448.000000	55.010459
1447.000000	55.040723
1446.000000	55.079696
1445.000000	55.110827
1444.000000	55.167282
1443.000000	55.215765
1442.000000	55.271268
1441.000000	55.313303
1440.000000	55.347125
1439.000000	55.388729
1438.000000	55.429193
1437.000000	55.458790
1436.000000	55.529229
1435.000000	55.579964
1434.000000	55.631233
1433.000000	55.704408
1432.000000	55.748843
1431.000000	55.821601
1430.000000	55.860820
1429.000000	55.925228
1428.000000	55.999541
1427.000000	56.065637
1426.000000	56.124747
1425.000000	56.195569
1424.000000	56.286019
1423.000000	56.367920
1422.000000	56.444688
1421.000000	56.518868
1420.000000	56.592964
1419.000000	56.689463
1418.000000	56.759555
1417.000000	56.833112
1416.000000	56.932735
1415.000000	57.027625
1414.000000	57.117559
1413.000000	57.173782
1412.000000	57.267252
1411.000000	57.376896
1410.000000	57.466571
1409.000000	57.550109
1408.000000	57.617275
1407.000000	57.694329
1406.000000	57.792447
1405.000000	57.898383
1404.000000	57.981153
1403.000000	58.060404
1402.000000	58.133720
1401.000000	58.210325
1400.000000	58.278927
1399.000000	58.336058
1398.000000	58.416177
1397.000000	58.485357
1396.000000	58.559429
1395.000000	58.631168
1394.000000	58.685819
1393.000000	58.757667
1392.000000	58.823244
1391.000000	58.870557
1390.000000	58.939729
1389.000000	59.009364
1388.000000	59.054745
1387.000000	59.098945
1386.000000	59.144503
1385.000000	59.200286
1384.000000	59.258495
1383.000000	59.291063
1382.000000	59.320402
1381.000000	59.372398
1380.000000	59.403992
1379.000000	59.432416
1378.000000	59.483698
1377.000000	59.518490
1376.000000	59.519815
1375.000000	59.541926
1374.000000	59.589130
1373.000000	59.608877
1372.000000	59.617489
1371.000000	59.624954
1370.000000	59.644141
1369.000000	59.681127
1368.000000	59.695310
1367.000000	59.709710
1366.000000	59.736918
1365.000000	59.754507
1364.000000	59.791896
1363.000000	59.824715
1362.000000	59.836716
1361.000000	59.862613
1360.000000	59.881761
1359.000000	59.893150
1358.000000	59.901614
1357.000000	59.901162
1356.000000	59.954129
1355.000000	59.994249
1354.000000	59.982184
1353.000000	59.991941
1352.000000	60.037026
1351.000000	60.054650
1350.000000	60.075472
1349.000000	60.106392
1348.000000	60.125278
1347.000000	60.144182
1346.000000	60.178091
1345.000000	60.196520
1344.000000	60.200311
1343.000000	60.205117
1342.000000	60.223881
1341.000000	60.257485
1340.000000	60.281211
1339.000000	60.307496
1338.000000	60.322295
1337.000000	60.334416
1336.000000	60.348266
1335.000000	60.349256
1334.000000	60.358648
1333.000000	60.377076
1332.000000	60.395121
1331.000000	60.411082
1330.000000	60.401346
1329.000000	60.408981
1328.000000	60.437148
1327.000000	60.470752
1326.000000	60.471658
1325.000000	60.477910
1324.000000	60.517678
1323.000000	60.505955
1322.000000	60.489800
1321.000000	60.502067
1320.000000	60.527246
1319.000000	60.536371
1318.000000	60.547400
1317.000000	60.544187
1316.000000	60.530212
1315.000000	60.538000
1314.000000	60.558899
1313.000000	60.571585
1312.000000	60.580680
1311.000000	60.561978
1310.000000	60.566746
1309.000000	60.594152
1308.000000	60.580700
1307.000000	60.591511
1306.000000	60.581812
1305.000000	60.597324
1304.000000	60.617952
1303.000000	60.636594
1302.000000	60.627376
1301.000000	60.615180
1300.000000	60.613034
1299.000000	60.608501
1298.000000	60.620171
1297.000000	60.626643
1296.000000	60.620742
1295.000000	60.628750
1294.000000	60.643804
1293.000000	60.634848
1292.000000	60.613159
1291.000000	60.627266
1290.000000	60.628340
1289.000000	60.628901
1288.000000	60.638467
1287.000000	60.632922
1286.000000	60.627049
1285.000000	60.637866
1284.000000	60.594477
1283.000000	60.587667
1282.000000	60.585445
1281.000000	60.594602
1280.000000	60.611986
1279.000000	60.626179
1278.000000	60.601789
1277.000000	60.621548
1276.000000	60.611563
1275.000000	60.601847
1274.000000	60.608805
1273.000000	60.614697
1272.000000	60.606183
1271.000000	60.592186
1270.000000	60.604448
1269.000000	60.598785
1268.000000	60.582032
1267.000000	60.602441
1266.000000	60.622629
1265.000000	60.605371
1264.000000	60.660333
1263.000000	60.641324
1262.000000	60.649636
1261.000000	60.647708
1260.000000	60.640639
1259.000000	60.682275
1258.000000	60.671513
1257.000000	60.663715
1256.000000	60.662105
1255.000000	60.654010
1254.000000	60.667037
1253.000000	60.679296
1252.000000	60.655230
1251.000000	60.661691
1250.000000	60.675282
1249.000000	60.659406
1248.000000	60.661848
1247.000000	60.652829
1246.000000	60.661974
1245.000000	60.668197
1244.000000	60.662543
1243.000000	60.658740
1242.000000	60.648291
1241.000000	60.646270
1240.000000	60.625158
1239.000000	60.615161
1238.000000	60.610170
1237.000000	60.613957
1236.000000	60.593502
1235.000000	60.571141
1234.000000	60.585496
1233.000000	60.575867
1232.000000	60.555552
1231.000000	60.543129
1230.000000	60.544401
1229.000000	60.530733
1228.000000	60.522449
1227.000000	60.482236
1226.000000	60.486029
1225.000000	60.475758
1224.000000	60.487963
1223.000000	60.480048
1222.000000	60.473271
1221.000000	60.470622
1220.000000	60.440582
1219.000000	60.434415
1218.000000	60.415233
1217.000000	60.402978
1216.000000	60.397957
1215.000000	60.391639
1214.000000	60.378651
1213.000000	60.394358
1212.000000	60.373939
1211.000000	60.381945
1210.000000	60.361498
1209.000000	60.348588
1208.000000	60.346608
1207.000000	60.347262
1206.000000	60.318877
1205.000000	60.309689
1204.000000	60.304527
1203.000000	60.305769
1202.000000	60.272553
1201.000000	60.270742
1200.000000	60.282706
1199.000000	60.270243
1198.000000	60.253977
1197.000000	60.239111
1196.000000	60.228955
1195.000000	60.205301
1194.000000	60.206427
1193.000000	60.219411
1192.000000	60.230388
1191.000000	60.239849
1190.000000	60.209055
1189.000000	60.156059
1188.000000	60.152868
1187.000000	60.152899
1186.000000	60.145998
1185.000000	60.152427
1184.000000	60.159638
1183.000000	60.156616
1182.000000	60.171353
1181.000000	60.189187
1180.000000	60.202513
1179.000000	60.221908
1178.000000	60.241705
1177.000000	60.251514
1176.000000	60.258307
1175.000000	60.277400
1174.000000	60.300892
1173.000000	60.323933
1172.000000	60.346826
1171.000000	60.369395
1170.000000	60.388551
1169.000000	60.401261
1168.000000	60.427869
1167.000000	60.472819
1166.000000	60.499051
1165.000000	60.508528
1164.000000	60.532894
1163.000000	60.568867
1162.000000	60.588186
1161.000000	60.608238
1160.000000	60.638225
1159.000000	60.647491
1158.000000	60.662705
1157.000000	60.691816
1156.000000	60.713998
1155.000000	60.730494
1154.000000	60.747789
1153.000000	60.777052
1152.000000	60.803454
1151.000000	60.815907
1150.000000	60.838167
1149.000000	60.852917
1148.000000	60.869019
1147.000000	60.886799
1146.000000	60.911753
1145.000000	60.925380
1144.000000	60.939606
1143.000000	60.962686
1142.000000	60.964644
1141.000000	60.980831
1140.000000	60.999280
1139.000000	60.989068
1138.000000	60.993279
1137.000000	61.007987
1136.000000	61.024356
1135.000000	61.049681
1134.000000	61.054401
1133.000000	61.068004
1132.000000	61.086578
1131.000000	61.092146
1130.000000	61.111128
1129.000000	61.122147
1128.000000	61.137771
1127.000000	61.140777
1126.000000	61.136157
1125.000000	61.125728
1124.000000	61.122524
1123.000000	61.140562
1122.000000	61.138929
1121.000000	61.158868
1120.000000	61.164261
1119.000000	61.162733
1118.000000	61.165545
1117.000000	61.167995
1116.000000	61.176832
1115.000000	61.170507
1114.000000	61.179287
1113.000000	61.183956
1112.000000	61.168269
1111.000000	61.193785
1110.000000	61.202707
1109.000000	61.183124
1108.000000	61.192296
1107.000000	61.193522
1106.000000	61.194060
1105.000000	61.171302
1104.000000	61.180953
1103.000000	61.167896
1102.000000	61.177694
1101.000000	61.195525
1100.000000	61.193111
1099.000000	61.195071
1098.000000	61.205124
1097.000000	61.209585
1096.000000	61.196341
1095.000000	61.170353
1094.000000	61.177289
1093.000000	61.179701
1092.000000	61.168660
1091.000000	61.175337
1090.000000	61.195659
1089.000000	61.187365
1088.000000	61.179053
1087.000000	61.176482
1086.000000	61.176329
1085.000000	61.194496
1084.000000	61.204265
1083.000000	61.177457
1082.000000	61.153096
1081.000000	61.169835
1080.000000	61.154589
1079.000000	61.166850
1078.000000	61.167095
1077.000000	61.186272
1076.000000	61.181519
1075.000000	61.152967
1074.000000	61.153900
1073.000000	61.146817
1072.000000	61.164359
1071.000000	61.159138
1070.000000	61.157865
1069.000000	61.162340
1068.000000	61.142113
1067.000000	61.143471
1066.000000	61.142959
1065.000000	61.147782
1064.000000	61.141947
1063.000000	61.162778
1062.000000	61.152499
1061.000000	61.119568
1060.000000	61.110532
1059.000000	61.128437
1058.000000	61.125006
1057.000000	61.138265
1056.000000	61.134672
1055.000000	61.100809
1054.000000	61.109157
1053.000000	61.118129
1052.000000	61.108486
1051.000000	61.107272
1050.000000	61.076478
1049.000000	61.100460
1048.000000	61.096098
1047.000000	61.105528
1046.000000	61.093132
1045.000000	61.067066
1044.000000	61.082333
1043.000000	61.094179
1042.000000	61.094033
1041.000000	61.083537
1040.000000	61.107390
1039.000000	61.080896
1038.000000	61.089405
1037.000000	61.077515
1036.000000	61.066678
1035.000000	61.089191
1034.000000	61.083979
1033.000000	61.092845
1032.000000	61.071567
1031.000000	61.070715
1030.000000	61.063650
1029.000000	61.061569
1028.000000	61.062429
1027.000000	61.059198
1026.000000	61.082014
1025.000000	61.043438
1024.000000	61.058557
1023.000000	61.058201
1022.000000	61.068380
1021.000000	61.049437
1020.000000	61.047166
1019.000000	61.057925
1018.000000	61.065600
1017.000000	61.071987
1016.000000	61.033650
1015.000000	61.039587
1014.000000	61.065182
1013.000000	61.065603
1012.000000	61.060108
1011.000000	61.057986
1010.000000	61.065844
1009.000000	61.045456
1008.000000	61.056096
1007.000000	61.047754
1006.000000	61.059635
1005.000000	61.069924
1004.000000	61.041580
1003.000000	61.050136
1002.000000	61.054452
1001.000000	61.068558
1000.000000	61.055109
999.000000	61.064127
998.000000	61.067451
997.000000	61.067611
996.000000	61.061837
995.000000	61.069321
994.000000	61.090926
993.000000	61.100167
992.000000	61.100767
991.000000	61.089528
990.000000	61.098496
989.000000	61.100855
988.000000	61.082718
987.000000	61.084648
986.000000	61.087472
985.000000	61.083116
984.000000	61.081474
983.000000	61.091246
982.000000	61.088164
981.000000	61.091393
980.000000	61.112192
979.000000	61.103589
978.000000	61.106942
977.000000	61.098322
976.000000	61.104226
975.000000	61.097166
974.000000	61.094690
973.000000	61.105543
972.000000	61.100113
971.000000	61.108455
970.000000	61.087474
969.000000	61.088597
968.000000	61.089774
967.000000	61.095962
966.000000	61.099184
965.000000	61.095789
964.000000	61.094259
963.000000	61.114344
962.000000	61.107741
961.000000	61.095870
960.000000	61.101403
959.000000	61.093756
958.000000	61.079709
957.000000	61.085367
956.000000	61.094396
955.000000	61.084459
954.000000	61.086549
953.000000	61.105054
952.000000	61.085868
951.000000	61.063332
950.000000	61.082252
949.000000	61.103744
948.000000	61.101245
947.000000	61.090712
946.000000	61.086296
945.000000	61.080756
944.000000	61.066047
943.000000	61.059546
942.000000	61.065921
941.000000	61.056395
940.000000	61.063333
939.000000	61.061097
938.000000	61.041923
937.000000	61.032273
936.000000	61.038513
935.000000	61.046575
934.000000	61.043427
933.000000	61.055845
932.000000	61.022684
931.000000	60.999112
930.000000	61.022352
929.000000	60.998150
928.000000	60.978882
927.000000	60.992802
926.000000	60.983933
925.000000	60.972499
924.000000	60.960312
923.000000	60.975991
922.000000	60.977460
921.000000	60.971581
920.000000	60.984001
919.000000	60.990951
918.000000	60.995377
917.000000	60.990806
916.000000	60.950381
915.000000	60.963679
914.000000	60.941972
913.000000	60.920821
912.000000	60.957016
911.000000	60.959181
910.000000	60.930921
909.000000	60.940366
908.000000	60.936621
907.000000	60.884971
906.000000	60.896304
905.000000	60.953385
904.000000	60.947856
903.000000	60.917975
902.000000	60.917711
901.000000	60.943282
900.000000	60.913201
899.000000	60.911044
898.000000	60.898691
897.000000	60.871616
896.000000	60.881734
895.000000	60.870746
894.000000	60.912188
893.000000	60.881522
892.000000	60.831828
891.000000	60.869308
890.000000	60.885822
889.000000	60.855348
888.000000	60.887832
887.000000	60.860447
886.000000	60.804674
885.000000	60.764540
884.000000	60.784621
883.000000	60.784094
882.000000	60.797334
881.000000	60.835373
880.000000	60.719324
879.000000	60.783577
878.000000	60.813530
877.000000	60.785784
876.000000	60.696376
875.000000	60.734888
874.000000	60.782731
873.000000	60.832382
872.000000	60.750490
871.000000	60.708027
870.000000	60.701577
869.000000	60.639240
868.000000	60.639232
867.000000	60.718473
866.000000	60.660711
865.000000	60.589742
864.000000	60.542409
863.000000	60.632309
862.000000	60.636297
861.000000	60.618450
860.000000	60.668920
859.000000	60.265427
858.000000	59.727279
857.000000	60.318509
856.000000	60.222648
855.000000	60.074728
854.000000	60.514577
853.000000	60.036009
852.000000	60.050309
851.000000	59.893400
850.000000	60.231270
849.000000	59.958384
848.000000	60.082005
847.000000	60.079031
846.000000	60.169823
845.000000	60.131817
844.000000	59.968945
843.000000	60.191078
842.000000	60.257498
841.000000	60.079915
840.000000	60.107482
839.000000	60.152226
838.000000	60.053767
837.000000	59.903354
836.000000	59.867637
835.000000	60.002302
834.000000	59.927178
833.000000	59.841372
832.000000	59.867673
831.000000	59.885286
830.000000	59.975525
829.000000	59.870028
828.000000	59.755925
827.000000	59.859172
826.000000	59.778826
825.000000	59.948057
824.000000	59.835975
823.000000	59.757612
822.000000	59.744939
821.000000	59.538827
820.000000	59.667638
819.000000	59.799758
818.000000	59.722844
817.000000	59.651671
816.000000	59.586664
815.000000	59.583698
814.000000	59.634146
813.000000	59.489090
812.000000	59.560958
811.000000	59.761266
810.000000	59.479404
809.000000	59.619373
808.000000	59.556787
807.000000	59.373945
806.000000	59.620868
805.000000	59.568021
804.000000	59.346733
803.000000	59.450113
802.000000	59.427016
801.000000	59.472682
800.000000	59.428610
799.000000	59.371876
798.000000	59.374370
797.000000	59.393757
796.000000	59.293637
795.000000	59.259766
794.000000	59.351705
793.000000	59.282256
792.000000	59.218552
791.000000	59.201508
790.000000	59.091154
789.000000	59.142422
788.000000	59.154869
787.000000	59.170284
786.000000	59.231670
785.000000	59.029225
784.000000	59.038914
783.000000	59.092826
782.000000	58.962519
781.000000	58.914479
780.000000	58.837786
779.000000	58.936691
778.000000	58.991681
777.000000	58.929593
776.000000	58.881791
775.000000	58.953584
774.000000	58.836155
773.000000	58.796717
772.000000	58.771124
771.000000	58.801086
770.000000	58.761195
769.000000	58.724958
768.000000	58.688770
767.000000	58.648184
766.000000	58.687529
765.000000	58.712370
764.000000	58.610661
763.000000	58.641249
762.000000	58.601428
761.000000	58.509611
760.000000	58.509890
759.000000	58.497944
758.000000	58.448066
757.000000	58.446015
756.000000	58.300055
755.000000	58.369708
754.000000	58.340740
753.000000	58.265602
752.000000	58.213725
751.000000	58.222667
750.000000	58.209540
749.000000	58.151956
748.000000	58.196010
747.000000	58.143439
746.000000	58.103399
745.000000	58.137516
744.000000	58.093950
743.000000	58.010751
742.000000	58.015195
741.000000	57.946750
740.000000	57.928344
739.000000	57.980143
738.000000	57.921814
737.000000	57.854862
736.000000	57.819332
735.000000	57.788251
734.000000	57.677100
733.000000	57.682202
732.000000	57.690524
731.000000	57.664355
730.000000	57.622910
729.000000	57.579539
728.000000	57.528483
727.000000	57.488087
726.000000	57.509003
725.000000	57.489178
724.000000	57.427827
723.000000	57.364958
722.000000	57.323446
721.000000	57.323631
720.000000	57.308330
719.000000	57.226934
718.000000	57.190398
717.000000	57.177299
716.000000	57.147972
715.000000	57.134171
714.000000	57.065743
713.000000	57.012492
712.000000	57.017153
711.000000	57.026032
710.000000	56.989668
709.000000	56.925103
708.000000	56.774997
707.000000	56.713603
706.000000	56.748003
705.000000	56.717531
704.000000	56.690653
703.000000	56.695627
702.000000	56.602469
701.000000	56.538808
700.000000	56.542843
699.000000	56.493806
698.000000	56.439931
697.000000	56.420709
696.000000	56.376262
695.000000	56.294784
694.000000	56.264896
693.000000	56.245149
692.000000	56.155595
691.000000	56.119084
690.000000	56.082936
689.000000	55.941945
688.000000	55.871528
687.000000	55.854442
686.000000	55.812282
685.000000	55.793223
684.000000	55.733638
683.000000	55.631695
682.000000	55.595758
681.000000	55.565976
680.000000	55.493726
679.000000	55.460792
678.000000	55.429981
677.000000	55.367070
676.000000	55.262275
675.000000	55.270810
674.000000	55.253597
673.000000	55.163174
672.000000	55.103288
671.000000	55.101088
670.000000	54.986727
669.000000	54.975443
668.000000	54.960016
667.000000	54.915719
666.000000	54.831765
665.000000	54.750432
664.000000	54.620694
663.000000	54.580606
662.000000	54.566278
661.000000	54.487267
660.000000	54.411522
659.000000	54.337130
658.000000	54.299035
657.000000	54.240586
656.000000	54.181328
655.000000	54.113458
654.000000	54.052384
653.000000	54.014736
652.000000	53.925192
651.000000	53.887655
650.000000	53.868412
649.000000	53.803998
648.000000	53.695860
647.000000	53.628729
646.000000	53.533073
645.000000	53.507737
644.000000	53.466177
643.000000	53.408741
642.000000	53.352270
641.000000	53.305412
640.000000	53.217259
639.000000	53.123214
638.000000	53.058110
637.000000	53.016256
636.000000	52.985602
635.000000	52.902635
634.000000	52.825985
633.000000	52.734340
632.000000	52.658784
631.000000	52.641070
630.000000	52.550465
629.000000	52.492502
628.000000	52.400678
627.000000	52.364595
626.000000	52.246397
625.000000	52.152026
624.000000	52.143868
623.000000	52.048620
622.000000	51.912315
621.000000	51.929523
620.000000	51.848173
619.000000	51.763973
618.000000	51.692758
617.000000	51.608090
616.000000	51.528323
615.000000	51.437060
614.000000	51.320079
613.000000	51.299327
612.000000	51.149361
611.000000	51.160040
610.000000	51.042888
609.000000	50.992486
608.000000	50.895174
607.000000	50.837195
606.000000	50.741538
605.000000	50.599760
604.000000	50.519813
603.000000	50.454595
602.000000	50.395501
601.000000	50.312559
600.000000	50.250761
599.000000	50.128598
598.000000	50.080150
597.000000	50.040277
596.000000	49.899155
595.000000	49.727298
594.000000	49.703054
593.000000	49.628771
592.000000	49.502411
591.000000	49.424707
590.000000	49.327102
589.000000	49.263249
588.000000	49.148403
587.000000	49.049115
586.000000	48.968578
585.000000	48.901918
584.000000	48.776918
583.000000	48.696829
582.000000	48.569289
581.000000	48.524055
580.000000	48.406989
579.000000	48.314608
578.000000	48.197067
577.000000	48.079644
576.000000	47.993340
575.000000	47.884920
574.000000	47.814300
573.000000	47.726713
572.000000	47.564462
571.000000	47.486318
570.000000	47.334370
569.000000	47.268869
568.000000	47.151902
567.000000	47.079490
566.000000	46.947292
565.000000	46.857683
564.000000	46.728907
563.000000	46.572765
562.000000	46.483423
561.000000	46.393411
560.000000	46.254199
559.000000	46.209438
558.000000	46.040964
557.000000	45.909785
556.000000	45.811685
555.000000	45.678963
554.000000	45.552105
553.000000	45.452483
552.000000	45.328946
551.000000	45.183124
550.000000	45.102867
549.000000	44.958468
548.000000	44.863436
547.000000	44.761245
546.000000	44.591075
545.000000	44.493164
544.000000	44.378840
543.000000	44.243721
542.000000	44.076656
541.000000	43.978085
540.000000	43.820053
539.000000	43.712975
538.000000	43.603252
537.000000	43.503666
536.000000	43.360504
535.000000	43.259501
534.000000	43.062647
533.000000	42.944153
532.000000	42.831272
531.000000	42.692617
530.000000	42.542832
529.000000	42.443373
528.000000	42.299106
527.000000	42.140278
526.000000	42.024344
525.000000	41.880628
524.000000	41.730723
523.000000	41.633803
522.000000	41.472899
521.000000	41.363340
520.000000	41.223004
519.000000	41.097478
518.000000	40.951505
517.000000	40.812706
516.000000	40.652320
515.000000	40.522954
514.000000	40.388389
513.000000	40.266057
512.000000	40.121646
511.000000	39.994015
510.000000	39.872704
509.000000	39.730357
508.000000	39.592637
507.000000	39.438484
506.000000	39.289692
505.000000	39.160451
504.000000	39.007344
503.000000	38.878445
502.000000	38.721102
501.000000	38.586572
500.000000	38.452093
499.000000	38.306706
498.000000	38.139728
497.000000	37.970558
496.000000	37.846551
495.000000	37.708134
494.000000	37.533042
493.000000	37.390796
492.000000	37.258886
491.000000	37.100726
490.000000	36.931834
489.000000	36.782252
488.000000	36.626354
487.000000	36.468354
486.000000	36.303953
485.000000	36.138894
484.000000	36.017000
483.000000	35.909310
482.000000	35.704470
481.000000	35.559933
480.000000	35.424225
479.000000	35.317284
478.000000	35.170115
477.000000	35.026498
476.000000	34.886983
475.000000	34.720579
474.000000	34.568801
473.000000	34.443793
472.000000	34.320959
471.000000	34.159801
470.000000	33.998647
469.000000	33.873662
468.000000	33.728055
467.000000	33.550432
466.000000	33.405967
465.000000	33.275481
464.000000	33.109278
463.000000	32.929178
462.000000	32.770599
461.000000	32.613090
460.000000	32.464273
459.000000	32.299513
458.000000	32.113094
457.000000	31.948927
456.000000	31.768640
455.000000	31.586834
454.000000	31.404246
453.000000	31.248818
452.000000	31.095701
451.000000	30.879561
450.000000	30.688550
449.000000	30.508258
448.000000	30.312021
447.000000	30.109594
446.000000	29.912310
445.000000	29.747977
444.000000	29.579075
443.000000	29.430660
442.000000	29.276551
441.000000	29.074174
440.000000	28.885677
439.000000	28.700493
438.000000	28.520026
437.000000	28.337217
436.000000	28.166909
435.000000	28.010837
434.000000	27.841148
433.000000	27.678801
432.000000	27.488617
431.000000	27.267009
430.000000	27.118919
429.000000	26.924412
428.000000	26.747851
427.000000	26.576820
426.000000	26.396148
425.000000	26.220872
424.000000	26.054383
423.000000	25.853879
422.000000	25.646838
421.000000	25.487512
420.000000	25.333587
419.000000	25.172197
418.000000	24.946849
417.000000	24.736951
416.000000	24.600494
415.000000	24.407066
414.000000	24.223412
413.000000	24.044042
412.000000	23.845356
411.000000	23.653018
410.000000	23.471300
409.000000	23.288238
408.000000	23.088214
407.000000	22.938670
406.000000	22.740681
405.000000	22.556057
404.000000	22.347277
403.000000	22.154564
402.000000	22.006188
401.000000	21.804622
400.000000	21.666703
399.000000	21.494328
398.000000	21.295372
397.000000	21.092037
396.000000	20.934600
395.000000	20.741622
394.000000	20.561971
393.000000	20.346428
392.000000	20.197327
391.000000	20.033094
390.000000	19.865699
389.000000	19.671051
388.000000	19.473182
387.000000	19.298058
386.000000	19.135917
385.000000	18.956147
384.000000	18.790690
383.000000	18.612700
382.000000	18.423329
381.000000	18.217991
380.000000	18.008124
379.000000	17.858680
378.000000	17.646096
377.000000	17.563577
376.000000	17.335583
375.000000	17.248697
374.000000	17.037253
373.000000	16.877984
372.000000	16.704559
371.000000	16.564429
370.000000	16.445269
369.000000	16.221799
368.000000	16.127013
367.000000	15.922698
366.000000	15.819161
365.000000	15.675948
364.000000	15.483937
363.000000	15.337626
362.000000	15.207285
361.000000	15.110039
360.000000	14.902461
359.000000	14.819598
358.000000	14.751109
357.000000	14.560740
356.000000	14.428994
355.000000	14.324968
354.000000	14.199003
353.000000	14.025321
352.000000	13.904493
351.000000	13.748008
350.000000	13.653460
349.000000	13.541628
348.000000	13.468048
347.000000	13.292683
346.000000	13.221765
345.000000	13.096312
344.000000	13.044433
343.000000	12.891506
342.000000	12.778855
341.000000	12.691206
340.000000	12.496834
339.000000	12.435003
338.000000	12.368052
337.000000	12.272524
336.000000	12.078183
335.000000	12.002669
334.000000	11.921096
333.000000	11.864046
332.000000	11.848984
331.000000	11.628471
330.000000	11.576082
329.000000	11.422141
328.000000	11.470673
327.000000	11.294037
326.000000	11.246647
325.000000	11.106228
324.000000	11.081475
323.000000	11.047884
322.000000	10.955727
321.000000	10.951975
320.000000	10.851782
319.000000	10.748805
318.000000	10.725797
317.000000	10.682515
316.000000	10.631807
315.000000	10.595804
314.000000	10.542347
313.000000	10.465890
312.000000	10.427539
311.000000	10.383270
310.000000	10.391233
309.000000	10.366000
308.000000	10.265894
307.000000	10.255863
306.000000	10.227384
305.000000	10.171851
304.000000	10.118597
303.000000	10.080883
302.000000	10.117560
301.000000	10.116610
300.000000	10.105833
299.000000	10.072045
298.000000	10.006915
297.000000	9.941791
296.000000	9.907473
295.000000	9.965781
294.000000	9.892108
293.000000	9.831206
292.000000	9.752224
291.000000	9.726327
290.000000	9.742683
289.000000	9.724121
288.000000	9.660330
287.000000	9.622629
286.000000	9.660774
285.000000	9.621681
284.000000	9.693921
283.000000	9.663760
282.000000	9.689630
281.000000	9.665626
280.000000	9.662064
279.000000	9.746177
278.000000	9.698671
277.000000	9.761121
276.000000	9.781152
275.000000	9.829451
274.000000	9.905058
273.000000	9.972487
272.000000	10.018363
271.000000	10.028989
270.000000	10.120119
269.000000	10.185555
268.000000	10.244729
267.000000	10.283999
266.000000	10.368002
265.000000	10.424705
264.000000	10.532565
263.000000	10.640151
262.000000	10.750992
261.000000	10.842563
260.000000	10.909147
259.000000	11.030205
258.000000	11.097737
257.000000	11.214783
256.000000	11.316112
255.000000	11.488686
254.000000	11.603215
253.000000	11.658329
252.000000	11.810410
251.000000	11.949828
250.000000	12.079989
249.000000	12.209721
248.000000	12.302001
247.000000	12.382361
246.000000	12.465463
245.000000	12.573326
244.000000	12.698059
243.000000	12.701173
242.000000	12.698576
241.000000	12.710631
240.000000	12.727530
239.000000	12.726175
238.000000	12.662918
237.000000	12.617321
236.000000	12.623884
235.000000	12.512738
234.000000	12.408644
233.000000	12.339274
232.000000	12.290273
231.000000	12.230091
230.000000	12.179374
229.000000	12.168133
228.000000	12.228366
227.000000	12.225817
226.000000	12.138757
225.000000	12.177141
224.000000	12.203450
223.000000	12.277591
222.000000	12.310011
221.000000	12.386120
220.000000	12.524582
219.000000	12.617027
218.000000	12.661756
217.000000	12.796277
216.000000	12.970561
215.000000	13.194491
214.000000	13.425641
213.000000	13.513758
212.000000	13.665023
211.000000	13.902251
210.000000	14.143056
209.000000	14.418673
208.000000	14.825371
207.000000	15.078804
206.000000	15.379614
205.000000	15.873313
204.000000	16.216243
203.000000	16.698306
202.000000	17.319591
201.000000	17.804760
200.000000	18.231758
