PE UV       SUBTECH     SPECTRUM    ASCII       PEDS        4.00        
   -1
RTms148352.Sample.asc
18/03/20
09:34:22.00
18/03/20
09:34:22.00
Administrator

200.000000
1
Lambda 750
750N8071901
PerkinElmer UV WinLab 6.0.4.0738 / 1.61.00 Lambda 900

0
0
3350/servo 860.8/2
0
0
UV/VIS
1
1
1
CommonBeamDepol,150mm sphere / downward view
0
0
0
0
Program
Program
3350/servo 860.8/2
3350/0.2 860.8/0.2
3350/0.2 860.8/0.2
0
1
 
 
 
0
 
860.8
319.2
860.8
Front
100
on
 
 
0
0
0
 
0
 
 
 
0
 
 
0
0
0
0
0
 
 
 
 
0
0


0
0
#HDR
-1
-1
#GR
nm
%R
1.0
0.0
2350.000000
-1.000000
2151
8
65.483681
6.717172
#DATA
2350.000000	36.231625
2349.000000	36.146563
2348.000000	35.927058
2347.000000	36.270064
2346.000000	36.364253
2345.000000	36.214846
2344.000000	35.894135
2343.000000	35.887007
2342.000000	36.350115
2341.000000	36.121545
2340.000000	36.211501
2339.000000	36.518576
2338.000000	36.648069
2337.000000	36.672113
2336.000000	36.946623
2335.000000	36.756409
2334.000000	36.881502
2333.000000	36.964377
2332.000000	36.835853
2331.000000	36.773015
2330.000000	36.675980
2329.000000	36.987088
2328.000000	36.674489
2327.000000	36.492209
2326.000000	36.473443
2325.000000	36.582742
2324.000000	36.644401
2323.000000	36.562910
2322.000000	36.308991
2321.000000	36.447334
2320.000000	36.313051
2319.000000	36.316352
2318.000000	36.360468
2317.000000	36.314111
2316.000000	36.101423
2315.000000	36.059772
2314.000000	35.579718
2313.000000	35.373498
2312.000000	35.459555
2311.000000	35.643300
2310.000000	35.377186
2309.000000	35.520001
2308.000000	35.431207
2307.000000	35.484933
2306.000000	35.293081
2305.000000	35.232369
2304.000000	35.221616
2303.000000	35.222132
2302.000000	35.265838
2301.000000	35.115311
2300.000000	35.087237
2299.000000	35.093621
2298.000000	35.010584
2297.000000	35.092381
2296.000000	35.094939
2295.000000	35.053629
2294.000000	34.850273
2293.000000	34.756081
2292.000000	34.888231
2291.000000	34.774364
2290.000000	34.688091
2289.000000	34.678192
2288.000000	34.772618
2287.000000	34.704381
2286.000000	34.624401
2285.000000	34.743509
2284.000000	34.745952
2283.000000	34.503974
2282.000000	34.720947
2281.000000	34.845057
2280.000000	34.692634
2279.000000	34.780208
2278.000000	34.927443
2277.000000	34.843978
2276.000000	34.713673
2275.000000	34.796131
2274.000000	34.850592
2273.000000	34.883129
2272.000000	35.022603
2271.000000	35.161705
2270.000000	35.207459
2269.000000	35.215515
2268.000000	35.380262
2267.000000	35.482717
2266.000000	35.568817
2265.000000	35.700997
2264.000000	35.769909
2263.000000	35.985947
2262.000000	36.227135
2261.000000	36.354084
2260.000000	36.408372
2259.000000	36.544882
2258.000000	36.740022
2257.000000	36.928877
2256.000000	37.139470
2255.000000	37.264524
2254.000000	37.374965
2253.000000	37.609895
2252.000000	37.815732
2251.000000	37.986389
2250.000000	38.143266
2249.000000	38.461710
2248.000000	38.686611
2247.000000	38.792788
2246.000000	38.994411
2245.000000	39.201522
2244.000000	39.429784
2243.000000	39.628779
2242.000000	39.793146
2241.000000	39.947483
2240.000000	40.072111
2239.000000	40.075328
2238.000000	40.120643
2237.000000	40.283816
2236.000000	40.419279
2235.000000	40.648349
2234.000000	40.811711
2233.000000	40.804976
2232.000000	40.786893
2231.000000	40.876965
2230.000000	40.867944
2229.000000	40.935937
2228.000000	41.013608
2227.000000	41.020832
2226.000000	40.943608
2225.000000	40.937506
2224.000000	40.946970
2223.000000	40.886649
2222.000000	41.018175
2221.000000	40.998272
2220.000000	40.871618
2219.000000	40.876796
2218.000000	40.912211
2217.000000	40.839178
2216.000000	40.821183
2215.000000	40.733217
2214.000000	40.707748
2213.000000	40.769639
2212.000000	40.679279
2211.000000	40.665925
2210.000000	40.620482
2209.000000	40.440079
2208.000000	40.424842
2207.000000	40.382926
2206.000000	40.356101
2205.000000	40.197177
2204.000000	40.145774
2203.000000	40.114164
2202.000000	40.044368
2201.000000	39.997570
2200.000000	39.890903
2199.000000	39.857069
2198.000000	39.925122
2197.000000	39.748743
2196.000000	39.642990
2195.000000	39.691253
2194.000000	39.526642
2193.000000	39.426536
2192.000000	39.432629
2191.000000	39.355058
2190.000000	39.415175
2189.000000	39.416751
2188.000000	39.263629
2187.000000	39.116648
2186.000000	39.148992
2185.000000	39.062949
2184.000000	39.085097
2183.000000	39.137983
2182.000000	39.001964
2181.000000	38.891665
2180.000000	38.892489
2179.000000	38.875627
2178.000000	38.878505
2177.000000	38.985530
2176.000000	38.981426
2175.000000	38.904287
2174.000000	39.010936
2173.000000	38.999444
2172.000000	39.128922
2171.000000	39.106520
2170.000000	39.232798
2169.000000	39.250051
2168.000000	39.588252
2167.000000	39.418629
2166.000000	39.507869
2165.000000	39.561266
2164.000000	39.704814
2163.000000	39.800664
2162.000000	39.977157
2161.000000	40.075689
2160.000000	40.202431
2159.000000	40.321224
2158.000000	40.280215
2157.000000	40.519662
2156.000000	40.517698
2155.000000	40.799795
2154.000000	40.987379
2153.000000	41.258327
2152.000000	41.082920
2151.000000	41.385021
2150.000000	41.481711
2149.000000	41.552480
2148.000000	41.723096
2147.000000	41.918331
2146.000000	41.848518
2145.000000	42.210960
2144.000000	42.235527
2143.000000	42.204996
2142.000000	42.305461
2141.000000	42.528423
2140.000000	42.753388
2139.000000	42.705394
2138.000000	43.089756
2137.000000	43.039339
2136.000000	43.168633
2135.000000	43.348193
2134.000000	43.362960
2133.000000	43.334548
2132.000000	43.489308
2131.000000	43.507368
2130.000000	43.655413
2129.000000	43.615617
2128.000000	43.758033
2127.000000	43.687162
2126.000000	43.911503
2125.000000	43.846344
2124.000000	44.143939
2123.000000	43.967108
2122.000000	44.080218
2121.000000	44.072370
2120.000000	44.051237
2119.000000	44.067730
2118.000000	44.020720
2117.000000	44.087685
2116.000000	44.313286
2115.000000	44.210531
2114.000000	44.224122
2113.000000	44.195301
2112.000000	44.295799
2111.000000	44.220115
2110.000000	44.351264
2109.000000	44.422399
2108.000000	44.516416
2107.000000	44.440782
2106.000000	44.489379
2105.000000	44.456650
2104.000000	44.509760
2103.000000	44.396563
2102.000000	44.521748
2101.000000	44.454036
2100.000000	44.499174
2099.000000	44.514410
2098.000000	44.510672
2097.000000	44.401202
2096.000000	44.444647
2095.000000	44.460062
2094.000000	44.541605
2093.000000	44.452118
2092.000000	44.485708
2091.000000	44.476068
2090.000000	44.291015
2089.000000	44.341275
2088.000000	44.355689
2087.000000	44.331746
2086.000000	44.286300
2085.000000	44.300357
2084.000000	44.233955
2083.000000	44.194754
2082.000000	44.090113
2081.000000	44.054168
2080.000000	44.027035
2079.000000	43.939376
2078.000000	43.859123
2077.000000	43.822711
2076.000000	43.782508
2075.000000	43.606628
2074.000000	43.535899
2073.000000	43.439991
2072.000000	43.400439
2071.000000	43.333829
2070.000000	43.159210
2069.000000	42.989757
2068.000000	42.912723
2067.000000	42.733816
2066.000000	42.575479
2065.000000	42.516768
2064.000000	42.403771
2063.000000	42.313727
2062.000000	42.212916
2061.000000	42.066411
2060.000000	41.867175
2059.000000	41.769937
2058.000000	41.675446
2057.000000	41.525028
2056.000000	41.351746
2055.000000	41.162632
2054.000000	40.981478
2053.000000	40.901964
2052.000000	40.821008
2051.000000	40.685289
2050.000000	40.626251
2049.000000	40.577029
2048.000000	40.491544
2047.000000	40.388178
2046.000000	40.285433
2045.000000	40.231952
2044.000000	40.168933
2043.000000	40.140206
2042.000000	40.163899
2041.000000	40.152212
2040.000000	40.170922
2039.000000	40.208974
2038.000000	40.271507
2037.000000	40.300307
2036.000000	40.365880
2035.000000	40.445282
2034.000000	40.519582
2033.000000	40.615279
2032.000000	40.722862
2031.000000	40.757487
2030.000000	40.844661
2029.000000	40.990440
2028.000000	41.104944
2027.000000	41.171965
2026.000000	41.249139
2025.000000	41.354975
2024.000000	41.391378
2023.000000	41.464905
2022.000000	41.526876
2021.000000	41.490018
2020.000000	41.579066
2019.000000	41.674383
2018.000000	41.653888
2017.000000	41.659427
2016.000000	41.651464
2015.000000	41.654906
2014.000000	41.609658
2013.000000	41.566551
2012.000000	41.566397
2011.000000	41.535306
2010.000000	41.494597
2009.000000	41.414005
2008.000000	41.321248
2007.000000	41.249126
2006.000000	41.186887
2005.000000	41.112524
2004.000000	41.048251
2003.000000	40.961621
2002.000000	40.871644
2001.000000	40.760287
2000.000000	40.669176
1999.000000	40.575493
1998.000000	40.467856
1997.000000	40.389135
1996.000000	40.304535
1995.000000	40.185421
1994.000000	40.100335
1993.000000	40.010633
1992.000000	39.931036
1991.000000	39.800337
1990.000000	39.702881
1989.000000	39.573184
1988.000000	39.468204
1987.000000	39.419879
1986.000000	39.303860
1985.000000	39.237106
1984.000000	39.106228
1983.000000	39.024631
1982.000000	38.904968
1981.000000	38.823837
1980.000000	38.748620
1979.000000	38.612638
1978.000000	38.537753
1977.000000	38.398460
1976.000000	38.316507
1975.000000	38.236742
1974.000000	38.131474
1973.000000	38.067280
1972.000000	37.992623
1971.000000	37.828755
1970.000000	37.799878
1969.000000	37.695458
1968.000000	37.590667
1967.000000	37.544458
1966.000000	37.449651
1965.000000	37.325452
1964.000000	37.255366
1963.000000	37.181314
1962.000000	37.071288
1961.000000	37.002270
1960.000000	36.946473
1959.000000	36.838360
1958.000000	36.754452
1957.000000	36.663329
1956.000000	36.569161
1955.000000	36.533781
1954.000000	36.512515
1953.000000	36.478274
1952.000000	36.408823
1951.000000	36.385678
1950.000000	36.291389
1949.000000	36.269411
1948.000000	36.218935
1947.000000	36.229471
1946.000000	36.210169
1945.000000	36.209302
1944.000000	36.196057
1943.000000	36.205946
1942.000000	36.226147
1941.000000	36.302653
1940.000000	36.349046
1939.000000	36.406665
1938.000000	36.410846
1937.000000	36.548509
1936.000000	36.624340
1935.000000	36.704584
1934.000000	36.794492
1933.000000	36.960880
1932.000000	37.045226
1931.000000	37.139224
1930.000000	37.340778
1929.000000	37.511485
1928.000000	37.671490
1927.000000	37.900656
1926.000000	38.037509
1925.000000	38.319665
1924.000000	38.495593
1923.000000	38.729351
1922.000000	38.936985
1921.000000	39.334193
1920.000000	39.571209
1919.000000	39.820282
1918.000000	40.101238
1917.000000	40.481282
1916.000000	40.653163
1915.000000	41.005743
1914.000000	41.362405
1913.000000	41.795867
1912.000000	42.061483
1911.000000	42.362810
1910.000000	42.840842
1909.000000	43.207901
1908.000000	43.586613
1907.000000	44.015545
1906.000000	44.397957
1905.000000	44.810192
1904.000000	45.211286
1903.000000	45.744254
1902.000000	46.174585
1901.000000	46.601226
1900.000000	47.073702
1899.000000	47.543385
1898.000000	47.997454
1897.000000	48.433804
1896.000000	48.846719
1895.000000	49.300906
1894.000000	49.745659
1893.000000	50.180317
1892.000000	50.620534
1891.000000	51.024873
1890.000000	51.410812
1889.000000	51.820042
1888.000000	52.141358
1887.000000	52.512034
1886.000000	52.882265
1885.000000	53.199857
1884.000000	53.535635
1883.000000	53.836390
1882.000000	54.143460
1881.000000	54.406801
1880.000000	54.698435
1879.000000	55.005290
1878.000000	55.202043
1877.000000	55.482625
1876.000000	55.631631
1875.000000	55.901212
1874.000000	56.076038
1873.000000	56.220772
1872.000000	56.396000
1871.000000	56.510713
1870.000000	56.695366
1869.000000	56.835130
1868.000000	56.898743
1867.000000	56.961626
1866.000000	57.047451
1865.000000	57.150448
1864.000000	57.161265
1863.000000	57.208687
1862.000000	57.325587
1861.000000	57.362199
1860.000000	57.424476
1859.000000	57.471008
1858.000000	57.486330
1857.000000	57.534538
1856.000000	57.587560
1855.000000	57.599671
1854.000000	57.616977
1853.000000	57.630821
1852.000000	57.635540
1851.000000	57.596454
1850.000000	57.618619
1849.000000	57.617793
1848.000000	57.622814
1847.000000	57.617421
1846.000000	57.613343
1845.000000	57.621012
1844.000000	57.582684
1843.000000	57.556505
1842.000000	57.554934
1841.000000	57.523340
1840.000000	57.495525
1839.000000	57.473227
1838.000000	57.434550
1837.000000	57.400370
1836.000000	57.383783
1835.000000	57.348960
1834.000000	57.284307
1833.000000	57.248123
1832.000000	57.209447
1831.000000	57.158591
1830.000000	57.157345
1829.000000	57.137346
1828.000000	57.105296
1827.000000	57.072665
1826.000000	57.046763
1825.000000	57.007705
1824.000000	56.982451
1823.000000	56.944608
1822.000000	56.898222
1821.000000	56.874855
1820.000000	56.831679
1819.000000	56.793962
1818.000000	56.786838
1817.000000	56.749087
1816.000000	56.728273
1815.000000	56.707945
1814.000000	56.685811
1813.000000	56.668974
1812.000000	56.642981
1811.000000	56.606082
1810.000000	56.568629
1809.000000	56.548329
1808.000000	56.509050
1807.000000	56.476872
1806.000000	56.474626
1805.000000	56.467728
1804.000000	56.449013
1803.000000	56.400086
1802.000000	56.355889
1801.000000	56.348014
1800.000000	56.322565
1799.000000	56.284651
1798.000000	56.274307
1797.000000	56.251303
1796.000000	56.227689
1795.000000	56.220347
1794.000000	56.219957
1793.000000	56.193394
1792.000000	56.174978
1791.000000	56.179192
1790.000000	56.147898
1789.000000	56.128897
1788.000000	56.116178
1787.000000	56.093586
1786.000000	56.064964
1785.000000	56.021292
1784.000000	56.001640
1783.000000	55.974678
1782.000000	55.925327
1781.000000	55.904614
1780.000000	55.860279
1779.000000	55.827361
1778.000000	55.780950
1777.000000	55.721804
1776.000000	55.672437
1775.000000	55.604429
1774.000000	55.570833
1773.000000	55.539001
1772.000000	55.452430
1771.000000	55.397772
1770.000000	55.342111
1769.000000	55.275881
1768.000000	55.212572
1767.000000	55.195838
1766.000000	55.174771
1765.000000	55.089588
1764.000000	55.049331
1763.000000	54.998159
1762.000000	54.959130
1761.000000	54.928456
1760.000000	54.874142
1759.000000	54.839189
1758.000000	54.817155
1757.000000	54.764997
1756.000000	54.736675
1755.000000	54.706366
1754.000000	54.672066
1753.000000	54.606617
1752.000000	54.573668
1751.000000	54.522657
1750.000000	54.495186
1749.000000	54.473534
1748.000000	54.395684
1747.000000	54.331299
1746.000000	54.286749
1745.000000	54.241888
1744.000000	54.165548
1743.000000	54.146992
1742.000000	54.044887
1741.000000	53.982349
1740.000000	53.937111
1739.000000	53.878581
1738.000000	53.844551
1737.000000	53.810325
1736.000000	53.765005
1735.000000	53.769043
1734.000000	53.771015
1733.000000	53.718015
1732.000000	53.717091
1731.000000	53.713539
1730.000000	53.739648
1729.000000	53.740927
1728.000000	53.826636
1727.000000	53.839860
1726.000000	53.905957
1725.000000	53.968515
1724.000000	54.053087
1723.000000	54.120118
1722.000000	54.218233
1721.000000	54.311007
1720.000000	54.386211
1719.000000	54.500456
1718.000000	54.572414
1717.000000	54.648479
1716.000000	54.749266
1715.000000	54.835708
1714.000000	54.925776
1713.000000	55.000925
1712.000000	55.079773
1711.000000	55.156456
1710.000000	55.222010
1709.000000	55.286869
1708.000000	55.344570
1707.000000	55.409810
1706.000000	55.467276
1705.000000	55.500212
1704.000000	55.520821
1703.000000	55.531201
1702.000000	55.595477
1701.000000	55.614310
1700.000000	55.635200
1699.000000	55.653730
1698.000000	55.734267
1697.000000	55.770153
1696.000000	55.794120
1695.000000	55.824091
1694.000000	55.865276
1693.000000	55.932153
1692.000000	55.966165
1691.000000	56.042289
1690.000000	56.114222
1689.000000	56.209301
1688.000000	56.273225
1687.000000	56.392971
1686.000000	56.482800
1685.000000	56.617027
1684.000000	56.759905
1683.000000	56.859869
1682.000000	57.001701
1681.000000	57.137224
1680.000000	57.263335
1679.000000	57.412443
1678.000000	57.533680
1677.000000	57.627623
1676.000000	57.796650
1675.000000	57.953391
1674.000000	58.075889
1673.000000	58.214486
1672.000000	58.352074
1671.000000	58.474658
1670.000000	58.588000
1669.000000	58.690069
1668.000000	58.796608
1667.000000	58.898861
1666.000000	58.980325
1665.000000	59.041248
1664.000000	59.129549
1663.000000	59.163889
1662.000000	59.259959
1661.000000	59.306560
1660.000000	59.343341
1659.000000	59.414326
1658.000000	59.452083
1657.000000	59.479620
1656.000000	59.498820
1655.000000	59.533520
1654.000000	59.571965
1653.000000	59.566281
1652.000000	59.572102
1651.000000	59.568062
1650.000000	59.582222
1649.000000	59.577620
1648.000000	59.559107
1647.000000	59.566698
1646.000000	59.546321
1645.000000	59.545064
1644.000000	59.536402
1643.000000	59.522382
1642.000000	59.490603
1641.000000	59.479365
1640.000000	59.468538
1639.000000	59.443652
1638.000000	59.445915
1637.000000	59.417589
1636.000000	59.365440
1635.000000	59.356969
1634.000000	59.315835
1633.000000	59.294206
1632.000000	59.284165
1631.000000	59.241792
1630.000000	59.202050
1629.000000	59.159269
1628.000000	59.123629
1627.000000	59.098574
1626.000000	59.071784
1625.000000	59.048971
1624.000000	59.012094
1623.000000	58.970536
1622.000000	58.949055
1621.000000	58.900218
1620.000000	58.866068
1619.000000	58.818241
1618.000000	58.779069
1617.000000	58.742850
1616.000000	58.707011
1615.000000	58.661136
1614.000000	58.615614
1613.000000	58.554107
1612.000000	58.510019
1611.000000	58.476658
1610.000000	58.448548
1609.000000	58.408340
1608.000000	58.355426
1607.000000	58.300726
1606.000000	58.236074
1605.000000	58.198151
1604.000000	58.147045
1603.000000	58.087038
1602.000000	58.052542
1601.000000	58.004929
1600.000000	57.957697
1599.000000	57.914096
1598.000000	57.875462
1597.000000	57.828428
1596.000000	57.776261
1595.000000	57.737714
1594.000000	57.694140
1593.000000	57.650753
1592.000000	57.609867
1591.000000	57.561514
1590.000000	57.527653
1589.000000	57.483838
1588.000000	57.446588
1587.000000	57.427635
1586.000000	57.381163
1585.000000	57.349708
1584.000000	57.314024
1583.000000	57.284267
1582.000000	57.245474
1581.000000	57.206235
1580.000000	57.173457
1579.000000	57.131380
1578.000000	57.113544
1577.000000	57.084261
1576.000000	57.042703
1575.000000	57.007796
1574.000000	56.961570
1573.000000	56.926100
1572.000000	56.883112
1571.000000	56.843814
1570.000000	56.802943
1569.000000	56.773636
1568.000000	56.754097
1567.000000	56.720140
1566.000000	56.702261
1565.000000	56.681968
1564.000000	56.653165
1563.000000	56.644254
1562.000000	56.616411
1561.000000	56.583436
1560.000000	56.575774
1559.000000	56.558954
1558.000000	56.538397
1557.000000	56.530044
1556.000000	56.499655
1555.000000	56.479831
1554.000000	56.482743
1553.000000	56.448280
1552.000000	56.423261
1551.000000	56.399111
1550.000000	56.370519
1549.000000	56.336402
1548.000000	56.317300
1547.000000	56.276205
1546.000000	56.217345
1545.000000	56.166975
1544.000000	56.103705
1543.000000	56.057943
1542.000000	55.998448
1541.000000	55.923226
1540.000000	55.869573
1539.000000	55.807651
1538.000000	55.742001
1537.000000	55.652537
1536.000000	55.588667
1535.000000	55.528120
1534.000000	55.470439
1533.000000	55.392984
1532.000000	55.316444
1531.000000	55.240913
1530.000000	55.174326
1529.000000	55.116368
1528.000000	55.052320
1527.000000	54.996202
1526.000000	54.934389
1525.000000	54.905169
1524.000000	54.853325
1523.000000	54.800141
1522.000000	54.756417
1521.000000	54.718196
1520.000000	54.676045
1519.000000	54.643684
1518.000000	54.627218
1517.000000	54.584780
1516.000000	54.545187
1515.000000	54.522830
1514.000000	54.484597
1513.000000	54.453022
1512.000000	54.435017
1511.000000	54.417851
1510.000000	54.422785
1509.000000	54.453330
1508.000000	54.506021
1507.000000	54.516295
1506.000000	54.482337
1505.000000	54.464697
1504.000000	54.446581
1503.000000	54.425189
1502.000000	54.407646
1501.000000	54.390018
1500.000000	54.387374
1499.000000	54.389190
1498.000000	54.386847
1497.000000	54.390172
1496.000000	54.399772
1495.000000	54.407368
1494.000000	54.404782
1493.000000	54.440399
1492.000000	54.447509
1491.000000	54.464560
1490.000000	54.493716
1489.000000	54.534478
1488.000000	54.563265
1487.000000	54.591231
1486.000000	54.616376
1485.000000	54.663060
1484.000000	54.715188
1483.000000	54.731502
1482.000000	54.769803
1481.000000	54.814664
1480.000000	54.843936
1479.000000	54.905773
1478.000000	54.956648
1477.000000	54.989853
1476.000000	55.032669
1475.000000	55.092124
1474.000000	55.107775
1473.000000	55.159872
1472.000000	55.213243
1471.000000	55.225700
1470.000000	55.266332
1469.000000	55.309933
1468.000000	55.347964
1467.000000	55.414679
1466.000000	55.477661
1465.000000	55.498798
1464.000000	55.515430
1463.000000	55.543059
1462.000000	55.591531
1461.000000	55.661769
1460.000000	55.700132
1459.000000	55.733843
1458.000000	55.785686
1457.000000	55.826092
1456.000000	55.870289
1455.000000	55.916140
1454.000000	55.959174
1453.000000	56.018878
1452.000000	56.082216
1451.000000	56.118515
1450.000000	56.179405
1449.000000	56.197174
1448.000000	56.267096
1447.000000	56.334265
1446.000000	56.392903
1445.000000	56.447347
1444.000000	56.514430
1443.000000	56.572829
1442.000000	56.638927
1441.000000	56.724560
1440.000000	56.793765
1439.000000	56.867028
1438.000000	56.932252
1437.000000	57.004395
1436.000000	57.088633
1435.000000	57.164160
1434.000000	57.258457
1433.000000	57.337459
1432.000000	57.413120
1431.000000	57.517788
1430.000000	57.611120
1429.000000	57.702472
1428.000000	57.801997
1427.000000	57.906702
1426.000000	58.002157
1425.000000	58.109352
1424.000000	58.229505
1423.000000	58.349084
1422.000000	58.468747
1421.000000	58.586742
1420.000000	58.714501
1419.000000	58.835933
1418.000000	58.954581
1417.000000	59.082544
1416.000000	59.234233
1415.000000	59.378564
1414.000000	59.496482
1413.000000	59.616694
1412.000000	59.755899
1411.000000	59.884317
1410.000000	60.030964
1409.000000	60.165737
1408.000000	60.304266
1407.000000	60.423247
1406.000000	60.550192
1405.000000	60.700303
1404.000000	60.832251
1403.000000	60.951411
1402.000000	61.079002
1401.000000	61.197536
1400.000000	61.324653
1399.000000	61.435290
1398.000000	61.542471
1397.000000	61.657865
1396.000000	61.773314
1395.000000	61.891294
1394.000000	61.977847
1393.000000	62.080004
1392.000000	62.170100
1391.000000	62.261677
1390.000000	62.360786
1389.000000	62.460958
1388.000000	62.546268
1387.000000	62.628681
1386.000000	62.719627
1385.000000	62.804756
1384.000000	62.886706
1383.000000	62.947119
1382.000000	63.013783
1381.000000	63.069661
1380.000000	63.100469
1379.000000	63.164863
1378.000000	63.233960
1377.000000	63.287819
1376.000000	63.325637
1375.000000	63.360558
1374.000000	63.402425
1373.000000	63.426026
1372.000000	63.448563
1371.000000	63.504796
1370.000000	63.556282
1369.000000	63.586314
1368.000000	63.601190
1367.000000	63.637026
1366.000000	63.681227
1365.000000	63.711084
1364.000000	63.750283
1363.000000	63.792551
1362.000000	63.820801
1361.000000	63.858194
1360.000000	63.894273
1359.000000	63.915945
1358.000000	63.967991
1357.000000	64.003428
1356.000000	64.036491
1355.000000	64.087583
1354.000000	64.106774
1353.000000	64.138983
1352.000000	64.180011
1351.000000	64.211514
1350.000000	64.253667
1349.000000	64.289230
1348.000000	64.331202
1347.000000	64.363360
1346.000000	64.396562
1345.000000	64.418568
1344.000000	64.446912
1343.000000	64.480288
1342.000000	64.506195
1341.000000	64.555649
1340.000000	64.597548
1339.000000	64.621693
1338.000000	64.639388
1337.000000	64.658342
1336.000000	64.672422
1335.000000	64.698394
1334.000000	64.727459
1333.000000	64.760560
1332.000000	64.767521
1331.000000	64.809401
1330.000000	64.808621
1329.000000	64.828636
1328.000000	64.827058
1327.000000	64.846733
1326.000000	64.864123
1325.000000	64.886512
1324.000000	64.900766
1323.000000	64.917438
1322.000000	64.909643
1321.000000	64.907537
1320.000000	64.933720
1319.000000	64.931073
1318.000000	64.939788
1317.000000	64.953458
1316.000000	64.953907
1315.000000	64.959994
1314.000000	64.967752
1313.000000	64.948482
1312.000000	64.973355
1311.000000	64.971794
1310.000000	64.954530
1309.000000	64.961675
1308.000000	64.975035
1307.000000	64.983431
1306.000000	64.962061
1305.000000	64.962920
1304.000000	64.966791
1303.000000	65.001909
1302.000000	64.998161
1301.000000	64.989279
1300.000000	64.985774
1299.000000	64.999671
1298.000000	64.997508
1297.000000	64.996779
1296.000000	64.994809
1295.000000	64.984684
1294.000000	64.984483
1293.000000	64.994449
1292.000000	64.983578
1291.000000	64.989725
1290.000000	64.978548
1289.000000	64.980536
1288.000000	64.979415
1287.000000	64.963860
1286.000000	64.960525
1285.000000	64.923347
1284.000000	64.932430
1283.000000	64.934172
1282.000000	64.929469
1281.000000	64.939647
1280.000000	64.935992
1279.000000	64.932870
1278.000000	64.932172
1277.000000	64.923987
1276.000000	64.936810
1275.000000	64.951499
1274.000000	64.928617
1273.000000	64.923426
1272.000000	64.904735
1271.000000	64.918668
1270.000000	64.922659
1269.000000	64.912432
1268.000000	64.905152
1267.000000	64.916702
1266.000000	64.926680
1265.000000	64.888185
1264.000000	64.932397
1263.000000	64.946012
1262.000000	64.946224
1261.000000	64.924467
1260.000000	64.912004
1259.000000	64.932485
1258.000000	64.917950
1257.000000	64.936967
1256.000000	64.926239
1255.000000	64.948240
1254.000000	64.924245
1253.000000	64.911796
1252.000000	64.909900
1251.000000	64.923940
1250.000000	64.927677
1249.000000	64.897422
1248.000000	64.889313
1247.000000	64.887184
1246.000000	64.879442
1245.000000	64.884067
1244.000000	64.884764
1243.000000	64.863348
1242.000000	64.854310
1241.000000	64.831811
1240.000000	64.817780
1239.000000	64.796026
1238.000000	64.777250
1237.000000	64.771762
1236.000000	64.765282
1235.000000	64.742718
1234.000000	64.728956
1233.000000	64.713698
1232.000000	64.691833
1231.000000	64.656138
1230.000000	64.639177
1229.000000	64.610752
1228.000000	64.593964
1227.000000	64.578958
1226.000000	64.559227
1225.000000	64.530147
1224.000000	64.523974
1223.000000	64.513720
1222.000000	64.500865
1221.000000	64.467692
1220.000000	64.453970
1219.000000	64.432567
1218.000000	64.393654
1217.000000	64.388164
1216.000000	64.362701
1215.000000	64.329812
1214.000000	64.305748
1213.000000	64.302127
1212.000000	64.282955
1211.000000	64.273113
1210.000000	64.235770
1209.000000	64.226920
1208.000000	64.202108
1207.000000	64.189133
1206.000000	64.147981
1205.000000	64.141725
1204.000000	64.124070
1203.000000	64.110891
1202.000000	64.062298
1201.000000	64.053136
1200.000000	64.040182
1199.000000	64.010386
1198.000000	64.016441
1197.000000	63.988824
1196.000000	63.975158
1195.000000	63.941590
1194.000000	63.917361
1193.000000	63.925102
1192.000000	63.917226
1191.000000	63.905133
1190.000000	63.900079
1189.000000	63.894365
1188.000000	63.895917
1187.000000	63.901061
1186.000000	63.902823
1185.000000	63.908060
1184.000000	63.905528
1183.000000	63.904498
1182.000000	63.925593
1181.000000	63.938658
1180.000000	63.962758
1179.000000	63.993329
1178.000000	64.022772
1177.000000	64.035616
1176.000000	64.057770
1175.000000	64.084471
1174.000000	64.115523
1173.000000	64.154349
1172.000000	64.193782
1171.000000	64.223067
1170.000000	64.250192
1169.000000	64.286405
1168.000000	64.332135
1167.000000	64.375058
1166.000000	64.405567
1165.000000	64.443917
1164.000000	64.488139
1163.000000	64.524972
1162.000000	64.570674
1161.000000	64.613148
1160.000000	64.652234
1159.000000	64.702361
1158.000000	64.743174
1157.000000	64.772706
1156.000000	64.803055
1155.000000	64.841722
1154.000000	64.864677
1153.000000	64.878944
1152.000000	64.911995
1151.000000	64.939067
1150.000000	64.968998
1149.000000	65.007859
1148.000000	65.033546
1147.000000	65.043577
1146.000000	65.070152
1145.000000	65.103975
1144.000000	65.129315
1143.000000	65.150937
1142.000000	65.163060
1141.000000	65.189931
1140.000000	65.210939
1139.000000	65.224003
1138.000000	65.244456
1137.000000	65.262659
1136.000000	65.291185
1135.000000	65.303510
1134.000000	65.319078
1133.000000	65.335967
1132.000000	65.342704
1131.000000	65.354592
1130.000000	65.376582
1129.000000	65.400462
1128.000000	65.420603
1127.000000	65.408114
1126.000000	65.420373
1125.000000	65.448310
1124.000000	65.450940
1123.000000	65.459458
1122.000000	65.466701
1121.000000	65.459087
1120.000000	65.450347
1119.000000	65.458253
1118.000000	65.473975
1117.000000	65.470446
1116.000000	65.470569
1115.000000	65.478065
1114.000000	65.479752
1113.000000	65.457900
1112.000000	65.439474
1111.000000	65.463421
1110.000000	65.469838
1109.000000	65.465075
1108.000000	65.464660
1107.000000	65.465676
1106.000000	65.456458
1105.000000	65.479357
1104.000000	65.483681
1103.000000	65.466636
1102.000000	65.462551
1101.000000	65.462600
1100.000000	65.460917
1099.000000	65.442857
1098.000000	65.459391
1097.000000	65.459805
1096.000000	65.462721
1095.000000	65.461527
1094.000000	65.454729
1093.000000	65.439433
1092.000000	65.428111
1091.000000	65.440761
1090.000000	65.438789
1089.000000	65.444958
1088.000000	65.432772
1087.000000	65.424204
1086.000000	65.411997
1085.000000	65.424290
1084.000000	65.433478
1083.000000	65.421295
1082.000000	65.411896
1081.000000	65.414588
1080.000000	65.399384
1079.000000	65.398515
1078.000000	65.371078
1077.000000	65.391198
1076.000000	65.403505
1075.000000	65.397048
1074.000000	65.370759
1073.000000	65.372850
1072.000000	65.366901
1071.000000	65.349668
1070.000000	65.339095
1069.000000	65.346603
1068.000000	65.339592
1067.000000	65.337330
1066.000000	65.341153
1065.000000	65.335892
1064.000000	65.310786
1063.000000	65.296056
1062.000000	65.290432
1061.000000	65.289567
1060.000000	65.294848
1059.000000	65.284788
1058.000000	65.259458
1057.000000	65.276137
1056.000000	65.256356
1055.000000	65.254908
1054.000000	65.262450
1053.000000	65.252881
1052.000000	65.233023
1051.000000	65.208528
1050.000000	65.206538
1049.000000	65.211771
1048.000000	65.171909
1047.000000	65.190776
1046.000000	65.188717
1045.000000	65.180407
1044.000000	65.180672
1043.000000	65.156340
1042.000000	65.153577
1041.000000	65.153395
1040.000000	65.171614
1039.000000	65.142602
1038.000000	65.133977
1037.000000	65.128238
1036.000000	65.139289
1035.000000	65.126923
1034.000000	65.099673
1033.000000	65.127279
1032.000000	65.117757
1031.000000	65.087374
1030.000000	65.092724
1029.000000	65.102710
1028.000000	65.094357
1027.000000	65.064917
1026.000000	65.090988
1025.000000	65.070141
1024.000000	65.078322
1023.000000	65.058912
1022.000000	65.055103
1021.000000	65.058699
1020.000000	65.030253
1019.000000	65.039895
1018.000000	65.055761
1017.000000	65.039539
1016.000000	65.009430
1015.000000	65.018627
1014.000000	65.026731
1013.000000	65.029521
1012.000000	65.000867
1011.000000	64.993635
1010.000000	64.991920
1009.000000	64.995852
1008.000000	65.000636
1007.000000	64.980670
1006.000000	64.970631
1005.000000	64.973358
1004.000000	64.955246
1003.000000	64.969257
1002.000000	64.964388
1001.000000	64.961780
1000.000000	64.954778
999.000000	64.945966
998.000000	64.962178
997.000000	64.965254
996.000000	64.960201
995.000000	64.965329
994.000000	64.986242
993.000000	64.974722
992.000000	64.970320
991.000000	64.969592
990.000000	64.968339
989.000000	64.960220
988.000000	64.959886
987.000000	64.960483
986.000000	64.957475
985.000000	64.941872
984.000000	64.937568
983.000000	64.958463
982.000000	64.965528
981.000000	64.949172
980.000000	64.940558
979.000000	64.934834
978.000000	64.953461
977.000000	64.955449
976.000000	64.949381
975.000000	64.935530
974.000000	64.930418
973.000000	64.925001
972.000000	64.938964
971.000000	64.948396
970.000000	64.948029
969.000000	64.937902
968.000000	64.922585
967.000000	64.916017
966.000000	64.912986
965.000000	64.915885
964.000000	64.931879
963.000000	64.938317
962.000000	64.940244
961.000000	64.932875
960.000000	64.916401
959.000000	64.902686
958.000000	64.880778
957.000000	64.879952
956.000000	64.893489
955.000000	64.888007
954.000000	64.866388
953.000000	64.852947
952.000000	64.863374
951.000000	64.856872
950.000000	64.848934
949.000000	64.869360
948.000000	64.887437
947.000000	64.877263
946.000000	64.844637
945.000000	64.829804
944.000000	64.848799
943.000000	64.837701
942.000000	64.822473
941.000000	64.812877
940.000000	64.822991
939.000000	64.816161
938.000000	64.805615
937.000000	64.816152
936.000000	64.789293
935.000000	64.780659
934.000000	64.796992
933.000000	64.800342
932.000000	64.777048
931.000000	64.761130
930.000000	64.766626
929.000000	64.745775
928.000000	64.728607
927.000000	64.741352
926.000000	64.725686
925.000000	64.691885
924.000000	64.694819
923.000000	64.708818
922.000000	64.697220
921.000000	64.678273
920.000000	64.692337
919.000000	64.717728
918.000000	64.706958
917.000000	64.686874
916.000000	64.637253
915.000000	64.649845
914.000000	64.648840
913.000000	64.648642
912.000000	64.630536
911.000000	64.630604
910.000000	64.622468
909.000000	64.644018
908.000000	64.620308
907.000000	64.602634
906.000000	64.619239
905.000000	64.602836
904.000000	64.575663
903.000000	64.563316
902.000000	64.560198
901.000000	64.570751
900.000000	64.573133
899.000000	64.569703
898.000000	64.525949
897.000000	64.504206
896.000000	64.512335
895.000000	64.516819
894.000000	64.507599
893.000000	64.519454
892.000000	64.560415
891.000000	64.510975
890.000000	64.494749
889.000000	64.507942
888.000000	64.507162
887.000000	64.483532
886.000000	64.400580
885.000000	64.448947
884.000000	64.487859
883.000000	64.438566
882.000000	64.465403
881.000000	64.456898
880.000000	64.415553
879.000000	64.392680
878.000000	64.373074
877.000000	64.394561
876.000000	64.299471
875.000000	64.324893
874.000000	64.383313
873.000000	64.441907
872.000000	64.441217
871.000000	64.336720
870.000000	64.340815
869.000000	64.240215
868.000000	64.209645
867.000000	64.362809
866.000000	64.354452
865.000000	64.307128
864.000000	64.194427
863.000000	64.318353
862.000000	64.234486
861.000000	64.104741
860.000000	64.175223
859.000000	62.873363
858.000000	62.623027
857.000000	63.223042
856.000000	62.487899
855.000000	62.907381
854.000000	63.086928
853.000000	62.637083
852.000000	62.734941
851.000000	62.627469
850.000000	62.675437
849.000000	62.655675
848.000000	62.546474
847.000000	62.949858
846.000000	62.623210
845.000000	62.899210
844.000000	62.914048
843.000000	62.909760
842.000000	62.680173
841.000000	62.701297
840.000000	62.456378
839.000000	62.624329
838.000000	62.710666
837.000000	62.565507
836.000000	62.589016
835.000000	62.530032
834.000000	62.638201
833.000000	62.395010
832.000000	62.375938
831.000000	62.255577
830.000000	62.557248
829.000000	62.489966
828.000000	62.461554
827.000000	62.356287
826.000000	62.443650
825.000000	62.357104
824.000000	62.506954
823.000000	62.324429
822.000000	62.307379
821.000000	62.297864
820.000000	62.396652
819.000000	62.308704
818.000000	62.293980
817.000000	62.267469
816.000000	62.208496
815.000000	62.137733
814.000000	62.302509
813.000000	62.132635
812.000000	62.136210
811.000000	62.248770
810.000000	62.207041
809.000000	62.038775
808.000000	62.039783
807.000000	61.930806
806.000000	62.094256
805.000000	62.060992
804.000000	61.963943
803.000000	61.887170
802.000000	61.853132
801.000000	61.920211
800.000000	61.934697
799.000000	61.900743
798.000000	61.968160
797.000000	61.856543
796.000000	61.860005
795.000000	61.856301
794.000000	61.757938
793.000000	61.707193
792.000000	61.665735
791.000000	61.755199
790.000000	61.631848
789.000000	61.607823
788.000000	61.621176
787.000000	61.619137
786.000000	61.649966
785.000000	61.523025
784.000000	61.512082
783.000000	61.625738
782.000000	61.436844
781.000000	61.497576
780.000000	61.486338
779.000000	61.513014
778.000000	61.584852
777.000000	61.294617
776.000000	61.293116
775.000000	61.398862
774.000000	61.232599
773.000000	61.214098
772.000000	61.310873
771.000000	61.287958
770.000000	61.236487
769.000000	61.203627
768.000000	61.139407
767.000000	61.121326
766.000000	61.125248
765.000000	61.142001
764.000000	60.979833
763.000000	61.102787
762.000000	61.016945
761.000000	60.887499
760.000000	60.894317
759.000000	60.844212
758.000000	60.760763
757.000000	60.760131
756.000000	60.715365
755.000000	60.720991
754.000000	60.659757
753.000000	60.577995
752.000000	60.606284
751.000000	60.602436
750.000000	60.577441
749.000000	60.532915
748.000000	60.523605
747.000000	60.496884
746.000000	60.432288
745.000000	60.461722
744.000000	60.391276
743.000000	60.336014
742.000000	60.371813
741.000000	60.385885
740.000000	60.299616
739.000000	60.254784
738.000000	60.197797
737.000000	60.047271
736.000000	59.995857
735.000000	59.973224
734.000000	59.914013
733.000000	59.969861
732.000000	59.932023
731.000000	59.874462
730.000000	59.774694
729.000000	59.789902
728.000000	59.760216
727.000000	59.686882
726.000000	59.639195
725.000000	59.642246
724.000000	59.605331
723.000000	59.534896
722.000000	59.454919
721.000000	59.468210
720.000000	59.408093
719.000000	59.287626
718.000000	59.265400
717.000000	59.230507
716.000000	59.245914
715.000000	59.216262
714.000000	59.147640
713.000000	59.094775
712.000000	59.048780
711.000000	59.039105
710.000000	58.999058
709.000000	58.919945
708.000000	58.833574
707.000000	58.738300
706.000000	58.700502
705.000000	58.681431
704.000000	58.632848
703.000000	58.597999
702.000000	58.496662
701.000000	58.465709
700.000000	58.445444
699.000000	58.375323
698.000000	58.334158
697.000000	58.292099
696.000000	58.239928
695.000000	58.180119
694.000000	58.145713
693.000000	58.043816
692.000000	57.941984
691.000000	57.937698
690.000000	57.874866
689.000000	57.729700
688.000000	57.650086
687.000000	57.593153
686.000000	57.535612
685.000000	57.475816
684.000000	57.388714
683.000000	57.342435
682.000000	57.298475
681.000000	57.270352
680.000000	57.180602
679.000000	57.109469
678.000000	57.080916
677.000000	56.995662
676.000000	56.896889
675.000000	56.858606
674.000000	56.762449
673.000000	56.708195
672.000000	56.672157
671.000000	56.590396
670.000000	56.492049
669.000000	56.432461
668.000000	56.347362
667.000000	56.282943
666.000000	56.181961
665.000000	56.088641
664.000000	56.057202
663.000000	55.995492
662.000000	55.889090
661.000000	55.804469
660.000000	55.726220
659.000000	55.652978
658.000000	55.566117
657.000000	55.502783
656.000000	55.425085
655.000000	55.318622
654.000000	55.258581
653.000000	55.167041
652.000000	55.054693
651.000000	55.053929
650.000000	54.986184
649.000000	54.845314
648.000000	54.789173
647.000000	54.704219
646.000000	54.578461
645.000000	54.476345
644.000000	54.438776
643.000000	54.329025
642.000000	54.303858
641.000000	54.243556
640.000000	54.080591
639.000000	53.998772
638.000000	53.887670
637.000000	53.817794
636.000000	53.760857
635.000000	53.676294
634.000000	53.601222
633.000000	53.415375
632.000000	53.371247
631.000000	53.318324
630.000000	53.209610
629.000000	53.096730
628.000000	52.970535
627.000000	52.883439
626.000000	52.755643
625.000000	52.637260
624.000000	52.622378
623.000000	52.530163
622.000000	52.368168
621.000000	52.364615
620.000000	52.246377
619.000000	52.100082
618.000000	52.017311
617.000000	51.895562
616.000000	51.799331
615.000000	51.653917
614.000000	51.522225
613.000000	51.474825
612.000000	51.294754
611.000000	51.237075
610.000000	51.137540
609.000000	51.039832
608.000000	50.906331
607.000000	50.820273
606.000000	50.698104
605.000000	50.532485
604.000000	50.441051
603.000000	50.361759
602.000000	50.211517
601.000000	50.117675
600.000000	50.086815
599.000000	49.875867
598.000000	49.785615
597.000000	49.644868
596.000000	49.537473
595.000000	49.388594
594.000000	49.289164
593.000000	49.162746
592.000000	49.071543
591.000000	48.951046
590.000000	48.759226
589.000000	48.709661
588.000000	48.559720
587.000000	48.453759
586.000000	48.332179
585.000000	48.249705
584.000000	48.020405
583.000000	47.969983
582.000000	47.799672
581.000000	47.710151
580.000000	47.563211
579.000000	47.427078
578.000000	47.301028
577.000000	47.123261
576.000000	47.022201
575.000000	46.902994
574.000000	46.732400
573.000000	46.602612
572.000000	46.491589
571.000000	46.339172
570.000000	46.178139
569.000000	46.098817
568.000000	45.915637
567.000000	45.842233
566.000000	45.652953
565.000000	45.484218
564.000000	45.394896
563.000000	45.240508
562.000000	45.099114
561.000000	44.967104
560.000000	44.829101
559.000000	44.719979
558.000000	44.511260
557.000000	44.398894
556.000000	44.286736
555.000000	44.053233
554.000000	43.910468
553.000000	43.786987
552.000000	43.638814
551.000000	43.467878
550.000000	43.337857
549.000000	43.180026
548.000000	43.026435
547.000000	42.904353
546.000000	42.724963
545.000000	42.598500
544.000000	42.440538
543.000000	42.269046
542.000000	42.059815
541.000000	41.928877
540.000000	41.763416
539.000000	41.595749
538.000000	41.466565
537.000000	41.336477
536.000000	41.159643
535.000000	41.007154
534.000000	40.826612
533.000000	40.682862
532.000000	40.534424
531.000000	40.367014
530.000000	40.189756
529.000000	40.056381
528.000000	39.887167
527.000000	39.699918
526.000000	39.542903
525.000000	39.374830
524.000000	39.215805
523.000000	39.063724
522.000000	38.878921
521.000000	38.720653
520.000000	38.556867
519.000000	38.406289
518.000000	38.233174
517.000000	38.070205
516.000000	37.885521
515.000000	37.724339
514.000000	37.568492
513.000000	37.410359
512.000000	37.259153
511.000000	37.096740
510.000000	36.938378
509.000000	36.784164
508.000000	36.610730
507.000000	36.436098
506.000000	36.269243
505.000000	36.116612
504.000000	35.920387
503.000000	35.751668
502.000000	35.592826
501.000000	35.423442
500.000000	35.267874
499.000000	35.108288
498.000000	34.944000
497.000000	34.771652
496.000000	34.604015
495.000000	34.443318
494.000000	34.256288
493.000000	34.096535
492.000000	33.947310
491.000000	33.781733
490.000000	33.606116
489.000000	33.437525
488.000000	33.285916
487.000000	33.133485
486.000000	32.947203
485.000000	32.773625
484.000000	32.670515
483.000000	32.514136
482.000000	32.304490
481.000000	32.157362
480.000000	31.994968
479.000000	31.816459
478.000000	31.672583
477.000000	31.517999
476.000000	31.346340
475.000000	31.179338
474.000000	31.009618
473.000000	30.852383
472.000000	30.708389
471.000000	30.544286
470.000000	30.390506
469.000000	30.248018
468.000000	30.079944
467.000000	29.924092
466.000000	29.782286
465.000000	29.609729
464.000000	29.446878
463.000000	29.292440
462.000000	29.124062
461.000000	28.956991
460.000000	28.782081
459.000000	28.625705
458.000000	28.472979
457.000000	28.295412
456.000000	28.116517
455.000000	27.970605
454.000000	27.798414
453.000000	27.610727
452.000000	27.457294
451.000000	27.279888
450.000000	27.086990
449.000000	26.923015
448.000000	26.760790
447.000000	26.570860
446.000000	26.401123
445.000000	26.210300
444.000000	26.020724
443.000000	25.867989
442.000000	25.713230
441.000000	25.528180
440.000000	25.312922
439.000000	25.134391
438.000000	24.955977
437.000000	24.772994
436.000000	24.575679
435.000000	24.382244
434.000000	24.221595
433.000000	24.030120
432.000000	23.831124
431.000000	23.645264
430.000000	23.499157
429.000000	23.304359
428.000000	23.094765
427.000000	22.915024
426.000000	22.760955
425.000000	22.580578
424.000000	22.404413
423.000000	22.213357
422.000000	22.018692
421.000000	21.856581
420.000000	21.703341
419.000000	21.519644
418.000000	21.325144
417.000000	21.140601
416.000000	20.989314
415.000000	20.804721
414.000000	20.600549
413.000000	20.426327
412.000000	20.253800
411.000000	20.061569
410.000000	19.894494
409.000000	19.744984
408.000000	19.551135
407.000000	19.394767
406.000000	19.214157
405.000000	19.052148
404.000000	18.875549
403.000000	18.713815
402.000000	18.527030
401.000000	18.375538
400.000000	18.228091
399.000000	18.057531
398.000000	17.874333
397.000000	17.690455
396.000000	17.527636
395.000000	17.371069
394.000000	17.209281
393.000000	17.049380
392.000000	16.891762
391.000000	16.712830
390.000000	16.585018
389.000000	16.399168
388.000000	16.236476
387.000000	16.080515
386.000000	15.932381
385.000000	15.750846
384.000000	15.585802
383.000000	15.412063
382.000000	15.216236
381.000000	15.077820
380.000000	14.942716
379.000000	14.760678
378.000000	14.598884
377.000000	14.485427
376.000000	14.300150
375.000000	14.151755
374.000000	13.998831
373.000000	13.820694
372.000000	13.677872
371.000000	13.522267
370.000000	13.407650
369.000000	13.234934
368.000000	13.100220
367.000000	12.962744
366.000000	12.860032
365.000000	12.703223
364.000000	12.561906
363.000000	12.398608
362.000000	12.301737
361.000000	12.213699
360.000000	12.052096
359.000000	11.900776
358.000000	11.780018
357.000000	11.667444
356.000000	11.577226
355.000000	11.426465
354.000000	11.324353
353.000000	11.199526
352.000000	11.094704
351.000000	10.952176
350.000000	10.986095
349.000000	10.778073
348.000000	10.677036
347.000000	10.524384
346.000000	10.442096
345.000000	10.354018
344.000000	10.196319
343.000000	10.196617
342.000000	10.035349
341.000000	9.914206
340.000000	9.860090
339.000000	9.743367
338.000000	9.729608
337.000000	9.510638
336.000000	9.445753
335.000000	9.341630
334.000000	9.299293
333.000000	9.196133
332.000000	9.110596
331.000000	9.058582
330.000000	9.023882
329.000000	8.870516
328.000000	8.764413
327.000000	8.815644
326.000000	8.662056
325.000000	8.623319
324.000000	8.507272
323.000000	8.489160
322.000000	8.412692
321.000000	8.332855
320.000000	8.328892
319.000000	8.319395
318.000000	8.338780
317.000000	8.326566
316.000000	8.279243
315.000000	8.327830
314.000000	8.248351
313.000000	8.120461
312.000000	8.090509
311.000000	8.120169
310.000000	8.056964
309.000000	8.044619
308.000000	7.962708
307.000000	8.001695
306.000000	7.951954
305.000000	7.919365
304.000000	7.917763
303.000000	7.883423
302.000000	7.890680
301.000000	7.872851
300.000000	7.864877
299.000000	7.860771
298.000000	7.802767
297.000000	7.776373
296.000000	7.722187
295.000000	7.745234
294.000000	7.694029
293.000000	7.644939
292.000000	7.662449
291.000000	7.603783
290.000000	7.582176
289.000000	7.579145
288.000000	7.504445
287.000000	7.514615
286.000000	7.513497
285.000000	7.507093
284.000000	7.512587
283.000000	7.488770
282.000000	7.543975
281.000000	7.603877
280.000000	7.616917
279.000000	7.627172
278.000000	7.661909
277.000000	7.657206
276.000000	7.697843
275.000000	7.783496
274.000000	7.801168
273.000000	7.881856
272.000000	7.928805
271.000000	7.988151
270.000000	8.032586
269.000000	8.075355
268.000000	8.130764
267.000000	8.172585
266.000000	8.266148
265.000000	8.350386
264.000000	8.402560
263.000000	8.506413
262.000000	8.599002
261.000000	8.664272
260.000000	8.744398
259.000000	8.796904
258.000000	8.831713
257.000000	8.934349
256.000000	9.031612
255.000000	9.105497
254.000000	9.190552
253.000000	9.263647
252.000000	9.272768
251.000000	9.326891
250.000000	9.371677
249.000000	9.416008
248.000000	9.443886
247.000000	9.489114
246.000000	9.494007
245.000000	9.431863
244.000000	9.378135
243.000000	9.357059
242.000000	9.298145
241.000000	9.206279
240.000000	9.055727
239.000000	8.903727
238.000000	8.814914
237.000000	8.729734
236.000000	8.588847
235.000000	8.390693
234.000000	8.252894
233.000000	8.099174
232.000000	7.964454
231.000000	7.811512
230.000000	7.662309
229.000000	7.543455
228.000000	7.388442
227.000000	7.274724
226.000000	7.199624
225.000000	7.093895
224.000000	6.989024
223.000000	6.915709
222.000000	6.866047
221.000000	6.789832
220.000000	6.769118
219.000000	6.763564
218.000000	6.717172
217.000000	6.799855
216.000000	6.774727
215.000000	6.731672
214.000000	6.803441
213.000000	6.825907
212.000000	6.782496
211.000000	6.867593
210.000000	6.975679
209.000000	6.963010
208.000000	7.109460
207.000000	7.151447
206.000000	7.119762
205.000000	7.394744
204.000000	7.541658
203.000000	7.634697
202.000000	7.797513
201.000000	7.986916
200.000000	8.145427
