PE UV       SUBTECH     SPECTRUM    ASCII       PEDS        4.00        
   -1
3C-N10-C001.Sample.Raw.asc
22/02/28
15:56:57.00
22/02/28
15:56:57.00
Administrator

250.000000
1
Lambda 750
750N8071901
PerkinElmer UV WinLab 6.0.4.0738 / 1.61.00 Lambda 900

0
0
3350/servo 860.8/2
0
0
UV/VIS
1
1
1
CommonBeamDepol,150mm sphere / downward view
0
0
0
0
Program
Program
3350/servo 860.8/2
3350/0.2 860.8/0.2
3350/0.2 860.8/0.2
0
1
 
 
 
0
 
860.8
319.2
860.8
Front
100
on
 
 
0
0
0
 
0
 
 
 
0
 
 
0
0
0
0
0
 
 
 
 
0
0


0
0
#HDR
-1
-1
#GR
nm
%R
1.0
0.0
2500.000000
-10.000000
226
8
43.414413
6.971972
#DATA
2500.000000	9.906672
2490.000000	10.957603
2480.000000	11.660013
2470.000000	7.444345
2460.000000	6.971972
2450.000000	14.310638
2440.000000	10.393753
2430.000000	10.709021
2420.000000	9.984593
2410.000000	14.237918
2400.000000	17.592111
2390.000000	13.454865
2380.000000	17.199810
2370.000000	13.229373
2360.000000	14.191885
2350.000000	15.035695
2340.000000	14.724849
2330.000000	13.987542
2320.000000	15.441730
2310.000000	13.718671
2300.000000	13.723325
2290.000000	13.048317
2280.000000	13.585821
2270.000000	12.783596
2260.000000	11.850044
2250.000000	15.068164
2240.000000	15.477596
2230.000000	16.403217
2220.000000	17.249252
2210.000000	15.990747
2200.000000	15.181467
2190.000000	15.457471
2180.000000	15.006981
2170.000000	15.150827
2160.000000	15.379893
2150.000000	15.559921
2140.000000	16.006748
2130.000000	15.438164
2120.000000	15.741485
2110.000000	17.221790
2100.000000	17.813143
2090.000000	18.156449
2080.000000	17.802013
2070.000000	17.341532
2060.000000	16.470973
2050.000000	15.756470
2040.000000	15.603362
2030.000000	15.192860
2020.000000	15.143202
2010.000000	15.288904
2000.000000	15.497033
1990.000000	15.170962
1980.000000	14.964013
1970.000000	14.389963
1960.000000	13.435875
1950.000000	13.426998
1940.000000	13.669692
1930.000000	13.687305
1920.000000	14.809928
1910.000000	15.599134
1900.000000	17.732243
1890.000000	20.928866
1880.000000	23.963493
1870.000000	25.776441
1860.000000	27.425404
1850.000000	27.367546
1840.000000	27.557117
1830.000000	27.427741
1820.000000	27.094474
1810.000000	26.627860
1800.000000	26.693450
1790.000000	26.198805
1780.000000	25.940522
1770.000000	25.469124
1760.000000	25.554441
1750.000000	25.267962
1740.000000	24.801702
1730.000000	24.569487
1720.000000	24.992149
1710.000000	25.554164
1700.000000	25.968826
1690.000000	26.424544
1680.000000	27.369598
1670.000000	28.368904
1660.000000	29.134824
1650.000000	29.636900
1640.000000	29.657795
1630.000000	29.577609
1620.000000	29.006852
1610.000000	28.437979
1600.000000	27.879045
1590.000000	27.463947
1580.000000	27.155125
1570.000000	26.704205
1560.000000	26.393409
1550.000000	26.150303
1540.000000	25.604159
1530.000000	25.149313
1520.000000	24.782793
1510.000000	24.468181
1500.000000	24.222605
1490.000000	24.314146
1480.000000	24.434424
1470.000000	24.570447
1460.000000	24.911130
1450.000000	25.329671
1440.000000	25.843758
1430.000000	26.145527
1420.000000	26.704369
1410.000000	28.093126
1400.000000	30.706590
1390.000000	33.759353
1380.000000	35.659489
1370.000000	36.214376
1360.000000	36.185682
1350.000000	36.043077
1340.000000	36.131194
1330.000000	36.586245
1320.000000	37.961900
1310.000000	39.148771
1300.000000	39.923429
1290.000000	40.389703
1280.000000	40.282958
1270.000000	40.022364
1260.000000	39.736169
1250.000000	39.530320
1240.000000	39.226203
1230.000000	39.137562
1220.000000	38.847128
1210.000000	38.533266
1200.000000	38.305809
1190.000000	38.367917
1180.000000	38.659814
1170.000000	38.989344
1160.000000	39.707466
1150.000000	40.552612
1140.000000	41.248450
1130.000000	41.454440
1120.000000	41.412779
1110.000000	41.460977
1100.000000	41.645916
1090.000000	41.710612
1080.000000	41.777583
1070.000000	41.752522
1060.000000	41.627307
1050.000000	41.579723
1040.000000	41.382640
1030.000000	41.292812
1020.000000	41.397681
1010.000000	41.939080
1000.000000	42.620271
990.000000	42.816889
980.000000	42.658580
970.000000	42.628824
960.000000	42.703716
950.000000	42.665948
940.000000	42.782444
930.000000	42.723213
920.000000	42.629547
910.000000	42.718068
900.000000	42.778144
890.000000	42.676680
880.000000	42.645040
870.000000	42.815292
860.000000	42.522858
850.000000	42.480578
840.000000	43.199258
830.000000	43.376783
820.000000	43.174469
810.000000	43.151251
800.000000	43.229416
790.000000	43.227469
780.000000	43.298951
770.000000	43.282956
760.000000	43.359493
750.000000	43.300313
740.000000	43.322350
730.000000	43.272983
720.000000	43.298417
710.000000	43.297782
700.000000	43.391709
690.000000	43.392681
680.000000	43.358987
670.000000	43.414413
660.000000	43.299152
650.000000	43.334658
640.000000	43.325301
630.000000	43.274843
620.000000	43.260159
610.000000	43.200034
600.000000	43.106858
590.000000	43.068519
580.000000	42.890715
570.000000	42.745477
560.000000	42.602809
550.000000	42.448294
540.000000	42.299740
530.000000	42.046230
520.000000	41.832761
510.000000	41.686478
500.000000	41.489195
490.000000	40.975479
480.000000	40.417043
470.000000	39.776700
460.000000	39.099146
450.000000	38.226176
440.000000	37.072073
430.000000	35.812040
420.000000	34.147483
410.000000	32.142424
400.000000	30.441728
390.000000	29.409495
380.000000	28.632266
370.000000	27.578287
360.000000	26.394951
350.000000	25.556069
340.000000	24.356101
330.000000	23.288467
320.000000	22.217167
310.000000	21.048423
300.000000	18.691626
290.000000	16.732927
280.000000	15.376429
270.000000	15.345386
260.000000	15.420737
250.000000	14.251753
