PE UV       SUBTECH     SPECTRUM    ASCII       PEDS        4.00        
   -1
3C-N10-F024.Sample.Raw.asc
22/03/25
15:58:26.00
22/03/25
15:58:26.00
Administrator

250.000000
1
Lambda 750
750N8071901
PerkinElmer UV WinLab 6.0.4.0738 / 1.61.00 Lambda 900

0
0
3350/servo 860.8/2
0
0
UV/VIS
1
1
1
CommonBeamDepol,150mm sphere / downward view
0
0
0
0
Program
Program
3350/servo 860.8/2
3350/0.2 860.8/0.2
3350/0.2 860.8/0.2
0
1
 
 
 
0
 
860.8
319.2
860.8
Front
100
on
 
 
0
0
0
 
0
 
 
 
0
 
 
0
0
0
0
0
 
 
 
 
0
0


0
0
#HDR
-1
-1
#GR
nm
%R
1.0
0.0
2500.000000
-10.000000
226
8
40.507000
9.980850
#DATA
2500.000000	10.628680
2490.000000	11.852273
2480.000000	11.801093
2470.000000	10.812335
2460.000000	9.980850
2450.000000	13.011305
2440.000000	11.316675
2430.000000	13.299587
2420.000000	14.310927
2410.000000	14.516070
2400.000000	14.647133
2390.000000	14.211901
2380.000000	14.868126
2370.000000	13.225809
2360.000000	12.680244
2350.000000	13.680676
2340.000000	13.189161
2330.000000	12.618296
2320.000000	13.458255
2310.000000	13.115809
2300.000000	12.828678
2290.000000	13.602160
2280.000000	13.267922
2270.000000	13.335404
2260.000000	12.830009
2250.000000	13.760692
2240.000000	14.651124
2230.000000	15.340622
2220.000000	15.654207
2210.000000	15.591977
2200.000000	14.848079
2190.000000	14.484270
2180.000000	14.478199
2170.000000	14.623221
2160.000000	15.084648
2150.000000	14.963635
2140.000000	15.562711
2130.000000	16.158998
2120.000000	16.125731
2110.000000	16.943158
2100.000000	16.843625
2090.000000	16.679017
2080.000000	16.753928
2070.000000	16.289477
2060.000000	15.693157
2050.000000	15.502027
2040.000000	14.896856
2030.000000	14.894584
2020.000000	15.374818
2010.000000	15.405446
2000.000000	15.182432
1990.000000	14.666562
1980.000000	14.390280
1970.000000	13.813713
1960.000000	13.473596
1950.000000	13.085345
1940.000000	12.873145
1930.000000	13.277984
1920.000000	14.078633
1910.000000	15.408125
1900.000000	17.644890
1890.000000	20.254225
1880.000000	22.764569
1870.000000	24.793126
1860.000000	25.791346
1850.000000	26.056260
1840.000000	26.220041
1830.000000	26.197449
1820.000000	25.874423
1810.000000	25.558143
1800.000000	25.217056
1790.000000	25.112810
1780.000000	24.911195
1770.000000	24.651089
1760.000000	24.319645
1750.000000	23.978372
1740.000000	23.642939
1730.000000	23.569289
1720.000000	23.972025
1710.000000	24.533801
1700.000000	24.845602
1690.000000	25.136554
1680.000000	25.965559
1670.000000	27.187527
1660.000000	28.010988
1650.000000	28.247330
1640.000000	28.182763
1630.000000	27.962803
1620.000000	27.607472
1610.000000	27.144515
1600.000000	26.669299
1590.000000	26.266436
1580.000000	25.878693
1570.000000	25.566980
1560.000000	25.331561
1550.000000	25.109366
1540.000000	24.689030
1530.000000	24.145598
1520.000000	23.696244
1510.000000	23.461727
1500.000000	23.398287
1490.000000	23.379622
1480.000000	23.531652
1470.000000	23.814543
1460.000000	24.119007
1450.000000	24.558420
1440.000000	25.128388
1430.000000	25.843547
1420.000000	26.747463
1410.000000	28.179596
1400.000000	30.082466
1390.000000	32.049517
1380.000000	33.297942
1370.000000	33.874381
1360.000000	34.258180
1350.000000	34.605409
1340.000000	34.857206
1330.000000	35.132093
1320.000000	35.601530
1310.000000	36.104546
1300.000000	36.456594
1290.000000	36.566898
1280.000000	36.523054
1270.000000	36.445712
1260.000000	36.444331
1250.000000	36.451090
1240.000000	36.324919
1230.000000	36.193681
1220.000000	35.929715
1210.000000	35.608859
1200.000000	35.321367
1190.000000	35.247770
1180.000000	35.522457
1170.000000	36.102071
1160.000000	36.759869
1150.000000	37.303379
1140.000000	37.729981
1130.000000	38.047837
1120.000000	38.247153
1110.000000	38.396040
1100.000000	38.440026
1090.000000	38.479985
1080.000000	38.482554
1070.000000	38.453415
1060.000000	38.427261
1050.000000	38.407588
1040.000000	38.412878
1030.000000	38.463104
1020.000000	38.612802
1010.000000	38.920132
1000.000000	39.221602
990.000000	39.368045
980.000000	39.430278
970.000000	39.522715
960.000000	39.623686
950.000000	39.721071
940.000000	39.748426
930.000000	39.784608
920.000000	39.718467
910.000000	39.844266
900.000000	40.011473
890.000000	40.169026
880.000000	40.253048
870.000000	40.278267
860.000000	40.507000
850.000000	39.831630
840.000000	38.841847
830.000000	39.162354
820.000000	39.113060
810.000000	39.082079
800.000000	39.109464
790.000000	39.247945
780.000000	39.275957
770.000000	39.226833
760.000000	39.252139
750.000000	39.217460
740.000000	39.266394
730.000000	39.320204
720.000000	39.366483
710.000000	39.361424
700.000000	39.421971
690.000000	39.438677
680.000000	39.436154
670.000000	39.441953
660.000000	39.513876
650.000000	39.568759
640.000000	39.503685
630.000000	39.459692
620.000000	39.484640
610.000000	39.458629
600.000000	39.418097
590.000000	39.421975
580.000000	39.344287
570.000000	39.292472
560.000000	39.217036
550.000000	39.113475
540.000000	38.963802
530.000000	38.721431
520.000000	38.433825
510.000000	38.118206
500.000000	37.746265
490.000000	37.357311
480.000000	36.876491
470.000000	36.406616
460.000000	35.792429
450.000000	34.977801
440.000000	34.040814
430.000000	32.816026
420.000000	31.057630
410.000000	29.108237
400.000000	27.374841
390.000000	26.389711
380.000000	25.704952
370.000000	25.077219
360.000000	24.340824
350.000000	23.466117
340.000000	22.539366
330.000000	21.527016
320.000000	20.743233
310.000000	19.739644
300.000000	17.981200
290.000000	15.669336
280.000000	14.190411
270.000000	14.095293
260.000000	14.000402
250.000000	12.976443
