PE UV       SUBTECH     SPECTRUM    ASCII       PEDS        4.00        
   -1
3C-N10-F020.Sample.Raw.asc
22/03/25
15:46:27.00
22/03/25
15:46:27.00
Administrator

250.000000
1
Lambda 750
750N8071901
PerkinElmer UV WinLab 6.0.4.0738 / 1.61.00 Lambda 900

0
0
3350/servo 860.8/2
0
0
UV/VIS
1
1
1
CommonBeamDepol,150mm sphere / downward view
0
0
0
0
Program
Program
3350/servo 860.8/2
3350/0.2 860.8/0.2
3350/0.2 860.8/0.2
0
1
 
 
 
0
 
860.8
319.2
860.8
Front
100
on
 
 
0
0
0
 
0
 
 
 
0
 
 
0
0
0
0
0
 
 
 
 
0
0


0
0
#HDR
-1
-1
#GR
nm
%R
1.0
0.0
2500.000000
-10.000000
226
8
39.578716
9.005695
#DATA
2500.000000	9.005695
2490.000000	12.472482
2480.000000	10.642814
2470.000000	11.249739
2460.000000	11.519503
2450.000000	13.238342
2440.000000	13.370175
2430.000000	13.082777
2420.000000	11.718264
2410.000000	16.162052
2400.000000	12.307377
2390.000000	13.174228
2380.000000	14.305107
2370.000000	12.830833
2360.000000	12.044270
2350.000000	13.597247
2340.000000	13.414254
2330.000000	12.409169
2320.000000	12.576806
2310.000000	12.918171
2300.000000	11.725455
2290.000000	12.124043
2280.000000	12.233927
2270.000000	13.104565
2260.000000	12.813310
2250.000000	13.162641
2240.000000	14.048329
2230.000000	14.751737
2220.000000	14.731764
2210.000000	14.719455
2200.000000	14.315136
2190.000000	14.639186
2180.000000	13.387792
2170.000000	14.323688
2160.000000	14.395668
2150.000000	14.083596
2140.000000	14.595403
2130.000000	15.051212
2120.000000	15.330483
2110.000000	16.618094
2100.000000	16.050572
2090.000000	16.059747
2080.000000	15.867610
2070.000000	15.718838
2060.000000	14.873754
2050.000000	14.719585
2040.000000	14.323105
2030.000000	14.343927
2020.000000	14.568279
2010.000000	14.700252
2000.000000	14.638399
1990.000000	14.090600
1980.000000	13.794797
1970.000000	13.304100
1960.000000	12.969879
1950.000000	12.701573
1940.000000	12.502103
1930.000000	12.726900
1920.000000	13.585147
1910.000000	14.869641
1900.000000	16.965602
1890.000000	19.526223
1880.000000	22.120567
1870.000000	23.878925
1860.000000	24.874555
1850.000000	25.208627
1840.000000	25.357391
1830.000000	25.189228
1820.000000	24.926528
1810.000000	24.756205
1800.000000	24.433024
1790.000000	24.294703
1780.000000	24.044219
1770.000000	23.720658
1760.000000	23.434726
1750.000000	23.136071
1740.000000	22.883069
1730.000000	22.678966
1720.000000	23.014115
1710.000000	23.626228
1700.000000	24.017223
1690.000000	24.353475
1680.000000	25.184985
1670.000000	26.293707
1660.000000	27.145276
1650.000000	27.371874
1640.000000	27.316279
1630.000000	27.058484
1620.000000	26.673662
1610.000000	26.221441
1600.000000	25.781916
1590.000000	25.389517
1580.000000	25.073143
1570.000000	24.726632
1560.000000	24.427283
1550.000000	24.225432
1540.000000	23.836642
1530.000000	23.277141
1520.000000	22.836106
1510.000000	22.607746
1500.000000	22.577517
1490.000000	22.579766
1480.000000	22.698269
1470.000000	22.947821
1460.000000	23.245908
1450.000000	23.664662
1440.000000	24.246331
1430.000000	24.957693
1420.000000	25.833714
1410.000000	27.286459
1400.000000	29.197309
1390.000000	31.158602
1380.000000	32.413467
1370.000000	32.994977
1360.000000	33.371107
1350.000000	33.708445
1340.000000	33.958947
1330.000000	34.248720
1320.000000	34.788060
1310.000000	35.344776
1300.000000	35.721777
1290.000000	35.852321
1280.000000	35.806753
1270.000000	35.738590
1260.000000	35.748746
1250.000000	35.723399
1240.000000	35.632556
1230.000000	35.448490
1220.000000	35.186683
1210.000000	34.861297
1200.000000	34.595898
1190.000000	34.526251
1180.000000	34.756123
1170.000000	35.341598
1160.000000	36.040194
1150.000000	36.609081
1140.000000	37.065320
1130.000000	37.379229
1120.000000	37.545470
1110.000000	37.717255
1100.000000	37.782947
1090.000000	37.782946
1080.000000	37.763560
1070.000000	37.763932
1060.000000	37.724459
1050.000000	37.650343
1040.000000	37.665820
1030.000000	37.708031
1020.000000	37.825114
1010.000000	38.104536
1000.000000	38.432168
990.000000	38.549255
980.000000	38.558770
970.000000	38.662164
960.000000	38.809797
950.000000	38.880389
940.000000	38.888054
930.000000	38.906002
920.000000	38.884488
910.000000	39.043926
900.000000	39.206676
890.000000	39.267907
880.000000	39.405066
870.000000	39.398061
860.000000	39.578716
850.000000	39.185899
840.000000	38.550364
830.000000	38.474099
820.000000	38.458185
810.000000	38.691090
800.000000	38.717909
790.000000	38.640401
780.000000	38.664620
770.000000	38.645522
760.000000	38.611619
750.000000	38.626616
740.000000	38.723766
730.000000	38.711309
720.000000	38.707158
710.000000	38.765448
700.000000	38.797457
690.000000	38.786039
680.000000	38.782545
670.000000	38.810764
660.000000	38.818202
650.000000	38.827797
640.000000	38.772399
630.000000	38.756227
620.000000	38.756632
610.000000	38.693851
600.000000	38.663133
590.000000	38.627048
580.000000	38.585149
570.000000	38.486036
560.000000	38.372019
550.000000	38.260851
540.000000	38.086836
530.000000	37.807438
520.000000	37.496289
510.000000	37.175382
500.000000	36.812238
490.000000	36.395565
480.000000	35.884611
470.000000	35.340485
460.000000	34.707733
450.000000	33.876198
440.000000	32.946601
430.000000	31.731213
420.000000	30.045308
410.000000	28.153140
400.000000	26.539163
390.000000	25.624951
380.000000	24.948133
370.000000	24.264153
360.000000	23.612043
350.000000	22.774900
340.000000	21.807653
330.000000	21.014932
320.000000	20.102601
310.000000	19.260753
300.000000	17.968893
290.000000	15.807646
280.000000	14.406201
270.000000	14.301316
260.000000	14.209274
250.000000	13.128174
