PE UV       SUBTECH     SPECTRUM    ASCII       PEDS        4.00        
   -1
3S-H10-F003.Sample.Raw.asc
22/03/03
15:25:53.00
22/03/03
15:25:53.00
Administrator

250.000000
1
Lambda 750
750N8071901
PerkinElmer UV WinLab 6.0.4.0738 / 1.61.00 Lambda 900

0
0
3350/servo 860.8/2
0
0
UV/VIS
1
1
1
CommonBeamDepol,150mm sphere / downward view
0
0
0
0
Program
Program
3350/servo 860.8/2
3350/0.2 860.8/0.2
3350/0.2 860.8/0.2
0
1
 
 
 
0
 
860.8
319.2
860.8
Front
100
on
 
 
0
0
0
 
0
 
 
 
0
 
 
0
0
0
0
0
 
 
 
 
0
0


0
0
#HDR
-1
-1
#GR
nm
%R
1.0
0.0
2500.000000
-10.000000
226
8
56.872914
5.981555
#DATA
2500.000000	7.922461
2490.000000	12.296740
2480.000000	12.293926
2470.000000	12.649078
2460.000000	12.952181
2450.000000	8.585799
2440.000000	8.573826
2430.000000	11.309209
2420.000000	16.564111
2410.000000	5.981555
2400.000000	11.390905
2390.000000	10.444037
2380.000000	9.797469
2370.000000	12.020510
2360.000000	15.837315
2350.000000	10.879830
2340.000000	13.123616
2330.000000	13.745856
2320.000000	10.809624
2310.000000	12.656065
2300.000000	9.764135
2290.000000	13.303377
2280.000000	15.237126
2270.000000	13.097743
2260.000000	14.518627
2250.000000	12.552524
2240.000000	14.778205
2230.000000	13.853814
2220.000000	16.536868
2210.000000	16.087671
2200.000000	16.090931
2190.000000	12.795958
2180.000000	13.966716
2170.000000	15.036290
2160.000000	14.020709
2150.000000	15.556615
2140.000000	17.448649
2130.000000	17.534229
2120.000000	18.346014
2110.000000	17.821740
2100.000000	17.783933
2090.000000	16.928849
2080.000000	16.396294
2070.000000	17.253792
2060.000000	16.825227
2050.000000	15.806297
2040.000000	14.896865
2030.000000	15.525355
2020.000000	15.006033
2010.000000	15.487032
2000.000000	15.548150
1990.000000	15.087265
1980.000000	13.821967
1970.000000	12.747753
1960.000000	12.271167
1950.000000	11.620041
1940.000000	11.406323
1930.000000	12.033692
1920.000000	13.256556
1910.000000	16.097292
1900.000000	19.946631
1890.000000	23.536774
1880.000000	28.153609
1870.000000	32.315746
1860.000000	33.931669
1850.000000	34.368743
1840.000000	34.132690
1830.000000	33.813675
1820.000000	33.087388
1810.000000	32.928904
1800.000000	32.319392
1790.000000	31.539836
1780.000000	30.662166
1770.000000	30.001389
1760.000000	29.226681
1750.000000	28.980691
1740.000000	27.981167
1730.000000	27.014000
1720.000000	27.328822
1710.000000	29.204452
1700.000000	30.690717
1690.000000	32.165027
1680.000000	34.311629
1670.000000	36.214989
1660.000000	37.729200
1650.000000	38.655021
1640.000000	38.522539
1630.000000	37.890494
1620.000000	37.600555
1610.000000	36.557399
1600.000000	35.837363
1590.000000	34.969352
1580.000000	34.109007
1570.000000	33.594342
1560.000000	32.984958
1550.000000	32.697876
1540.000000	32.028504
1530.000000	30.915253
1520.000000	30.173977
1510.000000	29.576601
1500.000000	29.271524
1490.000000	29.171728
1480.000000	29.335236
1470.000000	29.883482
1460.000000	30.201308
1450.000000	31.007554
1440.000000	31.920337
1430.000000	32.783976
1420.000000	34.159249
1410.000000	36.450881
1400.000000	40.064894
1390.000000	44.224187
1380.000000	47.000254
1370.000000	48.120415
1360.000000	48.885927
1350.000000	49.523754
1340.000000	49.805978
1330.000000	50.515053
1320.000000	51.938168
1310.000000	53.218524
1300.000000	53.760812
1290.000000	53.946459
1280.000000	54.053170
1270.000000	53.785916
1260.000000	53.446781
1250.000000	52.883954
1240.000000	52.025334
1230.000000	51.404424
1220.000000	50.906695
1210.000000	50.336212
1200.000000	49.901233
1190.000000	49.887073
1180.000000	50.570348
1170.000000	51.582408
1160.000000	53.039475
1150.000000	54.266954
1140.000000	55.537725
1130.000000	56.226407
1120.000000	56.276685
1110.000000	56.072547
1100.000000	56.061200
1090.000000	56.196362
1080.000000	56.295853
1070.000000	56.346694
1060.000000	56.227050
1050.000000	56.007419
1040.000000	55.880843
1030.000000	55.742955
1020.000000	55.825452
1010.000000	56.331948
1000.000000	56.770895
990.000000	56.744657
980.000000	56.615066
970.000000	56.675567
960.000000	56.778731
950.000000	56.872914
940.000000	56.679464
930.000000	56.263120
920.000000	56.131157
910.000000	56.402641
900.000000	56.390699
890.000000	56.392963
880.000000	56.284217
870.000000	56.112761
860.000000	55.340079
850.000000	54.515346
840.000000	54.942168
830.000000	54.969352
820.000000	54.805166
810.000000	54.720769
800.000000	54.881247
790.000000	54.576367
780.000000	54.619632
770.000000	54.577900
760.000000	54.384317
750.000000	54.284299
740.000000	54.169854
730.000000	53.861382
720.000000	53.732419
710.000000	53.574153
700.000000	53.330809
690.000000	53.075030
680.000000	52.652045
670.000000	52.272758
660.000000	51.964488
650.000000	51.550848
640.000000	51.087814
630.000000	50.586077
620.000000	50.006063
610.000000	49.431734
600.000000	48.926266
590.000000	48.473917
580.000000	47.828353
570.000000	47.127133
560.000000	46.542168
550.000000	45.802246
540.000000	45.031523
530.000000	44.159959
520.000000	43.313524
510.000000	42.307092
500.000000	41.298740
490.000000	40.327083
480.000000	38.887535
470.000000	37.103357
460.000000	35.146326
450.000000	32.935985
440.000000	30.316284
430.000000	27.475217
420.000000	24.581502
410.000000	22.317906
400.000000	20.974486
390.000000	19.779542
380.000000	18.399067
370.000000	17.079205
360.000000	15.898527
350.000000	14.662666
340.000000	13.711165
330.000000	12.761556
320.000000	11.718923
310.000000	11.020820
300.000000	9.755040
290.000000	9.025800
280.000000	8.789360
270.000000	8.801484
260.000000	8.713928
250.000000	8.756909
