PE UV       SUBTECH     SPECTRUM    ASCII       PEDS        4.00        
   -1
3S-H10-F008.Sample.Raw.asc
22/03/03
15:41:16.00
22/03/03
15:41:16.00
Administrator

250.000000
1
Lambda 750
750N8071901
PerkinElmer UV WinLab 6.0.4.0738 / 1.61.00 Lambda 900

0
0
3350/servo 860.8/2
0
0
UV/VIS
1
1
1
CommonBeamDepol,150mm sphere / downward view
0
0
0
0
Program
Program
3350/servo 860.8/2
3350/0.2 860.8/0.2
3350/0.2 860.8/0.2
0
1
 
 
 
0
 
860.8
319.2
860.8
Front
100
on
 
 
0
0
0
 
0
 
 
 
0
 
 
0
0
0
0
0
 
 
 
 
0
0


0
0
#HDR
-1
-1
#GR
nm
%R
1.0
0.0
2500.000000
-10.000000
226
8
57.281472
6.103676
#DATA
2500.000000	9.657987
2490.000000	6.899810
2480.000000	11.945819
2470.000000	11.229801
2460.000000	12.008271
2450.000000	6.103676
2440.000000	10.884016
2430.000000	10.925486
2420.000000	11.852498
2410.000000	10.123094
2400.000000	15.139235
2390.000000	13.401835
2380.000000	10.909835
2370.000000	11.214351
2360.000000	14.304839
2350.000000	12.077476
2340.000000	9.220189
2330.000000	16.821906
2320.000000	11.533193
2310.000000	10.586878
2300.000000	11.399902
2290.000000	11.749843
2280.000000	13.242553
2270.000000	13.139821
2260.000000	14.459835
2250.000000	13.537350
2240.000000	15.882876
2230.000000	14.176251
2220.000000	17.864630
2210.000000	16.523274
2200.000000	14.251009
2190.000000	12.641242
2180.000000	15.343654
2170.000000	15.568730
2160.000000	13.497920
2150.000000	15.663503
2140.000000	17.479190
2130.000000	16.764161
2120.000000	17.331295
2110.000000	16.976564
2100.000000	18.411874
2090.000000	16.835767
2080.000000	16.849111
2070.000000	17.274671
2060.000000	15.888151
2050.000000	15.388896
2040.000000	14.102452
2030.000000	15.498973
2020.000000	15.162812
2010.000000	15.367241
2000.000000	15.393457
1990.000000	14.860093
1980.000000	13.815365
1970.000000	12.741898
1960.000000	12.428856
1950.000000	11.487245
1940.000000	11.275800
1930.000000	12.202889
1920.000000	13.997746
1910.000000	15.690336
1900.000000	19.073379
1890.000000	23.233040
1880.000000	27.848445
1870.000000	32.331035
1860.000000	33.922923
1850.000000	34.279910
1840.000000	34.084179
1830.000000	34.045022
1820.000000	33.181440
1810.000000	33.193170
1800.000000	32.609334
1790.000000	31.706764
1780.000000	30.952834
1770.000000	30.058425
1760.000000	29.231061
1750.000000	28.649119
1740.000000	27.821549
1730.000000	27.221407
1720.000000	27.725852
1710.000000	29.081588
1700.000000	30.561303
1690.000000	32.036191
1680.000000	34.313818
1670.000000	36.572285
1660.000000	38.030414
1650.000000	38.770313
1640.000000	38.689603
1630.000000	38.244658
1620.000000	37.724035
1610.000000	36.663895
1600.000000	35.841004
1590.000000	35.078420
1580.000000	34.091522
1570.000000	33.571741
1560.000000	32.979119
1550.000000	32.664239
1540.000000	32.163713
1530.000000	31.059140
1520.000000	30.176170
1510.000000	29.528438
1500.000000	29.187080
1490.000000	29.042254
1480.000000	29.358533
1470.000000	29.752235
1460.000000	30.249482
1450.000000	30.978388
1440.000000	31.826574
1430.000000	32.754157
1420.000000	34.164352
1410.000000	36.578158
1400.000000	40.306786
1390.000000	44.546805
1380.000000	47.417421
1370.000000	48.465453
1360.000000	49.233622
1350.000000	49.970827
1340.000000	50.372272
1330.000000	51.102841
1320.000000	52.544171
1310.000000	53.904707
1300.000000	54.509853
1290.000000	54.643396
1280.000000	54.593642
1270.000000	54.324800
1260.000000	54.135322
1250.000000	53.632591
1240.000000	52.748853
1230.000000	52.214867
1220.000000	51.667580
1210.000000	50.949391
1200.000000	50.445005
1190.000000	50.529206
1180.000000	51.202514
1170.000000	52.142585
1160.000000	53.564292
1150.000000	55.018008
1140.000000	56.402083
1130.000000	57.049890
1120.000000	57.088410
1110.000000	56.838808
1100.000000	56.691077
1090.000000	56.768745
1080.000000	56.874400
1070.000000	56.924516
1060.000000	56.905410
1050.000000	56.670534
1040.000000	56.507572
1030.000000	56.362913
1020.000000	56.364303
1010.000000	56.838616
1000.000000	57.281472
990.000000	57.220792
980.000000	57.057360
970.000000	57.145610
960.000000	57.186278
950.000000	57.263937
940.000000	57.074928
930.000000	56.801362
920.000000	56.697869
910.000000	56.757975
900.000000	56.963898
890.000000	56.984807
880.000000	57.090810
870.000000	57.147119
860.000000	56.768961
850.000000	57.121218
840.000000	56.981563
830.000000	57.038471
820.000000	56.925294
810.000000	56.651177
800.000000	56.514013
790.000000	56.418249
780.000000	56.542518
770.000000	56.371044
760.000000	56.304766
750.000000	56.171546
740.000000	55.964220
730.000000	55.606856
720.000000	55.556529
710.000000	55.374562
700.000000	55.097142
690.000000	54.886224
680.000000	54.509796
670.000000	54.137066
660.000000	53.781909
650.000000	53.296563
640.000000	52.752402
630.000000	52.228307
620.000000	51.657820
610.000000	51.063229
600.000000	50.510166
590.000000	49.993295
580.000000	49.365879
570.000000	48.644635
560.000000	47.984316
550.000000	47.247962
540.000000	46.539157
530.000000	45.654063
520.000000	44.724008
510.000000	43.677178
500.000000	42.643626
490.000000	41.622751
480.000000	40.083137
470.000000	38.158381
460.000000	36.075307
450.000000	33.812547
440.000000	31.117581
430.000000	28.120280
420.000000	25.126997
410.000000	22.814675
400.000000	21.470928
390.000000	20.226171
380.000000	18.776530
370.000000	17.299889
360.000000	15.993619
350.000000	14.942337
340.000000	14.118793
330.000000	13.059122
320.000000	11.849708
310.000000	11.030098
300.000000	9.834141
290.000000	9.316584
280.000000	8.926995
270.000000	8.840035
260.000000	8.811449
250.000000	8.810276
