PE UV       SUBTECH     SPECTRUM    ASCII       PEDS        4.00        
   -1
3S-H10-C003.Sample.Cycle1.Raw.asc
22/03/02
16:30:15.00
22/03/02
16:30:15.00
Administrator

250.000000
1
Lambda 750
750N8071901
PerkinElmer UV WinLab 6.0.4.0738 / 1.61.00 Lambda 900

0
0
3350/servo 860.8/2
0
0
UV/VIS
1
1
1
CommonBeamDepol,150mm sphere / downward view
0
0
0
0
Program
Program
3350/servo 860.8/2
3350/0.2 860.8/0.2
3350/0.2 860.8/0.2
0
1
 
 
 
0
 
860.8
319.2
860.8
Front
100
on
 
 
0
0
0
 
0
 
 
 
0
 
 
0
0
0
0
0
 
 
 
 
0
0


0
0
#HDR
-1
-1
#GR
nm
%R
1.0
0.0
2500.000000
-10.000000
226
8
49.183904
8.400459
#DATA
2500.000000	15.597527
2490.000000	16.284567
2480.000000	12.865266
2470.000000	14.436789
2460.000000	17.245985
2450.000000	17.286613
2440.000000	25.893769
2430.000000	20.860712
2420.000000	21.551979
2410.000000	17.654542
2400.000000	25.141111
2390.000000	22.442470
2380.000000	19.240088
2370.000000	19.568949
2360.000000	21.213886
2350.000000	17.778074
2340.000000	22.463185
2330.000000	22.414575
2320.000000	19.457868
2310.000000	18.745694
2300.000000	19.186181
2290.000000	19.135311
2280.000000	19.057364
2270.000000	18.694856
2260.000000	19.372624
2250.000000	20.548232
2240.000000	23.580897
2230.000000	23.925665
2220.000000	24.191220
2210.000000	22.203000
2200.000000	22.243798
2190.000000	23.580590
2180.000000	22.906192
2170.000000	23.617875
2160.000000	23.732350
2150.000000	22.887187
2140.000000	22.874751
2130.000000	24.561415
2120.000000	25.564896
2110.000000	25.281101
2100.000000	26.170928
2090.000000	24.847116
2080.000000	25.243192
2070.000000	24.456501
2060.000000	22.949027
2050.000000	23.527811
2040.000000	23.331095
2030.000000	22.143964
2020.000000	23.547144
2010.000000	23.460785
2000.000000	22.745966
1990.000000	22.412649
1980.000000	21.395099
1970.000000	20.934425
1960.000000	20.206422
1950.000000	19.830875
1940.000000	19.779198
1930.000000	19.898554
1920.000000	21.103851
1910.000000	22.836351
1900.000000	25.677568
1890.000000	28.627874
1880.000000	31.583079
1870.000000	33.774113
1860.000000	35.393860
1850.000000	35.254607
1840.000000	35.450505
1830.000000	34.822253
1820.000000	34.878896
1810.000000	34.833376
1800.000000	34.531594
1790.000000	34.016540
1780.000000	33.623186
1770.000000	32.978716
1760.000000	32.653451
1750.000000	32.409000
1740.000000	32.068810
1730.000000	31.475317
1720.000000	31.754652
1710.000000	32.384452
1700.000000	33.303054
1690.000000	34.051892
1680.000000	35.217469
1670.000000	36.598907
1660.000000	37.036208
1650.000000	37.461844
1640.000000	37.517462
1630.000000	37.296159
1620.000000	37.028375
1610.000000	36.492511
1600.000000	35.781161
1590.000000	35.369132
1580.000000	35.018623
1570.000000	34.880100
1560.000000	34.689350
1550.000000	34.382232
1540.000000	33.816447
1530.000000	33.223159
1520.000000	32.882459
1510.000000	32.588945
1500.000000	32.334477
1490.000000	32.261784
1480.000000	32.534682
1470.000000	32.664519
1460.000000	33.003905
1450.000000	33.524543
1440.000000	33.980027
1430.000000	34.270074
1420.000000	34.597229
1410.000000	35.995574
1400.000000	38.691441
1390.000000	41.309926
1380.000000	42.792583
1370.000000	43.300343
1360.000000	43.384781
1350.000000	43.433486
1340.000000	43.531696
1330.000000	43.948113
1320.000000	45.053181
1310.000000	46.048250
1300.000000	46.578954
1290.000000	46.863585
1280.000000	46.652178
1270.000000	46.195300
1260.000000	45.916498
1250.000000	45.674808
1240.000000	45.293471
1230.000000	45.095193
1220.000000	44.909311
1210.000000	44.531821
1200.000000	44.303241
1190.000000	44.400120
1180.000000	44.842867
1170.000000	45.303119
1160.000000	46.126350
1150.000000	46.648554
1140.000000	47.136643
1130.000000	47.543028
1120.000000	47.687065
1110.000000	47.860628
1100.000000	47.945196
1090.000000	47.867504
1080.000000	47.774333
1070.000000	47.718456
1060.000000	47.631497
1050.000000	47.547040
1040.000000	47.681186
1030.000000	47.693001
1020.000000	47.749010
1010.000000	48.259497
1000.000000	48.954473
990.000000	49.183904
980.000000	48.938674
970.000000	48.828593
960.000000	48.846835
950.000000	48.939391
940.000000	48.744282
930.000000	48.555429
920.000000	48.564004
910.000000	48.394745
900.000000	48.531397
890.000000	49.061064
880.000000	48.905267
870.000000	48.538008
860.000000	47.511002
850.000000	47.773375
840.000000	48.735386
830.000000	48.769760
820.000000	48.817923
810.000000	48.881554
800.000000	49.066568
790.000000	48.751141
780.000000	48.616432
770.000000	48.837024
760.000000	48.860156
750.000000	48.671122
740.000000	48.597801
730.000000	48.594632
720.000000	48.505687
710.000000	48.359183
700.000000	48.285221
690.000000	48.093511
680.000000	47.995490
670.000000	47.896948
660.000000	47.722010
650.000000	47.521217
640.000000	47.324243
630.000000	47.160905
620.000000	46.851892
610.000000	46.607202
600.000000	46.352485
590.000000	46.152314
580.000000	45.870961
570.000000	45.555886
560.000000	45.262629
550.000000	44.914597
540.000000	44.499988
530.000000	44.124870
520.000000	43.736145
510.000000	43.198165
500.000000	42.634163
490.000000	42.001003
480.000000	41.271205
470.000000	40.575607
460.000000	39.695736
450.000000	38.536254
440.000000	37.327072
430.000000	35.860794
420.000000	34.078115
410.000000	32.401727
400.000000	31.007919
390.000000	29.764624
380.000000	28.374625
370.000000	26.902991
360.000000	25.496610
350.000000	24.035620
340.000000	22.356874
330.000000	20.963834
320.000000	19.180662
310.000000	17.191248
300.000000	14.889916
290.000000	12.072034
280.000000	10.152247
270.000000	9.652668
260.000000	9.387062
250.000000	8.400459
