PE UV       SUBTECH     SPECTRUM    ASCII       PEDS        4.00        
   -1
3S-H10-C030.Sample.Cycle1.Raw.asc
22/03/25
17:23:49.00
22/03/25
17:23:49.00
Administrator

250.000000
1
Lambda 750
750N8071901
PerkinElmer UV WinLab 6.0.4.0738 / 1.61.00 Lambda 900

0
0
3350/servo 860.8/2
0
0
UV/VIS
1
1
1
CommonBeamDepol,150mm sphere / downward view
0
0
0
0
Program
Program
3350/servo 860.8/2
3350/0.2 860.8/0.2
3350/0.2 860.8/0.2
0
1
 
 
 
0
 
860.8
319.2
860.8
Front
100
on
 
 
0
0
0
 
0
 
 
 
0
 
 
0
0
0
0
0
 
 
 
 
0
0


0
0
#HDR
-1
-1
#GR
nm
%R
1.0
0.0
2500.000000
-10.000000
226
8
46.354064
8.088932
#DATA
2500.000000	13.221371
2490.000000	17.892571
2480.000000	17.606835
2470.000000	15.907954
2460.000000	16.690825
2450.000000	18.948033
2440.000000	18.424979
2430.000000	18.598894
2420.000000	19.238499
2410.000000	21.012136
2400.000000	20.969559
2390.000000	19.527973
2380.000000	19.579165
2370.000000	19.499530
2360.000000	19.197370
2350.000000	19.071500
2340.000000	18.811665
2330.000000	18.002381
2320.000000	18.948862
2310.000000	19.078501
2300.000000	18.601131
2290.000000	17.961673
2280.000000	18.289953
2270.000000	18.915009
2260.000000	19.574194
2250.000000	20.306401
2240.000000	21.338480
2230.000000	22.359076
2220.000000	22.584586
2210.000000	22.527014
2200.000000	21.942251
2190.000000	21.828462
2180.000000	20.888814
2170.000000	21.565232
2160.000000	22.252422
2150.000000	22.214296
2140.000000	23.238619
2130.000000	23.686100
2120.000000	24.056592
2110.000000	24.812419
2100.000000	24.268800
2090.000000	24.476665
2080.000000	24.664547
2070.000000	23.751185
2060.000000	23.176690
2050.000000	22.593321
2040.000000	21.980921
2030.000000	22.042341
2020.000000	22.448356
2010.000000	22.585083
2000.000000	22.380787
1990.000000	21.580877
1980.000000	21.008705
1970.000000	20.214674
1960.000000	19.793304
1950.000000	19.236192
1940.000000	19.016365
1930.000000	19.581549
1920.000000	20.630269
1910.000000	22.496200
1900.000000	25.067284
1890.000000	28.139311
1880.000000	30.926845
1870.000000	32.819004
1860.000000	33.702054
1850.000000	33.977406
1840.000000	33.935222
1830.000000	33.720663
1820.000000	33.528186
1810.000000	33.303615
1800.000000	32.991179
1790.000000	32.731678
1780.000000	32.349032
1770.000000	31.961978
1760.000000	31.515889
1750.000000	31.337566
1740.000000	30.946809
1730.000000	30.428381
1720.000000	30.723839
1710.000000	31.458144
1700.000000	32.173572
1690.000000	32.904318
1680.000000	33.992007
1670.000000	35.101971
1660.000000	36.020729
1650.000000	36.353162
1640.000000	36.295339
1630.000000	36.072133
1620.000000	35.678736
1610.000000	35.257231
1600.000000	34.838860
1590.000000	34.476056
1580.000000	34.084302
1570.000000	33.786979
1560.000000	33.456879
1550.000000	33.233528
1540.000000	32.836396
1530.000000	32.260109
1520.000000	31.769326
1510.000000	31.552033
1500.000000	31.476693
1490.000000	31.462462
1480.000000	31.596079
1470.000000	31.861352
1460.000000	32.141235
1450.000000	32.506394
1440.000000	33.074058
1430.000000	33.709346
1420.000000	34.548508
1410.000000	35.866617
1400.000000	37.584220
1390.000000	39.384759
1380.000000	40.588152
1370.000000	41.229145
1360.000000	41.606183
1350.000000	41.876371
1340.000000	42.035242
1330.000000	42.285953
1320.000000	42.795551
1310.000000	43.338305
1300.000000	43.725880
1290.000000	43.902714
1280.000000	43.813766
1270.000000	43.658269
1260.000000	43.609436
1250.000000	43.460880
1240.000000	43.164699
1230.000000	42.842366
1220.000000	42.409012
1210.000000	42.112741
1200.000000	41.994719
1190.000000	42.145009
1180.000000	42.491525
1170.000000	43.005769
1160.000000	43.666883
1150.000000	44.277046
1140.000000	44.747744
1130.000000	44.977501
1120.000000	45.069976
1110.000000	45.106707
1100.000000	45.152459
1090.000000	45.159942
1080.000000	45.130827
1070.000000	45.066550
1060.000000	45.025416
1050.000000	45.005308
1040.000000	45.021482
1030.000000	45.053891
1020.000000	45.119772
1010.000000	45.353510
1000.000000	45.663231
990.000000	45.786782
980.000000	45.786382
970.000000	45.836440
960.000000	45.916822
950.000000	45.982083
940.000000	46.009881
930.000000	46.033700
920.000000	45.930143
910.000000	45.976629
900.000000	46.186063
890.000000	46.354064
880.000000	46.284030
870.000000	46.147694
860.000000	46.158128
850.000000	45.626406
840.000000	45.086437
830.000000	45.302435
820.000000	45.148249
810.000000	45.211039
800.000000	45.338148
790.000000	45.257651
780.000000	45.197701
770.000000	45.156291
760.000000	45.165476
750.000000	45.116939
740.000000	45.026253
730.000000	44.966071
720.000000	44.932647
710.000000	44.854697
700.000000	44.769355
690.000000	44.619927
680.000000	44.494784
670.000000	44.433615
660.000000	44.297698
650.000000	44.121570
640.000000	43.876539
630.000000	43.726139
620.000000	43.576689
610.000000	43.322412
600.000000	43.110798
590.000000	42.947064
580.000000	42.736120
570.000000	42.455711
560.000000	42.223305
550.000000	41.935354
540.000000	41.538285
530.000000	41.121380
520.000000	40.624967
510.000000	40.127438
500.000000	39.573664
490.000000	38.966262
480.000000	38.294009
470.000000	37.634514
460.000000	36.837562
450.000000	35.810325
440.000000	34.646655
430.000000	33.317952
420.000000	31.818752
410.000000	30.205461
400.000000	28.844918
390.000000	27.659689
380.000000	26.418881
370.000000	25.027473
360.000000	23.655737
350.000000	22.343973
340.000000	20.922303
330.000000	19.372288
320.000000	17.872747
310.000000	16.246845
300.000000	13.921106
290.000000	11.275916
280.000000	9.521213
270.000000	9.066161
260.000000	8.831983
250.000000	8.088932
