PE UV       SUBTECH     SPECTRUM    ASCII       PEDS        4.00        
   -1
3S-H10-F024.Sample.Raw.asc
22/03/29
15:26:32.00
22/03/29
15:26:32.00
Administrator

250.000000
1
Lambda 750
750N8071901
PerkinElmer UV WinLab 6.0.4.0738 / 1.61.00 Lambda 900

0
0
3350/servo 860.8/2
0
0
UV/VIS
1
1
1
CommonBeamDepol,150mm sphere / downward view
0
0
0
0
Program
Program
3350/servo 860.8/2
3350/0.2 860.8/0.2
3350/0.2 860.8/0.2
0
1
 
 
 
0
 
860.8
319.2
860.8
Front
100
on
 
 
0
0
0
 
0
 
 
 
0
 
 
0
0
0
0
0
 
 
 
 
0
0


0
0
#HDR
-1
-1
#GR
nm
%R
1.0
0.0
2500.000000
-10.000000
226
8
44.178058
4.711432
#DATA
2500.000000	6.430274
2490.000000	6.341006
2480.000000	4.711432
2470.000000	5.608292
2460.000000	6.948073
2450.000000	4.913605
2440.000000	6.045587
2430.000000	5.746478
2420.000000	7.953200
2410.000000	6.795736
2400.000000	8.366489
2390.000000	7.024748
2380.000000	5.888026
2370.000000	8.026764
2360.000000	8.571173
2350.000000	7.339939
2340.000000	6.513398
2330.000000	7.173465
2320.000000	7.002658
2310.000000	6.494034
2300.000000	6.662616
2290.000000	6.462757
2280.000000	7.231687
2270.000000	7.789561
2260.000000	6.980254
2250.000000	8.024590
2240.000000	8.502019
2230.000000	9.322875
2220.000000	9.980796
2210.000000	10.061274
2200.000000	10.038892
2190.000000	8.669870
2180.000000	9.644862
2170.000000	8.596087
2160.000000	9.302711
2150.000000	10.261525
2140.000000	10.229697
2130.000000	9.600434
2120.000000	11.609546
2110.000000	11.495719
2100.000000	11.424261
2090.000000	11.487980
2080.000000	11.737225
2070.000000	11.081282
2060.000000	10.962581
2050.000000	9.588320
2040.000000	9.396152
2030.000000	9.714225
2020.000000	10.039030
2010.000000	10.040910
2000.000000	9.719717
1990.000000	9.115183
1980.000000	8.633742
1970.000000	8.386255
1960.000000	7.723760
1950.000000	7.521963
1940.000000	7.640321
1930.000000	7.339608
1920.000000	8.240019
1910.000000	10.099517
1900.000000	12.801219
1890.000000	16.407848
1880.000000	19.687187
1870.000000	22.320566
1860.000000	23.453929
1850.000000	24.185812
1840.000000	24.048688
1830.000000	23.762001
1820.000000	23.391647
1810.000000	22.931472
1800.000000	22.387545
1790.000000	22.113537
1780.000000	21.735910
1770.000000	21.036945
1760.000000	20.558429
1750.000000	20.036943
1740.000000	19.507244
1730.000000	19.001387
1720.000000	19.206600
1710.000000	20.360645
1700.000000	21.436854
1690.000000	22.310667
1680.000000	23.803976
1670.000000	25.812500
1660.000000	27.104275
1650.000000	27.558634
1640.000000	27.509761
1630.000000	27.109201
1620.000000	26.625188
1610.000000	25.995135
1600.000000	25.359238
1590.000000	24.771632
1580.000000	24.253754
1570.000000	23.787536
1560.000000	23.396532
1550.000000	22.924020
1540.000000	22.292696
1530.000000	21.461845
1520.000000	20.953235
1510.000000	20.672414
1500.000000	20.457626
1490.000000	20.384651
1480.000000	20.609535
1470.000000	20.884305
1460.000000	21.209397
1450.000000	21.746798
1440.000000	22.553277
1430.000000	23.628172
1420.000000	25.134001
1410.000000	27.135241
1400.000000	29.671573
1390.000000	32.248828
1380.000000	34.126272
1370.000000	35.229733
1360.000000	36.110331
1350.000000	36.789376
1340.000000	37.234013
1330.000000	37.523135
1320.000000	37.874539
1310.000000	38.394784
1300.000000	38.853185
1290.000000	39.075802
1280.000000	39.029046
1270.000000	38.926494
1260.000000	38.838505
1250.000000	38.652684
1240.000000	38.356598
1230.000000	37.756924
1220.000000	37.024187
1210.000000	36.453473
1200.000000	36.187586
1190.000000	36.335411
1180.000000	36.917518
1170.000000	37.972770
1160.000000	39.093209
1150.000000	40.028741
1140.000000	40.761236
1130.000000	41.334226
1120.000000	41.697240
1110.000000	41.831367
1100.000000	41.873841
1090.000000	41.848207
1080.000000	41.794942
1070.000000	41.754169
1060.000000	41.783181
1050.000000	41.763888
1040.000000	41.736201
1030.000000	41.845677
1020.000000	41.997529
1010.000000	42.362332
1000.000000	42.749943
990.000000	42.862854
980.000000	42.935860
970.000000	43.087738
960.000000	43.215106
950.000000	43.342588
940.000000	43.350740
930.000000	43.287777
920.000000	43.264835
910.000000	43.370526
900.000000	43.508886
890.000000	43.844783
880.000000	44.074802
870.000000	44.086015
860.000000	44.178058
850.000000	43.374757
840.000000	42.176977
830.000000	42.188439
820.000000	42.239125
810.000000	42.127342
800.000000	42.074432
790.000000	42.061604
780.000000	42.091169
770.000000	42.091138
760.000000	41.974758
750.000000	41.935763
740.000000	41.828248
730.000000	41.701449
720.000000	41.619943
710.000000	41.468946
700.000000	41.327324
690.000000	41.107358
680.000000	40.879041
670.000000	40.612940
660.000000	40.311578
650.000000	40.042563
640.000000	39.691085
630.000000	39.317886
620.000000	38.941937
610.000000	38.511906
600.000000	38.150724
590.000000	37.802964
580.000000	37.432638
570.000000	37.016209
560.000000	36.579555
550.000000	36.100018
540.000000	35.475580
530.000000	34.783315
520.000000	33.974752
510.000000	33.079489
500.000000	32.084486
490.000000	30.978624
480.000000	29.858845
470.000000	28.628143
460.000000	27.070622
450.000000	25.214040
440.000000	23.155635
430.000000	20.852469
420.000000	18.522293
410.000000	16.784258
400.000000	15.730952
390.000000	14.814048
380.000000	13.756008
370.000000	12.889800
360.000000	12.138039
350.000000	11.155986
340.000000	10.368189
330.000000	9.678272
320.000000	8.958490
310.000000	8.403731
300.000000	7.860044
290.000000	7.314810
280.000000	7.074508
270.000000	6.955654
260.000000	7.005845
250.000000	7.150532
