PE UV       SUBTECH     SPECTRUM    ASCII       PEDS        4.00        
   -1
3S-H10-F020.Sample.Raw.asc
22/03/29
15:14:00.00
22/03/29
15:14:00.00
Administrator

250.000000
1
Lambda 750
750N8071901
PerkinElmer UV WinLab 6.0.4.0738 / 1.61.00 Lambda 900

0
0
3350/servo 860.8/2
0
0
UV/VIS
1
1
1
CommonBeamDepol,150mm sphere / downward view
0
0
0
0
Program
Program
3350/servo 860.8/2
3350/0.2 860.8/0.2
3350/0.2 860.8/0.2
0
1
 
 
 
0
 
860.8
319.2
860.8
Front
100
on
 
 
0
0
0
 
0
 
 
 
0
 
 
0
0
0
0
0
 
 
 
 
0
0


0
0
#HDR
-1
-1
#GR
nm
%R
1.0
0.0
2500.000000
-10.000000
226
8
44.582394
4.951384
#DATA
2500.000000	6.008044
2490.000000	6.696978
2480.000000	6.955862
2470.000000	5.737218
2460.000000	6.400834
2450.000000	4.951384
2440.000000	7.337302
2430.000000	5.864886
2420.000000	9.218513
2410.000000	6.007659
2400.000000	7.127428
2390.000000	7.281522
2380.000000	7.577944
2370.000000	7.724780
2360.000000	7.529473
2350.000000	8.826471
2340.000000	7.462362
2330.000000	8.109025
2320.000000	7.423205
2310.000000	7.643520
2300.000000	7.105343
2290.000000	6.952814
2280.000000	7.527513
2270.000000	7.880405
2260.000000	8.208122
2250.000000	9.045273
2240.000000	9.594717
2230.000000	9.908658
2220.000000	10.462980
2210.000000	10.295989
2200.000000	10.222670
2190.000000	9.377040
2180.000000	10.112817
2170.000000	9.111885
2160.000000	10.090218
2150.000000	10.256721
2140.000000	11.187764
2130.000000	11.235033
2120.000000	11.711014
2110.000000	12.398433
2100.000000	12.148512
2090.000000	11.995626
2080.000000	12.225191
2070.000000	11.591538
2060.000000	11.097817
2050.000000	10.202296
2040.000000	9.908578
2030.000000	10.105880
2020.000000	10.301687
2010.000000	10.474499
2000.000000	10.122072
1990.000000	9.715562
1980.000000	8.999332
1970.000000	8.667030
1960.000000	8.103457
1950.000000	7.681378
1940.000000	7.722842
1930.000000	8.004613
1920.000000	8.950954
1910.000000	10.264491
1900.000000	13.289947
1890.000000	16.876347
1880.000000	20.303480
1870.000000	22.996576
1860.000000	24.319544
1850.000000	24.935492
1840.000000	24.824066
1830.000000	24.510772
1820.000000	23.958204
1810.000000	23.671666
1800.000000	23.320061
1790.000000	22.821263
1780.000000	22.364419
1770.000000	21.740977
1760.000000	21.111702
1750.000000	20.727471
1740.000000	20.223411
1730.000000	19.616243
1720.000000	19.828038
1710.000000	21.061707
1700.000000	22.142320
1690.000000	23.180566
1680.000000	24.797902
1670.000000	26.619155
1660.000000	27.942767
1650.000000	28.512575
1640.000000	28.374872
1630.000000	28.059472
1620.000000	27.478432
1610.000000	26.872988
1600.000000	26.271554
1590.000000	25.689512
1580.000000	25.138985
1570.000000	24.649924
1560.000000	24.286987
1550.000000	23.843770
1540.000000	23.204075
1530.000000	22.374775
1520.000000	21.849421
1510.000000	21.516923
1500.000000	21.321494
1490.000000	21.244609
1480.000000	21.500826
1470.000000	21.766897
1460.000000	22.078832
1450.000000	22.648697
1440.000000	23.470560
1430.000000	24.539253
1420.000000	26.050183
1410.000000	28.044824
1400.000000	30.536219
1390.000000	33.006231
1380.000000	34.860569
1370.000000	36.026059
1360.000000	36.868301
1350.000000	37.566296
1340.000000	37.999522
1330.000000	38.237585
1320.000000	38.586335
1310.000000	39.157549
1300.000000	39.643625
1290.000000	39.872897
1280.000000	39.832163
1270.000000	39.705977
1260.000000	39.626537
1250.000000	39.492725
1240.000000	39.133932
1230.000000	38.512245
1220.000000	37.740459
1210.000000	37.148540
1200.000000	36.937618
1190.000000	37.167546
1180.000000	37.764474
1170.000000	38.706894
1160.000000	39.793086
1150.000000	40.709969
1140.000000	41.450522
1130.000000	41.970943
1120.000000	42.317988
1110.000000	42.471236
1100.000000	42.514588
1090.000000	42.470309
1080.000000	42.445546
1070.000000	42.409869
1060.000000	42.410690
1050.000000	42.384773
1040.000000	42.372181
1030.000000	42.444322
1020.000000	42.613992
1010.000000	42.993232
1000.000000	43.377474
990.000000	43.493381
980.000000	43.538329
970.000000	43.683668
960.000000	43.813324
950.000000	43.930737
940.000000	43.928908
930.000000	43.862298
920.000000	43.850350
910.000000	43.972684
900.000000	44.130408
890.000000	44.390398
880.000000	44.581774
870.000000	44.562425
860.000000	44.582394
850.000000	44.060833
840.000000	43.150032
830.000000	43.063396
820.000000	43.275605
810.000000	43.198597
800.000000	43.221017
790.000000	43.205924
780.000000	43.163574
770.000000	43.145360
760.000000	42.941358
750.000000	42.833691
740.000000	42.788621
730.000000	42.666780
720.000000	42.560883
710.000000	42.407448
700.000000	42.239481
690.000000	42.010654
680.000000	41.841573
670.000000	41.586470
660.000000	41.259241
650.000000	41.015616
640.000000	40.666539
630.000000	40.279223
620.000000	39.893569
610.000000	39.527152
600.000000	39.180590
590.000000	38.808496
580.000000	38.461903
570.000000	38.067013
560.000000	37.604564
550.000000	37.100329
540.000000	36.490339
530.000000	35.780569
520.000000	34.970679
510.000000	34.054869
500.000000	33.034381
490.000000	31.983241
480.000000	30.859665
470.000000	29.606390
460.000000	28.037361
450.000000	26.210606
440.000000	24.153664
430.000000	21.830796
420.000000	19.453907
410.000000	17.655770
400.000000	16.505615
390.000000	15.490025
380.000000	14.336003
370.000000	13.262336
360.000000	12.316300
350.000000	11.303601
340.000000	10.455400
330.000000	9.666054
320.000000	9.211455
310.000000	8.885678
300.000000	7.932033
290.000000	7.342339
280.000000	7.041829
270.000000	6.924059
260.000000	6.924050
250.000000	6.971927
