PE UV       SUBTECH     SPECTRUM    ASCII       PEDS        4.00        
   -1
3S-H10-F013.Sample.Raw.asc
22/03/29
14:52:56.00
22/03/29
14:52:56.00
Administrator

250.000000
1
Lambda 750
750N8071901
PerkinElmer UV WinLab 6.0.4.0738 / 1.61.00 Lambda 900

0
0
3350/servo 860.8/2
0
0
UV/VIS
1
1
1
CommonBeamDepol,150mm sphere / downward view
0
0
0
0
Program
Program
3350/servo 860.8/2
3350/0.2 860.8/0.2
3350/0.2 860.8/0.2
0
1
 
 
 
0
 
860.8
319.2
860.8
Front
100
on
 
 
0
0
0
 
0
 
 
 
0
 
 
0
0
0
0
0
 
 
 
 
0
0


0
0
#HDR
-1
-1
#GR
nm
%R
1.0
0.0
2500.000000
-10.000000
226
8
43.245647
4.522127
#DATA
2500.000000	7.801354
2490.000000	4.522127
2480.000000	5.289942
2470.000000	4.880348
2460.000000	5.816005
2450.000000	7.115904
2440.000000	8.704414
2430.000000	7.935645
2420.000000	7.360728
2410.000000	6.428387
2400.000000	8.148401
2390.000000	7.458888
2380.000000	7.584358
2370.000000	6.388635
2360.000000	7.576209
2350.000000	8.081268
2340.000000	7.937187
2330.000000	7.605612
2320.000000	8.187752
2310.000000	7.281979
2300.000000	7.051202
2290.000000	7.579856
2280.000000	7.838016
2270.000000	7.669044
2260.000000	7.788237
2250.000000	9.178147
2240.000000	9.624692
2230.000000	10.558167
2220.000000	10.866181
2210.000000	11.078448
2200.000000	10.422070
2190.000000	9.599386
2180.000000	10.336393
2170.000000	9.591847
2160.000000	9.934098
2150.000000	11.081349
2140.000000	11.103795
2130.000000	11.766151
2120.000000	12.170943
2110.000000	12.425510
2100.000000	12.252469
2090.000000	12.382449
2080.000000	12.335126
2070.000000	12.056744
2060.000000	11.461807
2050.000000	10.512401
2040.000000	10.152141
2030.000000	10.210566
2020.000000	10.888518
2010.000000	10.730910
2000.000000	10.601981
1990.000000	10.154015
1980.000000	9.482050
1970.000000	9.146231
1960.000000	8.351450
1950.000000	8.060133
1940.000000	7.948430
1930.000000	8.228230
1920.000000	9.359556
1910.000000	10.748538
1900.000000	13.447862
1890.000000	17.187989
1880.000000	20.652282
1870.000000	23.123877
1860.000000	24.392640
1850.000000	24.953231
1840.000000	24.905842
1830.000000	24.669484
1820.000000	24.205324
1810.000000	23.848639
1800.000000	23.414400
1790.000000	22.995530
1780.000000	22.636533
1770.000000	22.024169
1760.000000	21.447336
1750.000000	21.035560
1740.000000	20.573258
1730.000000	20.050886
1720.000000	20.361825
1710.000000	21.376016
1700.000000	22.260129
1690.000000	23.239641
1680.000000	24.783773
1670.000000	26.624247
1660.000000	27.735981
1650.000000	28.239160
1640.000000	28.149453
1630.000000	27.818956
1620.000000	27.337342
1610.000000	26.773931
1600.000000	26.120698
1590.000000	25.562628
1580.000000	25.034949
1570.000000	24.562361
1560.000000	24.228071
1550.000000	23.837748
1540.000000	23.167990
1530.000000	22.405507
1520.000000	21.856125
1510.000000	21.579624
1500.000000	21.377093
1490.000000	21.325527
1480.000000	21.572899
1470.000000	21.814579
1460.000000	22.149089
1450.000000	22.703245
1440.000000	23.483271
1430.000000	24.539021
1420.000000	25.947613
1410.000000	27.868507
1400.000000	30.242540
1390.000000	32.600348
1380.000000	34.310939
1370.000000	35.329216
1360.000000	36.151750
1350.000000	36.749587
1340.000000	37.092950
1330.000000	37.267730
1320.000000	37.550205
1310.000000	38.079883
1300.000000	38.567066
1290.000000	38.794934
1280.000000	38.787606
1270.000000	38.664300
1260.000000	38.523704
1250.000000	38.395019
1240.000000	38.188847
1230.000000	37.668574
1220.000000	37.008903
1210.000000	36.483743
1200.000000	36.239045
1190.000000	36.378102
1180.000000	36.914320
1170.000000	37.818433
1160.000000	38.799925
1150.000000	39.659477
1140.000000	40.264215
1130.000000	40.717016
1120.000000	41.035048
1110.000000	41.180410
1100.000000	41.226761
1090.000000	41.176564
1080.000000	41.095996
1070.000000	41.068499
1060.000000	41.102553
1050.000000	41.076665
1040.000000	41.079547
1030.000000	41.175652
1020.000000	41.309081
1010.000000	41.686177
1000.000000	42.056616
990.000000	42.147007
980.000000	42.207107
970.000000	42.346155
960.000000	42.464623
950.000000	42.551995
940.000000	42.527608
930.000000	42.517013
920.000000	42.561433
910.000000	42.593046
900.000000	42.734566
890.000000	42.919609
880.000000	43.050477
870.000000	43.203688
860.000000	43.245647
850.000000	42.650014
840.000000	41.793434
830.000000	41.740605
820.000000	41.683120
810.000000	41.682356
800.000000	41.672745
790.000000	41.576550
780.000000	41.545172
770.000000	41.505785
760.000000	41.368845
750.000000	41.364681
740.000000	41.286700
730.000000	41.152018
720.000000	41.055635
710.000000	40.898492
700.000000	40.792766
690.000000	40.614378
680.000000	40.394123
670.000000	40.100940
660.000000	39.784263
650.000000	39.544417
640.000000	39.197543
630.000000	38.837648
620.000000	38.473554
610.000000	38.094776
600.000000	37.740200
590.000000	37.415325
580.000000	37.058066
570.000000	36.626656
560.000000	36.190706
550.000000	35.751343
540.000000	35.159843
530.000000	34.460712
520.000000	33.693275
510.000000	32.809023
500.000000	31.865163
490.000000	30.892490
480.000000	29.810066
470.000000	28.587320
460.000000	27.091068
450.000000	25.318863
440.000000	23.338436
430.000000	21.103459
420.000000	18.820537
410.000000	17.075117
400.000000	16.015986
390.000000	15.120466
380.000000	14.102371
370.000000	13.105633
360.000000	12.266295
350.000000	11.358750
340.000000	10.572432
330.000000	9.792045
320.000000	9.100464
310.000000	8.829122
300.000000	8.325310
290.000000	7.729653
280.000000	7.419681
270.000000	7.274441
260.000000	7.260410
250.000000	7.360991
