PE UV       SUBTECH     SPECTRUM    ASCII       PEDS        4.00        
   -1
3S-H10-C021.Sample.Cycle1.Raw.asc
22/03/25
16:54:29.00
22/03/25
16:54:29.00
Administrator

250.000000
1
Lambda 750
750N8071901
PerkinElmer UV WinLab 6.0.4.0738 / 1.61.00 Lambda 900

0
0
3350/servo 860.8/2
0
0
UV/VIS
1
1
1
CommonBeamDepol,150mm sphere / downward view
0
0
0
0
Program
Program
3350/servo 860.8/2
3350/0.2 860.8/0.2
3350/0.2 860.8/0.2
0
1
 
 
 
0
 
860.8
319.2
860.8
Front
100
on
 
 
0
0
0
 
0
 
 
 
0
 
 
0
0
0
0
0
 
 
 
 
0
0


0
0
#HDR
-1
-1
#GR
nm
%R
1.0
0.0
2500.000000
-10.000000
226
8
47.047861
7.640283
#DATA
2500.000000	14.865237
2490.000000	19.065133
2480.000000	17.184583
2470.000000	17.979939
2460.000000	18.468675
2450.000000	19.966144
2440.000000	18.579666
2430.000000	19.111417
2420.000000	19.577290
2410.000000	20.454681
2400.000000	19.856117
2390.000000	22.142838
2380.000000	22.043529
2370.000000	20.460382
2360.000000	19.802141
2350.000000	20.908772
2340.000000	19.649167
2330.000000	20.489559
2320.000000	20.454384
2310.000000	19.421150
2300.000000	18.190668
2290.000000	20.203984
2280.000000	19.908399
2270.000000	20.008435
2260.000000	20.607256
2250.000000	21.492853
2240.000000	22.489520
2230.000000	23.486607
2220.000000	24.210860
2210.000000	24.181552
2200.000000	23.148046
2190.000000	23.073737
2180.000000	22.200379
2170.000000	22.685155
2160.000000	23.338240
2150.000000	23.271760
2140.000000	23.938457
2130.000000	24.767648
2120.000000	25.274991
2110.000000	25.573724
2100.000000	25.414093
2090.000000	25.644522
2080.000000	25.797115
2070.000000	25.088006
2060.000000	24.276717
2050.000000	23.592304
2040.000000	23.158729
2030.000000	23.165452
2020.000000	23.673108
2010.000000	23.835106
2000.000000	23.377297
1990.000000	22.741356
1980.000000	22.217279
1970.000000	21.488360
1960.000000	20.929805
1950.000000	20.391241
1940.000000	20.028552
1930.000000	20.757584
1920.000000	21.708274
1910.000000	23.462745
1900.000000	26.015245
1890.000000	29.175598
1880.000000	31.781284
1870.000000	33.546915
1860.000000	34.427407
1850.000000	34.770004
1840.000000	34.968704
1830.000000	34.618721
1820.000000	34.353283
1810.000000	34.179735
1800.000000	33.929527
1790.000000	33.698195
1780.000000	33.316506
1770.000000	32.884543
1760.000000	32.525572
1750.000000	32.265972
1740.000000	31.848895
1730.000000	31.520945
1720.000000	31.775323
1710.000000	32.447468
1700.000000	33.092223
1690.000000	33.786436
1680.000000	34.787357
1670.000000	35.945942
1660.000000	36.824984
1650.000000	37.140008
1640.000000	37.036917
1630.000000	36.822309
1620.000000	36.499769
1610.000000	36.021345
1600.000000	35.651891
1590.000000	35.268843
1580.000000	34.927551
1570.000000	34.600025
1560.000000	34.340578
1550.000000	34.080295
1540.000000	33.712070
1530.000000	33.105524
1520.000000	32.675124
1510.000000	32.445954
1500.000000	32.388428
1490.000000	32.366456
1480.000000	32.506568
1470.000000	32.772586
1460.000000	33.003962
1450.000000	33.395774
1440.000000	33.935362
1430.000000	34.587582
1420.000000	35.387650
1410.000000	36.647219
1400.000000	38.349761
1390.000000	40.097812
1380.000000	41.299492
1370.000000	41.901955
1360.000000	42.268677
1350.000000	42.507551
1340.000000	42.687707
1330.000000	42.892212
1320.000000	43.288125
1310.000000	43.762822
1300.000000	44.093633
1290.000000	44.221763
1280.000000	44.116808
1270.000000	43.981085
1260.000000	43.888816
1250.000000	43.841592
1240.000000	43.645494
1230.000000	43.336636
1220.000000	42.923260
1210.000000	42.621302
1200.000000	42.463669
1190.000000	42.504166
1180.000000	42.821163
1170.000000	43.404112
1160.000000	44.030817
1150.000000	44.571679
1140.000000	44.991090
1130.000000	45.251476
1120.000000	45.400419
1110.000000	45.509587
1100.000000	45.519237
1090.000000	45.559993
1080.000000	45.564434
1070.000000	45.546171
1060.000000	45.526775
1050.000000	45.468318
1040.000000	45.460757
1030.000000	45.513286
1020.000000	45.634104
1010.000000	45.924806
1000.000000	46.211251
990.000000	46.329535
980.000000	46.319376
970.000000	46.342270
960.000000	46.461979
950.000000	46.550490
940.000000	46.531814
930.000000	46.532509
920.000000	46.486345
910.000000	46.532361
900.000000	46.713212
890.000000	46.946397
880.000000	46.954840
870.000000	46.947919
860.000000	47.047861
850.000000	46.252464
840.000000	45.330664
830.000000	45.306293
820.000000	45.218400
810.000000	45.290945
800.000000	45.273741
790.000000	45.036036
780.000000	45.021326
770.000000	44.937240
760.000000	44.950170
750.000000	44.916240
740.000000	44.812591
730.000000	44.671174
720.000000	44.612246
710.000000	44.502088
700.000000	44.377474
690.000000	44.187096
680.000000	44.057207
670.000000	43.894806
660.000000	43.712101
650.000000	43.578962
640.000000	43.367569
630.000000	43.149862
620.000000	42.907278
610.000000	42.618324
600.000000	42.371536
590.000000	42.158077
580.000000	41.935621
570.000000	41.648215
560.000000	41.376805
550.000000	41.047134
540.000000	40.604905
530.000000	40.145065
520.000000	39.620373
510.000000	39.084591
500.000000	38.522375
490.000000	37.905783
480.000000	37.197418
470.000000	36.511276
460.000000	35.710130
450.000000	34.724104
440.000000	33.642593
430.000000	32.338222
420.000000	30.872887
410.000000	29.425004
400.000000	28.183279
390.000000	27.001933
380.000000	25.731219
370.000000	24.555087
360.000000	23.298662
350.000000	21.937422
340.000000	20.452468
330.000000	18.958217
320.000000	17.581272
310.000000	15.857334
300.000000	13.650342
290.000000	10.959637
280.000000	9.134684
270.000000	8.668934
260.000000	8.442269
250.000000	7.640283
