PE UV       SUBTECH     SPECTRUM    ASCII       PEDS        4.00        
   -1
3S-H10-F006.Sample.Raw.asc
22/03/03
15:35:08.00
22/03/03
15:35:08.00
Administrator

250.000000
1
Lambda 750
750N8071901
PerkinElmer UV WinLab 6.0.4.0738 / 1.61.00 Lambda 900

0
0
3350/servo 860.8/2
0
0
UV/VIS
1
1
1
CommonBeamDepol,150mm sphere / downward view
0
0
0
0
Program
Program
3350/servo 860.8/2
3350/0.2 860.8/0.2
3350/0.2 860.8/0.2
0
1
 
 
 
0
 
860.8
319.2
860.8
Front
100
on
 
 
0
0
0
 
0
 
 
 
0
 
 
0
0
0
0
0
 
 
 
 
0
0


0
0
#HDR
-1
-1
#GR
nm
%R
1.0
0.0
2500.000000
-10.000000
226
8
56.017169
7.927724
#DATA
2500.000000	11.645236
2490.000000	13.878720
2480.000000	12.233568
2470.000000	18.932504
2460.000000	13.229840
2450.000000	9.789027
2440.000000	13.728337
2430.000000	9.077302
2420.000000	13.619446
2410.000000	7.927724
2400.000000	12.670206
2390.000000	12.081468
2380.000000	9.409998
2370.000000	12.860011
2360.000000	17.658240
2350.000000	13.981465
2340.000000	11.845058
2330.000000	14.724950
2320.000000	10.124764
2310.000000	14.892452
2300.000000	13.803827
2290.000000	11.909690
2280.000000	12.759064
2270.000000	10.662911
2260.000000	13.594454
2250.000000	13.784651
2240.000000	17.229284
2230.000000	15.815487
2220.000000	16.193941
2210.000000	15.319937
2200.000000	14.920005
2190.000000	12.757096
2180.000000	13.577139
2170.000000	15.316372
2160.000000	15.025851
2150.000000	16.201557
2140.000000	17.758317
2130.000000	16.731663
2120.000000	18.301216
2110.000000	17.496562
2100.000000	19.202964
2090.000000	18.025791
2080.000000	16.795923
2070.000000	17.246593
2060.000000	16.148132
2050.000000	16.404215
2040.000000	14.590874
2030.000000	15.640152
2020.000000	15.845561
2010.000000	15.793728
2000.000000	16.107649
1990.000000	14.737769
1980.000000	14.019309
1970.000000	12.967327
1960.000000	12.703163
1950.000000	11.825472
1940.000000	11.441718
1930.000000	13.195907
1920.000000	13.709465
1910.000000	15.417820
1900.000000	19.638339
1890.000000	24.690229
1880.000000	27.879988
1870.000000	31.636464
1860.000000	34.304809
1850.000000	34.145933
1840.000000	34.339770
1830.000000	33.886197
1820.000000	33.443911
1810.000000	33.346474
1800.000000	32.598323
1790.000000	32.033298
1780.000000	30.689988
1770.000000	30.072318
1760.000000	29.671268
1750.000000	29.077308
1740.000000	28.560600
1730.000000	27.477744
1720.000000	28.301364
1710.000000	29.549643
1700.000000	30.741897
1690.000000	32.095485
1680.000000	34.144526
1670.000000	36.205529
1660.000000	37.680216
1650.000000	38.455813
1640.000000	38.233642
1630.000000	37.909480
1620.000000	37.488036
1610.000000	36.499044
1600.000000	35.751427
1590.000000	34.812294
1580.000000	33.985881
1570.000000	33.544765
1560.000000	32.996635
1550.000000	32.490932
1540.000000	32.072355
1530.000000	31.070096
1520.000000	30.211988
1510.000000	29.548141
1500.000000	29.235854
1490.000000	29.059711
1480.000000	29.472106
1470.000000	29.986292
1460.000000	30.371376
1450.000000	30.955784
1440.000000	31.942870
1430.000000	32.765066
1420.000000	34.028765
1410.000000	36.307512
1400.000000	39.871235
1390.000000	43.999155
1380.000000	46.750972
1370.000000	47.692743
1360.000000	48.399878
1350.000000	49.044591
1340.000000	49.326242
1330.000000	50.030645
1320.000000	51.559139
1310.000000	52.741761
1300.000000	53.320899
1290.000000	53.545981
1280.000000	53.569198
1270.000000	53.180971
1260.000000	52.904990
1250.000000	52.484484
1240.000000	51.633644
1230.000000	51.161365
1220.000000	50.716474
1210.000000	50.144408
1200.000000	49.736992
1190.000000	49.681886
1180.000000	50.279654
1170.000000	51.140125
1160.000000	52.472936
1150.000000	53.769179
1140.000000	54.919181
1130.000000	55.335150
1120.000000	55.517329
1110.000000	55.336878
1100.000000	55.586069
1090.000000	55.686933
1080.000000	55.668973
1070.000000	55.628553
1060.000000	55.532161
1050.000000	55.294177
1040.000000	55.094402
1030.000000	54.985229
1020.000000	55.046797
1010.000000	55.443352
1000.000000	55.909949
990.000000	55.962437
980.000000	55.885280
970.000000	55.825637
960.000000	55.864837
950.000000	56.017169
940.000000	55.834950
930.000000	55.544566
920.000000	55.376430
910.000000	55.286919
900.000000	55.226473
890.000000	55.318075
880.000000	55.265909
870.000000	55.091374
860.000000	54.703030
850.000000	54.305465
840.000000	55.656120
830.000000	55.285968
820.000000	54.931643
810.000000	54.843293
800.000000	54.792068
790.000000	54.737820
780.000000	54.711766
770.000000	54.676264
760.000000	54.498930
750.000000	54.305053
740.000000	54.159788
730.000000	53.996269
720.000000	53.869833
710.000000	53.617357
700.000000	53.334190
690.000000	53.112989
680.000000	52.775805
670.000000	52.275454
660.000000	51.845755
650.000000	51.409923
640.000000	50.952975
630.000000	50.452541
620.000000	49.938025
610.000000	49.374571
600.000000	48.826852
590.000000	48.277457
580.000000	47.604506
570.000000	46.967992
560.000000	46.338140
550.000000	45.593155
540.000000	44.886545
530.000000	44.030938
520.000000	43.148934
510.000000	42.121835
500.000000	41.108850
490.000000	40.129635
480.000000	38.691202
470.000000	36.840442
460.000000	34.886532
450.000000	32.752952
440.000000	30.140277
430.000000	27.289217
420.000000	24.522280
410.000000	22.242539
400.000000	20.862282
390.000000	19.860688
380.000000	18.498908
370.000000	17.189229
360.000000	16.018017
350.000000	14.736134
340.000000	13.589602
330.000000	12.861733
320.000000	12.367035
310.000000	11.014271
300.000000	9.780046
290.000000	9.126899
280.000000	8.839185
270.000000	8.835643
260.000000	8.811929
250.000000	8.805636
