PE UV       SUBTECH     SPECTRUM    ASCII       PEDS        4.00        
   -1
3S-H10-C024.Sample.Cycle1.Raw.asc
22/03/25
17:03:26.00
22/03/25
17:03:26.00
Administrator

250.000000
1
Lambda 750
750N8071901
PerkinElmer UV WinLab 6.0.4.0738 / 1.61.00 Lambda 900

0
0
3350/servo 860.8/2
0
0
UV/VIS
1
1
1
CommonBeamDepol,150mm sphere / downward view
0
0
0
0
Program
Program
3350/servo 860.8/2
3350/0.2 860.8/0.2
3350/0.2 860.8/0.2
0
1
 
 
 
0
 
860.8
319.2
860.8
Front
100
on
 
 
0
0
0
 
0
 
 
 
0
 
 
0
0
0
0
0
 
 
 
 
0
0


0
0
#HDR
-1
-1
#GR
nm
%R
1.0
0.0
2500.000000
-10.000000
226
8
46.265723
7.723225
#DATA
2500.000000	14.209664
2490.000000	18.047513
2480.000000	15.582759
2470.000000	16.191903
2460.000000	15.762148
2450.000000	17.203491
2440.000000	17.221574
2430.000000	18.473646
2420.000000	17.753086
2410.000000	20.080521
2400.000000	18.921674
2390.000000	19.793098
2380.000000	19.572411
2370.000000	18.641853
2360.000000	19.406837
2350.000000	18.977931
2340.000000	19.632188
2330.000000	18.249971
2320.000000	18.009200
2310.000000	18.742517
2300.000000	17.105986
2290.000000	18.632897
2280.000000	17.862361
2270.000000	18.757185
2260.000000	18.659856
2250.000000	19.962688
2240.000000	20.969698
2230.000000	21.852547
2220.000000	22.210511
2210.000000	21.721398
2200.000000	20.747501
2190.000000	21.326645
2180.000000	20.347745
2170.000000	20.938873
2160.000000	21.601617
2150.000000	21.681563
2140.000000	22.163679
2130.000000	23.714180
2120.000000	23.661498
2110.000000	24.132780
2100.000000	24.106070
2090.000000	23.918045
2080.000000	23.885363
2070.000000	23.487567
2060.000000	22.664276
2050.000000	22.408664
2040.000000	21.960028
2030.000000	21.805558
2020.000000	22.402143
2010.000000	22.674815
2000.000000	22.224426
1990.000000	21.633826
1980.000000	20.849987
1970.000000	20.046895
1960.000000	19.530981
1950.000000	19.197908
1940.000000	18.826405
1930.000000	19.484381
1920.000000	20.637468
1910.000000	22.440064
1900.000000	24.932256
1890.000000	27.977916
1880.000000	30.568734
1870.000000	32.485752
1860.000000	33.394468
1850.000000	33.716507
1840.000000	33.802966
1830.000000	33.540501
1820.000000	33.300756
1810.000000	33.170688
1800.000000	32.856701
1790.000000	32.595981
1780.000000	32.279563
1770.000000	31.781305
1760.000000	31.349461
1750.000000	31.148691
1740.000000	30.660759
1730.000000	30.396023
1720.000000	30.609703
1710.000000	31.336442
1700.000000	32.008958
1690.000000	32.640675
1680.000000	33.705266
1670.000000	34.925884
1660.000000	35.751335
1650.000000	36.110468
1640.000000	36.063999
1630.000000	35.768925
1620.000000	35.395526
1610.000000	34.963305
1600.000000	34.483953
1590.000000	34.150389
1580.000000	33.778317
1570.000000	33.442233
1560.000000	33.162543
1550.000000	32.947040
1540.000000	32.536204
1530.000000	31.955031
1520.000000	31.492145
1510.000000	31.266218
1500.000000	31.186711
1490.000000	31.182605
1480.000000	31.342371
1470.000000	31.559222
1460.000000	31.854736
1450.000000	32.235432
1440.000000	32.785112
1430.000000	33.438534
1420.000000	34.266253
1410.000000	35.595425
1400.000000	37.344068
1390.000000	39.137819
1380.000000	40.424190
1370.000000	41.014287
1360.000000	41.418308
1350.000000	41.713183
1340.000000	41.848659
1330.000000	42.099376
1320.000000	42.544106
1310.000000	42.997774
1300.000000	43.317418
1290.000000	43.390394
1280.000000	43.302485
1270.000000	43.190219
1260.000000	43.104764
1250.000000	43.020732
1240.000000	42.874798
1230.000000	42.544886
1220.000000	42.137489
1210.000000	41.814902
1200.000000	41.619421
1190.000000	41.671626
1180.000000	42.018227
1170.000000	42.578501
1160.000000	43.245593
1150.000000	43.816909
1140.000000	44.253561
1130.000000	44.541364
1120.000000	44.705309
1110.000000	44.835781
1100.000000	44.866910
1090.000000	44.901829
1080.000000	44.908834
1070.000000	44.890914
1060.000000	44.823749
1050.000000	44.790972
1040.000000	44.807557
1030.000000	44.853939
1020.000000	44.971034
1010.000000	45.226457
1000.000000	45.539076
990.000000	45.650982
980.000000	45.666685
970.000000	45.728127
960.000000	45.851782
950.000000	45.906354
940.000000	45.886752
930.000000	45.832963
920.000000	45.738700
910.000000	45.806262
900.000000	46.024634
890.000000	46.214941
880.000000	46.265723
870.000000	46.187268
860.000000	46.147820
850.000000	45.359589
840.000000	44.459880
830.000000	44.527258
820.000000	44.538587
810.000000	44.575249
800.000000	44.693258
790.000000	44.623818
780.000000	44.421940
770.000000	44.359028
760.000000	44.336226
750.000000	44.239739
740.000000	44.327302
730.000000	44.259367
720.000000	44.066177
710.000000	43.903159
700.000000	43.852358
690.000000	43.705726
680.000000	43.566630
670.000000	43.393076
660.000000	43.219403
650.000000	43.124063
640.000000	42.924211
630.000000	42.672745
620.000000	42.446355
610.000000	42.212593
600.000000	41.998935
590.000000	41.793603
580.000000	41.563158
570.000000	41.313224
560.000000	41.037528
550.000000	40.723798
540.000000	40.332802
530.000000	39.908111
520.000000	39.419198
510.000000	38.868054
500.000000	38.312032
490.000000	37.735612
480.000000	37.066371
470.000000	36.388146
460.000000	35.579594
450.000000	34.582505
440.000000	33.458929
430.000000	32.150498
420.000000	30.653453
410.000000	29.194514
400.000000	28.034816
390.000000	26.929286
380.000000	25.703310
370.000000	24.483526
360.000000	23.235051
350.000000	21.989802
340.000000	20.474870
330.000000	18.806034
320.000000	17.611550
310.000000	15.907417
300.000000	13.660085
290.000000	10.983966
280.000000	9.200303
270.000000	8.730306
260.000000	8.488509
250.000000	7.723225
