PE UV       SUBTECH     SPECTRUM    ASCII       PEDS        4.00        
   -1
3S-H10-C011.Sample.Cycle1.Raw.asc
22/03/25
16:28:40.00
22/03/25
16:28:40.00
Administrator

250.000000
1
Lambda 750
750N8071901
PerkinElmer UV WinLab 6.0.4.0738 / 1.61.00 Lambda 900

0
0
3350/servo 860.8/2
0
0
UV/VIS
1
1
1
CommonBeamDepol,150mm sphere / downward view
0
0
0
0
Program
Program
3350/servo 860.8/2
3350/0.2 860.8/0.2
3350/0.2 860.8/0.2
0
1
 
 
 
0
 
860.8
319.2
860.8
Front
100
on
 
 
0
0
0
 
0
 
 
 
0
 
 
0
0
0
0
0
 
 
 
 
0
0


0
0
#HDR
-1
-1
#GR
nm
%R
1.0
0.0
2500.000000
-10.000000
226
8
45.366839
7.561145
#DATA
2500.000000	14.503834
2490.000000	16.709178
2480.000000	15.008999
2470.000000	16.902116
2460.000000	16.494719
2450.000000	17.861054
2440.000000	16.440814
2430.000000	17.863683
2420.000000	18.093250
2410.000000	20.235370
2400.000000	20.195873
2390.000000	20.787149
2380.000000	19.343467
2370.000000	19.631567
2360.000000	18.597416
2350.000000	18.295752
2340.000000	17.878482
2330.000000	18.360522
2320.000000	18.906692
2310.000000	18.346092
2300.000000	17.716931
2290.000000	18.516282
2280.000000	19.363277
2270.000000	19.715918
2260.000000	19.629553
2250.000000	20.439658
2240.000000	21.082235
2230.000000	21.651587
2220.000000	22.553126
2210.000000	22.241062
2200.000000	21.552899
2190.000000	21.381564
2180.000000	20.957941
2170.000000	21.244599
2160.000000	22.267052
2150.000000	21.842754
2140.000000	22.118832
2130.000000	22.927935
2120.000000	23.221099
2110.000000	24.310753
2100.000000	24.297410
2090.000000	24.152437
2080.000000	23.797188
2070.000000	23.450789
2060.000000	22.674364
2050.000000	21.981314
2040.000000	21.653982
2030.000000	21.873014
2020.000000	22.267413
2010.000000	22.310598
2000.000000	21.915164
1990.000000	21.466194
1980.000000	20.732513
1970.000000	19.934189
1960.000000	19.490051
1950.000000	18.953733
1940.000000	18.821031
1930.000000	19.465740
1920.000000	20.380391
1910.000000	22.090085
1900.000000	24.585469
1890.000000	27.513993
1880.000000	30.105865
1870.000000	31.988059
1860.000000	32.861471
1850.000000	33.151879
1840.000000	33.240876
1830.000000	33.011030
1820.000000	32.708378
1810.000000	32.519185
1800.000000	32.223755
1790.000000	31.938306
1780.000000	31.676801
1770.000000	31.239980
1760.000000	30.859665
1750.000000	30.602202
1740.000000	30.274118
1730.000000	29.799238
1720.000000	30.045262
1710.000000	30.872725
1700.000000	31.525737
1690.000000	32.185187
1680.000000	33.157410
1670.000000	34.281310
1660.000000	35.124520
1650.000000	35.417091
1640.000000	35.394454
1630.000000	35.162277
1620.000000	34.827721
1610.000000	34.399679
1600.000000	33.997659
1590.000000	33.614160
1580.000000	33.276207
1570.000000	32.912388
1560.000000	32.682081
1550.000000	32.408000
1540.000000	32.016517
1530.000000	31.481285
1520.000000	31.065995
1510.000000	30.801712
1500.000000	30.728650
1490.000000	30.728414
1480.000000	30.843495
1470.000000	31.108333
1460.000000	31.371858
1450.000000	31.743508
1440.000000	32.271559
1430.000000	32.895755
1420.000000	33.692273
1410.000000	34.991698
1400.000000	36.710104
1390.000000	38.456437
1380.000000	39.689459
1370.000000	40.282024
1360.000000	40.663366
1350.000000	40.923864
1340.000000	41.088559
1330.000000	41.269179
1320.000000	41.693274
1310.000000	42.178343
1300.000000	42.530163
1290.000000	42.630436
1280.000000	42.531650
1270.000000	42.390404
1260.000000	42.309482
1250.000000	42.252652
1240.000000	42.068497
1230.000000	41.762998
1220.000000	41.351490
1210.000000	41.024010
1200.000000	40.859461
1190.000000	40.915313
1180.000000	41.244344
1170.000000	41.821445
1160.000000	42.459003
1150.000000	43.020308
1140.000000	43.442029
1130.000000	43.699934
1120.000000	43.839991
1110.000000	43.964610
1100.000000	44.031985
1090.000000	44.056297
1080.000000	44.035753
1070.000000	44.022418
1060.000000	43.979307
1050.000000	43.953829
1040.000000	43.931024
1030.000000	43.998891
1020.000000	44.126173
1010.000000	44.381215
1000.000000	44.657081
990.000000	44.811778
980.000000	44.774379
970.000000	44.818161
960.000000	44.942090
950.000000	45.021898
940.000000	45.020714
930.000000	45.048439
920.000000	44.956305
910.000000	44.952709
900.000000	45.147973
890.000000	45.337787
880.000000	45.312322
870.000000	45.366839
860.000000	45.364459
850.000000	44.596433
840.000000	43.542043
830.000000	43.558948
820.000000	43.488354
810.000000	43.524274
800.000000	43.601199
790.000000	43.466652
780.000000	43.328045
770.000000	43.257988
760.000000	43.147371
750.000000	43.117448
740.000000	43.037591
730.000000	42.923199
720.000000	42.833836
710.000000	42.643722
700.000000	42.556170
690.000000	42.337922
680.000000	42.141962
670.000000	42.028362
660.000000	41.849051
650.000000	41.681426
640.000000	41.414500
630.000000	41.148817
620.000000	40.902229
610.000000	40.596034
600.000000	40.366363
590.000000	40.147529
580.000000	39.915708
570.000000	39.585510
560.000000	39.259816
550.000000	38.897988
540.000000	38.448438
530.000000	37.972285
520.000000	37.441618
510.000000	36.876600
500.000000	36.283919
490.000000	35.679267
480.000000	34.995529
470.000000	34.282208
460.000000	33.477268
450.000000	32.447148
440.000000	31.311060
430.000000	30.028484
420.000000	28.583460
410.000000	27.222427
400.000000	26.048444
390.000000	24.931389
380.000000	23.712967
370.000000	22.474918
360.000000	21.303150
350.000000	20.113181
340.000000	18.699808
330.000000	17.200412
320.000000	15.921146
310.000000	14.704522
300.000000	12.692582
290.000000	10.273920
280.000000	8.785209
270.000000	8.367067
260.000000	8.198401
250.000000	7.561145
