PE UV       SUBTECH     SPECTRUM    ASCII       PEDS        4.00        
   -1
3S-H10-C006.Sample.Cycle1.Raw.asc
22/03/02
16:39:40.00
22/03/02
16:39:40.00
Administrator

250.000000
1
Lambda 750
750N8071901
PerkinElmer UV WinLab 6.0.4.0738 / 1.61.00 Lambda 900

0
0
3350/servo 860.8/2
0
0
UV/VIS
1
1
1
CommonBeamDepol,150mm sphere / downward view
0
0
0
0
Program
Program
3350/servo 860.8/2
3350/0.2 860.8/0.2
3350/0.2 860.8/0.2
0
1
 
 
 
0
 
860.8
319.2
860.8
Front
100
on
 
 
0
0
0
 
0
 
 
 
0
 
 
0
0
0
0
0
 
 
 
 
0
0


0
0
#HDR
-1
-1
#GR
nm
%R
1.0
0.0
2500.000000
-10.000000
226
8
51.469861
7.798272
#DATA
2500.000000	22.631985
2490.000000	20.748263
2480.000000	17.295793
2470.000000	18.344234
2460.000000	21.810039
2450.000000	23.704923
2440.000000	24.291473
2430.000000	27.287859
2420.000000	23.291115
2410.000000	22.432202
2400.000000	22.183527
2390.000000	24.247785
2380.000000	19.750583
2370.000000	24.319030
2360.000000	26.520999
2350.000000	24.412243
2340.000000	26.623439
2330.000000	22.939233
2320.000000	23.849794
2310.000000	23.373838
2300.000000	23.437181
2290.000000	20.817728
2280.000000	21.140343
2270.000000	21.506205
2260.000000	22.702865
2250.000000	24.232160
2240.000000	26.143429
2230.000000	26.897258
2220.000000	26.950739
2210.000000	26.798448
2200.000000	26.774906
2190.000000	27.619709
2180.000000	26.378993
2170.000000	26.823028
2160.000000	26.252048
2150.000000	26.695683
2140.000000	26.724658
2130.000000	29.251212
2120.000000	29.438832
2110.000000	29.800956
2100.000000	29.065994
2090.000000	28.995852
2080.000000	29.703615
2070.000000	28.868974
2060.000000	27.195946
2050.000000	26.651677
2040.000000	26.453229
2030.000000	25.919465
2020.000000	26.854679
2010.000000	27.241359
2000.000000	26.288490
1990.000000	26.084128
1980.000000	25.053281
1970.000000	24.536147
1960.000000	23.864983
1950.000000	23.580841
1940.000000	22.862400
1930.000000	23.367837
1920.000000	25.064712
1910.000000	26.167869
1900.000000	29.667727
1890.000000	32.637949
1880.000000	35.502022
1870.000000	37.788663
1860.000000	38.854810
1850.000000	38.567654
1840.000000	39.118632
1830.000000	38.531780
1820.000000	38.507097
1810.000000	38.251420
1800.000000	37.923397
1790.000000	37.478664
1780.000000	37.055693
1770.000000	36.691609
1760.000000	36.615439
1750.000000	36.280488
1740.000000	35.935103
1730.000000	35.065192
1720.000000	35.444107
1710.000000	36.434813
1700.000000	37.416403
1690.000000	37.882812
1680.000000	38.752200
1670.000000	40.024572
1660.000000	40.695202
1650.000000	41.127441
1640.000000	40.986847
1630.000000	40.684683
1620.000000	40.504425
1610.000000	40.003682
1600.000000	39.363767
1590.000000	39.140025
1580.000000	38.746467
1570.000000	38.557905
1560.000000	38.224121
1550.000000	38.053598
1540.000000	37.477251
1530.000000	36.920024
1520.000000	36.478054
1510.000000	36.276433
1500.000000	36.149848
1490.000000	36.014074
1480.000000	36.204002
1470.000000	36.372362
1460.000000	36.655183
1450.000000	37.192757
1440.000000	37.608394
1430.000000	37.866182
1420.000000	38.211479
1410.000000	39.497012
1400.000000	42.024774
1390.000000	44.564397
1380.000000	45.992023
1370.000000	46.281979
1360.000000	46.407421
1350.000000	46.315014
1340.000000	46.380008
1330.000000	46.806371
1320.000000	47.882399
1310.000000	48.839719
1300.000000	49.293974
1290.000000	49.570934
1280.000000	49.327216
1270.000000	48.919199
1260.000000	48.716595
1250.000000	48.537973
1240.000000	48.167227
1230.000000	48.072060
1220.000000	47.852210
1210.000000	47.576414
1200.000000	47.262294
1190.000000	47.354916
1180.000000	47.795051
1170.000000	48.267892
1160.000000	48.859989
1150.000000	49.358205
1140.000000	49.772560
1130.000000	50.128689
1120.000000	50.201654
1110.000000	50.353822
1100.000000	50.460531
1090.000000	50.374934
1080.000000	50.192285
1070.000000	50.154189
1060.000000	50.091697
1050.000000	50.153229
1040.000000	50.324608
1030.000000	50.265709
1020.000000	50.235898
1010.000000	50.670262
1000.000000	51.353709
990.000000	51.469861
980.000000	51.298582
970.000000	51.303104
960.000000	51.239213
950.000000	51.200105
940.000000	50.935798
930.000000	50.929803
920.000000	50.666305
910.000000	50.499051
900.000000	50.648253
890.000000	51.198371
880.000000	51.352987
870.000000	50.726745
860.000000	50.645576
850.000000	51.054406
840.000000	50.943020
830.000000	50.673252
820.000000	50.525234
810.000000	50.602889
800.000000	50.752142
790.000000	50.631425
780.000000	50.313990
770.000000	50.412788
760.000000	50.340505
750.000000	50.250691
740.000000	50.124599
730.000000	49.990050
720.000000	49.748352
710.000000	49.591355
700.000000	49.363368
690.000000	49.156534
680.000000	49.023428
670.000000	48.827192
660.000000	48.578760
650.000000	48.188521
640.000000	47.906555
630.000000	47.739367
620.000000	47.412570
610.000000	46.933655
600.000000	46.575624
590.000000	46.263093
580.000000	45.875312
570.000000	45.438707
560.000000	45.103911
550.000000	44.674488
540.000000	44.141237
530.000000	43.615542
520.000000	43.197163
510.000000	42.618783
500.000000	41.913814
490.000000	41.224500
480.000000	40.459650
470.000000	39.613102
460.000000	38.790861
450.000000	37.669759
440.000000	36.371656
430.000000	34.949668
420.000000	33.370283
410.000000	31.951369
400.000000	30.699410
390.000000	29.561416
380.000000	28.273913
370.000000	26.698792
360.000000	25.181962
350.000000	23.867699
340.000000	22.357450
330.000000	20.322939
320.000000	19.009641
310.000000	17.149926
300.000000	14.298534
290.000000	11.509486
280.000000	9.496435
270.000000	8.911662
260.000000	8.702603
250.000000	7.798272
