PE UV       SUBTECH     SPECTRUM    ASCII       PEDS        4.00        
   -1
3S-H10-F007.Sample.Raw.asc
22/03/03
15:38:06.00
22/03/03
15:38:06.00
Administrator

250.000000
1
Lambda 750
750N8071901
PerkinElmer UV WinLab 6.0.4.0738 / 1.61.00 Lambda 900

0
0
3350/servo 860.8/2
0
0
UV/VIS
1
1
1
CommonBeamDepol,150mm sphere / downward view
0
0
0
0
Program
Program
3350/servo 860.8/2
3350/0.2 860.8/0.2
3350/0.2 860.8/0.2
0
1
 
 
 
0
 
860.8
319.2
860.8
Front
100
on
 
 
0
0
0
 
0
 
 
 
0
 
 
0
0
0
0
0
 
 
 
 
0
0


0
0
#HDR
-1
-1
#GR
nm
%R
1.0
0.0
2500.000000
-10.000000
226
8
55.925273
6.137400
#DATA
2500.000000	10.995489
2490.000000	10.807160
2480.000000	9.151841
2470.000000	13.684399
2460.000000	15.063835
2450.000000	11.557521
2440.000000	6.137400
2430.000000	10.543963
2420.000000	15.504240
2410.000000	9.410879
2400.000000	13.467692
2390.000000	11.194128
2380.000000	11.248019
2370.000000	12.571039
2360.000000	14.310755
2350.000000	9.826054
2340.000000	9.756382
2330.000000	14.573565
2320.000000	8.161002
2310.000000	11.360085
2300.000000	12.091615
2290.000000	12.130677
2280.000000	11.635492
2270.000000	13.780979
2260.000000	13.634604
2250.000000	13.598629
2240.000000	14.882934
2230.000000	13.945208
2220.000000	16.879795
2210.000000	14.702711
2200.000000	16.460812
2190.000000	15.279479
2180.000000	13.516200
2170.000000	15.386037
2160.000000	14.162238
2150.000000	14.203897
2140.000000	17.077900
2130.000000	16.302827
2120.000000	17.179834
2110.000000	17.482953
2100.000000	19.192813
2090.000000	17.660621
2080.000000	18.255720
2070.000000	17.218514
2060.000000	16.002428
2050.000000	16.054597
2040.000000	14.460047
2030.000000	15.613770
2020.000000	15.322482
2010.000000	15.461775
2000.000000	15.089852
1990.000000	14.421040
1980.000000	14.073596
1970.000000	13.467957
1960.000000	12.367981
1950.000000	12.040441
1940.000000	11.129792
1930.000000	12.172596
1920.000000	13.844826
1910.000000	15.292100
1900.000000	19.170084
1890.000000	23.721941
1880.000000	28.422095
1870.000000	31.902207
1860.000000	33.392365
1850.000000	33.516095
1840.000000	33.801797
1830.000000	33.237120
1820.000000	32.826375
1810.000000	32.806261
1800.000000	31.881175
1790.000000	31.398533
1780.000000	30.517931
1770.000000	29.844907
1760.000000	29.157328
1750.000000	28.623501
1740.000000	27.949097
1730.000000	26.995012
1720.000000	27.586709
1710.000000	29.170080
1700.000000	30.589818
1690.000000	31.951277
1680.000000	34.008800
1670.000000	36.162595
1660.000000	37.369498
1650.000000	38.188014
1640.000000	38.231453
1630.000000	37.913861
1620.000000	37.311219
1610.000000	36.268546
1600.000000	35.487794
1590.000000	34.517811
1580.000000	33.731613
1570.000000	33.160542
1560.000000	32.783523
1550.000000	32.357845
1540.000000	31.757354
1530.000000	30.712204
1520.000000	29.924708
1510.000000	29.312433
1500.000000	29.018192
1490.000000	28.749845
1480.000000	29.172885
1470.000000	29.596926
1460.000000	30.126858
1450.000000	30.796098
1440.000000	31.588167
1430.000000	32.429779
1420.000000	33.767067
1410.000000	36.052959
1400.000000	39.671729
1390.000000	43.788689
1380.000000	46.519132
1370.000000	47.507901
1360.000000	48.268768
1350.000000	48.923523
1340.000000	49.114983
1330.000000	49.873360
1320.000000	51.324749
1310.000000	52.554620
1300.000000	53.123978
1290.000000	53.259182
1280.000000	53.135036
1270.000000	52.856602
1260.000000	52.703394
1250.000000	52.164168
1240.000000	51.264125
1230.000000	50.687067
1220.000000	50.212426
1210.000000	49.703038
1200.000000	49.305674
1190.000000	49.215417
1180.000000	49.885930
1170.000000	50.857473
1160.000000	52.267254
1150.000000	53.532736
1140.000000	54.753603
1130.000000	55.409482
1120.000000	55.463505
1110.000000	55.319397
1100.000000	55.341964
1090.000000	55.493003
1080.000000	55.441016
1070.000000	55.468806
1060.000000	55.356103
1050.000000	55.203947
1040.000000	55.000285
1030.000000	54.864504
1020.000000	55.022817
1010.000000	55.543564
1000.000000	55.925273
990.000000	55.900664
980.000000	55.691085
970.000000	55.714836
960.000000	55.850429
950.000000	55.908666
940.000000	55.554124
930.000000	55.352818
920.000000	55.361096
910.000000	55.575959
900.000000	55.700616
890.000000	55.824715
880.000000	55.308772
870.000000	54.854023
860.000000	54.830312
850.000000	54.906869
840.000000	55.011790
830.000000	54.985707
820.000000	54.728888
810.000000	54.499834
800.000000	54.446499
790.000000	54.297614
780.000000	54.297494
770.000000	54.206378
760.000000	54.019151
750.000000	53.993747
740.000000	53.885332
730.000000	53.473499
720.000000	53.354529
710.000000	53.285898
700.000000	52.980518
690.000000	52.669681
680.000000	52.347718
670.000000	51.847458
660.000000	51.612337
650.000000	51.247421
640.000000	50.677903
630.000000	50.190188
620.000000	49.652404
610.000000	48.983846
600.000000	48.506445
590.000000	47.999195
580.000000	47.349922
570.000000	46.655036
560.000000	46.037748
550.000000	45.344237
540.000000	44.601245
530.000000	43.726770
520.000000	42.889907
510.000000	41.867362
500.000000	40.839328
490.000000	39.839590
480.000000	38.451540
470.000000	36.570130
460.000000	34.599356
450.000000	32.507355
440.000000	29.927215
430.000000	27.014174
420.000000	24.266312
410.000000	21.981047
400.000000	20.538714
390.000000	19.367969
380.000000	18.084085
370.000000	16.800646
360.000000	15.665801
350.000000	14.369413
340.000000	13.208586
330.000000	12.545198
320.000000	11.874702
310.000000	10.885475
300.000000	9.796377
290.000000	9.159430
280.000000	8.817972
270.000000	8.711204
260.000000	8.643310
250.000000	8.706326
