PE UV       SUBTECH     SPECTRUM    ASCII       PEDS        4.00        
   -1
3S-N10-C001.Sample.Raw.asc
22/03/03
15:58:39.00
22/03/03
15:58:39.00
Administrator

250.000000
1
Lambda 750
750N8071901
PerkinElmer UV WinLab 6.0.4.0738 / 1.61.00 Lambda 900

0
0
3350/servo 860.8/2
0
0
UV/VIS
1
1
1
CommonBeamDepol,150mm sphere / downward view
0
0
0
0
Program
Program
3350/servo 860.8/2
3350/0.2 860.8/0.2
3350/0.2 860.8/0.2
0
1
 
 
 
0
 
860.8
319.2
860.8
Front
100
on
 
 
0
0
0
 
0
 
 
 
0
 
 
0
0
0
0
0
 
 
 
 
0
0


0
0
#HDR
-1
-1
#GR
nm
%R
1.0
0.0
2500.000000
-10.000000
226
8
68.998014
17.880429
#DATA
2500.000000	31.699166
2490.000000	33.610063
2480.000000	29.843141
2470.000000	34.749035
2460.000000	35.581739
2450.000000	32.312839
2440.000000	32.840308
2430.000000	35.045049
2420.000000	37.523588
2410.000000	33.063053
2400.000000	40.114133
2390.000000	39.277798
2380.000000	31.895421
2370.000000	35.350953
2360.000000	38.602577
2350.000000	38.763172
2340.000000	34.508684
2330.000000	38.003126
2320.000000	35.693123
2310.000000	38.642835
2300.000000	35.975746
2290.000000	35.577327
2280.000000	38.055652
2270.000000	36.252184
2260.000000	35.243339
2250.000000	36.761745
2240.000000	38.875818
2230.000000	38.244950
2220.000000	39.524513
2210.000000	38.330958
2200.000000	39.284021
2190.000000	37.964056
2180.000000	37.448673
2170.000000	38.356330
2160.000000	37.346196
2150.000000	39.584868
2140.000000	41.801614
2130.000000	40.258291
2120.000000	42.603996
2110.000000	41.846923
2100.000000	43.264134
2090.000000	41.623646
2080.000000	41.413365
2070.000000	41.864115
2060.000000	39.870009
2050.000000	38.882507
2040.000000	38.143416
2030.000000	38.810536
2020.000000	38.957886
2010.000000	39.074430
2000.000000	38.366898
1990.000000	38.239856
1980.000000	37.136129
1970.000000	35.787686
1960.000000	34.630787
1950.000000	33.743461
1940.000000	33.611338
1930.000000	33.892645
1920.000000	36.271511
1910.000000	39.320674
1900.000000	43.483698
1890.000000	47.752739
1880.000000	51.548562
1870.000000	54.421155
1860.000000	56.188144
1850.000000	56.099958
1840.000000	55.989747
1830.000000	55.986743
1820.000000	55.572406
1810.000000	55.588650
1800.000000	54.969391
1790.000000	54.455069
1780.000000	53.790397
1770.000000	53.687928
1760.000000	53.252641
1750.000000	52.845076
1740.000000	52.423781
1730.000000	52.197854
1720.000000	52.942762
1710.000000	53.894366
1700.000000	54.140863
1690.000000	54.842323
1680.000000	56.102918
1670.000000	57.115725
1660.000000	57.877614
1650.000000	58.339353
1640.000000	58.376194
1630.000000	58.139212
1620.000000	57.888430
1610.000000	56.941952
1600.000000	56.463383
1590.000000	55.807866
1580.000000	55.349454
1570.000000	55.022601
1560.000000	54.583738
1550.000000	54.352404
1540.000000	54.177965
1530.000000	53.463148
1520.000000	52.883772
1510.000000	52.370215
1500.000000	52.000087
1490.000000	51.818823
1480.000000	52.152420
1470.000000	52.660668
1460.000000	53.120347
1450.000000	53.651636
1440.000000	54.414159
1430.000000	54.875122
1420.000000	55.506958
1410.000000	56.874406
1400.000000	59.510516
1390.000000	62.504187
1380.000000	64.307569
1370.000000	64.548117
1360.000000	64.704604
1350.000000	64.811762
1340.000000	64.950669
1330.000000	65.677174
1320.000000	66.850866
1310.000000	67.648413
1300.000000	67.716167
1290.000000	67.662290
1280.000000	67.542673
1270.000000	67.340395
1260.000000	67.182022
1250.000000	66.958625
1240.000000	66.640554
1230.000000	66.542798
1220.000000	66.564771
1210.000000	66.515840
1200.000000	66.007235
1190.000000	65.726348
1180.000000	65.734240
1170.000000	66.353505
1160.000000	66.978239
1150.000000	67.550949
1140.000000	68.067631
1130.000000	68.395010
1120.000000	68.455468
1110.000000	68.476947
1100.000000	68.488005
1090.000000	68.563035
1080.000000	68.533360
1070.000000	68.570195
1060.000000	68.548926
1050.000000	68.517802
1040.000000	68.451074
1030.000000	68.371492
1020.000000	68.317076
1010.000000	68.552247
1000.000000	68.841554
990.000000	68.967982
980.000000	68.838286
970.000000	68.785184
960.000000	68.725214
950.000000	68.998014
940.000000	68.850646
930.000000	68.518892
920.000000	68.458810
910.000000	68.367320
900.000000	68.487298
890.000000	68.523471
880.000000	68.271410
870.000000	68.264355
860.000000	68.436673
850.000000	68.519018
840.000000	67.904316
830.000000	67.883193
820.000000	67.546141
810.000000	67.387692
800.000000	67.502721
790.000000	67.592111
780.000000	67.904181
770.000000	67.829086
760.000000	67.638220
750.000000	67.724659
740.000000	67.651085
730.000000	67.501711
720.000000	67.696826
710.000000	67.616264
700.000000	67.535181
690.000000	67.431724
680.000000	67.189434
670.000000	67.063883
660.000000	66.978790
650.000000	66.875244
640.000000	66.766223
630.000000	66.646883
620.000000	66.566744
610.000000	66.284012
600.000000	66.044884
590.000000	65.915247
580.000000	65.647218
570.000000	65.341821
560.000000	65.085399
550.000000	64.713379
540.000000	64.405991
530.000000	63.993101
520.000000	63.602636
510.000000	63.096571
500.000000	62.751571
490.000000	62.597192
480.000000	62.030493
470.000000	61.043458
460.000000	60.105921
450.000000	59.236186
440.000000	58.024879
430.000000	56.469432
420.000000	54.650199
410.000000	52.706015
400.000000	51.017346
390.000000	49.581610
380.000000	48.315909
370.000000	46.772409
360.000000	44.967938
350.000000	43.315059
340.000000	41.259896
330.000000	38.956266
320.000000	36.896500
310.000000	34.497776
300.000000	30.520031
290.000000	25.076450
280.000000	21.040792
270.000000	20.084911
260.000000	19.449369
250.000000	17.880429
