PE UV       SUBTECH     SPECTRUM    ASCII       PEDS        4.00        
   -1
3S-N10-F008.Sample.Raw.asc
22/03/03
17:01:19.00
22/03/03
17:01:19.00
Administrator

250.000000
1
Lambda 750
750N8071901
PerkinElmer UV WinLab 6.0.4.0738 / 1.61.00 Lambda 900

0
0
3350/servo 860.8/2
0
0
UV/VIS
1
1
1
CommonBeamDepol,150mm sphere / downward view
0
0
0
0
Program
Program
3350/servo 860.8/2
3350/0.2 860.8/0.2
3350/0.2 860.8/0.2
0
1
 
 
 
0
 
860.8
319.2
860.8
Front
100
on
 
 
0
0
0
 
0
 
 
 
0
 
 
0
0
0
0
0
 
 
 
 
0
0


0
0
#HDR
-1
-1
#GR
nm
%R
1.0
0.0
2500.000000
-10.000000
226
8
69.715229
9.724283
#DATA
2500.000000	13.669777
2490.000000	17.206476
2480.000000	12.945924
2470.000000	20.675676
2460.000000	21.520234
2450.000000	12.057506
2440.000000	14.745522
2430.000000	13.702530
2420.000000	23.695300
2410.000000	13.161679
2400.000000	23.606024
2390.000000	17.099450
2380.000000	15.376741
2370.000000	15.955721
2360.000000	20.875553
2350.000000	18.079481
2340.000000	14.658614
2330.000000	20.092793
2320.000000	16.694210
2310.000000	21.992231
2300.000000	18.461755
2290.000000	16.503996
2280.000000	17.740446
2270.000000	17.461042
2260.000000	20.614299
2250.000000	19.307704
2240.000000	21.074113
2230.000000	21.596684
2220.000000	23.225388
2210.000000	21.749796
2200.000000	21.889386
2190.000000	20.405634
2180.000000	20.955152
2170.000000	21.045261
2160.000000	20.998931
2150.000000	20.365154
2140.000000	23.757777
2130.000000	23.731508
2120.000000	25.674465
2110.000000	24.880386
2100.000000	26.322773
2090.000000	24.747782
2080.000000	24.071904
2070.000000	23.655659
2060.000000	22.259124
2050.000000	22.188608
2040.000000	20.961435
2030.000000	21.439878
2020.000000	22.097955
2010.000000	21.802070
2000.000000	21.104107
1990.000000	20.808062
1980.000000	19.828042
1970.000000	18.108294
1960.000000	17.607669
1950.000000	17.021401
1940.000000	16.250396
1930.000000	17.577302
1920.000000	18.971699
1910.000000	21.508353
1900.000000	26.769043
1890.000000	32.877855
1880.000000	38.386150
1870.000000	42.818764
1860.000000	45.176148
1850.000000	45.892949
1840.000000	45.972442
1830.000000	45.445579
1820.000000	45.290103
1810.000000	45.070556
1800.000000	43.945711
1790.000000	43.317763
1780.000000	42.520244
1770.000000	42.151407
1760.000000	41.022478
1750.000000	40.502994
1740.000000	39.825660
1730.000000	39.324029
1720.000000	40.247252
1710.000000	41.658378
1700.000000	42.158791
1690.000000	43.361297
1680.000000	45.406119
1670.000000	47.861681
1660.000000	49.176780
1650.000000	50.061659
1640.000000	49.889475
1630.000000	49.332564
1620.000000	48.722464
1610.000000	47.568092
1600.000000	46.542910
1590.000000	45.412240
1580.000000	44.428335
1570.000000	43.893263
1560.000000	43.258866
1550.000000	42.797912
1540.000000	42.136305
1530.000000	40.739009
1520.000000	39.752193
1510.000000	39.088110
1500.000000	38.661561
1490.000000	38.547705
1480.000000	39.047154
1470.000000	39.687632
1460.000000	40.328020
1450.000000	41.065595
1440.000000	42.323739
1430.000000	43.610630
1420.000000	45.472041
1410.000000	48.283227
1400.000000	52.447420
1390.000000	56.799744
1380.000000	59.683855
1370.000000	60.798370
1360.000000	61.549271
1350.000000	62.340097
1340.000000	63.102879
1330.000000	64.184814
1320.000000	65.714519
1310.000000	66.704540
1300.000000	66.912136
1290.000000	66.743196
1280.000000	66.492209
1270.000000	66.432606
1260.000000	66.307449
1250.000000	66.121217
1240.000000	65.685717
1230.000000	65.317898
1220.000000	65.163649
1210.000000	64.784425
1200.000000	64.007487
1190.000000	63.455265
1180.000000	63.731031
1170.000000	64.946838
1160.000000	66.255792
1150.000000	67.535576
1140.000000	68.807259
1130.000000	69.466995
1120.000000	69.488308
1110.000000	69.321873
1100.000000	69.335832
1090.000000	69.562354
1080.000000	69.502175
1070.000000	69.409945
1060.000000	69.109436
1050.000000	68.908797
1040.000000	68.816844
1030.000000	68.727275
1020.000000	68.831242
1010.000000	69.145112
1000.000000	69.529057
990.000000	69.493396
980.000000	69.257775
970.000000	69.412825
960.000000	69.525901
950.000000	69.715229
940.000000	69.532363
930.000000	69.145272
920.000000	68.965517
910.000000	69.046830
900.000000	69.244078
890.000000	69.034698
880.000000	69.031894
870.000000	69.287039
860.000000	68.657337
850.000000	68.480507
840.000000	68.723358
830.000000	68.676693
820.000000	68.530580
810.000000	68.289679
800.000000	68.229269
790.000000	68.094262
780.000000	68.313813
770.000000	68.087623
760.000000	67.784153
750.000000	67.849850
740.000000	67.663164
730.000000	67.462789
720.000000	67.390338
710.000000	67.124138
700.000000	66.861649
690.000000	66.697621
680.000000	66.373160
670.000000	65.850667
660.000000	65.645070
650.000000	65.315631
640.000000	64.817125
630.000000	64.304598
620.000000	63.662023
610.000000	63.160231
600.000000	62.671539
590.000000	62.146305
580.000000	61.480996
570.000000	60.818612
560.000000	60.186084
550.000000	59.513979
540.000000	58.843637
530.000000	57.913736
520.000000	57.099300
510.000000	56.195246
500.000000	55.159365
490.000000	54.131432
480.000000	52.629512
470.000000	50.428667
460.000000	48.232198
450.000000	45.674427
440.000000	42.587838
430.000000	39.075805
420.000000	35.459822
410.000000	32.694349
400.000000	31.233406
390.000000	30.098739
380.000000	28.542258
370.000000	26.831936
360.000000	24.990460
350.000000	23.134909
340.000000	21.814729
330.000000	20.144989
320.000000	18.437206
310.000000	16.076077
300.000000	12.424598
290.000000	10.636871
280.000000	9.886489
270.000000	9.724283
260.000000	9.829411
250.000000	9.808480
