PE UV       SUBTECH     SPECTRUM    ASCII       PEDS        4.00        
   -1
3S-N10-F018.Sample.Raw.asc
22/03/30
16:36:57.00
22/03/30
16:36:57.00
Administrator

250.000000
1
Lambda 750
750N8071901
PerkinElmer UV WinLab 6.0.4.0738 / 1.61.00 Lambda 900

0
0
3350/servo 860.8/2
0
0
UV/VIS
1
1
1
CommonBeamDepol,150mm sphere / downward view
0
0
0
0
Program
Program
3350/servo 860.8/2
3350/0.2 860.8/0.2
3350/0.2 860.8/0.2
0
1
 
 
 
0
 
860.8
319.2
860.8
Front
100
on
 
 
0
0
0
 
0
 
 
 
0
 
 
0
0
0
0
0
 
 
 
 
0
0


0
0
#HDR
-1
-1
#GR
nm
%R
1.0
0.0
2500.000000
-10.000000
226
8
61.806619
9.215875
#DATA
2500.000000	9.309991
2490.000000	13.666501
2480.000000	12.158361
2470.000000	9.909247
2460.000000	10.059382
2450.000000	13.823491
2440.000000	14.893557
2430.000000	13.100974
2420.000000	14.674485
2410.000000	13.272655
2400.000000	13.094468
2390.000000	13.202633
2380.000000	13.021645
2370.000000	13.545636
2360.000000	15.672864
2350.000000	15.077469
2340.000000	14.383320
2330.000000	14.687504
2320.000000	14.358041
2310.000000	14.205282
2300.000000	13.805686
2290.000000	14.047622
2280.000000	13.689015
2270.000000	12.425014
2260.000000	13.489880
2250.000000	14.695683
2240.000000	15.998867
2230.000000	17.294551
2220.000000	17.633323
2210.000000	17.297336
2200.000000	17.198454
2190.000000	15.777401
2180.000000	15.798432
2170.000000	15.724500
2160.000000	16.119585
2150.000000	17.341779
2140.000000	17.729738
2130.000000	18.697372
2120.000000	19.369961
2110.000000	19.615432
2100.000000	20.035491
2090.000000	19.632370
2080.000000	19.472556
2070.000000	18.732166
2060.000000	17.422726
2050.000000	16.747746
2040.000000	16.031008
2030.000000	16.425650
2020.000000	17.136232
2010.000000	17.064169
2000.000000	16.749361
1990.000000	16.186882
1980.000000	15.313942
1970.000000	14.545983
1960.000000	13.496885
1950.000000	12.910835
1940.000000	12.870122
1930.000000	13.499648
1920.000000	14.663605
1910.000000	17.242311
1900.000000	21.167152
1890.000000	26.626633
1880.000000	31.689332
1870.000000	35.516071
1860.000000	37.704466
1850.000000	38.300624
1840.000000	38.361643
1830.000000	37.931224
1820.000000	37.452471
1810.000000	37.016230
1800.000000	36.501317
1790.000000	36.076314
1780.000000	35.614218
1770.000000	34.853549
1760.000000	34.128498
1750.000000	33.599265
1740.000000	32.998141
1730.000000	32.579143
1720.000000	33.091645
1710.000000	34.359797
1700.000000	35.122936
1690.000000	35.846425
1680.000000	37.560885
1670.000000	39.810489
1660.000000	41.484413
1650.000000	42.244613
1640.000000	42.011755
1630.000000	41.495578
1620.000000	40.801039
1610.000000	39.932179
1600.000000	38.970535
1590.000000	38.153656
1580.000000	37.438287
1570.000000	36.671894
1560.000000	36.092225
1550.000000	35.769397
1540.000000	34.928617
1530.000000	33.805326
1520.000000	33.017108
1510.000000	32.510159
1500.000000	32.216785
1490.000000	32.230545
1480.000000	32.564757
1470.000000	33.018927
1460.000000	33.549955
1450.000000	34.281599
1440.000000	35.420456
1430.000000	37.103136
1420.000000	39.399842
1410.000000	42.347479
1400.000000	45.451600
1390.000000	48.266890
1380.000000	50.334653
1370.000000	51.563737
1360.000000	52.428214
1350.000000	53.364141
1340.000000	54.142883
1330.000000	54.510138
1320.000000	55.063101
1310.000000	56.374399
1300.000000	57.692003
1290.000000	58.471669
1280.000000	58.593454
1270.000000	58.447681
1260.000000	58.259618
1250.000000	57.974013
1240.000000	57.609084
1230.000000	57.167162
1220.000000	56.668551
1210.000000	56.050188
1200.000000	55.597868
1190.000000	55.530366
1180.000000	55.964376
1170.000000	56.845856
1160.000000	58.092971
1150.000000	59.129219
1140.000000	59.873261
1130.000000	60.440948
1120.000000	60.767978
1110.000000	60.825653
1100.000000	60.897419
1090.000000	60.815572
1080.000000	60.621060
1070.000000	60.409479
1060.000000	60.210047
1050.000000	59.997100
1040.000000	59.737090
1030.000000	59.523471
1020.000000	59.498891
1010.000000	59.783402
1000.000000	60.041284
990.000000	60.191038
980.000000	60.248131
970.000000	60.356167
960.000000	60.551272
950.000000	60.722214
940.000000	60.759416
930.000000	60.735970
920.000000	60.743429
910.000000	60.772766
900.000000	60.867819
890.000000	61.098124
880.000000	61.265957
870.000000	61.184186
860.000000	61.317918
850.000000	61.662721
840.000000	61.806619
830.000000	61.737432
820.000000	61.763397
810.000000	61.799053
800.000000	61.752555
790.000000	61.714969
780.000000	61.765752
770.000000	61.563512
760.000000	61.540171
750.000000	61.482788
740.000000	61.288352
730.000000	61.137739
720.000000	61.051658
710.000000	60.937778
700.000000	60.737691
690.000000	60.535583
680.000000	60.247631
670.000000	59.877551
660.000000	59.521097
650.000000	59.117372
640.000000	58.601277
630.000000	58.049206
620.000000	57.483874
610.000000	56.907325
600.000000	56.381698
590.000000	55.871247
580.000000	55.288676
570.000000	54.754200
560.000000	54.224105
550.000000	53.666139
540.000000	52.974344
530.000000	52.275843
520.000000	51.503739
510.000000	50.597394
500.000000	49.545709
490.000000	48.168412
480.000000	46.536336
470.000000	44.706367
460.000000	42.487304
450.000000	39.885584
440.000000	36.911079
430.000000	33.533210
420.000000	30.102328
410.000000	27.542550
400.000000	26.256394
390.000000	25.346659
380.000000	24.174332
370.000000	22.572066
360.000000	20.900681
350.000000	19.522084
340.000000	18.167169
330.000000	16.960731
320.000000	15.993571
310.000000	14.229474
300.000000	11.678631
290.000000	10.141013
280.000000	9.449189
270.000000	9.215875
260.000000	9.347500
250.000000	9.552184
