PE UV       SUBTECH     SPECTRUM    ASCII       PEDS        4.00        
   -1
3S-N10-C023.Sample.Cycle1.Raw.asc
22/03/29
16:29:34.00
22/03/29
16:29:34.00
Administrator

250.000000
1
Lambda 750
750N8071901
PerkinElmer UV WinLab 6.0.4.0738 / 1.61.00 Lambda 900

0
0
3350/servo 860.8/2
0
0
UV/VIS
1
1
1
CommonBeamDepol,150mm sphere / downward view
0
0
0
0
Program
Program
3350/servo 860.8/2
3350/0.2 860.8/0.2
3350/0.2 860.8/0.2
0
1
 
 
 
0
 
860.8
319.2
860.8
Front
100
on
 
 
0
0
0
 
0
 
 
 
0
 
 
0
0
0
0
0
 
 
 
 
0
0


0
0
#HDR
-1
-1
#GR
nm
%R
1.0
0.0
2500.000000
-10.000000
226
8
53.280102
14.771269
#DATA
2500.000000	22.810001
2490.000000	22.251489
2480.000000	21.599508
2470.000000	22.647503
2460.000000	22.089980
2450.000000	23.713346
2440.000000	23.491547
2430.000000	24.215374
2420.000000	25.278407
2410.000000	26.061317
2400.000000	26.693930
2390.000000	26.633456
2380.000000	25.447277
2370.000000	24.918117
2360.000000	25.824631
2350.000000	25.656751
2340.000000	25.560221
2330.000000	26.360991
2320.000000	26.645009
2310.000000	26.152226
2300.000000	25.341241
2290.000000	24.875295
2280.000000	24.681070
2270.000000	25.490286
2260.000000	25.064835
2250.000000	26.038065
2240.000000	26.921099
2230.000000	28.169274
2220.000000	28.732091
2210.000000	28.393145
2200.000000	28.694002
2190.000000	27.168621
2180.000000	27.474482
2170.000000	27.524773
2160.000000	27.981358
2150.000000	29.061892
2140.000000	29.396987
2130.000000	30.183087
2120.000000	30.722258
2110.000000	30.707187
2100.000000	30.927520
2090.000000	30.859187
2080.000000	31.207846
2070.000000	30.325277
2060.000000	29.582488
2050.000000	28.290220
2040.000000	28.190067
2030.000000	28.277179
2020.000000	28.835830
2010.000000	28.936542
2000.000000	28.317633
1990.000000	27.765444
1980.000000	26.754657
1970.000000	26.177184
1960.000000	25.346946
1950.000000	24.793944
1940.000000	24.586109
1930.000000	24.989240
1920.000000	26.411544
1910.000000	28.405397
1900.000000	31.642380
1890.000000	34.934769
1880.000000	37.917031
1870.000000	39.906754
1860.000000	40.768078
1850.000000	41.201054
1840.000000	41.244751
1830.000000	41.181726
1820.000000	40.843202
1810.000000	40.634287
1800.000000	40.196446
1790.000000	40.120689
1780.000000	39.990991
1770.000000	39.699260
1760.000000	39.374351
1750.000000	39.121969
1740.000000	38.841652
1730.000000	38.654739
1720.000000	38.976668
1710.000000	39.595287
1700.000000	39.986576
1690.000000	40.297781
1680.000000	41.080140
1670.000000	42.235395
1660.000000	42.955954
1650.000000	43.213741
1640.000000	43.129214
1630.000000	42.877593
1620.000000	42.516711
1610.000000	42.161698
1600.000000	41.745010
1590.000000	41.412705
1580.000000	41.106121
1570.000000	40.780956
1560.000000	40.529263
1550.000000	40.175056
1540.000000	39.719462
1530.000000	39.140260
1520.000000	38.770859
1510.000000	38.602373
1500.000000	38.567586
1490.000000	38.554602
1480.000000	38.734766
1470.000000	38.979869
1460.000000	39.206369
1450.000000	39.644002
1440.000000	40.289722
1430.000000	41.082884
1420.000000	42.036717
1410.000000	43.235163
1400.000000	44.774603
1390.000000	46.308236
1380.000000	47.316702
1370.000000	47.833016
1360.000000	48.224501
1350.000000	48.353703
1340.000000	48.296444
1330.000000	48.219947
1320.000000	48.407151
1310.000000	48.779874
1300.000000	49.088527
1290.000000	49.254850
1280.000000	49.181721
1270.000000	49.040760
1260.000000	49.015703
1250.000000	49.053551
1240.000000	48.981009
1230.000000	48.860609
1220.000000	48.684592
1210.000000	48.463296
1200.000000	48.239564
1190.000000	48.290071
1180.000000	48.569562
1170.000000	49.005120
1160.000000	49.515593
1150.000000	49.902000
1140.000000	50.213285
1130.000000	50.505268
1120.000000	50.725150
1110.000000	50.723021
1100.000000	50.802235
1090.000000	50.789730
1080.000000	50.775302
1070.000000	50.813204
1060.000000	50.909754
1050.000000	50.982936
1040.000000	51.069816
1030.000000	51.186740
1020.000000	51.333278
1010.000000	51.656223
1000.000000	52.031081
990.000000	52.140507
980.000000	52.174233
970.000000	52.325772
960.000000	52.413012
950.000000	52.537947
940.000000	52.619425
930.000000	52.574093
920.000000	52.610023
910.000000	52.689690
900.000000	52.871095
890.000000	53.144608
880.000000	53.183777
870.000000	53.100557
860.000000	53.280102
850.000000	52.643811
840.000000	51.477279
830.000000	51.390766
820.000000	51.532348
810.000000	51.545017
800.000000	51.625448
790.000000	51.548809
780.000000	51.634032
770.000000	51.680742
760.000000	51.658636
750.000000	51.716627
740.000000	51.681447
730.000000	51.617780
720.000000	51.654215
710.000000	51.587076
700.000000	51.614501
690.000000	51.580177
680.000000	51.559281
670.000000	51.490362
660.000000	51.448774
650.000000	51.416866
640.000000	51.326769
630.000000	51.313706
620.000000	51.245718
610.000000	51.190846
600.000000	51.171771
590.000000	51.161622
580.000000	51.101829
570.000000	50.981533
560.000000	50.921280
550.000000	50.843978
540.000000	50.581296
530.000000	50.304632
520.000000	49.849155
510.000000	49.365644
500.000000	48.906534
490.000000	48.470893
480.000000	48.091384
470.000000	47.712708
460.000000	47.160582
450.000000	46.396586
440.000000	45.566170
430.000000	44.472665
420.000000	43.119268
410.000000	41.708086
400.000000	40.502745
390.000000	39.459641
380.000000	38.406817
370.000000	37.530061
360.000000	36.677742
350.000000	35.196016
340.000000	33.582442
330.000000	31.965860
320.000000	30.496400
310.000000	28.814992
300.000000	25.720107
290.000000	21.048084
280.000000	17.434114
270.000000	16.440713
260.000000	16.080333
250.000000	14.771269
