PE UV       SUBTECH     SPECTRUM    ASCII       PEDS        4.00        
   -1
3S-N10-F019.Sample.Raw.asc
22/03/30
16:39:54.00
22/03/30
16:39:54.00
Administrator

250.000000
1
Lambda 750
750N8071901
PerkinElmer UV WinLab 6.0.4.0738 / 1.61.00 Lambda 900

0
0
3350/servo 860.8/2
0
0
UV/VIS
1
1
1
CommonBeamDepol,150mm sphere / downward view
0
0
0
0
Program
Program
3350/servo 860.8/2
3350/0.2 860.8/0.2
3350/0.2 860.8/0.2
0
1
 
 
 
0
 
860.8
319.2
860.8
Front
100
on
 
 
0
0
0
 
0
 
 
 
0
 
 
0
0
0
0
0
 
 
 
 
0
0


0
0
#HDR
-1
-1
#GR
nm
%R
1.0
0.0
2500.000000
-10.000000
226
8
64.258474
9.733711
#DATA
2500.000000	11.956394
2490.000000	11.691572
2480.000000	11.990249
2470.000000	11.626336
2460.000000	11.518034
2450.000000	12.974115
2440.000000	16.212395
2430.000000	13.683743
2420.000000	14.069599
2410.000000	14.423300
2400.000000	14.268438
2390.000000	14.082503
2380.000000	13.789210
2370.000000	14.361560
2360.000000	16.277939
2350.000000	14.617637
2340.000000	15.467461
2330.000000	14.748677
2320.000000	14.331796
2310.000000	14.594373
2300.000000	14.615549
2290.000000	14.666492
2280.000000	14.519882
2270.000000	13.310002
2260.000000	13.644346
2250.000000	15.974789
2240.000000	16.892388
2230.000000	18.643081
2220.000000	18.145850
2210.000000	18.204455
2200.000000	17.651881
2190.000000	17.488669
2180.000000	16.394781
2170.000000	16.036848
2160.000000	17.232473
2150.000000	18.213284
2140.000000	19.156720
2130.000000	20.140333
2120.000000	20.909701
2110.000000	20.360389
2100.000000	21.028441
2090.000000	20.685569
2080.000000	20.544418
2070.000000	19.950751
2060.000000	18.929177
2050.000000	17.921070
2040.000000	16.789738
2030.000000	17.133189
2020.000000	18.101526
2010.000000	18.036328
2000.000000	17.612598
1990.000000	16.918238
1980.000000	15.837842
1970.000000	14.881727
1960.000000	14.033872
1950.000000	13.469194
1940.000000	13.245482
1930.000000	14.184420
1920.000000	15.316503
1910.000000	18.023103
1900.000000	22.895919
1890.000000	28.264948
1880.000000	33.577607
1870.000000	37.696497
1860.000000	39.946706
1850.000000	40.510340
1840.000000	40.624154
1830.000000	40.234351
1820.000000	39.741529
1810.000000	39.247095
1800.000000	38.635833
1790.000000	38.154890
1780.000000	37.710931
1770.000000	36.976160
1760.000000	36.290398
1750.000000	35.689108
1740.000000	35.054565
1730.000000	34.570744
1720.000000	35.209028
1710.000000	36.498939
1700.000000	37.294003
1690.000000	38.001019
1680.000000	39.840106
1670.000000	42.228518
1660.000000	43.968371
1650.000000	44.613897
1640.000000	44.352341
1630.000000	43.832388
1620.000000	43.095009
1610.000000	42.141515
1600.000000	41.140613
1590.000000	40.208544
1580.000000	39.482901
1570.000000	38.754760
1560.000000	38.207242
1550.000000	37.755264
1540.000000	36.862035
1530.000000	35.664564
1520.000000	34.870769
1510.000000	34.369991
1500.000000	34.059558
1490.000000	34.026955
1480.000000	34.363629
1470.000000	34.822741
1460.000000	35.406399
1450.000000	36.243744
1440.000000	37.489021
1430.000000	39.246472
1420.000000	41.668808
1410.000000	44.812455
1400.000000	48.130870
1390.000000	51.110925
1380.000000	53.289063
1370.000000	54.479460
1360.000000	55.485523
1350.000000	56.482990
1340.000000	57.259802
1330.000000	57.878269
1320.000000	58.697117
1310.000000	59.685399
1300.000000	60.285565
1290.000000	60.468027
1280.000000	60.415856
1270.000000	60.312121
1260.000000	60.178018
1250.000000	59.982330
1240.000000	59.703167
1230.000000	59.361473
1220.000000	58.943907
1210.000000	58.357697
1200.000000	57.809307
1190.000000	57.618721
1180.000000	58.044139
1170.000000	59.014182
1160.000000	60.302626
1150.000000	61.364003
1140.000000	62.142038
1130.000000	62.775770
1120.000000	63.127863
1110.000000	63.238021
1100.000000	63.292394
1090.000000	63.309887
1080.000000	63.249472
1070.000000	63.135894
1060.000000	62.990995
1050.000000	62.842889
1040.000000	62.732902
1030.000000	62.648231
1020.000000	62.679320
1010.000000	62.849556
1000.000000	63.082794
990.000000	63.205583
980.000000	63.268452
970.000000	63.408532
960.000000	63.600214
950.000000	63.689399
940.000000	63.744228
930.000000	63.705486
920.000000	63.661622
910.000000	63.745009
900.000000	63.876177
890.000000	64.092068
880.000000	64.169896
870.000000	64.258474
860.000000	64.196162
850.000000	63.915158
840.000000	63.796137
830.000000	63.686083
820.000000	63.648924
810.000000	63.595488
800.000000	63.563541
790.000000	63.550091
780.000000	63.570232
770.000000	63.425418
760.000000	63.314669
750.000000	63.242635
740.000000	63.163730
730.000000	62.963237
720.000000	62.897919
710.000000	62.793988
700.000000	62.522291
690.000000	62.312943
680.000000	62.079672
670.000000	61.742199
660.000000	61.447135
650.000000	61.063996
640.000000	60.649451
630.000000	60.147142
620.000000	59.664487
610.000000	59.104965
600.000000	58.678313
590.000000	58.289550
580.000000	57.741525
570.000000	57.179183
560.000000	56.654680
550.000000	56.123549
540.000000	55.475853
530.000000	54.792386
520.000000	54.104016
510.000000	53.282113
500.000000	52.265898
490.000000	51.012555
480.000000	49.515787
470.000000	47.732434
460.000000	45.597202
450.000000	43.051815
440.000000	40.080321
430.000000	36.736754
420.000000	33.277342
410.000000	30.588646
400.000000	29.195398
390.000000	28.096060
380.000000	26.665372
370.000000	24.961825
360.000000	23.095869
350.000000	21.317552
340.000000	19.688183
330.000000	18.060613
320.000000	16.585314
310.000000	15.088125
300.000000	12.997353
290.000000	10.761148
280.000000	9.848974
270.000000	9.733711
260.000000	9.845684
250.000000	9.895769
