PE UV       SUBTECH     SPECTRUM    ASCII       PEDS        4.00        
   -1
S-11775-018.Sample.Raw.asc
23/05/05
16:00:20.00
23/05/05
16:00:20.00
Administrator

250.000000
1
Lambda 750
750N8071901
PerkinElmer UV WinLab 6.0.4.0738 / 1.61.00 Lambda 900

0
0
3350/servo 860.8/2
0
0
UV/VIS
1
1
1
CommonBeamDepol,150mm sphere / downward view
0
0
0
0
Program
Program
3350/servo 860.8/2
3350/0.2 860.8/0.2
3350/0.2 860.8/0.2
0
1
 
 
 
0
 
860.8
319.2
860.8
Front
100
on
 
 
0
0
0
 
0
 
 
 
0
 
 
0
0
0
0
0
 
 
 
 
0
0


0
0
#HDR
-1
-1
#GR
nm
%R
1.0
0.0
2500.000000
-10.000000
226
8
76.462468
20.557313
#DATA
2500.000000	38.900397
2490.000000	36.703423
2480.000000	39.511528
2470.000000	40.878406
2460.000000	37.562340
2450.000000	44.898485
2440.000000	46.667437
2430.000000	40.332195
2420.000000	46.250912
2410.000000	43.350307
2400.000000	45.223204
2390.000000	39.924514
2380.000000	47.057457
2370.000000	45.143544
2360.000000	44.058599
2350.000000	47.005283
2340.000000	48.272826
2330.000000	45.636090
2320.000000	45.400357
2310.000000	43.572821
2300.000000	42.313714
2290.000000	45.512052
2280.000000	45.998777
2270.000000	44.771271
2260.000000	48.918888
2250.000000	49.338311
2240.000000	50.585860
2230.000000	49.957881
2220.000000	47.590588
2210.000000	47.690900
2200.000000	47.039356
2190.000000	45.681915
2180.000000	49.107853
2170.000000	48.838694
2160.000000	51.059770
2150.000000	49.880365
2140.000000	51.480698
2130.000000	52.140319
2120.000000	51.424136
2110.000000	52.143713
2100.000000	51.815394
2090.000000	50.748956
2080.000000	49.847944
2070.000000	48.582080
2060.000000	47.498926
2050.000000	48.075646
2040.000000	48.491932
2030.000000	48.518117
2020.000000	47.869852
2010.000000	46.893713
2000.000000	46.582955
1990.000000	45.073156
1980.000000	43.817065
1970.000000	42.509779
1960.000000	41.710197
1950.000000	43.501607
1940.000000	43.913766
1930.000000	47.543130
1920.000000	51.197598
1910.000000	56.219718
1900.000000	59.527642
1890.000000	61.198842
1880.000000	63.653248
1870.000000	63.886427
1860.000000	63.439406
1850.000000	63.223271
1840.000000	62.813069
1830.000000	62.615498
1820.000000	63.121864
1810.000000	63.091499
1800.000000	62.238729
1790.000000	62.471489
1780.000000	61.927716
1770.000000	61.540502
1760.000000	61.545122
1750.000000	61.340241
1740.000000	61.786070
1730.000000	62.310214
1720.000000	63.106696
1710.000000	63.090072
1700.000000	63.450616
1690.000000	64.815813
1680.000000	65.440203
1670.000000	65.322765
1660.000000	65.569659
1650.000000	65.402568
1640.000000	65.187109
1630.000000	64.744648
1620.000000	64.643461
1610.000000	64.419655
1600.000000	64.011903
1590.000000	63.904424
1580.000000	63.873510
1570.000000	63.603428
1560.000000	63.381021
1550.000000	62.965450
1540.000000	62.289893
1530.000000	62.221320
1520.000000	62.109130
1510.000000	61.950042
1500.000000	61.833471
1490.000000	61.924458
1480.000000	61.981421
1470.000000	62.317355
1460.000000	62.552243
1450.000000	62.831689
1440.000000	62.883503
1430.000000	63.799752
1420.000000	66.089572
1410.000000	68.921846
1400.000000	70.987292
1390.000000	71.389630
1380.000000	71.219156
1370.000000	71.556183
1360.000000	71.297549
1350.000000	70.417670
1340.000000	69.074788
1330.000000	69.448118
1320.000000	70.753681
1310.000000	72.052656
1300.000000	73.317599
1290.000000	73.703009
1280.000000	73.189360
1270.000000	72.629217
1260.000000	72.236200
1250.000000	72.371342
1240.000000	72.523836
1230.000000	72.532707
1220.000000	72.533685
1210.000000	72.197643
1200.000000	72.429608
1190.000000	72.408152
1180.000000	72.659560
1170.000000	73.025260
1160.000000	73.215403
1150.000000	73.278715
1140.000000	73.676413
1130.000000	73.790910
1120.000000	73.893439
1110.000000	73.952964
1100.000000	74.117776
1090.000000	74.118385
1080.000000	73.906377
1070.000000	73.898087
1060.000000	74.085945
1050.000000	74.019197
1040.000000	74.132067
1030.000000	74.780912
1020.000000	75.555098
1010.000000	76.174188
1000.000000	76.462468
990.000000	75.668383
980.000000	75.789135
970.000000	75.763850
960.000000	75.477493
950.000000	75.902974
940.000000	75.756285
930.000000	75.651742
920.000000	75.197182
910.000000	75.409384
900.000000	74.590387
890.000000	76.196121
880.000000	76.380429
870.000000	75.285719
860.000000	75.376390
850.000000	75.499564
840.000000	74.981570
830.000000	76.170590
820.000000	75.767649
810.000000	75.343414
800.000000	75.220166
790.000000	75.743485
780.000000	75.560988
770.000000	75.166829
760.000000	75.186431
750.000000	75.196243
740.000000	75.243395
730.000000	75.405580
720.000000	74.617581
710.000000	74.802291
700.000000	74.589252
690.000000	74.402928
680.000000	74.320422
670.000000	73.808208
660.000000	73.656369
650.000000	73.258808
640.000000	72.826733
630.000000	72.538713
620.000000	72.066630
610.000000	71.503655
600.000000	70.964578
590.000000	70.201047
580.000000	69.540424
570.000000	68.756651
560.000000	67.667753
550.000000	66.603950
540.000000	65.570423
530.000000	64.221208
520.000000	62.959297
510.000000	61.553702
500.000000	59.938319
490.000000	58.135100
480.000000	56.276842
470.000000	54.618609
460.000000	52.482250
450.000000	50.481211
440.000000	48.003987
430.000000	45.654796
420.000000	43.329207
410.000000	40.750028
400.000000	38.158272
390.000000	35.583873
380.000000	33.012411
370.000000	30.887859
360.000000	28.682616
350.000000	26.212864
340.000000	24.902077
330.000000	22.950887
320.000000	21.130250
310.000000	20.557313
300.000000	21.185467
290.000000	20.799513
280.000000	21.263240
270.000000	22.184834
260.000000	23.758015
250.000000	26.384650
