PE UV       SUBTECH     SPECTRUM    ASCII       PEDS        4.00        
   -1
S-11768-004.Sample.Raw.asc
23/01/26
16:45:22.00
23/01/26
16:45:22.00
Administrator

250.000000
1
Lambda 750
750N8071901
PerkinElmer UV WinLab 6.0.4.0738 / 1.61.00 Lambda 900

0
0
3350/servo 860.8/2
0
0
UV/VIS
1
1
1
CommonBeamDepol,150mm sphere / downward view
0
0
0
0
Program
Program
3350/servo 860.8/2
3350/0.2 860.8/0.2
3350/0.2 860.8/0.2
0
1
 
 
 
0
 
860.8
319.2
860.8
Front
100
on
 
 
0
0
0
 
0
 
 
 
0
 
 
0
0
0
0
0
 
 
 
 
0
0


0
0
#HDR
-1
-1
#GR
nm
%R
1.0
0.0
2500.000000
-10.000000
226
8
89.346397
15.595130
#DATA
2500.000000	26.212256
2490.000000	24.871209
2480.000000	27.566046
2470.000000	25.223860
2460.000000	26.612068
2450.000000	26.355235
2440.000000	27.555515
2430.000000	29.485026
2420.000000	30.014523
2410.000000	31.842703
2400.000000	30.881352
2390.000000	30.690487
2380.000000	29.978038
2370.000000	30.538187
2360.000000	30.457257
2350.000000	30.680139
2340.000000	30.200033
2330.000000	30.222814
2320.000000	29.023788
2310.000000	29.212801
2300.000000	28.460187
2290.000000	28.907377
2280.000000	30.866942
2270.000000	31.939897
2260.000000	34.639507
2250.000000	36.299828
2240.000000	35.458642
2230.000000	34.788715
2220.000000	34.598556
2210.000000	33.893695
2200.000000	32.707756
2190.000000	32.126264
2180.000000	33.705724
2170.000000	35.091780
2160.000000	36.813504
2150.000000	37.271395
2140.000000	39.115873
2130.000000	38.981756
2120.000000	39.682198
2110.000000	39.718741
2100.000000	39.188356
2090.000000	38.004016
2080.000000	36.698463
2070.000000	34.096132
2060.000000	34.034236
2050.000000	34.249176
2040.000000	35.484290
2030.000000	35.587218
2020.000000	34.669183
2010.000000	33.253291
2000.000000	31.911102
1990.000000	30.416540
1980.000000	29.170500
1970.000000	27.666946
1960.000000	27.597942
1950.000000	28.260016
1940.000000	30.969532
1930.000000	35.240820
1920.000000	40.948276
1910.000000	48.104902
1900.000000	53.817418
1890.000000	58.101926
1880.000000	60.781641
1870.000000	61.594766
1860.000000	61.617068
1850.000000	61.336586
1840.000000	61.069205
1830.000000	60.617697
1820.000000	60.414507
1810.000000	59.978624
1800.000000	59.651446
1790.000000	59.192019
1780.000000	58.832048
1770.000000	58.132817
1760.000000	57.496369
1750.000000	57.095209
1740.000000	57.379221
1730.000000	58.663045
1720.000000	59.549080
1710.000000	59.949075
1700.000000	61.187016
1690.000000	63.207808
1680.000000	64.849921
1670.000000	65.515425
1660.000000	65.768814
1650.000000	65.422205
1640.000000	64.903555
1630.000000	64.268190
1620.000000	63.625497
1610.000000	62.786606
1600.000000	62.154553
1590.000000	61.552804
1580.000000	61.014568
1570.000000	60.768458
1560.000000	60.196042
1550.000000	59.187176
1540.000000	58.159349
1530.000000	57.624704
1520.000000	57.250988
1510.000000	57.103589
1500.000000	57.337595
1490.000000	57.750955
1480.000000	58.214797
1470.000000	58.902030
1460.000000	59.961826
1450.000000	61.238554
1440.000000	62.811385
1430.000000	64.783154
1420.000000	67.449058
1410.000000	70.386146
1400.000000	72.790071
1390.000000	74.067235
1380.000000	74.615287
1370.000000	75.091638
1360.000000	75.435280
1350.000000	75.951749
1340.000000	76.596131
1330.000000	77.572697
1320.000000	78.342697
1310.000000	78.805546
1300.000000	78.985974
1290.000000	78.918456
1280.000000	78.910053
1270.000000	78.866220
1260.000000	78.926640
1250.000000	78.933333
1240.000000	78.923115
1230.000000	78.758880
1220.000000	78.383861
1210.000000	78.134644
1200.000000	78.284185
1190.000000	78.760803
1180.000000	79.341171
1170.000000	80.210183
1160.000000	80.852086
1150.000000	81.382007
1140.000000	81.712368
1130.000000	81.945475
1120.000000	82.086019
1110.000000	82.286387
1100.000000	82.409652
1090.000000	82.395181
1080.000000	82.470811
1070.000000	82.569614
1060.000000	82.476916
1050.000000	82.506430
1040.000000	82.487402
1030.000000	82.660761
1020.000000	83.125375
1010.000000	83.537626
1000.000000	83.692744
990.000000	83.691271
980.000000	83.896934
970.000000	84.185574
960.000000	84.344537
950.000000	84.562414
940.000000	84.727049
930.000000	84.704585
920.000000	84.988071
910.000000	85.272624
900.000000	85.638529
890.000000	85.769084
880.000000	85.784259
870.000000	86.138022
860.000000	86.638397
850.000000	86.626625
840.000000	86.771981
830.000000	86.664180
820.000000	86.924085
810.000000	87.407667
800.000000	87.352454
790.000000	87.430861
780.000000	87.551385
770.000000	87.780677
760.000000	87.706295
750.000000	88.008168
740.000000	88.332002
730.000000	88.370449
720.000000	88.547520
710.000000	88.679336
700.000000	88.771678
690.000000	89.119178
680.000000	89.251540
670.000000	89.245722
660.000000	89.216732
650.000000	89.292959
640.000000	89.346397
630.000000	89.331104
620.000000	89.227476
610.000000	89.174573
600.000000	88.920015
590.000000	88.772168
580.000000	88.389604
570.000000	88.231089
560.000000	87.774200
550.000000	87.355907
540.000000	86.608372
530.000000	85.967677
520.000000	85.230964
510.000000	84.381101
500.000000	83.097622
490.000000	81.659350
480.000000	80.119114
470.000000	78.598616
460.000000	76.553955
450.000000	74.070334
440.000000	71.121800
430.000000	67.579111
420.000000	63.420787
410.000000	58.793847
400.000000	54.050008
390.000000	49.505577
380.000000	45.009884
370.000000	40.094439
360.000000	35.615702
350.000000	32.262052
340.000000	29.218931
330.000000	26.560458
320.000000	24.160348
310.000000	22.547915
300.000000	19.387615
290.000000	16.650832
280.000000	15.595130
270.000000	15.956210
260.000000	16.584515
250.000000	16.810930
