PE UV       SUBTECH     SPECTRUM    ASCII       PEDS        4.00        
   -1
S-11771-020.Sample.Raw.asc
23/05/05
15:33:48.00
23/05/05
15:33:48.00
Administrator

250.000000
1
Lambda 750
750N8071901
PerkinElmer UV WinLab 6.0.4.0738 / 1.61.00 Lambda 900

0
0
3350/servo 860.8/2
0
0
UV/VIS
1
1
1
CommonBeamDepol,150mm sphere / downward view
0
0
0
0
Program
Program
3350/servo 860.8/2
3350/0.2 860.8/0.2
3350/0.2 860.8/0.2
0
1
 
 
 
0
 
860.8
319.2
860.8
Front
100
on
 
 
0
0
0
 
0
 
 
 
0
 
 
0
0
0
0
0
 
 
 
 
0
0


0
0
#HDR
-1
-1
#GR
nm
%R
1.0
0.0
2500.000000
-10.000000
226
8
66.122065
27.419321
#DATA
2500.000000	38.916826
2490.000000	35.772252
2480.000000	44.520294
2470.000000	37.277315
2460.000000	32.610844
2450.000000	40.161392
2440.000000	42.857762
2430.000000	46.822337
2420.000000	43.024430
2410.000000	41.792585
2400.000000	44.768941
2390.000000	42.883784
2380.000000	47.175769
2370.000000	43.105509
2360.000000	43.948451
2350.000000	42.235345
2340.000000	43.789524
2330.000000	44.862347
2320.000000	46.232925
2310.000000	44.769157
2300.000000	41.315554
2290.000000	41.184495
2280.000000	41.955466
2270.000000	46.505508
2260.000000	45.994839
2250.000000	46.230963
2240.000000	46.496540
2230.000000	48.384428
2220.000000	44.896002
2210.000000	45.688557
2200.000000	45.006574
2190.000000	45.346051
2180.000000	45.257080
2170.000000	47.339627
2160.000000	45.564992
2150.000000	46.133028
2140.000000	47.279748
2130.000000	47.938100
2120.000000	49.484384
2110.000000	48.934132
2100.000000	49.197176
2090.000000	48.127791
2080.000000	46.949383
2070.000000	46.070170
2060.000000	45.443159
2050.000000	44.914493
2040.000000	45.303403
2030.000000	46.023923
2020.000000	46.005790
2010.000000	44.409558
2000.000000	44.521319
1990.000000	43.100942
1980.000000	41.845382
1970.000000	40.688551
1960.000000	40.679521
1950.000000	42.370647
1940.000000	42.985680
1930.000000	45.856906
1920.000000	48.136785
1910.000000	51.765983
1900.000000	53.886362
1890.000000	54.939246
1880.000000	56.911351
1870.000000	57.200742
1860.000000	57.087528
1850.000000	56.252791
1840.000000	56.442130
1830.000000	56.277635
1820.000000	56.412173
1810.000000	56.351299
1800.000000	55.757576
1790.000000	56.180198
1780.000000	55.950571
1770.000000	55.312926
1760.000000	55.362415
1750.000000	55.685476
1740.000000	55.605619
1730.000000	55.886306
1720.000000	56.249908
1710.000000	56.567177
1700.000000	56.938851
1690.000000	57.690519
1680.000000	57.993112
1670.000000	58.206820
1660.000000	57.995589
1650.000000	57.845255
1640.000000	57.972052
1630.000000	57.721000
1620.000000	57.516364
1610.000000	57.411896
1600.000000	57.109372
1590.000000	56.895917
1580.000000	56.634390
1570.000000	56.739124
1560.000000	56.587056
1550.000000	56.268583
1540.000000	55.850538
1530.000000	55.784071
1520.000000	55.664894
1510.000000	55.589002
1500.000000	55.558825
1490.000000	55.717146
1480.000000	55.762153
1470.000000	56.041216
1460.000000	56.237491
1450.000000	56.554332
1440.000000	55.931028
1430.000000	56.485832
1420.000000	57.997965
1410.000000	60.311496
1400.000000	62.182667
1390.000000	62.267728
1380.000000	62.032413
1370.000000	61.996386
1360.000000	61.625136
1350.000000	60.567765
1340.000000	59.331717
1330.000000	59.591635
1320.000000	60.839067
1310.000000	62.156788
1300.000000	63.173894
1290.000000	63.892729
1280.000000	63.385497
1270.000000	62.727910
1260.000000	62.253618
1250.000000	62.676438
1240.000000	62.626616
1230.000000	62.858847
1220.000000	62.803983
1210.000000	62.543035
1200.000000	62.535308
1190.000000	62.742678
1180.000000	62.836598
1170.000000	63.170337
1160.000000	62.817239
1150.000000	62.860547
1140.000000	63.438282
1130.000000	63.668335
1120.000000	63.480387
1110.000000	63.483335
1100.000000	63.847644
1090.000000	63.616335
1080.000000	63.609609
1070.000000	63.675604
1060.000000	63.948142
1050.000000	64.019197
1040.000000	63.960848
1030.000000	64.506283
1020.000000	65.294134
1010.000000	66.122065
1000.000000	66.098066
990.000000	65.461878
980.000000	65.422630
970.000000	65.524116
960.000000	65.581692
950.000000	65.646263
940.000000	65.425477
930.000000	65.327334
920.000000	65.080369
910.000000	64.952180
900.000000	65.968426
890.000000	65.665623
880.000000	65.054290
870.000000	65.437950
860.000000	65.733214
850.000000	64.735288
840.000000	65.417439
830.000000	65.160719
820.000000	65.788876
810.000000	65.150809
800.000000	65.460524
790.000000	65.541246
780.000000	65.610756
770.000000	65.409034
760.000000	65.464804
750.000000	65.509003
740.000000	65.655810
730.000000	65.688146
720.000000	65.729228
710.000000	65.401974
700.000000	65.589770
690.000000	65.440983
680.000000	65.438982
670.000000	65.207001
660.000000	65.433040
650.000000	65.178238
640.000000	65.161344
630.000000	65.106374
620.000000	64.831352
610.000000	64.714629
600.000000	64.572960
590.000000	64.449188
580.000000	64.202431
570.000000	64.112546
560.000000	63.841816
550.000000	63.505997
540.000000	63.187464
530.000000	62.840381
520.000000	62.509060
510.000000	62.027246
500.000000	61.514846
490.000000	61.033026
480.000000	60.417176
470.000000	59.893825
460.000000	59.086082
450.000000	58.365832
440.000000	57.135737
430.000000	56.056531
420.000000	54.433056
410.000000	52.494985
400.000000	50.387250
390.000000	48.331135
380.000000	45.890489
370.000000	43.358844
360.000000	40.842660
350.000000	37.857595
340.000000	35.660497
330.000000	32.588035
320.000000	31.732504
310.000000	29.294346
300.000000	30.463271
290.000000	28.907394
280.000000	27.419321
270.000000	27.923351
260.000000	29.395999
250.000000	31.665731
