PE UV       SUBTECH     SPECTRUM    ASCII       PEDS        4.00        
   -1
S-11775-011.Sample.Raw.asc
23/05/05
15:39:41.00
23/05/05
15:39:41.00
Administrator

250.000000
1
Lambda 750
750N8071901
PerkinElmer UV WinLab 6.0.4.0738 / 1.61.00 Lambda 900

0
0
3350/servo 860.8/2
0
0
UV/VIS
1
1
1
CommonBeamDepol,150mm sphere / downward view
0
0
0
0
Program
Program
3350/servo 860.8/2
3350/0.2 860.8/0.2
3350/0.2 860.8/0.2
0
1
 
 
 
0
 
860.8
319.2
860.8
Front
100
on
 
 
0
0
0
 
0
 
 
 
0
 
 
0
0
0
0
0
 
 
 
 
0
0


0
0
#HDR
-1
-1
#GR
nm
%R
1.0
0.0
2500.000000
-10.000000
226
8
77.520571
20.414232
#DATA
2500.000000	43.103374
2490.000000	33.891892
2480.000000	41.481459
2470.000000	39.781707
2460.000000	38.498966
2450.000000	45.512048
2440.000000	47.989057
2430.000000	41.191841
2420.000000	42.949106
2410.000000	47.029181
2400.000000	43.531391
2390.000000	43.966299
2380.000000	43.435531
2370.000000	45.955990
2360.000000	46.464973
2350.000000	46.994184
2340.000000	45.001455
2330.000000	47.214526
2320.000000	43.284618
2310.000000	45.267263
2300.000000	41.923462
2290.000000	42.835622
2280.000000	46.938379
2270.000000	49.209075
2260.000000	49.414758
2250.000000	50.615112
2240.000000	51.011542
2230.000000	50.734077
2220.000000	49.458058
2210.000000	47.187935
2200.000000	47.551847
2190.000000	47.916527
2180.000000	48.455928
2170.000000	50.368237
2160.000000	49.882005
2150.000000	50.657991
2140.000000	51.445078
2130.000000	51.721608
2120.000000	51.536500
2110.000000	54.054799
2100.000000	51.085620
2090.000000	51.441641
2080.000000	50.979589
2070.000000	49.299977
2060.000000	48.130293
2050.000000	49.495281
2040.000000	49.434246
2030.000000	49.495847
2020.000000	48.516060
2010.000000	47.148685
2000.000000	48.065331
1990.000000	45.733511
1980.000000	44.448567
1970.000000	42.979484
1960.000000	41.973600
1950.000000	43.786754
1940.000000	44.680835
1930.000000	49.483907
1920.000000	51.932779
1910.000000	56.786959
1900.000000	60.486681
1890.000000	62.232604
1880.000000	64.480539
1870.000000	64.799601
1860.000000	64.506504
1850.000000	63.565097
1840.000000	63.738907
1830.000000	63.661403
1820.000000	63.883420
1810.000000	63.819669
1800.000000	63.499630
1790.000000	63.061274
1780.000000	62.626046
1770.000000	62.207979
1760.000000	62.323602
1750.000000	62.367438
1740.000000	62.324398
1730.000000	63.151326
1720.000000	63.374285
1710.000000	64.058395
1700.000000	64.573283
1690.000000	65.535726
1680.000000	66.243782
1670.000000	66.169954
1660.000000	66.355905
1650.000000	66.274140
1640.000000	66.085025
1630.000000	65.946954
1620.000000	65.453727
1610.000000	65.236772
1600.000000	64.981814
1590.000000	64.669002
1580.000000	64.570513
1570.000000	64.417837
1560.000000	64.014306
1550.000000	63.637571
1540.000000	63.277895
1530.000000	63.096407
1520.000000	62.868187
1510.000000	62.489512
1500.000000	62.575775
1490.000000	62.639837
1480.000000	62.869152
1470.000000	63.273269
1460.000000	63.409466
1450.000000	63.715213
1440.000000	63.654198
1430.000000	64.483054
1420.000000	66.987657
1410.000000	69.851619
1400.000000	71.966807
1390.000000	72.350681
1380.000000	71.932399
1370.000000	72.560668
1360.000000	72.258833
1350.000000	71.395323
1340.000000	70.305131
1330.000000	70.583709
1320.000000	72.020648
1310.000000	73.376541
1300.000000	74.437208
1290.000000	75.187740
1280.000000	74.657770
1270.000000	74.050718
1260.000000	73.349014
1250.000000	73.625435
1240.000000	73.852092
1230.000000	74.059413
1220.000000	73.844584
1210.000000	73.557646
1200.000000	73.607023
1190.000000	73.727219
1180.000000	74.100624
1170.000000	74.537889
1160.000000	74.617179
1150.000000	74.815038
1140.000000	74.615153
1130.000000	74.947065
1120.000000	75.090216
1110.000000	75.158886
1100.000000	75.165406
1090.000000	75.111980
1080.000000	74.906261
1070.000000	74.861310
1060.000000	75.050350
1050.000000	75.132073
1040.000000	75.194828
1030.000000	75.542896
1020.000000	76.386857
1010.000000	77.215943
1000.000000	77.056893
990.000000	76.588838
980.000000	76.802665
970.000000	76.394030
960.000000	76.584652
950.000000	76.443310
940.000000	76.475315
930.000000	76.201043
920.000000	76.460509
910.000000	76.493670
900.000000	76.479222
890.000000	76.686820
880.000000	76.819386
870.000000	76.251915
860.000000	77.196173
850.000000	76.568476
840.000000	76.682407
830.000000	77.268247
820.000000	77.436452
810.000000	77.467788
800.000000	77.229288
790.000000	77.520571
780.000000	77.453794
770.000000	77.285622
760.000000	77.155093
750.000000	77.155261
740.000000	77.218681
730.000000	76.946165
720.000000	76.874591
710.000000	76.716583
700.000000	76.652497
690.000000	76.379584
680.000000	76.160564
670.000000	75.869929
660.000000	75.602485
650.000000	75.187236
640.000000	74.721642
630.000000	74.362171
620.000000	73.767625
610.000000	73.305855
600.000000	72.570253
590.000000	71.827320
580.000000	71.101924
570.000000	70.479310
560.000000	69.187861
550.000000	68.164558
540.000000	66.968134
530.000000	65.603414
520.000000	64.346250
510.000000	62.837330
500.000000	61.136029
490.000000	59.342864
480.000000	57.448621
470.000000	55.604918
460.000000	53.520540
450.000000	51.214519
440.000000	48.995244
430.000000	46.605071
420.000000	44.015549
410.000000	41.615820
400.000000	38.927175
390.000000	36.261574
380.000000	33.733776
370.000000	31.539650
360.000000	29.462984
350.000000	27.297007
340.000000	25.529611
330.000000	23.829177
320.000000	22.511312
310.000000	20.414232
300.000000	21.145547
290.000000	21.326171
280.000000	21.819406
270.000000	22.939597
260.000000	24.621296
250.000000	27.236388
