PE UV       SUBTECH     SPECTRUM    ASCII       PEDS        4.00        
   -1
S-11771-001.Sample.Raw.asc
23/01/26
17:13:44.00
23/01/26
17:13:44.00
Administrator

250.000000
1
Lambda 750
750N8071901
PerkinElmer UV WinLab 6.0.4.0738 / 1.61.00 Lambda 900

0
0
3350/servo 860.8/2
0
0
UV/VIS
1
1
1
CommonBeamDepol,150mm sphere / downward view
0
0
0
0
Program
Program
3350/servo 860.8/2
3350/0.2 860.8/0.2
3350/0.2 860.8/0.2
0
1
 
 
 
0
 
860.8
319.2
860.8
Front
100
on
 
 
0
0
0
 
0
 
 
 
0
 
 
0
0
0
0
0
 
 
 
 
0
0


0
0
#HDR
-1
-1
#GR
nm
%R
1.0
0.0
2500.000000
-10.000000
226
8
80.928917
19.024462
#DATA
2500.000000	43.387033
2490.000000	44.244062
2480.000000	44.392503
2470.000000	43.761098
2460.000000	47.388154
2450.000000	45.395309
2440.000000	46.726999
2430.000000	46.334332
2420.000000	48.263889
2410.000000	49.140534
2400.000000	46.717388
2390.000000	48.376100
2380.000000	48.577925
2370.000000	48.234870
2360.000000	48.736893
2350.000000	49.233698
2340.000000	48.675787
2330.000000	48.541769
2320.000000	47.209696
2310.000000	46.942987
2300.000000	46.606044
2290.000000	48.219264
2280.000000	48.326664
2270.000000	49.628624
2260.000000	51.425863
2250.000000	52.355730
2240.000000	52.730189
2230.000000	51.998072
2220.000000	51.876021
2210.000000	51.111254
2200.000000	51.253724
2190.000000	50.290567
2180.000000	51.272710
2170.000000	52.484427
2160.000000	53.728481
2150.000000	54.172434
2140.000000	54.874757
2130.000000	55.035502
2120.000000	55.530284
2110.000000	55.459388
2100.000000	55.044052
2090.000000	54.754899
2080.000000	53.856182
2070.000000	52.245260
2060.000000	52.033012
2050.000000	52.543839
2040.000000	52.858643
2030.000000	52.885735
2020.000000	52.322099
2010.000000	51.522907
2000.000000	50.800120
1990.000000	49.891596
1980.000000	48.720308
1970.000000	47.806017
1960.000000	47.750050
1950.000000	48.500576
1940.000000	50.373980
1930.000000	53.035248
1920.000000	56.260073
1910.000000	59.884950
1900.000000	62.756829
1890.000000	64.625926
1880.000000	65.810211
1870.000000	66.164765
1860.000000	66.148318
1850.000000	66.127063
1840.000000	66.167414
1830.000000	65.880141
1820.000000	65.784082
1810.000000	65.726997
1800.000000	65.649359
1790.000000	65.474801
1780.000000	65.345832
1770.000000	65.110235
1760.000000	65.006781
1750.000000	64.794903
1740.000000	64.886395
1730.000000	65.418467
1720.000000	65.988156
1710.000000	66.194937
1700.000000	66.667471
1690.000000	67.461558
1680.000000	67.992678
1670.000000	68.464015
1660.000000	68.596136
1650.000000	68.478945
1640.000000	68.284697
1630.000000	68.177416
1620.000000	67.919515
1610.000000	67.705080
1600.000000	67.498151
1590.000000	67.337988
1580.000000	67.186854
1570.000000	67.076716
1560.000000	66.919406
1550.000000	66.551271
1540.000000	66.267151
1530.000000	66.105548
1520.000000	65.973753
1510.000000	65.942149
1500.000000	66.108718
1490.000000	66.279482
1480.000000	66.527175
1470.000000	66.829229
1460.000000	67.314445
1450.000000	67.816547
1440.000000	68.333632
1430.000000	68.888786
1420.000000	69.888915
1410.000000	71.185518
1400.000000	72.421997
1390.000000	72.950162
1380.000000	73.044786
1370.000000	73.017857
1360.000000	73.008288
1350.000000	72.922260
1340.000000	73.112974
1330.000000	73.824551
1320.000000	74.587591
1310.000000	75.046652
1300.000000	75.303924
1290.000000	75.250178
1280.000000	75.155596
1270.000000	74.955627
1260.000000	75.053117
1250.000000	75.123026
1240.000000	75.358507
1230.000000	75.258612
1220.000000	75.124589
1210.000000	75.094444
1200.000000	75.257673
1190.000000	75.529209
1180.000000	75.652880
1170.000000	75.983450
1160.000000	76.248901
1150.000000	76.293715
1140.000000	76.510913
1130.000000	76.602094
1120.000000	76.787823
1110.000000	76.897065
1100.000000	76.973634
1090.000000	76.975069
1080.000000	77.021072
1070.000000	77.016383
1060.000000	77.053611
1050.000000	77.249857
1040.000000	77.212928
1030.000000	77.392121
1020.000000	77.857549
1010.000000	78.194873
1000.000000	78.306523
990.000000	78.204909
980.000000	78.354584
970.000000	78.541332
960.000000	78.591859
950.000000	78.821440
940.000000	78.872527
930.000000	78.950620
920.000000	78.994942
910.000000	79.258833
900.000000	79.398602
890.000000	79.406419
880.000000	79.354661
870.000000	79.426891
860.000000	80.066986
850.000000	79.656016
840.000000	79.673199
830.000000	79.908088
820.000000	79.734619
810.000000	79.898205
800.000000	79.938906
790.000000	80.161686
780.000000	80.104827
770.000000	80.544405
760.000000	80.224655
750.000000	80.492997
740.000000	80.592630
730.000000	80.646016
720.000000	80.400569
710.000000	80.755244
700.000000	80.723551
690.000000	80.753230
680.000000	80.795071
670.000000	80.904897
660.000000	80.928917
650.000000	80.882555
640.000000	80.814987
630.000000	80.831535
620.000000	80.661082
610.000000	80.471186
600.000000	80.350711
590.000000	80.182326
580.000000	79.856868
570.000000	79.740286
560.000000	79.443597
550.000000	78.948939
540.000000	78.437223
530.000000	78.094231
520.000000	77.659753
510.000000	76.979492
500.000000	76.217171
490.000000	75.528720
480.000000	74.873915
470.000000	73.848426
460.000000	72.773683
450.000000	71.590592
440.000000	69.722948
430.000000	68.064793
420.000000	65.502728
410.000000	62.754032
400.000000	59.489059
390.000000	55.893165
380.000000	52.171982
370.000000	47.801382
360.000000	43.561936
350.000000	39.318792
340.000000	36.072955
330.000000	32.391067
320.000000	28.517356
310.000000	26.379243
300.000000	23.974039
290.000000	21.746123
280.000000	20.038211
270.000000	19.469788
260.000000	19.395956
250.000000	19.024462
