PE UV       SUBTECH     SPECTRUM    ASCII       PEDS        4.00        
   -1
S-11771-018.Sample.Raw.asc
23/05/05
15:24:40.00
23/05/05
15:24:40.00
Administrator

250.000000
1
Lambda 750
750N8071901
PerkinElmer UV WinLab 6.0.4.0738 / 1.61.00 Lambda 900

0
0
3350/servo 860.8/2
0
0
UV/VIS
1
1
1
CommonBeamDepol,150mm sphere / downward view
0
0
0
0
Program
Program
3350/servo 860.8/2
3350/0.2 860.8/0.2
3350/0.2 860.8/0.2
0
1
 
 
 
0
 
860.8
319.2
860.8
Front
100
on
 
 
0
0
0
 
0
 
 
 
0
 
 
0
0
0
0
0
 
 
 
 
0
0


0
0
#HDR
-1
-1
#GR
nm
%R
1.0
0.0
2500.000000
-10.000000
226
8
69.472680
27.649580
#DATA
2500.000000	34.779565
2490.000000	36.131171
2480.000000	42.294836
2470.000000	46.538332
2460.000000	39.683433
2450.000000	38.322981
2440.000000	46.596700
2430.000000	42.037855
2420.000000	43.072575
2410.000000	43.344281
2400.000000	45.059432
2390.000000	46.390627
2380.000000	47.947333
2370.000000	45.260857
2360.000000	46.120576
2350.000000	49.075020
2340.000000	47.194108
2330.000000	43.321494
2320.000000	47.647397
2310.000000	45.335688
2300.000000	41.908951
2290.000000	43.932126
2280.000000	45.349113
2270.000000	46.362042
2260.000000	48.446802
2250.000000	47.410173
2240.000000	48.494756
2230.000000	48.224225
2220.000000	47.531561
2210.000000	46.316714
2200.000000	46.702426
2190.000000	46.579044
2180.000000	47.382892
2170.000000	49.205117
2160.000000	48.444215
2150.000000	49.776050
2140.000000	50.917199
2130.000000	51.543188
2120.000000	51.848457
2110.000000	50.972963
2100.000000	50.951093
2090.000000	49.812307
2080.000000	48.718492
2070.000000	47.296578
2060.000000	47.279731
2050.000000	47.790259
2040.000000	48.009087
2030.000000	48.248022
2020.000000	47.116917
2010.000000	46.580462
2000.000000	46.029456
1990.000000	45.166860
1980.000000	43.900177
1970.000000	42.211352
1960.000000	41.727215
1950.000000	43.384586
1940.000000	45.579104
1930.000000	47.766783
1920.000000	50.518801
1910.000000	53.918252
1900.000000	56.180970
1890.000000	56.968753
1880.000000	59.097232
1870.000000	59.920898
1860.000000	59.776586
1850.000000	58.892980
1840.000000	59.050703
1830.000000	58.674991
1820.000000	58.977338
1810.000000	59.027675
1800.000000	58.371027
1790.000000	58.782193
1780.000000	58.231586
1770.000000	57.568792
1760.000000	58.019758
1750.000000	57.880481
1740.000000	58.171896
1730.000000	58.475365
1720.000000	58.424624
1710.000000	58.868420
1700.000000	59.415800
1690.000000	60.135270
1680.000000	60.479646
1670.000000	60.412166
1660.000000	60.678119
1650.000000	60.596385
1640.000000	60.538160
1630.000000	60.256089
1620.000000	60.246032
1610.000000	59.889037
1600.000000	59.572358
1590.000000	59.569364
1580.000000	59.332701
1570.000000	59.197078
1560.000000	59.037436
1550.000000	58.791805
1540.000000	58.372563
1530.000000	58.314810
1520.000000	57.897066
1510.000000	57.685061
1500.000000	58.005709
1490.000000	58.081871
1480.000000	58.242794
1470.000000	58.653016
1460.000000	58.694372
1450.000000	58.907697
1440.000000	58.647265
1430.000000	58.955323
1420.000000	60.608161
1410.000000	62.981463
1400.000000	64.781499
1390.000000	64.840817
1380.000000	64.625493
1370.000000	64.937412
1360.000000	64.422200
1350.000000	63.542972
1340.000000	62.010355
1330.000000	62.510553
1320.000000	63.951204
1310.000000	65.084135
1300.000000	66.184665
1290.000000	66.780743
1280.000000	66.115857
1270.000000	65.547058
1260.000000	65.091109
1250.000000	65.543255
1240.000000	65.146287
1230.000000	65.147415
1220.000000	65.477920
1210.000000	65.396884
1200.000000	65.707787
1190.000000	65.539933
1180.000000	65.715044
1170.000000	65.898078
1160.000000	66.045372
1150.000000	66.359745
1140.000000	66.489920
1130.000000	66.539670
1120.000000	66.357042
1110.000000	66.390142
1100.000000	66.569434
1090.000000	66.609522
1080.000000	66.706633
1070.000000	66.706499
1060.000000	66.894774
1050.000000	66.718389
1040.000000	66.813296
1030.000000	67.370513
1020.000000	68.030912
1010.000000	68.854282
1000.000000	68.863832
990.000000	68.476191
980.000000	68.290690
970.000000	68.430335
960.000000	68.329832
950.000000	68.374163
940.000000	67.949977
930.000000	68.025512
920.000000	68.257724
910.000000	67.836206
900.000000	68.138196
890.000000	69.472680
880.000000	68.087262
870.000000	67.565277
860.000000	69.050205
850.000000	66.835536
840.000000	66.763630
830.000000	67.461935
820.000000	67.602531
810.000000	67.596635
800.000000	67.581487
790.000000	68.089953
780.000000	67.531249
770.000000	67.465689
760.000000	67.774719
750.000000	68.038662
740.000000	68.025605
730.000000	67.908018
720.000000	67.748839
710.000000	67.980816
700.000000	67.767755
690.000000	67.605498
680.000000	68.040944
670.000000	67.716981
660.000000	67.763942
650.000000	67.705406
640.000000	67.542428
630.000000	67.567661
620.000000	67.427426
610.000000	67.320420
600.000000	67.178641
590.000000	67.032498
580.000000	66.795760
570.000000	66.667353
560.000000	66.344074
550.000000	66.160604
540.000000	65.821189
530.000000	65.440031
520.000000	65.177725
510.000000	64.772256
500.000000	64.241204
490.000000	63.611001
480.000000	63.163665
470.000000	62.693490
460.000000	61.835886
450.000000	61.118694
440.000000	60.096357
430.000000	58.758335
420.000000	57.138784
410.000000	55.165496
400.000000	53.154319
390.000000	50.788065
380.000000	48.484848
370.000000	45.851029
360.000000	43.490434
350.000000	40.388640
340.000000	38.678868
330.000000	34.514915
320.000000	33.088582
310.000000	29.377109
300.000000	30.588535
290.000000	28.667876
280.000000	27.649580
270.000000	28.324975
260.000000	29.498912
250.000000	31.795644
