PE UV       SUBTECH     SPECTRUM    ASCII       PEDS        4.00        
   -1
S-11768-014.Sample.Raw.asc
23/05/05
14:21:53.00
23/05/05
14:21:53.00
Administrator

250.000000
1
Lambda 750
750N8071901
PerkinElmer UV WinLab 6.0.4.0738 / 1.61.00 Lambda 900

0
0
3350/servo 860.8/2
0
0
UV/VIS
1
1
1
CommonBeamDepol,150mm sphere / downward view
0
0
0
0
Program
Program
3350/servo 860.8/2
3350/0.2 860.8/0.2
3350/0.2 860.8/0.2
0
1
 
 
 
0
 
860.8
319.2
860.8
Front
100
on
 
 
0
0
0
 
0
 
 
 
0
 
 
0
0
0
0
0
 
 
 
 
0
0


0
0
#HDR
-1
-1
#GR
nm
%R
1.0
0.0
2500.000000
-10.000000
226
8
74.304612
16.914595
#DATA
2500.000000	24.041401
2490.000000	16.914595
2480.000000	22.935732
2470.000000	19.037117
2460.000000	24.416890
2450.000000	26.237552
2440.000000	28.579059
2430.000000	27.103483
2420.000000	26.821351
2410.000000	25.549496
2400.000000	25.807742
2390.000000	23.059720
2380.000000	26.368203
2370.000000	23.751822
2360.000000	25.298135
2350.000000	28.618893
2340.000000	27.598800
2330.000000	26.280729
2320.000000	25.752930
2310.000000	27.308980
2300.000000	23.887094
2290.000000	22.703562
2280.000000	25.502356
2270.000000	26.181556
2260.000000	31.546135
2250.000000	30.241757
2240.000000	30.789485
2230.000000	28.430458
2220.000000	29.556338
2210.000000	27.958855
2200.000000	26.473972
2190.000000	27.584096
2180.000000	26.918513
2170.000000	30.297709
2160.000000	30.063950
2150.000000	30.155233
2140.000000	31.656373
2130.000000	33.318465
2120.000000	31.713177
2110.000000	31.564507
2100.000000	32.554136
2090.000000	31.883100
2080.000000	29.197614
2070.000000	29.265979
2060.000000	27.555873
2050.000000	29.600677
2040.000000	29.162071
2030.000000	29.065442
2020.000000	28.010643
2010.000000	26.750200
2000.000000	26.291926
1990.000000	24.853726
1980.000000	23.215690
1970.000000	21.744041
1960.000000	21.332702
1950.000000	22.963605
1940.000000	25.159713
1930.000000	29.358102
1920.000000	34.120748
1910.000000	39.200987
1900.000000	42.795021
1890.000000	46.139112
1880.000000	48.837502
1870.000000	49.238401
1860.000000	49.246711
1850.000000	49.299878
1840.000000	49.147566
1830.000000	48.671318
1820.000000	48.413979
1810.000000	47.999941
1800.000000	47.494457
1790.000000	46.982055
1780.000000	46.469225
1770.000000	45.649243
1760.000000	45.676546
1750.000000	45.665125
1740.000000	46.052874
1730.000000	46.941277
1720.000000	47.367721
1710.000000	48.015381
1700.000000	48.819060
1690.000000	50.529782
1680.000000	51.473229
1670.000000	51.727926
1660.000000	51.670957
1650.000000	51.534100
1640.000000	51.323634
1630.000000	50.638379
1620.000000	49.976755
1610.000000	49.257668
1600.000000	48.695397
1590.000000	48.132340
1580.000000	47.694672
1570.000000	47.547937
1560.000000	47.177926
1550.000000	46.295217
1540.000000	45.601582
1530.000000	45.136802
1520.000000	44.527637
1510.000000	44.383031
1500.000000	44.407333
1490.000000	44.648640
1480.000000	45.192562
1470.000000	45.842584
1460.000000	46.327555
1450.000000	47.081283
1440.000000	47.395864
1430.000000	48.665160
1420.000000	51.631004
1410.000000	55.301624
1400.000000	58.391542
1390.000000	59.010588
1380.000000	58.749452
1370.000000	59.978637
1360.000000	59.765820
1350.000000	58.582811
1340.000000	58.495619
1330.000000	60.928196
1320.000000	63.979591
1310.000000	66.233096
1300.000000	67.709096
1290.000000	68.406698
1280.000000	67.714427
1270.000000	66.746426
1260.000000	66.209135
1250.000000	66.463962
1240.000000	66.654519
1230.000000	66.044951
1220.000000	65.690196
1210.000000	65.393167
1200.000000	66.013291
1190.000000	66.669393
1180.000000	66.439259
1170.000000	67.059430
1160.000000	67.781220
1150.000000	67.604101
1140.000000	67.749151
1130.000000	67.831369
1120.000000	67.843680
1110.000000	67.968750
1100.000000	67.682860
1090.000000	67.118721
1080.000000	66.294617
1070.000000	65.552079
1060.000000	65.359378
1050.000000	64.467379
1040.000000	63.682420
1030.000000	63.495547
1020.000000	64.113619
1010.000000	64.884847
1000.000000	64.937388
990.000000	64.359441
980.000000	64.283369
970.000000	64.401085
960.000000	64.325479
950.000000	64.500035
940.000000	64.100046
930.000000	63.696448
920.000000	63.431517
910.000000	64.178843
900.000000	64.075607
890.000000	64.851764
880.000000	63.940678
870.000000	63.796981
860.000000	63.996967
850.000000	72.803462
840.000000	72.429320
830.000000	73.156696
820.000000	73.221056
810.000000	73.205729
800.000000	73.428030
790.000000	73.739967
780.000000	73.627665
770.000000	73.568785
760.000000	73.380239
750.000000	73.707526
740.000000	73.965187
730.000000	73.840955
720.000000	73.853088
710.000000	73.976951
700.000000	74.130292
690.000000	73.944333
680.000000	74.102264
670.000000	74.143195
660.000000	74.304612
650.000000	74.171108
640.000000	74.145562
630.000000	74.281144
620.000000	74.060686
610.000000	73.881232
600.000000	73.849267
590.000000	73.638805
580.000000	73.336864
570.000000	73.062954
560.000000	72.678430
550.000000	72.409877
540.000000	71.864230
530.000000	71.328021
520.000000	70.879565
510.000000	70.145646
500.000000	69.139775
490.000000	68.242174
480.000000	67.138498
470.000000	65.942302
460.000000	64.422590
450.000000	62.576952
440.000000	60.486076
430.000000	57.896780
420.000000	54.670181
410.000000	51.178536
400.000000	47.508238
390.000000	44.496238
380.000000	41.428105
370.000000	38.328483
360.000000	35.617620
350.000000	33.047441
340.000000	30.634706
330.000000	27.308685
320.000000	26.811343
310.000000	26.017520
300.000000	25.490560
290.000000	20.351993
280.000000	19.776117
270.000000	20.967660
260.000000	23.424104
250.000000	26.180940
