PE UV       SUBTECH     SPECTRUM    ASCII       PEDS        4.00        
   -1
S-11771-004.Sample.Raw.asc
23/01/26
17:22:30.00
23/01/26
17:22:30.00
Administrator

250.000000
1
Lambda 750
750N8071901
PerkinElmer UV WinLab 6.0.4.0738 / 1.61.00 Lambda 900

0
0
3350/servo 860.8/2
0
0
UV/VIS
1
1
1
CommonBeamDepol,150mm sphere / downward view
0
0
0
0
Program
Program
3350/servo 860.8/2
3350/0.2 860.8/0.2
3350/0.2 860.8/0.2
0
1
 
 
 
0
 
860.8
319.2
860.8
Front
100
on
 
 
0
0
0
 
0
 
 
 
0
 
 
0
0
0
0
0
 
 
 
 
0
0


0
0
#HDR
-1
-1
#GR
nm
%R
1.0
0.0
2500.000000
-10.000000
226
8
79.007636
18.704927
#DATA
2500.000000	38.134532
2490.000000	38.326385
2480.000000	39.413015
2470.000000	40.514783
2460.000000	41.037949
2450.000000	40.346640
2440.000000	38.985734
2430.000000	41.900622
2420.000000	41.275978
2410.000000	43.369887
2400.000000	42.807658
2390.000000	42.171244
2380.000000	42.454790
2370.000000	42.321268
2360.000000	42.924061
2350.000000	43.530781
2340.000000	42.794579
2330.000000	42.176057
2320.000000	41.662642
2310.000000	42.644565
2300.000000	41.435659
2290.000000	41.440556
2280.000000	43.111206
2270.000000	44.239791
2260.000000	45.172828
2250.000000	46.185232
2240.000000	46.740902
2230.000000	46.088193
2220.000000	45.772079
2210.000000	45.262549
2200.000000	44.425783
2190.000000	44.716451
2180.000000	45.338069
2170.000000	46.400637
2160.000000	46.728757
2150.000000	48.028803
2140.000000	49.273173
2130.000000	48.627192
2120.000000	49.534362
2110.000000	49.628813
2100.000000	49.254197
2090.000000	48.419399
2080.000000	47.799822
2070.000000	46.363516
2060.000000	46.523691
2050.000000	46.697606
2040.000000	47.545799
2030.000000	47.210156
2020.000000	46.444588
2010.000000	45.576356
2000.000000	44.824428
1990.000000	43.802465
1980.000000	42.624951
1970.000000	41.750859
1960.000000	41.634164
1950.000000	42.106753
1940.000000	44.213074
1930.000000	47.304852
1920.000000	50.398163
1910.000000	53.902791
1900.000000	55.737270
1890.000000	56.940375
1880.000000	58.630464
1870.000000	58.573310
1860.000000	58.522852
1850.000000	58.830090
1840.000000	58.747615
1830.000000	58.602497
1820.000000	58.417102
1810.000000	58.188353
1800.000000	57.777332
1790.000000	57.563853
1780.000000	57.581436
1770.000000	57.319053
1760.000000	57.207476
1750.000000	57.171973
1740.000000	57.378686
1730.000000	57.904920
1720.000000	58.345147
1710.000000	58.604377
1700.000000	59.089995
1690.000000	59.806148
1680.000000	60.242477
1670.000000	60.470259
1660.000000	60.699550
1650.000000	60.602312
1640.000000	60.444385
1630.000000	60.300321
1620.000000	59.953372
1610.000000	59.632293
1600.000000	59.407173
1590.000000	59.281317
1580.000000	59.185223
1570.000000	59.272178
1560.000000	59.221227
1550.000000	58.988584
1540.000000	58.699923
1530.000000	58.426650
1520.000000	58.170696
1510.000000	58.043585
1500.000000	58.188456
1490.000000	58.525414
1480.000000	58.850088
1470.000000	59.146143
1460.000000	59.478023
1450.000000	59.809557
1440.000000	60.010753
1430.000000	60.243450
1420.000000	61.190741
1410.000000	62.663489
1400.000000	64.015436
1390.000000	64.525338
1380.000000	64.191176
1370.000000	64.755737
1360.000000	64.544325
1350.000000	64.231902
1340.000000	64.964651
1330.000000	66.711239
1320.000000	68.164904
1310.000000	69.067561
1300.000000	69.578960
1290.000000	69.674352
1280.000000	69.444104
1270.000000	68.873936
1260.000000	68.821442
1250.000000	68.960137
1240.000000	69.266070
1230.000000	69.244948
1220.000000	69.011518
1210.000000	68.936421
1200.000000	69.084452
1190.000000	69.674817
1180.000000	69.380232
1170.000000	69.676608
1160.000000	69.939265
1150.000000	69.815166
1140.000000	69.828633
1130.000000	69.790792
1120.000000	69.875413
1110.000000	69.936106
1100.000000	69.631357
1090.000000	69.391779
1080.000000	69.025889
1070.000000	68.722560
1060.000000	68.430157
1050.000000	68.232401
1040.000000	67.743869
1030.000000	67.435206
1020.000000	67.757375
1010.000000	68.054354
1000.000000	68.023957
990.000000	67.873328
980.000000	67.897179
970.000000	67.885668
960.000000	67.894127
950.000000	67.965214
940.000000	68.007448
930.000000	67.721382
920.000000	67.735346
910.000000	67.894464
900.000000	67.805062
890.000000	67.978721
880.000000	67.848717
870.000000	68.479259
860.000000	69.450146
850.000000	78.480374
840.000000	78.598136
830.000000	78.633201
820.000000	78.145233
810.000000	78.202389
800.000000	78.502273
790.000000	78.475591
780.000000	78.635384
770.000000	78.809937
760.000000	78.559692
750.000000	78.726744
740.000000	78.951505
730.000000	78.932859
720.000000	78.756427
710.000000	79.007636
700.000000	78.827722
690.000000	78.943421
680.000000	78.916421
670.000000	78.865510
660.000000	78.803161
650.000000	78.946645
640.000000	78.810438
630.000000	78.697864
620.000000	78.489819
610.000000	78.251265
600.000000	78.082581
590.000000	77.923821
580.000000	77.444831
570.000000	77.275546
560.000000	76.880647
550.000000	76.396301
540.000000	75.911141
530.000000	75.440300
520.000000	74.892034
510.000000	74.089813
500.000000	73.115913
490.000000	72.720298
480.000000	71.924120
470.000000	70.744980
460.000000	69.505559
450.000000	68.251781
440.000000	66.594171
430.000000	64.620964
420.000000	61.984725
410.000000	59.181083
400.000000	55.797839
390.000000	52.233700
380.000000	48.219736
370.000000	43.809504
360.000000	39.815716
350.000000	35.771740
340.000000	31.771462
330.000000	28.278084
320.000000	24.959788
310.000000	23.410846
300.000000	23.776886
290.000000	21.287937
280.000000	19.530566
270.000000	19.002714
260.000000	19.016266
250.000000	18.704927
