PE UV       SUBTECH     SPECTRUM    ASCII       PEDS        4.00        
   -1
S-11753-017.Sample.Raw.asc
23/05/05
16:29:18.00
23/05/05
16:29:18.00
Administrator

250.000000
1
Lambda 750
750N8071901
PerkinElmer UV WinLab 6.0.4.0738 / 1.61.00 Lambda 900

0
0
3350/servo 860.8/2
0
0
UV/VIS
1
1
1
CommonBeamDepol,150mm sphere / downward view
0
0
0
0
Program
Program
3350/servo 860.8/2
3350/0.2 860.8/0.2
3350/0.2 860.8/0.2
0
1
 
 
 
0
 
860.8
319.2
860.8
Front
100
on
 
 
0
0
0
 
0
 
 
 
0
 
 
0
0
0
0
0
 
 
 
 
0
0


0
0
#HDR
-1
-1
#GR
nm
%R
1.0
0.0
2500.000000
-10.000000
226
8
61.489238
17.115676
#DATA
2500.000000	24.565702
2490.000000	17.115676
2480.000000	24.461463
2470.000000	23.902366
2460.000000	20.307748
2450.000000	24.040409
2440.000000	31.524014
2430.000000	29.455204
2420.000000	30.865521
2410.000000	35.415568
2400.000000	26.024129
2390.000000	28.048799
2380.000000	28.327962
2370.000000	30.173419
2360.000000	30.769570
2350.000000	32.470512
2340.000000	31.103676
2330.000000	28.666804
2320.000000	28.419239
2310.000000	26.954346
2300.000000	27.123666
2290.000000	27.614972
2280.000000	30.326271
2270.000000	31.099564
2260.000000	32.373546
2250.000000	34.686530
2240.000000	34.608183
2230.000000	32.968802
2220.000000	30.944950
2210.000000	31.467165
2200.000000	30.203353
2190.000000	30.104566
2180.000000	31.109358
2170.000000	34.330535
2160.000000	33.675179
2150.000000	34.493449
2140.000000	33.881159
2130.000000	34.331429
2120.000000	35.464055
2110.000000	37.149701
2100.000000	34.864967
2090.000000	34.144128
2080.000000	33.885754
2070.000000	31.243844
2060.000000	29.895646
2050.000000	31.064106
2040.000000	31.836344
2030.000000	32.326240
2020.000000	31.271656
2010.000000	29.459459
2000.000000	28.857010
1990.000000	27.577048
1980.000000	26.387302
1970.000000	24.898094
1960.000000	24.141350
1950.000000	25.955058
1940.000000	27.859736
1930.000000	32.278095
1920.000000	34.932816
1910.000000	40.043725
1900.000000	43.354645
1890.000000	46.223187
1880.000000	48.300281
1870.000000	48.241805
1860.000000	48.535313
1850.000000	47.925984
1840.000000	48.482881
1830.000000	47.522585
1820.000000	47.877411
1810.000000	47.674746
1800.000000	47.041390
1790.000000	47.280270
1780.000000	46.914355
1770.000000	45.943198
1760.000000	45.734266
1750.000000	45.984089
1740.000000	46.139154
1730.000000	46.752230
1720.000000	47.247232
1710.000000	47.512768
1700.000000	48.183964
1690.000000	49.277503
1680.000000	49.764519
1670.000000	50.172166
1660.000000	50.483475
1650.000000	50.224529
1640.000000	49.710040
1630.000000	49.509052
1620.000000	48.926655
1610.000000	48.429499
1600.000000	48.092142
1590.000000	47.646661
1580.000000	47.349847
1570.000000	47.085506
1560.000000	46.825444
1550.000000	46.160202
1540.000000	45.495329
1530.000000	45.267511
1520.000000	44.939253
1510.000000	44.699501
1500.000000	44.889206
1490.000000	44.873116
1480.000000	45.235256
1470.000000	45.549024
1460.000000	45.989816
1450.000000	46.566323
1440.000000	46.367780
1430.000000	47.339184
1420.000000	49.744142
1410.000000	52.546931
1400.000000	55.051654
1390.000000	55.668217
1380.000000	55.260622
1370.000000	55.717808
1360.000000	55.563973
1350.000000	54.556573
1340.000000	53.412827
1330.000000	54.122121
1320.000000	55.544848
1310.000000	56.992069
1300.000000	57.962744
1290.000000	58.656943
1280.000000	58.203049
1270.000000	57.407904
1260.000000	56.855535
1250.000000	57.022995
1240.000000	57.236245
1230.000000	57.250736
1220.000000	57.089655
1210.000000	56.599621
1200.000000	56.790206
1190.000000	57.125118
1180.000000	57.288206
1170.000000	57.691288
1160.000000	57.976144
1150.000000	58.014032
1140.000000	58.311148
1130.000000	58.560156
1120.000000	58.129662
1110.000000	58.349198
1100.000000	58.829550
1090.000000	58.640336
1080.000000	58.506278
1070.000000	58.418430
1060.000000	58.551516
1050.000000	58.405745
1040.000000	58.309055
1030.000000	58.784257
1020.000000	59.486739
1010.000000	60.367270
1000.000000	60.339752
990.000000	59.830243
980.000000	59.907239
970.000000	59.791845
960.000000	59.856631
950.000000	59.652888
940.000000	59.711702
930.000000	59.515771
920.000000	59.283208
910.000000	59.322775
900.000000	60.062828
890.000000	59.585190
880.000000	59.586864
870.000000	59.248297
860.000000	59.897959
850.000000	59.871167
840.000000	60.281724
830.000000	60.170643
820.000000	60.556846
810.000000	60.574619
800.000000	60.498664
790.000000	60.741025
780.000000	60.739970
770.000000	60.707435
760.000000	60.934027
750.000000	60.812822
740.000000	61.004041
730.000000	60.974353
720.000000	61.000516
710.000000	61.186944
700.000000	61.191636
690.000000	61.217626
680.000000	61.431807
670.000000	61.230678
660.000000	61.417399
650.000000	61.350453
640.000000	61.293379
630.000000	61.489238
620.000000	61.265552
610.000000	61.451166
600.000000	61.236611
590.000000	61.248279
580.000000	61.186052
570.000000	61.149217
560.000000	60.976127
550.000000	60.768604
540.000000	60.529760
530.000000	60.340691
520.000000	60.338026
510.000000	60.071242
500.000000	59.534858
490.000000	59.278591
480.000000	58.903220
470.000000	58.604359
460.000000	58.006843
450.000000	57.133903
440.000000	55.996345
430.000000	54.632851
420.000000	53.026995
410.000000	50.771760
400.000000	48.355500
390.000000	45.928506
380.000000	43.420380
370.000000	40.713593
360.000000	38.885580
350.000000	35.580550
340.000000	32.477312
330.000000	28.890842
320.000000	27.165977
310.000000	25.570043
300.000000	26.233886
290.000000	23.858615
280.000000	22.770201
270.000000	24.702400
260.000000	26.675107
250.000000	30.204402
