PE UV       SUBTECH     SPECTRUM    ASCII       PEDS        4.00        
   -1
S-11771-016.Sample.Raw.asc
23/05/05
15:17:36.00
23/05/05
15:17:36.00
Administrator

250.000000
1
Lambda 750
750N8071901
PerkinElmer UV WinLab 6.0.4.0738 / 1.61.00 Lambda 900

0
0
3350/servo 860.8/2
0
0
UV/VIS
1
1
1
CommonBeamDepol,150mm sphere / downward view
0
0
0
0
Program
Program
3350/servo 860.8/2
3350/0.2 860.8/0.2
3350/0.2 860.8/0.2
0
1
 
 
 
0
 
860.8
319.2
860.8
Front
100
on
 
 
0
0
0
 
0
 
 
 
0
 
 
0
0
0
0
0
 
 
 
 
0
0


0
0
#HDR
-1
-1
#GR
nm
%R
1.0
0.0
2500.000000
-10.000000
226
8
68.128870
24.250948
#DATA
2500.000000	37.591074
2490.000000	35.490450
2480.000000	42.672183
2470.000000	40.675064
2460.000000	37.495439
2450.000000	44.221216
2440.000000	44.927170
2430.000000	44.456226
2420.000000	44.116231
2410.000000	42.455445
2400.000000	46.695666
2390.000000	43.192119
2380.000000	41.763929
2370.000000	45.911542
2360.000000	44.745190
2350.000000	47.714928
2340.000000	44.761825
2330.000000	42.689972
2320.000000	44.505868
2310.000000	44.883199
2300.000000	41.397271
2290.000000	42.380681
2280.000000	44.430375
2270.000000	43.935001
2260.000000	45.460049
2250.000000	46.032086
2240.000000	47.856234
2230.000000	48.603297
2220.000000	46.295681
2210.000000	46.127828
2200.000000	44.653209
2190.000000	45.826709
2180.000000	46.084106
2170.000000	49.069432
2160.000000	47.806896
2150.000000	48.956844
2140.000000	49.240951
2130.000000	49.499273
2120.000000	50.201442
2110.000000	48.982036
2100.000000	49.121957
2090.000000	48.494464
2080.000000	48.681940
2070.000000	46.803388
2060.000000	46.861005
2050.000000	46.753086
2040.000000	47.022214
2030.000000	46.613618
2020.000000	46.298922
2010.000000	44.913674
2000.000000	45.346415
1990.000000	43.774579
1980.000000	42.841241
1970.000000	41.468650
1960.000000	40.937005
1950.000000	41.498171
1940.000000	44.136656
1930.000000	47.267243
1920.000000	49.671585
1910.000000	53.435949
1900.000000	54.731705
1890.000000	55.937185
1880.000000	57.643185
1870.000000	57.719895
1860.000000	57.696039
1850.000000	57.320724
1840.000000	57.291982
1830.000000	57.359530
1820.000000	57.325449
1810.000000	57.741711
1800.000000	56.880266
1790.000000	56.998073
1780.000000	56.624540
1770.000000	56.532214
1760.000000	56.587857
1750.000000	56.417391
1740.000000	56.420486
1730.000000	56.663910
1720.000000	57.247823
1710.000000	57.466862
1700.000000	57.758354
1690.000000	58.530786
1680.000000	58.884261
1670.000000	58.904332
1660.000000	59.094563
1650.000000	59.019887
1640.000000	59.024909
1630.000000	58.646871
1620.000000	58.366479
1610.000000	58.161228
1600.000000	58.100591
1590.000000	57.627381
1580.000000	57.821059
1570.000000	57.496834
1560.000000	57.493017
1550.000000	57.228440
1540.000000	56.761064
1530.000000	56.570542
1520.000000	56.409935
1510.000000	56.199862
1500.000000	56.268760
1490.000000	56.406029
1480.000000	56.772812
1470.000000	57.067202
1460.000000	57.178597
1450.000000	57.509950
1440.000000	56.862499
1430.000000	57.116686
1420.000000	58.755217
1410.000000	61.226535
1400.000000	63.205471
1390.000000	63.278007
1380.000000	62.853701
1370.000000	63.173528
1360.000000	62.722485
1350.000000	61.544676
1340.000000	60.498088
1330.000000	61.537829
1320.000000	63.221353
1310.000000	64.675981
1300.000000	65.891878
1290.000000	66.506512
1280.000000	65.953532
1270.000000	65.241439
1260.000000	64.631841
1250.000000	64.879454
1240.000000	65.097202
1230.000000	65.122069
1220.000000	64.827684
1210.000000	64.866714
1200.000000	65.159962
1190.000000	65.268535
1180.000000	65.164698
1170.000000	65.455483
1160.000000	65.664207
1150.000000	65.436775
1140.000000	65.694191
1130.000000	65.870742
1120.000000	65.583346
1110.000000	65.606695
1100.000000	65.645356
1090.000000	65.780067
1080.000000	65.653703
1070.000000	65.554976
1060.000000	65.525406
1050.000000	65.246103
1040.000000	65.047290
1030.000000	65.143891
1020.000000	65.920617
1010.000000	66.794850
1000.000000	66.810108
990.000000	66.303638
980.000000	66.148376
970.000000	66.295808
960.000000	66.148097
950.000000	66.012698
940.000000	65.782588
930.000000	65.695577
920.000000	65.726311
910.000000	65.439469
900.000000	65.607794
890.000000	65.984147
880.000000	65.880561
870.000000	65.944519
860.000000	66.422058
850.000000	67.116688
840.000000	67.485539
830.000000	67.653092
820.000000	67.924944
810.000000	67.749707
800.000000	67.870130
790.000000	67.883064
780.000000	68.128870
770.000000	67.670341
760.000000	67.852214
750.000000	67.928765
740.000000	67.979637
730.000000	67.910766
720.000000	67.868570
710.000000	67.935270
700.000000	67.859686
690.000000	67.688376
680.000000	67.860878
670.000000	67.614068
660.000000	67.804848
650.000000	67.634803
640.000000	67.476729
630.000000	67.338430
620.000000	67.274675
610.000000	67.065235
600.000000	67.001844
590.000000	66.671716
580.000000	66.479332
570.000000	66.255398
560.000000	65.938210
550.000000	65.559896
540.000000	65.221681
530.000000	64.823726
520.000000	64.498188
510.000000	64.028919
500.000000	63.345562
490.000000	62.976749
480.000000	62.269817
470.000000	61.849679
460.000000	60.808701
450.000000	59.934817
440.000000	58.869053
430.000000	57.496153
420.000000	55.815474
410.000000	53.654018
400.000000	51.375139
390.000000	49.110386
380.000000	46.314362
370.000000	43.682943
360.000000	41.601807
350.000000	37.703406
340.000000	35.679116
330.000000	32.177388
320.000000	30.708159
310.000000	28.436564
300.000000	26.564253
290.000000	24.757856
280.000000	24.250948
270.000000	24.716873
260.000000	25.996180
250.000000	28.161154
