PE UV       SUBTECH     SPECTRUM    ASCII       PEDS        4.00        
   -1
Empty Chamber.Sample.asc
18/02/28
11:18:34.00
18/02/28
11:18:34.00
Administrator

200.000000
1
Lambda 750
750N8071901
PerkinElmer UV WinLab 6.0.4.0738 / 1.61.00 Lambda 900

0
0
3350/servo 860.8/2
0
0
UV/VIS
1
1
1
CommonBeamDepol,150mm sphere / downward view
0
0
0
0
Program
Program
3350/servo 860.8/2
3350/0.2 860.8/0.2
3350/0.2 860.8/0.2
0
1
 
 
 
0
 
860.8
319.2
860.8
Front
100
on
 
 
0
0
0
 
0
 
 
 
0
 
 
0
0
0
0
0
 
 
 
 
0
0


0
0
#HDR
-1
-1
#GR
nm
%T
1.0
0.0
2350.000000
-1.000000
2151
8
100.609546
99.076100
#DATA
2350.000000	99.934722
2349.000000	100.554199
2348.000000	99.969313
2347.000000	100.321583
2346.000000	99.991848
2345.000000	100.123848
2344.000000	99.872273
2343.000000	99.899294
2342.000000	99.823642
2341.000000	99.994363
2340.000000	99.930917
2339.000000	99.960731
2338.000000	99.799263
2337.000000	99.952032
2336.000000	99.820109
2335.000000	100.046629
2334.000000	99.744926
2333.000000	99.945317
2332.000000	100.210487
2331.000000	100.051610
2330.000000	99.912793
2329.000000	99.800612
2328.000000	100.208666
2327.000000	99.956598
2326.000000	100.118310
2325.000000	100.052636
2324.000000	100.186070
2323.000000	99.876673
2322.000000	99.793479
2321.000000	100.185370
2320.000000	100.088203
2319.000000	100.136192
2318.000000	99.864566
2317.000000	100.053147
2316.000000	100.095584
2315.000000	100.127515
2314.000000	100.164941
2313.000000	99.790834
2312.000000	99.880447
2311.000000	99.867468
2310.000000	99.960183
2309.000000	100.124142
2308.000000	99.894198
2307.000000	99.603707
2306.000000	99.818570
2305.000000	100.191564
2304.000000	100.042150
2303.000000	100.275565
2302.000000	100.172030
2301.000000	99.975938
2300.000000	99.958123
2299.000000	99.995449
2298.000000	99.917690
2297.000000	99.678684
2296.000000	99.886246
2295.000000	99.740312
2294.000000	100.044955
2293.000000	100.156371
2292.000000	99.810147
2291.000000	99.915900
2290.000000	99.800989
2289.000000	99.960862
2288.000000	100.378207
2287.000000	100.409202
2286.000000	100.026178
2285.000000	99.924732
2284.000000	99.982207
2283.000000	100.051137
2282.000000	100.065507
2281.000000	100.114390
2280.000000	99.893689
2279.000000	100.012127
2278.000000	100.168786
2277.000000	100.044588
2276.000000	100.079736
2275.000000	100.271493
2274.000000	100.202401
2273.000000	100.106017
2272.000000	100.122372
2271.000000	99.940316
2270.000000	99.860707
2269.000000	99.872881
2268.000000	99.849193
2267.000000	100.116420
2266.000000	100.214842
2265.000000	100.000000
2264.000000	99.961767
2263.000000	100.031757
2262.000000	99.875997
2261.000000	99.883978
2260.000000	100.078904
2259.000000	100.187787
2258.000000	100.164520
2257.000000	99.987162
2256.000000	99.953640
2255.000000	100.044866
2254.000000	100.144045
2253.000000	100.081314
2252.000000	100.141062
2251.000000	100.116741
2250.000000	100.077452
2249.000000	100.092620
2248.000000	100.001819
2247.000000	99.989389
2246.000000	99.891853
2245.000000	99.773079
2244.000000	99.763102
2243.000000	99.757543
2242.000000	99.841979
2241.000000	99.926026
2240.000000	100.022551
2239.000000	99.933603
2238.000000	99.942572
2237.000000	100.205159
2236.000000	100.172046
2235.000000	99.982710
2234.000000	99.982929
2233.000000	99.911369
2232.000000	99.853913
2231.000000	99.914830
2230.000000	99.990903
2229.000000	99.923863
2228.000000	100.093265
2227.000000	100.049425
2226.000000	99.960099
2225.000000	100.087687
2224.000000	100.095380
2223.000000	100.043979
2222.000000	100.055338
2221.000000	100.096456
2220.000000	100.033587
2219.000000	99.855578
2218.000000	99.924187
2217.000000	99.990296
2216.000000	99.909150
2215.000000	99.920375
2214.000000	99.929635
2213.000000	100.047988
2212.000000	100.140172
2211.000000	100.050529
2210.000000	99.978991
2209.000000	99.943842
2208.000000	99.912440
2207.000000	99.963627
2206.000000	99.955155
2205.000000	99.882708
2204.000000	99.899706
2203.000000	99.905553
2202.000000	99.994847
2201.000000	100.012323
2200.000000	99.994849
2199.000000	100.130346
2198.000000	100.269830
2197.000000	100.055562
2196.000000	99.953661
2195.000000	100.009998
2194.000000	99.968911
2193.000000	100.115922
2192.000000	100.221457
2191.000000	100.019899
2190.000000	100.097563
2189.000000	100.082688
2188.000000	100.087060
2187.000000	99.870298
2186.000000	99.946243
2185.000000	99.970170
2184.000000	99.846233
2183.000000	100.013698
2182.000000	99.975404
2181.000000	100.109659
2180.000000	100.217485
2179.000000	99.998084
2178.000000	99.941143
2177.000000	100.033488
2176.000000	100.162494
2175.000000	100.027112
2174.000000	99.933805
2173.000000	99.999698
2172.000000	99.974625
2171.000000	100.011582
2170.000000	99.922752
2169.000000	99.988429
2168.000000	100.166910
2167.000000	100.057128
2166.000000	100.115635
2165.000000	100.112649
2164.000000	99.905625
2163.000000	100.075309
2162.000000	99.997886
2161.000000	100.113949
2160.000000	100.051976
2159.000000	99.980369
2158.000000	99.974236
2157.000000	99.978357
2156.000000	99.909540
2155.000000	100.092226
2154.000000	100.143911
2153.000000	99.988034
2152.000000	100.084960
2151.000000	99.821847
2150.000000	100.198453
2149.000000	99.890288
2148.000000	99.947087
2147.000000	100.259250
2146.000000	99.908101
2145.000000	99.967119
2144.000000	99.906359
2143.000000	100.078524
2142.000000	99.922084
2141.000000	99.866807
2140.000000	100.223614
2139.000000	100.068816
2138.000000	99.919819
2137.000000	99.945584
2136.000000	99.984495
2135.000000	100.241020
2134.000000	100.089749
2133.000000	100.018995
2132.000000	99.974952
2131.000000	100.004626
2130.000000	100.026240
2129.000000	99.685526
2128.000000	99.869412
2127.000000	100.082468
2126.000000	99.724805
2125.000000	100.042888
2124.000000	100.098274
2123.000000	100.182800
2122.000000	100.012182
2121.000000	99.911939
2120.000000	100.023732
2119.000000	99.978666
2118.000000	99.689570
2117.000000	100.008956
2116.000000	99.933809
2115.000000	100.210840
2114.000000	99.975503
2113.000000	100.032021
2112.000000	100.229675
2111.000000	100.030591
2110.000000	100.107386
2109.000000	100.041344
2108.000000	100.088810
2107.000000	99.961522
2106.000000	100.039225
2105.000000	99.768841
2104.000000	99.782827
2103.000000	100.130542
2102.000000	100.134122
2101.000000	99.979144
2100.000000	100.084919
2099.000000	100.043778
2098.000000	100.017948
2097.000000	100.027456
2096.000000	100.092268
2095.000000	100.100575
2094.000000	100.103815
2093.000000	100.205379
2092.000000	100.026338
2091.000000	100.047334
2090.000000	99.925424
2089.000000	99.876261
2088.000000	99.913240
2087.000000	100.001007
2086.000000	100.133011
2085.000000	100.114475
2084.000000	100.004537
2083.000000	99.993548
2082.000000	100.011093
2081.000000	100.051135
2080.000000	100.048911
2079.000000	99.977905
2078.000000	99.907136
2077.000000	100.034010
2076.000000	100.086326
2075.000000	100.028139
2074.000000	99.880704
2073.000000	100.003026
2072.000000	100.033586
2071.000000	100.007564
2070.000000	99.942426
2069.000000	99.957436
2068.000000	99.971754
2067.000000	100.003533
2066.000000	100.021500
2065.000000	100.075145
2064.000000	100.074112
2063.000000	100.090877
2062.000000	100.044835
2061.000000	100.000606
2060.000000	100.010293
2059.000000	99.944808
2058.000000	100.046042
2057.000000	100.132116
2056.000000	100.125179
2055.000000	100.070073
2054.000000	99.939474
2053.000000	100.043613
2052.000000	100.006967
2051.000000	99.982332
2050.000000	99.999899
2049.000000	100.012120
2048.000000	100.024236
2047.000000	99.968795
2046.000000	100.002829
2045.000000	99.932265
2044.000000	99.861925
2043.000000	99.995556
2042.000000	100.042725
2041.000000	100.072941
2040.000000	100.029701
2039.000000	99.970611
2038.000000	100.032839
2037.000000	100.021423
2036.000000	99.965343
2035.000000	99.993632
2034.000000	100.039328
2033.000000	100.048217
2032.000000	99.974945
2031.000000	99.924552
2030.000000	99.997070
2029.000000	100.005659
2028.000000	100.030631
2027.000000	100.071093
2026.000000	100.053906
2025.000000	100.017397
2024.000000	99.950258
2023.000000	99.971595
2022.000000	99.998787
2021.000000	99.996360
2020.000000	100.041375
2019.000000	100.090470
2018.000000	100.028028
2017.000000	99.954888
2016.000000	99.999494
2015.000000	100.013757
2014.000000	99.959550
2013.000000	99.993629
2012.000000	100.033291
2011.000000	100.026310
2010.000000	99.996661
2009.000000	100.024091
2008.000000	100.056689
2007.000000	99.959729
2006.000000	99.945565
2005.000000	100.020648
2004.000000	100.015689
2003.000000	99.963768
2002.000000	99.972772
2001.000000	99.978846
2000.000000	99.961245
1999.000000	99.973787
1998.000000	99.957891
1997.000000	99.997874
1996.000000	100.008100
1995.000000	99.966789
1994.000000	99.975394
1993.000000	100.030186
1992.000000	99.971139
1991.000000	99.952815
1990.000000	99.983087
1989.000000	100.033739
1988.000000	100.004154
1987.000000	100.005572
1986.000000	100.023098
1985.000000	99.950483
1984.000000	99.923565
1983.000000	99.894411
1982.000000	99.994124
1981.000000	99.992706
1980.000000	100.002330
1979.000000	100.025030
1978.000000	100.026351
1977.000000	100.018846
1976.000000	99.996657
1975.000000	100.000912
1974.000000	100.013984
1973.000000	100.031214
1972.000000	100.049959
1971.000000	99.953615
1970.000000	99.885988
1969.000000	99.947338
1968.000000	100.035160
1967.000000	100.007396
1966.000000	100.051885
1965.000000	99.954818
1964.000000	99.994226
1963.000000	100.009829
1962.000000	99.991489
1961.000000	99.992605
1960.000000	100.030195
1959.000000	100.052691
1958.000000	100.013878
1957.000000	100.027866
1956.000000	100.020561
1955.000000	99.990481
1954.000000	99.982889
1953.000000	99.953334
1952.000000	100.024607
1951.000000	100.004861
1950.000000	100.004659
1949.000000	100.014582
1948.000000	99.932891
1947.000000	100.003443
1946.000000	99.930572
1945.000000	99.987650
1944.000000	100.049409
1943.000000	100.025007
1942.000000	100.017407
1941.000000	99.999696
1940.000000	99.902978
1939.000000	100.007995
1938.000000	99.959846
1937.000000	100.014876
1936.000000	100.064472
1935.000000	99.987050
1934.000000	100.044220
1933.000000	99.962973
1932.000000	99.955303
1931.000000	100.018917
1930.000000	100.045223
1929.000000	100.023882
1928.000000	99.986246
1927.000000	100.039446
1926.000000	100.005158
1925.000000	100.014667
1924.000000	99.950453
1923.000000	100.098935
1922.000000	99.950068
1921.000000	100.005868
1920.000000	99.952271
1919.000000	99.967226
1918.000000	100.025306
1917.000000	100.040865
1916.000000	99.973501
1915.000000	99.896985
1914.000000	99.990392
1913.000000	99.925273
1912.000000	99.993325
1911.000000	99.976628
1910.000000	100.028241
1909.000000	99.979971
1908.000000	100.066603
1907.000000	100.031461
1906.000000	100.058205
1905.000000	99.955880
1904.000000	100.011234
1903.000000	100.017002
1902.000000	99.853237
1901.000000	99.921411
1900.000000	99.919897
1899.000000	100.019133
1898.000000	100.040295
1897.000000	99.934320
1896.000000	100.086204
1895.000000	100.051543
1894.000000	100.025209
1893.000000	100.019543
1892.000000	100.032822
1891.000000	100.058550
1890.000000	99.985013
1889.000000	100.056209
1888.000000	99.944040
1887.000000	99.935352
1886.000000	99.934866
1885.000000	99.958130
1884.000000	100.022054
1883.000000	100.003035
1882.000000	100.008397
1881.000000	99.999595
1880.000000	100.025696
1879.000000	99.955618
1878.000000	99.925713
1877.000000	99.990597
1876.000000	100.004954
1875.000000	99.986457
1874.000000	99.988678
1873.000000	99.988784
1872.000000	99.969489
1871.000000	99.989086
1870.000000	99.945848
1869.000000	100.010007
1868.000000	100.025575
1867.000000	99.963719
1866.000000	100.015466
1865.000000	99.991813
1864.000000	99.995349
1863.000000	99.989282
1862.000000	99.999393
1861.000000	100.013658
1860.000000	100.023466
1859.000000	99.997775
1858.000000	99.987864
1857.000000	100.016485
1856.000000	100.000708
1855.000000	100.060488
1854.000000	100.011932
1853.000000	99.985542
1852.000000	99.983927
1851.000000	100.013650
1850.000000	100.047034
1849.000000	100.032159
1848.000000	100.051862
1847.000000	100.021129
1846.000000	99.982613
1845.000000	99.996563
1844.000000	100.055318
1843.000000	100.029224
1842.000000	99.993328
1841.000000	99.997978
1840.000000	99.996159
1839.000000	99.978768
1838.000000	99.985742
1837.000000	99.983215
1836.000000	100.014161
1835.000000	100.030860
1834.000000	100.012443
1833.000000	100.021954
1832.000000	100.026106
1831.000000	100.034408
1830.000000	100.016193
1829.000000	99.972176
1828.000000	99.957908
1827.000000	99.984012
1826.000000	99.986034
1825.000000	100.010529
1824.000000	100.051047
1823.000000	100.013772
1822.000000	99.990077
1821.000000	99.997772
1820.000000	99.989772
1819.000000	99.968512
1818.000000	100.002937
1817.000000	100.025122
1816.000000	100.015598
1815.000000	100.027550
1814.000000	99.999494
1813.000000	99.993113
1812.000000	100.023803
1811.000000	100.016509
1810.000000	99.994024
1809.000000	99.997366
1808.000000	100.012362
1807.000000	99.997568
1806.000000	99.990476
1805.000000	99.993718
1804.000000	99.985005
1803.000000	99.985307
1802.000000	99.984800
1801.000000	99.979737
1800.000000	99.983787
1799.000000	100.001622
1798.000000	99.997568
1797.000000	99.972340
1796.000000	99.958058
1795.000000	99.980140
1794.000000	100.001318
1793.000000	99.981251
1792.000000	99.991385
1791.000000	100.002027
1790.000000	99.978109
1789.000000	99.987738
1788.000000	99.998885
1787.000000	99.976887
1786.000000	99.990268
1785.000000	99.998480
1784.000000	99.995236
1783.000000	99.985202
1782.000000	99.980846
1781.000000	99.995541
1780.000000	99.980036
1779.000000	99.989763
1778.000000	99.993717
1777.000000	100.019562
1776.000000	100.026661
1775.000000	99.997669
1774.000000	99.950555
1773.000000	99.974866
1772.000000	99.973243
1771.000000	100.010439
1770.000000	100.035379
1769.000000	99.988040
1768.000000	99.999595
1767.000000	99.969903
1766.000000	99.963622
1765.000000	99.990675
1764.000000	100.014799
1763.000000	99.979226
1762.000000	100.007601
1761.000000	100.003447
1760.000000	99.979022
1759.000000	99.970005
1758.000000	99.983280
1757.000000	99.974256
1756.000000	99.999696
1755.000000	99.979226
1754.000000	99.980744
1753.000000	99.958668
1752.000000	99.964841
1751.000000	99.978216
1750.000000	99.998075
1749.000000	99.994325
1748.000000	99.980346
1747.000000	99.983384
1746.000000	99.999291
1745.000000	99.993919
1744.000000	100.015505
1743.000000	100.015711
1742.000000	99.962708
1741.000000	100.024625
1740.000000	100.026149
1739.000000	99.985003
1738.000000	100.001824
1737.000000	100.003547
1736.000000	100.000304
1735.000000	99.986626
1734.000000	100.013074
1733.000000	99.995440
1732.000000	100.014288
1731.000000	100.027468
1730.000000	99.993109
1729.000000	100.003951
1728.000000	99.957855
1727.000000	100.002837
1726.000000	100.000304
1725.000000	100.015201
1724.000000	99.987234
1723.000000	99.957452
1722.000000	99.960998
1721.000000	99.992301
1720.000000	99.958471
1719.000000	99.958465
1718.000000	99.958565
1717.000000	99.981968
1716.000000	99.997669
1715.000000	99.975181
1714.000000	99.993617
1713.000000	99.988450
1712.000000	100.001317
1711.000000	99.988448
1710.000000	99.964949
1709.000000	99.980752
1708.000000	99.974875
1707.000000	100.005370
1706.000000	100.005572
1705.000000	99.998784
1704.000000	100.046009
1703.000000	99.999899
1702.000000	99.982778
1701.000000	100.005675
1700.000000	100.015503
1699.000000	100.018341
1698.000000	100.005370
1697.000000	100.011450
1696.000000	99.965158
1695.000000	99.948037
1694.000000	99.986627
1693.000000	99.994833
1692.000000	99.975688
1691.000000	99.969721
1690.000000	99.971434
1689.000000	99.998480
1688.000000	100.001115
1687.000000	99.992705
1686.000000	99.997569
1685.000000	99.991694
1684.000000	99.978425
1683.000000	99.953106
1682.000000	99.978726
1681.000000	100.054512
1680.000000	100.000101
1679.000000	99.989059
1678.000000	100.012056
1677.000000	99.997873
1676.000000	99.999190
1675.000000	100.003546
1674.000000	99.995643
1673.000000	99.994833
1672.000000	99.988047
1671.000000	99.989970
1670.000000	99.978119
1669.000000	100.013368
1668.000000	100.015393
1667.000000	99.965275
1666.000000	99.992812
1665.000000	99.996253
1664.000000	100.008506
1663.000000	99.999696
1662.000000	100.016607
1661.000000	100.006886
1660.000000	100.014785
1659.000000	100.009214
1658.000000	100.012759
1657.000000	99.993418
1656.000000	99.974790
1655.000000	99.984308
1654.000000	99.995849
1653.000000	99.996355
1652.000000	99.972461
1651.000000	99.998178
1650.000000	100.027745
1649.000000	100.028357
1648.000000	99.992305
1647.000000	99.988559
1646.000000	100.002936
1645.000000	99.970539
1644.000000	99.976916
1643.000000	99.965880
1642.000000	99.994431
1641.000000	99.994634
1640.000000	100.008506
1639.000000	100.009012
1638.000000	99.986232
1637.000000	99.995140
1636.000000	100.009417
1635.000000	99.974992
1634.000000	99.985825
1633.000000	99.997975
1632.000000	100.014783
1631.000000	100.022077
1630.000000	100.002835
1629.000000	99.994937
1628.000000	100.005772
1627.000000	99.989571
1626.000000	99.997874
1625.000000	100.008202
1624.000000	99.994331
1623.000000	99.993217
1622.000000	99.989167
1621.000000	99.990180
1620.000000	99.995242
1619.000000	99.998583
1618.000000	99.999494
1617.000000	100.005265
1616.000000	99.989876
1615.000000	100.001215
1614.000000	99.990787
1613.000000	99.977626
1612.000000	99.987548
1611.000000	99.995951
1610.000000	99.986132
1609.000000	99.982792
1608.000000	99.982590
1607.000000	100.004758
1606.000000	100.004758
1605.000000	99.998785
1604.000000	99.993521
1603.000000	99.988865
1602.000000	100.003240
1601.000000	100.004151
1600.000000	99.994027
1599.000000	100.000911
1598.000000	100.000810
1597.000000	99.992813
1596.000000	99.999190
1595.000000	99.999393
1594.000000	99.999190
1593.000000	99.989776
1592.000000	99.992003
1591.000000	99.979452
1590.000000	99.991091
1589.000000	100.004455
1588.000000	99.984412
1587.000000	100.001417
1586.000000	100.017414
1585.000000	100.007897
1584.000000	100.008807
1583.000000	100.007795
1582.000000	99.994028
1581.000000	99.995242
1580.000000	99.983501
1579.000000	99.979657
1578.000000	99.994028
1577.000000	99.986133
1576.000000	99.981883
1575.000000	99.990992
1574.000000	99.990385
1573.000000	99.995749
1572.000000	99.974295
1571.000000	99.974901
1570.000000	99.987449
1569.000000	100.005466
1568.000000	100.001822
1567.000000	99.987958
1566.000000	99.985530
1565.000000	99.999798
1564.000000	100.003947
1563.000000	99.989678
1562.000000	99.985933
1561.000000	99.995142
1560.000000	100.003542
1559.000000	99.982999
1558.000000	99.989274
1557.000000	100.001822
1556.000000	99.980470
1555.000000	99.963171
1554.000000	99.984923
1553.000000	100.001214
1552.000000	100.006275
1551.000000	100.001417
1550.000000	99.986339
1549.000000	99.985631
1548.000000	100.003238
1547.000000	100.001720
1546.000000	100.011334
1545.000000	100.002226
1544.000000	99.990589
1543.000000	99.995750
1542.000000	99.990487
1541.000000	99.976727
1540.000000	99.965500
1539.000000	99.981483
1538.000000	99.989375
1537.000000	99.991703
1536.000000	99.989276
1535.000000	99.977540
1534.000000	99.980171
1533.000000	99.985229
1532.000000	99.992918
1531.000000	100.005464
1530.000000	100.000506
1529.000000	100.001821
1528.000000	99.986845
1527.000000	100.013968
1526.000000	99.995142
1525.000000	100.003846
1524.000000	99.997773
1523.000000	100.003340
1522.000000	99.995142
1521.000000	99.973590
1520.000000	99.967724
1519.000000	99.990994
1518.000000	99.990691
1517.000000	99.994839
1516.000000	100.005364
1515.000000	100.022874
1514.000000	100.015079
1513.000000	100.003137
1512.000000	99.953965
1511.000000	99.988160
1510.000000	100.016296
1509.000000	99.991298
1508.000000	99.986541
1507.000000	100.005870
1506.000000	99.974802
1505.000000	99.967623
1504.000000	99.985429
1503.000000	100.009311
1502.000000	99.978040
1501.000000	99.985528
1500.000000	99.988463
1499.000000	99.971665
1498.000000	100.007390
1497.000000	99.985024
1496.000000	99.983810
1495.000000	100.007287
1494.000000	99.995142
1493.000000	99.988768
1492.000000	99.978752
1491.000000	100.003744
1490.000000	99.984823
1489.000000	100.028134
1488.000000	99.997470
1487.000000	100.010625
1486.000000	99.982699
1485.000000	99.991907
1484.000000	99.992007
1483.000000	99.987960
1482.000000	99.994131
1481.000000	99.979565
1480.000000	99.980374
1479.000000	100.007892
1478.000000	99.998078
1477.000000	100.012242
1476.000000	100.005261
1475.000000	99.982603
1474.000000	99.995448
1473.000000	99.989885
1472.000000	99.993525
1471.000000	99.986647
1470.000000	99.998382
1469.000000	99.998179
1468.000000	99.974306
1467.000000	99.973197
1466.000000	99.983916
1465.000000	100.020641
1464.000000	99.985839
1463.000000	99.981693
1462.000000	99.932031
1461.000000	99.981087
1460.000000	100.001619
1459.000000	99.987760
1458.000000	99.983309
1457.000000	99.967839
1456.000000	100.029744
1455.000000	100.003338
1454.000000	99.996359
1453.000000	99.984626
1452.000000	99.991808
1451.000000	100.005159
1450.000000	100.004552
1449.000000	99.993426
1448.000000	99.958539
1447.000000	99.980786
1446.000000	100.007686
1445.000000	100.034901
1444.000000	99.999798
1443.000000	99.987864
1442.000000	99.984121
1441.000000	99.987460
1440.000000	99.993223
1439.000000	99.999595
1438.000000	100.019018
1437.000000	99.997067
1436.000000	99.989583
1435.000000	100.000809
1434.000000	99.997067
1433.000000	100.006675
1432.000000	100.016789
1431.000000	99.989685
1430.000000	99.999494
1429.000000	99.997978
1428.000000	99.997877
1427.000000	100.013247
1426.000000	99.985037
1425.000000	99.989991
1424.000000	100.004752
1423.000000	99.984735
1422.000000	99.996260
1421.000000	99.984534
1420.000000	99.995350
1419.000000	100.006267
1418.000000	99.967867
1417.000000	99.967874
1416.000000	99.982825
1415.000000	99.986866
1414.000000	99.993334
1413.000000	99.980812
1412.000000	99.981218
1411.000000	99.989195
1410.000000	99.968597
1409.000000	99.996365
1408.000000	99.992327
1407.000000	99.992832
1406.000000	99.996063
1405.000000	99.971439
1404.000000	99.975375
1403.000000	99.989100
1402.000000	99.973764
1401.000000	99.983150
1400.000000	99.982948
1399.000000	99.987589
1398.000000	99.988499
1397.000000	99.985675
1396.000000	99.993847
1395.000000	99.992032
1394.000000	99.976805
1393.000000	99.979529
1392.000000	99.988806
1391.000000	99.976203
1390.000000	99.973989
1389.000000	99.998992
1388.000000	100.011699
1387.000000	99.994252
1386.000000	99.983867
1385.000000	99.971869
1384.000000	100.001109
1383.000000	100.001311
1382.000000	99.980943
1381.000000	100.016337
1380.000000	100.012404
1379.000000	99.969148
1378.000000	99.964303
1377.000000	99.980538
1376.000000	99.977716
1375.000000	99.972979
1374.000000	100.001109
1373.000000	100.012706
1372.000000	99.976003
1371.000000	99.959674
1370.000000	99.961996
1369.000000	99.976309
1368.000000	99.987700
1367.000000	99.986189
1366.000000	99.989920
1365.000000	100.002016
1364.000000	100.002823
1363.000000	99.990323
1362.000000	99.988912
1361.000000	99.992339
1360.000000	99.993951
1359.000000	99.993648
1358.000000	99.970456
1357.000000	99.960979
1356.000000	99.984872
1355.000000	99.997074
1354.000000	100.010192
1353.000000	99.991928
1352.000000	99.962771
1351.000000	99.987284
1350.000000	100.011810
1349.000000	100.011104
1348.000000	100.004946
1347.000000	99.982434
1346.000000	99.989500
1345.000000	99.999091
1344.000000	99.989602
1343.000000	99.992730
1342.000000	99.984855
1341.000000	99.992832
1340.000000	100.000202
1339.000000	100.021909
1338.000000	100.004239
1337.000000	99.973959
1336.000000	99.970229
1335.000000	99.991219
1334.000000	99.987384
1333.000000	100.015749
1332.000000	100.003533
1331.000000	100.014535
1330.000000	100.001615
1329.000000	99.972148
1328.000000	99.974167
1327.000000	100.008579
1326.000000	99.986376
1325.000000	99.979718
1324.000000	100.023013
1323.000000	100.016954
1322.000000	99.991624
1321.000000	100.015342
1320.000000	100.025334
1319.000000	99.967909
1318.000000	100.019686
1317.000000	99.970632
1316.000000	99.972349
1315.000000	100.032103
1314.000000	100.006762
1313.000000	100.001110
1312.000000	99.957509
1311.000000	99.974769
1310.000000	99.985263
1309.000000	100.014842
1308.000000	100.010600
1307.000000	100.000404
1306.000000	99.970318
1305.000000	100.004443
1304.000000	100.004543
1303.000000	99.991116
1302.000000	99.992530
1301.000000	99.951950
1300.000000	99.998889
1299.000000	99.984656
1298.000000	99.997375
1297.000000	100.002120
1296.000000	99.993337
1295.000000	100.022008
1294.000000	99.980722
1293.000000	99.970832
1292.000000	99.996972
1291.000000	99.980723
1290.000000	99.972857
1289.000000	99.977598
1288.000000	99.978405
1287.000000	100.002018
1286.000000	100.022807
1285.000000	100.002927
1284.000000	99.997275
1283.000000	100.003734
1282.000000	99.982448
1281.000000	99.971454
1280.000000	99.984062
1279.000000	99.981141
1278.000000	99.974785
1277.000000	99.985475
1276.000000	100.006858
1275.000000	100.011598
1274.000000	100.005546
1273.000000	99.990119
1272.000000	99.999496
1271.000000	100.007663
1270.000000	100.011696
1269.000000	100.011695
1268.000000	99.959780
1267.000000	99.983267
1266.000000	99.971577
1265.000000	100.023292
1264.000000	100.003124
1263.000000	99.983170
1262.000000	99.950718
1261.000000	99.982666
1260.000000	100.006552
1259.000000	100.030046
1258.000000	99.992441
1257.000000	99.975914
1256.000000	100.019352
1255.000000	99.983671
1254.000000	99.954150
1253.000000	99.963017
1252.000000	99.986294
1251.000000	99.998488
1250.000000	99.963016
1249.000000	99.980450
1248.000000	99.970574
1247.000000	99.961406
1246.000000	99.962520
1245.000000	99.972794
1244.000000	99.973094
1243.000000	99.991636
1242.000000	99.992947
1241.000000	99.979852
1240.000000	99.985091
1239.000000	99.974917
1238.000000	99.991437
1237.000000	99.998086
1236.000000	100.002115
1235.000000	99.988419
1234.000000	100.010776
1233.000000	100.007855
1232.000000	99.993356
1231.000000	100.000503
1230.000000	99.976547
1229.000000	99.978361
1228.000000	99.993560
1227.000000	99.972129
1226.000000	99.982694
1225.000000	100.006641
1224.000000	99.971132
1223.000000	99.978777
1222.000000	99.977170
1221.000000	99.980993
1220.000000	99.991754
1219.000000	99.979789
1218.000000	99.982406
1217.000000	99.983713
1216.000000	99.978888
1215.000000	99.995175
1214.000000	100.018200
1213.000000	99.979495
1212.000000	99.973968
1211.000000	99.978185
1210.000000	100.036500
1209.000000	99.992764
1208.000000	99.973265
1207.000000	100.021614
1206.000000	99.983518
1205.000000	99.978192
1204.000000	100.007035
1203.000000	100.003418
1202.000000	99.950056
1201.000000	99.994071
1200.000000	100.009651
1199.000000	100.002513
1198.000000	99.976990
1197.000000	99.959708
1196.000000	99.994875
1195.000000	99.996182
1194.000000	100.001306
1193.000000	100.010753
1192.000000	100.011858
1191.000000	99.996784
1190.000000	99.987539
1189.000000	99.976385
1188.000000	99.983320
1187.000000	99.996081
1186.000000	99.984426
1185.000000	99.989250
1184.000000	99.990757
1183.000000	99.975291
1182.000000	99.996585
1181.000000	99.990458
1180.000000	99.989655
1179.000000	99.984936
1178.000000	99.997389
1177.000000	99.992972
1176.000000	99.971088
1175.000000	99.968981
1174.000000	99.992270
1173.000000	99.996687
1172.000000	99.995985
1171.000000	99.984845
1170.000000	99.979127
1169.000000	99.986754
1168.000000	99.997090
1167.000000	99.991272
1166.000000	99.981040
1165.000000	99.986960
1164.000000	99.990270
1163.000000	100.001705
1162.000000	99.996891
1161.000000	99.980751
1160.000000	99.982557
1159.000000	99.993684
1158.000000	99.990578
1157.000000	99.988675
1156.000000	99.995791
1155.000000	99.989177
1154.000000	99.974352
1153.000000	100.000301
1152.000000	100.004609
1151.000000	99.989983
1150.000000	99.978869
1149.000000	99.963855
1148.000000	99.979574
1147.000000	100.005007
1146.000000	100.011714
1145.000000	99.999800
1144.000000	100.006806
1143.000000	99.996197
1142.000000	99.981089
1141.000000	99.994797
1140.000000	99.996899
1139.000000	99.968097
1138.000000	99.962399
1137.000000	99.987899
1136.000000	100.001200
1135.000000	99.992101
1134.000000	99.988303
1133.000000	99.998001
1132.000000	100.018592
1131.000000	100.017989
1130.000000	100.001799
1129.000000	99.993506
1128.000000	99.994506
1127.000000	100.020678
1126.000000	100.017180
1125.000000	99.984521
1124.000000	99.982526
1123.000000	99.985223
1122.000000	100.000100
1121.000000	99.972851
1120.000000	99.965270
1119.000000	99.973956
1118.000000	99.974457
1117.000000	99.969573
1116.000000	99.970971
1115.000000	100.003092
1114.000000	100.004887
1113.000000	99.987536
1112.000000	100.005085
1111.000000	99.993818
1110.000000	99.993320
1109.000000	100.001994
1108.000000	100.005682
1107.000000	100.003389
1106.000000	100.003787
1105.000000	100.005580
1104.000000	99.983564
1103.000000	99.982172
1102.000000	99.991834
1101.000000	99.995918
1100.000000	99.974719
1099.000000	99.977706
1098.000000	99.992934
1097.000000	100.007365
1096.000000	99.984976
1095.000000	99.987565
1094.000000	99.988164
1093.000000	100.020091
1092.000000	100.000597
1091.000000	100.010538
1090.000000	99.996223
1089.000000	99.995130
1088.000000	99.987481
1087.000000	99.991059
1086.000000	99.983712
1085.000000	99.982326
1084.000000	99.982526
1083.000000	99.996228
1082.000000	100.008735
1081.000000	100.003077
1080.000000	99.997023
1079.000000	100.008432
1078.000000	99.982248
1077.000000	99.987109
1076.000000	99.988300
1075.000000	99.965007
1074.000000	99.972946
1073.000000	99.999207
1072.000000	100.014763
1071.000000	99.992770
1070.000000	99.992473
1069.000000	100.005743
1068.000000	99.993763
1067.000000	99.986937
1066.000000	99.985851
1065.000000	99.983182
1064.000000	99.990307
1063.000000	99.971918
1062.000000	99.974592
1061.000000	99.989423
1060.000000	99.975489
1059.000000	100.008796
1058.000000	100.001185
1057.000000	99.987458
1056.000000	99.984994
1055.000000	100.003060
1054.000000	99.978880
1053.000000	99.992599
1052.000000	99.990629
1051.000000	100.016374
1050.000000	99.978700
1049.000000	99.986592
1048.000000	99.982754
1047.000000	99.972418
1046.000000	99.968285
1045.000000	99.987689
1044.000000	99.975385
1043.000000	100.001772
1042.000000	99.989962
1041.000000	99.985735
1040.000000	100.012101
1039.000000	99.999017
1038.000000	100.002654
1037.000000	99.977299
1036.000000	100.000197
1035.000000	100.000786
1034.000000	99.994205
1033.000000	100.010801
1032.000000	99.998920
1031.000000	99.999019
1030.000000	99.962533
1029.000000	99.989703
1028.000000	99.987745
1027.000000	99.973441
1026.000000	99.998334
1025.000000	100.000196
1024.000000	99.987465
1023.000000	99.996476
1022.000000	99.982581
1021.000000	99.989924
1020.000000	100.001858
1019.000000	99.988755
1018.000000	99.995602
1017.000000	99.993453
1016.000000	99.999707
1015.000000	99.990724
1014.000000	99.996291
1013.000000	99.979800
1012.000000	99.981369
1011.000000	100.000683
1010.000000	99.977092
1009.000000	99.984799
1008.000000	99.968537
1007.000000	99.987341
1006.000000	99.972549
1005.000000	99.992993
1004.000000	100.015469
1003.000000	99.979580
1002.000000	99.968702
1001.000000	99.985133
1000.000000	99.996309
999.000000	99.986408
998.000000	99.985345
997.000000	99.988260
996.000000	99.976144
995.000000	99.978673
994.000000	99.992538
993.000000	99.991379
992.000000	99.988380
991.000000	99.997387
990.000000	99.988004
989.000000	99.988298
988.000000	100.004254
987.000000	100.003769
986.000000	100.004927
985.000000	100.007339
984.000000	99.992761
983.000000	99.987264
982.000000	100.010610
981.000000	100.007425
980.000000	99.983232
979.000000	99.990849
978.000000	100.004911
977.000000	99.992204
976.000000	99.994324
975.000000	99.992788
974.000000	99.987409
973.000000	99.996829
972.000000	99.998079
971.000000	99.998080
970.000000	100.002974
969.000000	99.998945
968.000000	99.986487
967.000000	99.973853
966.000000	99.972716
965.000000	99.986985
964.000000	99.975130
963.000000	99.990630
962.000000	99.988532
961.000000	99.978032
960.000000	99.995704
959.000000	99.981490
958.000000	99.973206
957.000000	99.982464
956.000000	100.000572
955.000000	99.997810
954.000000	99.985347
953.000000	99.984977
952.000000	99.978336
951.000000	99.973124
950.000000	99.970386
949.000000	99.959113
948.000000	99.967004
947.000000	99.995357
946.000000	99.991950
945.000000	99.976718
944.000000	99.974653
943.000000	99.972404
942.000000	99.977519
941.000000	99.978192
940.000000	99.991131
939.000000	99.986142
938.000000	99.962790
937.000000	99.975707
936.000000	99.977890
935.000000	99.980068
934.000000	100.004135
933.000000	99.993051
932.000000	99.986768
931.000000	100.004220
930.000000	99.994752
929.000000	99.975278
928.000000	99.976420
927.000000	100.011785
926.000000	100.000000
925.000000	99.981323
924.000000	99.991976
923.000000	99.982477
922.000000	99.966470
921.000000	99.981009
920.000000	99.988187
919.000000	99.952605
918.000000	99.946969
917.000000	99.971600
916.000000	99.989612
915.000000	99.989619
914.000000	99.973336
913.000000	99.976132
912.000000	99.988814
911.000000	100.003788
910.000000	99.974715
909.000000	99.931974
908.000000	99.959563
907.000000	99.902649
906.000000	99.926328
905.000000	99.930890
904.000000	99.934269
903.000000	100.005413
902.000000	100.028055
901.000000	99.963555
900.000000	100.011071
899.000000	100.030261
898.000000	100.019454
897.000000	99.986309
896.000000	100.024523
895.000000	99.993533
894.000000	99.930755
893.000000	99.959101
892.000000	99.898953
891.000000	99.954887
890.000000	100.010609
889.000000	99.961142
888.000000	100.004888
887.000000	100.007056
886.000000	100.025845
885.000000	100.072965
884.000000	100.133574
883.000000	100.054062
882.000000	99.965626
881.000000	99.897293
880.000000	99.970546
879.000000	99.902121
878.000000	99.910992
877.000000	99.994089
876.000000	99.919491
875.000000	99.964059
874.000000	100.000447
873.000000	99.877881
872.000000	99.843683
871.000000	100.051163
870.000000	99.969208
869.000000	100.079899
868.000000	99.959840
867.000000	99.953594
866.000000	100.051534
865.000000	99.993708
864.000000	99.966086
863.000000	99.888591
862.000000	100.017755
861.000000	99.826983
860.000000	100.003000
859.000000	100.051689
858.000000	100.428351
857.000000	100.449356
856.000000	100.332633
855.000000	99.859420
854.000000	99.873986
853.000000	99.705099
852.000000	99.682500
851.000000	100.280869
850.000000	100.224071
849.000000	100.491988
848.000000	99.784904
847.000000	100.199686
846.000000	100.124519
845.000000	100.265652
844.000000	99.868814
843.000000	100.052063
842.000000	100.189118
841.000000	100.022446
840.000000	99.827735
839.000000	100.114460
838.000000	99.755076
837.000000	99.885434
836.000000	100.058301
835.000000	99.968383
834.000000	100.196657
833.000000	99.892942
832.000000	99.952594
831.000000	99.937036
830.000000	99.846428
829.000000	99.932927
828.000000	99.814043
827.000000	100.030947
826.000000	100.235378
825.000000	99.925751
824.000000	99.729264
823.000000	99.652523
822.000000	99.927521
821.000000	100.168770
820.000000	99.890821
819.000000	99.862988
818.000000	99.825459
817.000000	100.044158
816.000000	99.938431
815.000000	99.982139
814.000000	100.172538
813.000000	99.833915
812.000000	99.853131
811.000000	100.014014
810.000000	100.090813
809.000000	100.071313
808.000000	100.059907
807.000000	100.086599
806.000000	99.934824
805.000000	100.046637
804.000000	100.001053
803.000000	100.104085
802.000000	99.945068
801.000000	100.084355
800.000000	100.135080
799.000000	99.817836
798.000000	100.087101
797.000000	99.789500
796.000000	100.060287
795.000000	100.093134
794.000000	100.001409
793.000000	100.078307
792.000000	99.993301
791.000000	99.938836
790.000000	99.943212
789.000000	100.003356
788.000000	99.818191
787.000000	99.876777
786.000000	99.900677
785.000000	100.007426
784.000000	99.915181
783.000000	99.887094
782.000000	99.871693
781.000000	99.828511
780.000000	100.059078
779.000000	99.881309
778.000000	99.927510
777.000000	99.958057
776.000000	99.868992
775.000000	100.004706
774.000000	99.983827
773.000000	100.054569
772.000000	99.956339
771.000000	99.916750
770.000000	100.012022
769.000000	99.991719
768.000000	100.041692
767.000000	100.032893
766.000000	100.046030
765.000000	100.133561
764.000000	99.964586
763.000000	100.003482
762.000000	99.939794
761.000000	99.975432
760.000000	99.948159
759.000000	99.878071
758.000000	99.837822
757.000000	99.959908
756.000000	100.046126
755.000000	100.067737
754.000000	100.050061
753.000000	99.919564
752.000000	99.940453
751.000000	99.945459
750.000000	99.973343
749.000000	99.943851
748.000000	100.025537
747.000000	99.871761
746.000000	99.890033
745.000000	100.028596
744.000000	100.035631
743.000000	99.913541
742.000000	99.917891
741.000000	99.998738
740.000000	100.037495
739.000000	100.027587
738.000000	99.963114
737.000000	99.946151
736.000000	99.882120
735.000000	99.965063
734.000000	99.980860
733.000000	99.999187
732.000000	100.057836
731.000000	99.980468
730.000000	99.905158
729.000000	99.856446
728.000000	99.853434
727.000000	99.906283
726.000000	99.962790
725.000000	100.011417
724.000000	99.942749
723.000000	99.919800
722.000000	99.932984
721.000000	99.993559
720.000000	99.981408
719.000000	99.983406
718.000000	99.948829
717.000000	99.916200
716.000000	99.886069
715.000000	99.934520
714.000000	99.974652
713.000000	100.010451
712.000000	99.968733
711.000000	99.965174
710.000000	100.020645
709.000000	100.057774
708.000000	99.981347
707.000000	99.889067
706.000000	99.947813
705.000000	99.959285
704.000000	99.937711
703.000000	99.975036
702.000000	100.010481
701.000000	99.982587
700.000000	99.999909
699.000000	100.012867
698.000000	100.042352
697.000000	100.033770
696.000000	100.039066
695.000000	99.992241
694.000000	99.881248
693.000000	99.949868
692.000000	99.970038
691.000000	99.948013
690.000000	99.980717
689.000000	100.052721
688.000000	100.001096
687.000000	99.904589
686.000000	99.981177
685.000000	99.989397
684.000000	99.971397
683.000000	99.940529
682.000000	99.831069
681.000000	99.884083
680.000000	99.973214
679.000000	100.071799
678.000000	100.039175
677.000000	99.991486
676.000000	100.039770
675.000000	100.018138
674.000000	100.019509
673.000000	100.047717
672.000000	100.015385
671.000000	99.992216
670.000000	99.956294
669.000000	99.968648
668.000000	99.914950
667.000000	99.956929
666.000000	99.957265
665.000000	99.995230
664.000000	99.912450
663.000000	99.999725
662.000000	100.031013
661.000000	99.944127
660.000000	100.003395
659.000000	99.945337
658.000000	99.951726
657.000000	100.034636
656.000000	100.032329
655.000000	99.966655
654.000000	99.949116
653.000000	100.058921
652.000000	100.070901
651.000000	100.031070
650.000000	100.050824
649.000000	100.026663
648.000000	100.048922
647.000000	99.955141
646.000000	99.852306
645.000000	99.998436
644.000000	99.974695
643.000000	100.000092
642.000000	99.973042
641.000000	99.985921
640.000000	99.957390
639.000000	99.941727
638.000000	99.982511
637.000000	99.968245
636.000000	99.935466
635.000000	99.988122
634.000000	99.990882
633.000000	99.904180
632.000000	99.951360
631.000000	100.010232
630.000000	100.044886
629.000000	99.993273
628.000000	99.981101
627.000000	100.021220
626.000000	99.949830
625.000000	99.953987
624.000000	100.027946
623.000000	100.039402
622.000000	100.053895
621.000000	100.029270
620.000000	100.007844
619.000000	99.964552
618.000000	99.946198
617.000000	100.060754
616.000000	99.962523
615.000000	100.026330
614.000000	99.943211
613.000000	99.872459
612.000000	99.955138
611.000000	100.029190
610.000000	99.985772
609.000000	100.025705
608.000000	100.047589
607.000000	99.924441
606.000000	99.961201
605.000000	99.986043
604.000000	100.001387
603.000000	100.049837
602.000000	100.009150
601.000000	100.013501
600.000000	100.042889
599.000000	99.920588
598.000000	99.949241
597.000000	99.963368
596.000000	99.957746
595.000000	99.986035
594.000000	100.010915
593.000000	100.010728
592.000000	99.951907
591.000000	100.024525
590.000000	99.989087
589.000000	99.947092
588.000000	100.035539
587.000000	99.933991
586.000000	100.028511
585.000000	99.984542
584.000000	99.958636
583.000000	100.022685
582.000000	99.940205
581.000000	99.971490
580.000000	100.005462
579.000000	99.983520
578.000000	99.943717
577.000000	99.906363
576.000000	100.030464
575.000000	100.036128
574.000000	99.898857
573.000000	99.965726
572.000000	100.026580
571.000000	100.038437
570.000000	100.030943
569.000000	100.038075
568.000000	99.986101
567.000000	99.937836
566.000000	100.027610
565.000000	100.027332
564.000000	100.009084
563.000000	100.014829
562.000000	99.921730
561.000000	99.997127
560.000000	99.933299
559.000000	100.007880
558.000000	99.933018
557.000000	99.945987
556.000000	100.025390
555.000000	99.936913
554.000000	99.983416
553.000000	99.978402
552.000000	99.981744
551.000000	100.012329
550.000000	100.015017
549.000000	99.989435
548.000000	99.933613
547.000000	99.951606
546.000000	99.944651
545.000000	99.942136
544.000000	100.020682
543.000000	100.011595
542.000000	100.023662
541.000000	100.009556
540.000000	100.010854
539.000000	99.983022
538.000000	100.045082
537.000000	100.017815
536.000000	99.961031
535.000000	99.994524
534.000000	99.975414
533.000000	99.988864
532.000000	100.011789
531.000000	100.014202
530.000000	100.039917
529.000000	99.983014
528.000000	99.939501
527.000000	99.960650
526.000000	100.042058
525.000000	100.041689
524.000000	99.932150
523.000000	99.990345
522.000000	99.950992
521.000000	99.984034
520.000000	100.018017
519.000000	99.960831
518.000000	99.995356
517.000000	99.968419
516.000000	99.991827
515.000000	99.970375
514.000000	99.977800
513.000000	99.943906
512.000000	99.926443
511.000000	99.946029
510.000000	100.002323
509.000000	100.015890
508.000000	99.962943
507.000000	99.899707
506.000000	99.975469
505.000000	99.992844
504.000000	99.957450
503.000000	99.951230
502.000000	100.002323
501.000000	100.001951
500.000000	99.944999
499.000000	99.929030
498.000000	99.949747
497.000000	99.962931
496.000000	100.019881
495.000000	99.996191
494.000000	99.972028
493.000000	99.992381
492.000000	100.040701
491.000000	100.056708
490.000000	100.076896
489.000000	100.054389
488.000000	100.048734
487.000000	100.043512
486.000000	100.052986
485.000000	99.987361
484.000000	99.968671
483.000000	99.937209
482.000000	99.979808
481.000000	100.027933
480.000000	100.007727
479.000000	99.973279
478.000000	99.973645
477.000000	99.953983
476.000000	99.921541
475.000000	99.953952
474.000000	99.986767
473.000000	99.958626
472.000000	100.001678
471.000000	100.005408
470.000000	99.972208
469.000000	99.958685
468.000000	99.915533
467.000000	99.976127
466.000000	100.059520
465.000000	100.036759
464.000000	99.976396
463.000000	99.952602
462.000000	99.920261
461.000000	99.940401
460.000000	100.004758
459.000000	100.050208
458.000000	100.087298
457.000000	100.014465
456.000000	99.926401
455.000000	99.910803
454.000000	99.964066
453.000000	99.956322
452.000000	99.912447
451.000000	99.901225
450.000000	99.932895
449.000000	99.988238
448.000000	100.013728
447.000000	100.003736
446.000000	100.033999
445.000000	100.017462
444.000000	99.882399
443.000000	99.872867
442.000000	100.005792
441.000000	99.992431
440.000000	99.912371
439.000000	99.902645
438.000000	99.903592
437.000000	99.971592
436.000000	100.032814
435.000000	100.005514
434.000000	99.976626
433.000000	100.024408
432.000000	100.002806
431.000000	100.023948
430.000000	100.118555
429.000000	100.083827
428.000000	100.025364
427.000000	99.967534
426.000000	100.056420
425.000000	100.010385
424.000000	99.941344
423.000000	99.967431
422.000000	99.942802
421.000000	100.007117
420.000000	99.971447
419.000000	99.990825
418.000000	100.016861
417.000000	99.938949
416.000000	99.896822
415.000000	99.962543
414.000000	100.021079
413.000000	99.953542
412.000000	100.030078
411.000000	100.044979
410.000000	99.999063
409.000000	100.005341
408.000000	99.978078
407.000000	99.972465
406.000000	100.058493
405.000000	99.979296
404.000000	100.069206
403.000000	100.112579
402.000000	100.087549
401.000000	99.992594
400.000000	99.997280
399.000000	99.978341
398.000000	99.997374
397.000000	100.025972
396.000000	99.967672
395.000000	99.945842
394.000000	100.001874
393.000000	99.933985
392.000000	99.929380
391.000000	99.996624
390.000000	100.052307
389.000000	99.966255
388.000000	100.034978
387.000000	100.095822
386.000000	99.872298
385.000000	99.954252
384.000000	100.043145
383.000000	100.046703
382.000000	100.042371
381.000000	99.946456
380.000000	99.890162
379.000000	99.956235
378.000000	99.849734
377.000000	100.077709
376.000000	100.285952
375.000000	99.932652
374.000000	99.991587
373.000000	99.942706
372.000000	99.981213
371.000000	99.862578
370.000000	100.082161
369.000000	100.006730
368.000000	99.969248
367.000000	100.055959
366.000000	100.130908
365.000000	100.077397
364.000000	100.004300
363.000000	100.040692
362.000000	100.162304
361.000000	100.103145
360.000000	100.034601
359.000000	100.123713
358.000000	100.210852
357.000000	100.238569
356.000000	100.116432
355.000000	99.962560
354.000000	100.080313
353.000000	100.049284
352.000000	100.036302
351.000000	100.150639
350.000000	100.006439
349.000000	100.086245
348.000000	100.012497
347.000000	100.155646
346.000000	100.200499
345.000000	100.095370
344.000000	99.947692
343.000000	100.332694
342.000000	99.861797
341.000000	100.049477
340.000000	100.128450
339.000000	100.214126
338.000000	99.738758
337.000000	99.855358
336.000000	100.050883
335.000000	99.745176
334.000000	100.040812
333.000000	100.163957
332.000000	99.640197
331.000000	100.058403
330.000000	100.006602
329.000000	99.732554
328.000000	100.346571
327.000000	99.807612
326.000000	99.992669
325.000000	100.090377
324.000000	99.969573
323.000000	100.044472
322.000000	100.329844
321.000000	100.009858
320.000000	99.968121
319.000000	99.845038
318.000000	100.226624
317.000000	99.888533
316.000000	100.184757
315.000000	100.241109
314.000000	99.824551
313.000000	100.113750
312.000000	100.171380
311.000000	100.062496
310.000000	99.718714
309.000000	100.078452
308.000000	99.949450
307.000000	100.290620
306.000000	99.820609
305.000000	100.184398
304.000000	100.061805
303.000000	99.694279
302.000000	99.857710
301.000000	100.158230
300.000000	99.893520
299.000000	99.972292
298.000000	99.877410
297.000000	99.717942
296.000000	99.951000
295.000000	100.093661
294.000000	99.938837
293.000000	99.803694
292.000000	100.232602
291.000000	99.829872
290.000000	99.975091
289.000000	100.405529
288.000000	99.967934
287.000000	99.812841
286.000000	100.140135
285.000000	100.182447
284.000000	99.975354
283.000000	100.219921
282.000000	99.999536
281.000000	100.337101
280.000000	100.026405
279.000000	99.931762
278.000000	99.948537
277.000000	100.043388
276.000000	100.115543
275.000000	100.092008
274.000000	99.870570
273.000000	99.907465
272.000000	99.990805
271.000000	100.009116
270.000000	100.157359
269.000000	100.336458
268.000000	100.128005
267.000000	100.093290
266.000000	100.220283
265.000000	100.102301
264.000000	99.827095
263.000000	99.744825
262.000000	99.905203
261.000000	99.953158
260.000000	100.116275
259.000000	100.098341
258.000000	99.969658
257.000000	100.068920
256.000000	100.101090
255.000000	99.965636
254.000000	99.944436
253.000000	100.113261
252.000000	99.905503
251.000000	100.185887
250.000000	100.136434
249.000000	100.077121
248.000000	100.179788
247.000000	100.057910
246.000000	99.990963
245.000000	99.971983
244.000000	100.039118
243.000000	100.179324
242.000000	100.007958
241.000000	99.935655
240.000000	99.933179
239.000000	99.949941
238.000000	99.727322
237.000000	99.784927
236.000000	100.061616
235.000000	100.077729
234.000000	99.990292
233.000000	100.123035
232.000000	100.173013
231.000000	100.069325
230.000000	99.940022
229.000000	100.194164
228.000000	99.974494
227.000000	99.815678
226.000000	100.095707
225.000000	100.609546
224.000000	100.324957
223.000000	99.790058
222.000000	99.714777
221.000000	100.020672
220.000000	100.126911
219.000000	100.132528
218.000000	100.045600
217.000000	99.608163
216.000000	99.672789
215.000000	99.841166
214.000000	100.149229
213.000000	100.164868
212.000000	99.986302
211.000000	99.913151
210.000000	99.707904
209.000000	100.186356
208.000000	99.945630
207.000000	99.481848
206.000000	99.440522
205.000000	100.211121
204.000000	99.635619
203.000000	99.076100
202.000000	99.647053
201.000000	100.389480
200.000000	100.349721
