PE UV       SUBTECH     SPECTRUM    ASCII       PEDS        4.00        
   -1
TTVeauAl 22.Sample.asc
18/02/28
11:43:57.00
18/02/28
11:43:57.00
Administrator

200.000000
1
Lambda 750
750N8071901
PerkinElmer UV WinLab 6.0.4.0738 / 1.61.00 Lambda 900

0
0
3350/servo 860.8/2
0
0
UV/VIS
1
1
1
CommonBeamDepol,150mm sphere / downward view
0
0
0
0
Program
Program
3350/servo 860.8/2
3350/0.2 860.8/0.2
3350/0.2 860.8/0.2
0
1
 
 
 
0
 
860.8
319.2
860.8
Front
100
on
 
 
0
0
0
 
0
 
 
 
0
 
 
0
0
0
0
0
 
 
 
 
0
0


0
0
#HDR
-1
-1
#GR
nm
%T
1.0
0.0
2350.000000
-1.000000
2151
8
35.160049
0.053852
#DATA
2350.000000	6.581474
2349.000000	7.192984
2348.000000	6.675990
2347.000000	7.052735
2346.000000	7.166732
2345.000000	6.738344
2344.000000	6.710693
2343.000000	6.303308
2342.000000	6.628748
2341.000000	6.902421
2340.000000	6.462902
2339.000000	6.835962
2338.000000	7.110630
2337.000000	7.134238
2336.000000	7.063057
2335.000000	7.467322
2334.000000	7.230957
2333.000000	7.573333
2332.000000	7.636112
2331.000000	7.449161
2330.000000	7.184672
2329.000000	7.329211
2328.000000	7.320149
2327.000000	7.262797
2326.000000	7.164006
2325.000000	7.369185
2324.000000	6.991192
2323.000000	7.255951
2322.000000	7.058504
2321.000000	6.954168
2320.000000	6.869470
2319.000000	7.293486
2318.000000	7.194151
2317.000000	7.037630
2316.000000	6.814312
2315.000000	6.728309
2314.000000	6.966012
2313.000000	6.738702
2312.000000	6.681781
2311.000000	6.758504
2310.000000	6.581103
2309.000000	6.761391
2308.000000	6.559189
2307.000000	6.518075
2306.000000	6.526249
2305.000000	6.715231
2304.000000	6.394236
2303.000000	6.501705
2302.000000	6.482121
2301.000000	6.453596
2300.000000	6.439308
2299.000000	6.262143
2298.000000	6.089748
2297.000000	5.955536
2296.000000	6.122002
2295.000000	6.147774
2294.000000	6.118664
2293.000000	6.067116
2292.000000	5.970769
2291.000000	6.050666
2290.000000	6.070446
2289.000000	5.982031
2288.000000	5.948869
2287.000000	6.007027
2286.000000	6.040419
2285.000000	5.813296
2284.000000	5.779910
2283.000000	5.755473
2282.000000	5.776581
2281.000000	5.932483
2280.000000	5.754745
2279.000000	5.838012
2278.000000	5.852758
2277.000000	5.821522
2276.000000	5.826051
2275.000000	5.853327
2274.000000	5.880427
2273.000000	5.903392
2272.000000	6.058320
2271.000000	6.087466
2270.000000	5.964147
2269.000000	5.959469
2268.000000	5.873589
2267.000000	6.010098
2266.000000	6.252694
2265.000000	6.367005
2264.000000	6.334866
2263.000000	6.361535
2262.000000	6.429365
2261.000000	6.438655
2260.000000	6.535611
2259.000000	6.683835
2258.000000	6.790416
2257.000000	6.791572
2256.000000	6.812546
2255.000000	6.916455
2254.000000	7.123247
2253.000000	7.215394
2252.000000	7.252976
2251.000000	7.510263
2250.000000	7.650953
2249.000000	7.680353
2248.000000	7.892814
2247.000000	8.038552
2246.000000	8.004088
2245.000000	8.097718
2244.000000	8.129262
2243.000000	8.195035
2242.000000	8.440624
2241.000000	8.589740
2240.000000	8.599136
2239.000000	8.514350
2238.000000	8.559556
2237.000000	8.691104
2236.000000	8.791870
2235.000000	8.865384
2234.000000	8.923155
2233.000000	8.965956
2232.000000	8.895783
2231.000000	8.864314
2230.000000	8.965622
2229.000000	8.985369
2228.000000	9.102318
2227.000000	9.203028
2226.000000	9.191401
2225.000000	9.103184
2224.000000	9.146916
2223.000000	9.107885
2222.000000	9.082365
2221.000000	9.017042
2220.000000	8.990607
2219.000000	9.015698
2218.000000	9.103774
2217.000000	9.070592
2216.000000	8.982530
2215.000000	8.919075
2214.000000	9.014817
2213.000000	9.032166
2212.000000	8.935595
2211.000000	8.751489
2210.000000	8.688547
2209.000000	8.717113
2208.000000	8.589044
2207.000000	8.595608
2206.000000	8.708778
2205.000000	8.600488
2204.000000	8.541833
2203.000000	8.443151
2202.000000	8.437879
2201.000000	8.398897
2200.000000	8.372140
2199.000000	8.188875
2198.000000	8.154778
2197.000000	8.145325
2196.000000	8.172358
2195.000000	8.183084
2194.000000	8.088510
2193.000000	7.897338
2192.000000	8.005694
2191.000000	7.942905
2190.000000	7.855704
2189.000000	7.806061
2188.000000	7.825540
2187.000000	7.781031
2186.000000	7.789186
2185.000000	7.682641
2184.000000	7.581214
2183.000000	7.506670
2182.000000	7.657150
2181.000000	7.611990
2180.000000	7.536493
2179.000000	7.584670
2178.000000	7.575965
2177.000000	7.626060
2176.000000	7.736134
2175.000000	7.740701
2174.000000	7.562886
2173.000000	7.564852
2172.000000	7.625951
2171.000000	7.543478
2170.000000	7.729825
2169.000000	7.647688
2168.000000	7.924987
2167.000000	7.998356
2166.000000	7.926638
2165.000000	7.821018
2164.000000	7.830882
2163.000000	7.826375
2162.000000	7.907708
2161.000000	8.205875
2160.000000	8.150695
2159.000000	8.196007
2158.000000	8.216815
2157.000000	8.308285
2156.000000	8.479418
2155.000000	8.573411
2154.000000	8.539591
2153.000000	8.744040
2152.000000	8.808732
2151.000000	8.686399
2150.000000	8.867235
2149.000000	8.908610
2148.000000	9.076222
2147.000000	9.211526
2146.000000	9.293015
2145.000000	9.275770
2144.000000	9.396848
2143.000000	9.390672
2142.000000	9.525303
2141.000000	9.474546
2140.000000	9.607463
2139.000000	9.678560
2138.000000	9.909801
2137.000000	9.964770
2136.000000	9.905932
2135.000000	9.933888
2134.000000	10.280326
2133.000000	9.981990
2132.000000	10.246013
2131.000000	10.355804
2130.000000	10.443230
2129.000000	10.385773
2128.000000	10.214822
2127.000000	10.344394
2126.000000	10.289312
2125.000000	10.384765
2124.000000	10.288528
2123.000000	10.574098
2122.000000	10.665182
2121.000000	10.507136
2120.000000	10.635236
2119.000000	10.538821
2118.000000	10.653109
2117.000000	10.642888
2116.000000	10.883546
2115.000000	10.890305
2114.000000	10.875552
2113.000000	10.921672
2112.000000	10.896822
2111.000000	10.871825
2110.000000	10.944424
2109.000000	10.912930
2108.000000	10.922077
2107.000000	10.961048
2106.000000	10.939465
2105.000000	10.972185
2104.000000	11.010171
2103.000000	11.024486
2102.000000	10.999796
2101.000000	11.203537
2100.000000	11.229020
2099.000000	11.069586
2098.000000	11.021003
2097.000000	11.080537
2096.000000	11.015874
2095.000000	11.026890
2094.000000	11.102356
2093.000000	11.014774
2092.000000	11.073628
2091.000000	11.118871
2090.000000	11.081740
2089.000000	11.131645
2088.000000	11.037126
2087.000000	11.056562
2086.000000	11.107458
2085.000000	11.132785
2084.000000	11.053264
2083.000000	11.007108
2082.000000	10.913559
2081.000000	10.859256
2080.000000	10.829656
2079.000000	10.848631
2078.000000	10.752774
2077.000000	10.722276
2076.000000	10.680592
2075.000000	10.617532
2074.000000	10.517489
2073.000000	10.507074
2072.000000	10.470477
2071.000000	10.304186
2070.000000	10.255071
2069.000000	10.173533
2068.000000	10.042611
2067.000000	9.949977
2066.000000	9.890663
2065.000000	9.828681
2064.000000	9.743072
2063.000000	9.636179
2062.000000	9.597317
2061.000000	9.490689
2060.000000	9.352257
2059.000000	9.298175
2058.000000	9.216193
2057.000000	9.105068
2056.000000	9.027240
2055.000000	8.959217
2054.000000	8.888414
2053.000000	8.753719
2052.000000	8.672487
2051.000000	8.624408
2050.000000	8.563836
2049.000000	8.481504
2048.000000	8.402607
2047.000000	8.412860
2046.000000	8.352782
2045.000000	8.265472
2044.000000	8.256154
2043.000000	8.276869
2042.000000	8.269945
2041.000000	8.282155
2040.000000	8.300484
2039.000000	8.324740
2038.000000	8.359268
2037.000000	8.365047
2036.000000	8.399809
2035.000000	8.496170
2034.000000	8.565443
2033.000000	8.655663
2032.000000	8.772022
2031.000000	8.800513
2030.000000	8.851686
2029.000000	8.970915
2028.000000	9.069303
2027.000000	9.144921
2026.000000	9.257306
2025.000000	9.360069
2024.000000	9.418192
2023.000000	9.452997
2022.000000	9.514003
2021.000000	9.542785
2020.000000	9.602340
2019.000000	9.677113
2018.000000	9.716952
2017.000000	9.750051
2016.000000	9.772957
2015.000000	9.774108
2014.000000	9.769838
2013.000000	9.790532
2012.000000	9.794434
2011.000000	9.826313
2010.000000	9.805890
2009.000000	9.765430
2008.000000	9.744091
2007.000000	9.713865
2006.000000	9.669172
2005.000000	9.635859
2004.000000	9.604141
2003.000000	9.575791
2002.000000	9.532659
2001.000000	9.477916
2000.000000	9.428196
1999.000000	9.390187
1998.000000	9.346831
1997.000000	9.294948
1996.000000	9.244677
1995.000000	9.225989
1994.000000	9.133907
1993.000000	9.059783
1992.000000	9.003250
1991.000000	8.927215
1990.000000	8.864175
1989.000000	8.838781
1988.000000	8.774980
1987.000000	8.769425
1986.000000	8.732176
1985.000000	8.657533
1984.000000	8.627769
1983.000000	8.583918
1982.000000	8.530010
1981.000000	8.494809
1980.000000	8.434233
1979.000000	8.377255
1978.000000	8.313207
1977.000000	8.282992
1976.000000	8.202099
1975.000000	8.165819
1974.000000	8.175310
1973.000000	8.136728
1972.000000	8.071471
1971.000000	8.015459
1970.000000	7.958356
1969.000000	7.897322
1968.000000	7.895721
1967.000000	7.835390
1966.000000	7.797785
1965.000000	7.734108
1964.000000	7.714657
1963.000000	7.643395
1962.000000	7.588538
1961.000000	7.597672
1960.000000	7.526796
1959.000000	7.496821
1958.000000	7.464096
1957.000000	7.410849
1956.000000	7.363180
1955.000000	7.351641
1954.000000	7.299772
1953.000000	7.274693
1952.000000	7.239085
1951.000000	7.245383
1950.000000	7.200529
1949.000000	7.180339
1948.000000	7.132323
1947.000000	7.136912
1946.000000	7.109003
1945.000000	7.156169
1944.000000	7.137968
1943.000000	7.197694
1942.000000	7.142669
1941.000000	7.168637
1940.000000	7.206341
1939.000000	7.290066
1938.000000	7.254998
1937.000000	7.323767
1936.000000	7.388143
1935.000000	7.390028
1934.000000	7.469155
1933.000000	7.563032
1932.000000	7.585614
1931.000000	7.643082
1930.000000	7.730441
1929.000000	7.787687
1928.000000	7.984551
1927.000000	8.062673
1926.000000	8.119758
1925.000000	8.292241
1924.000000	8.473111
1923.000000	8.609164
1922.000000	8.699955
1921.000000	8.904089
1920.000000	9.055553
1919.000000	9.198049
1918.000000	9.409510
1917.000000	9.649130
1916.000000	9.721135
1915.000000	9.952173
1914.000000	10.216167
1913.000000	10.423435
1912.000000	10.729041
1911.000000	10.813461
1910.000000	11.058442
1909.000000	11.365007
1908.000000	11.674096
1907.000000	11.946857
1906.000000	12.162347
1905.000000	12.599295
1904.000000	12.800866
1903.000000	13.094736
1902.000000	13.505444
1901.000000	13.830349
1900.000000	14.153986
1899.000000	14.520391
1898.000000	14.850993
1897.000000	15.170256
1896.000000	15.578818
1895.000000	15.964554
1894.000000	16.295871
1893.000000	16.608241
1892.000000	17.006236
1891.000000	17.339065
1890.000000	17.660068
1889.000000	18.031025
1888.000000	18.323765
1887.000000	18.683910
1886.000000	18.947938
1885.000000	19.260433
1884.000000	19.599361
1883.000000	19.901328
1882.000000	20.120453
1881.000000	20.444106
1880.000000	20.716631
1879.000000	20.921576
1878.000000	21.132233
1877.000000	21.406046
1876.000000	21.597158
1875.000000	21.823972
1874.000000	22.016469
1873.000000	22.160866
1872.000000	22.353494
1871.000000	22.522358
1870.000000	22.620457
1869.000000	22.734831
1868.000000	22.855543
1867.000000	22.932889
1866.000000	23.034778
1865.000000	23.104641
1864.000000	23.151596
1863.000000	23.224138
1862.000000	23.299680
1861.000000	23.376207
1860.000000	23.416270
1859.000000	23.455967
1858.000000	23.491368
1857.000000	23.527562
1856.000000	23.549931
1855.000000	23.557609
1854.000000	23.583155
1853.000000	23.601927
1852.000000	23.611607
1851.000000	23.616193
1850.000000	23.636314
1849.000000	23.618388
1848.000000	23.606256
1847.000000	23.603688
1846.000000	23.589480
1845.000000	23.582093
1844.000000	23.558353
1843.000000	23.515517
1842.000000	23.512683
1841.000000	23.499847
1840.000000	23.456477
1839.000000	23.434686
1838.000000	23.393386
1837.000000	23.352124
1836.000000	23.342066
1835.000000	23.320848
1834.000000	23.262663
1833.000000	23.205399
1832.000000	23.167453
1831.000000	23.131112
1830.000000	23.105347
1829.000000	23.056477
1828.000000	23.002897
1827.000000	22.977040
1826.000000	22.914596
1825.000000	22.892948
1824.000000	22.878080
1823.000000	22.850008
1822.000000	22.808776
1821.000000	22.778502
1820.000000	22.732373
1819.000000	22.674495
1818.000000	22.655339
1817.000000	22.632589
1816.000000	22.596521
1815.000000	22.566429
1814.000000	22.521647
1813.000000	22.490249
1812.000000	22.469525
1811.000000	22.443562
1810.000000	22.410669
1809.000000	22.378441
1808.000000	22.349589
1807.000000	22.306345
1806.000000	22.265071
1805.000000	22.247688
1804.000000	22.213880
1803.000000	22.191316
1802.000000	22.166344
1801.000000	22.128483
1800.000000	22.117167
1799.000000	22.104106
1798.000000	22.088094
1797.000000	22.051835
1796.000000	22.015620
1795.000000	22.004132
1794.000000	21.987725
1793.000000	21.955397
1792.000000	21.933639
1791.000000	21.917367
1790.000000	21.893781
1789.000000	21.874430
1788.000000	21.873606
1787.000000	21.834400
1786.000000	21.795280
1785.000000	21.771972
1784.000000	21.730193
1783.000000	21.701444
1782.000000	21.679774
1781.000000	21.642459
1780.000000	21.598135
1779.000000	21.553858
1778.000000	21.514925
1777.000000	21.464395
1776.000000	21.413721
1775.000000	21.336429
1774.000000	21.270950
1773.000000	21.225637
1772.000000	21.157376
1771.000000	21.109321
1770.000000	21.057119
1769.000000	20.994839
1768.000000	20.932127
1767.000000	20.877634
1766.000000	20.823369
1765.000000	20.771445
1764.000000	20.731073
1763.000000	20.663825
1762.000000	20.619379
1761.000000	20.553882
1760.000000	20.500781
1759.000000	20.454400
1758.000000	20.385135
1757.000000	20.319200
1756.000000	20.276723
1755.000000	20.235025
1754.000000	20.185893
1753.000000	20.126772
1752.000000	20.069000
1751.000000	20.025654
1750.000000	19.955675
1749.000000	19.901238
1748.000000	19.837765
1747.000000	19.769281
1746.000000	19.711096
1745.000000	19.658907
1744.000000	19.590900
1743.000000	19.572689
1742.000000	19.504600
1741.000000	19.446043
1740.000000	19.400215
1739.000000	19.342411
1738.000000	19.314234
1737.000000	19.297847
1736.000000	19.266441
1735.000000	19.208413
1734.000000	19.170312
1733.000000	19.171042
1732.000000	19.173231
1731.000000	19.185392
1730.000000	19.177260
1729.000000	19.211875
1728.000000	19.237869
1727.000000	19.282216
1726.000000	19.337952
1725.000000	19.386127
1724.000000	19.452826
1723.000000	19.510760
1722.000000	19.594278
1721.000000	19.677358
1720.000000	19.757472
1719.000000	19.840972
1718.000000	19.942720
1717.000000	20.016513
1716.000000	20.092970
1715.000000	20.160928
1714.000000	20.243760
1713.000000	20.311051
1712.000000	20.369426
1711.000000	20.445446
1710.000000	20.481435
1709.000000	20.530097
1708.000000	20.585518
1707.000000	20.637460
1706.000000	20.674035
1705.000000	20.695747
1704.000000	20.726145
1703.000000	20.726356
1702.000000	20.740880
1701.000000	20.778819
1700.000000	20.792115
1699.000000	20.789963
1698.000000	20.848178
1697.000000	20.856968
1696.000000	20.902410
1695.000000	20.912410
1694.000000	20.961903
1693.000000	21.025526
1692.000000	21.049918
1691.000000	21.103202
1690.000000	21.196598
1689.000000	21.287980
1688.000000	21.397386
1687.000000	21.500124
1686.000000	21.600823
1685.000000	21.739980
1684.000000	21.883433
1683.000000	22.017473
1682.000000	22.183750
1681.000000	22.343428
1680.000000	22.518796
1679.000000	22.668812
1678.000000	22.840453
1677.000000	23.008473
1676.000000	23.183282
1675.000000	23.363912
1674.000000	23.551525
1673.000000	23.700601
1672.000000	23.843999
1671.000000	24.029246
1670.000000	24.184289
1669.000000	24.361600
1668.000000	24.499580
1667.000000	24.628630
1666.000000	24.709021
1665.000000	24.828157
1664.000000	24.914030
1663.000000	25.004076
1662.000000	25.092045
1661.000000	25.158978
1660.000000	25.246769
1659.000000	25.314897
1658.000000	25.381662
1657.000000	25.423602
1656.000000	25.446661
1655.000000	25.486621
1654.000000	25.527801
1653.000000	25.548448
1652.000000	25.575198
1651.000000	25.585947
1650.000000	25.595918
1649.000000	25.585246
1648.000000	25.589933
1647.000000	25.578127
1646.000000	25.566868
1645.000000	25.551127
1644.000000	25.541201
1643.000000	25.509983
1642.000000	25.491697
1641.000000	25.474949
1640.000000	25.468663
1639.000000	25.419771
1638.000000	25.393157
1637.000000	25.380310
1636.000000	25.339805
1635.000000	25.292679
1634.000000	25.266915
1633.000000	25.231624
1632.000000	25.187746
1631.000000	25.154945
1630.000000	25.112047
1629.000000	25.071408
1628.000000	25.024076
1627.000000	24.987444
1626.000000	24.946691
1625.000000	24.907579
1624.000000	24.860291
1623.000000	24.817347
1622.000000	24.771774
1621.000000	24.713241
1620.000000	24.674851
1619.000000	24.627872
1618.000000	24.575134
1617.000000	24.521711
1616.000000	24.480914
1615.000000	24.428884
1614.000000	24.360799
1613.000000	24.299685
1612.000000	24.252300
1611.000000	24.193527
1610.000000	24.137383
1609.000000	24.076024
1608.000000	24.024301
1607.000000	23.974808
1606.000000	23.906529
1605.000000	23.843202
1604.000000	23.777669
1603.000000	23.718435
1602.000000	23.672917
1601.000000	23.628257
1600.000000	23.569321
1599.000000	23.498319
1598.000000	23.441108
1597.000000	23.391419
1596.000000	23.340068
1595.000000	23.288405
1594.000000	23.239904
1593.000000	23.190222
1592.000000	23.137838
1591.000000	23.077795
1590.000000	23.019569
1589.000000	22.969484
1588.000000	22.924473
1587.000000	22.882802
1586.000000	22.834175
1585.000000	22.786019
1584.000000	22.746889
1583.000000	22.709212
1582.000000	22.675822
1581.000000	22.636689
1580.000000	22.588929
1579.000000	22.548640
1578.000000	22.518164
1577.000000	22.472914
1576.000000	22.423321
1575.000000	22.384251
1574.000000	22.340731
1573.000000	22.296959
1572.000000	22.258823
1571.000000	22.213395
1570.000000	22.175135
1569.000000	22.137266
1568.000000	22.102363
1567.000000	22.075092
1566.000000	22.032806
1565.000000	21.996952
1564.000000	21.973119
1563.000000	21.961028
1562.000000	21.935765
1561.000000	21.911500
1560.000000	21.884836
1559.000000	21.846608
1558.000000	21.841973
1557.000000	21.839952
1556.000000	21.814454
1555.000000	21.791467
1554.000000	21.764367
1553.000000	21.747710
1552.000000	21.734537
1551.000000	21.709371
1550.000000	21.673210
1549.000000	21.626115
1548.000000	21.598884
1547.000000	21.541740
1546.000000	21.490904
1545.000000	21.436248
1544.000000	21.375176
1543.000000	21.311738
1542.000000	21.246138
1541.000000	21.170307
1540.000000	21.095982
1539.000000	21.019821
1538.000000	20.930995
1537.000000	20.850445
1536.000000	20.767988
1535.000000	20.680330
1534.000000	20.582516
1533.000000	20.498216
1532.000000	20.432147
1531.000000	20.363100
1530.000000	20.290607
1529.000000	20.250097
1528.000000	20.253362
1527.000000	20.230367
1526.000000	20.171482
1525.000000	20.073413
1524.000000	19.973018
1523.000000	19.885421
1522.000000	19.814710
1521.000000	19.750391
1520.000000	19.725642
1519.000000	19.696882
1518.000000	19.634656
1517.000000	19.597498
1516.000000	19.582854
1515.000000	19.540478
1514.000000	19.485559
1513.000000	19.450373
1512.000000	19.435457
1511.000000	19.428329
1510.000000	19.391930
1509.000000	19.345526
1508.000000	19.324121
1507.000000	19.308557
1506.000000	19.282407
1505.000000	19.296776
1504.000000	19.298466
1503.000000	19.276133
1502.000000	19.249358
1501.000000	19.253068
1500.000000	19.236012
1499.000000	19.235576
1498.000000	19.252097
1497.000000	19.253291
1496.000000	19.262924
1495.000000	19.281994
1494.000000	19.295444
1493.000000	19.325976
1492.000000	19.347596
1491.000000	19.416872
1490.000000	19.441797
1489.000000	19.493406
1488.000000	19.527946
1487.000000	19.583638
1486.000000	19.634118
1485.000000	19.704916
1484.000000	19.752393
1483.000000	19.836170
1482.000000	19.915533
1481.000000	19.973252
1480.000000	20.054103
1479.000000	20.121603
1478.000000	20.195666
1477.000000	20.273314
1476.000000	20.343946
1475.000000	20.390820
1474.000000	20.466618
1473.000000	20.524585
1472.000000	20.587072
1471.000000	20.645394
1470.000000	20.719418
1469.000000	20.767048
1468.000000	20.847247
1467.000000	20.914167
1466.000000	20.951477
1465.000000	21.008028
1464.000000	21.039035
1463.000000	21.086132
1462.000000	21.153010
1461.000000	21.205253
1460.000000	21.246228
1459.000000	21.282900
1458.000000	21.359270
1457.000000	21.429828
1456.000000	21.461690
1455.000000	21.503476
1454.000000	21.567447
1453.000000	21.637141
1452.000000	21.684912
1451.000000	21.749898
1450.000000	21.781529
1449.000000	21.837305
1448.000000	21.929673
1447.000000	22.005738
1446.000000	22.050025
1445.000000	22.122444
1444.000000	22.164084
1443.000000	22.237459
1442.000000	22.358682
1441.000000	22.427813
1440.000000	22.492126
1439.000000	22.573122
1438.000000	22.645308
1437.000000	22.714901
1436.000000	22.787186
1435.000000	22.888995
1434.000000	23.015745
1433.000000	23.111364
1432.000000	23.189684
1431.000000	23.288281
1430.000000	23.388950
1429.000000	23.490016
1428.000000	23.597177
1427.000000	23.718135
1426.000000	23.831478
1425.000000	23.961554
1424.000000	24.089593
1423.000000	24.216603
1422.000000	24.355448
1421.000000	24.492403
1420.000000	24.621879
1419.000000	24.775658
1418.000000	24.932828
1417.000000	25.098145
1416.000000	25.257220
1415.000000	25.430671
1414.000000	25.598132
1413.000000	25.747632
1412.000000	25.900505
1411.000000	26.084836
1410.000000	26.284328
1409.000000	26.466849
1408.000000	26.620462
1407.000000	26.766551
1406.000000	26.932763
1405.000000	27.102423
1404.000000	27.269663
1403.000000	27.434983
1402.000000	27.584286
1401.000000	27.728673
1400.000000	27.879807
1399.000000	28.036421
1398.000000	28.177773
1397.000000	28.318389
1396.000000	28.460539
1395.000000	28.600303
1394.000000	28.733853
1393.000000	28.866157
1392.000000	28.992398
1391.000000	29.114320
1390.000000	29.248980
1389.000000	29.398193
1388.000000	29.519551
1387.000000	29.619658
1386.000000	29.732531
1385.000000	29.845089
1384.000000	29.948968
1383.000000	30.030041
1382.000000	30.111660
1381.000000	30.213965
1380.000000	30.279045
1379.000000	30.343712
1378.000000	30.433603
1377.000000	30.498496
1376.000000	30.562549
1375.000000	30.617500
1374.000000	30.659170
1373.000000	30.699710
1372.000000	30.739285
1371.000000	30.791457
1370.000000	30.856631
1369.000000	30.908006
1368.000000	30.953663
1367.000000	31.009927
1366.000000	31.058872
1365.000000	31.124810
1364.000000	31.175269
1363.000000	31.218606
1362.000000	31.268887
1361.000000	31.315995
1360.000000	31.368829
1359.000000	31.429989
1358.000000	31.482701
1357.000000	31.549579
1356.000000	31.630546
1355.000000	31.690578
1354.000000	31.737737
1353.000000	31.789582
1352.000000	31.849756
1351.000000	31.920667
1350.000000	31.980902
1349.000000	32.031334
1348.000000	32.075658
1347.000000	32.146654
1346.000000	32.229466
1345.000000	32.272624
1344.000000	32.308795
1343.000000	32.367181
1342.000000	32.417449
1341.000000	32.464139
1340.000000	32.511860
1339.000000	32.558248
1338.000000	32.603104
1337.000000	32.640327
1336.000000	32.698520
1335.000000	32.762362
1334.000000	32.792486
1333.000000	32.826717
1332.000000	32.862797
1331.000000	32.882315
1330.000000	32.894951
1329.000000	32.930652
1328.000000	32.974693
1327.000000	32.996353
1326.000000	32.996406
1325.000000	33.019682
1324.000000	33.078945
1323.000000	33.067781
1322.000000	33.085486
1321.000000	33.110036
1320.000000	33.104591
1319.000000	33.107316
1318.000000	33.149224
1317.000000	33.155508
1316.000000	33.175907
1315.000000	33.186986
1314.000000	33.168477
1313.000000	33.180021
1312.000000	33.223726
1311.000000	33.246067
1310.000000	33.253826
1309.000000	33.251616
1308.000000	33.248903
1307.000000	33.249440
1306.000000	33.268384
1305.000000	33.300515
1304.000000	33.304257
1303.000000	33.296182
1302.000000	33.292954
1301.000000	33.321725
1300.000000	33.349722
1299.000000	33.341947
1298.000000	33.325123
1297.000000	33.326569
1296.000000	33.319367
1295.000000	33.323978
1294.000000	33.309244
1293.000000	33.299388
1292.000000	33.291981
1291.000000	33.285764
1290.000000	33.277635
1289.000000	33.241506
1288.000000	33.242546
1287.000000	33.240082
1286.000000	33.245098
1285.000000	33.223941
1284.000000	33.224850
1283.000000	33.229528
1282.000000	33.217093
1281.000000	33.205398
1280.000000	33.217970
1279.000000	33.162629
1278.000000	33.179317
1277.000000	33.169119
1276.000000	33.170382
1275.000000	33.184809
1274.000000	33.182335
1273.000000	33.175076
1272.000000	33.183682
1271.000000	33.191106
1270.000000	33.183339
1269.000000	33.184928
1268.000000	33.193285
1267.000000	33.231118
1266.000000	33.221289
1265.000000	33.230789
1264.000000	33.228008
1263.000000	33.212598
1262.000000	33.267356
1261.000000	33.285565
1260.000000	33.283407
1259.000000	33.293138
1258.000000	33.274107
1257.000000	33.267828
1256.000000	33.288851
1255.000000	33.311023
1254.000000	33.317546
1253.000000	33.322417
1252.000000	33.319291
1251.000000	33.321238
1250.000000	33.299977
1249.000000	33.296013
1248.000000	33.290336
1247.000000	33.282883
1246.000000	33.273655
1245.000000	33.274723
1244.000000	33.275155
1243.000000	33.240828
1242.000000	33.195570
1241.000000	33.161911
1240.000000	33.168931
1239.000000	33.156542
1238.000000	33.112642
1237.000000	33.095426
1236.000000	33.064887
1235.000000	33.046147
1234.000000	32.993685
1233.000000	32.975946
1232.000000	32.947982
1231.000000	32.933690
1230.000000	32.879306
1229.000000	32.863545
1228.000000	32.855028
1227.000000	32.831293
1226.000000	32.823378
1225.000000	32.794950
1224.000000	32.762753
1223.000000	32.710704
1222.000000	32.694296
1221.000000	32.667257
1220.000000	32.656889
1219.000000	32.624430
1218.000000	32.589508
1217.000000	32.573559
1216.000000	32.565612
1215.000000	32.551680
1214.000000	32.525004
1213.000000	32.459772
1212.000000	32.417766
1211.000000	32.417584
1210.000000	32.404906
1209.000000	32.336851
1208.000000	32.293003
1207.000000	32.265711
1206.000000	32.208146
1205.000000	32.176855
1204.000000	32.148557
1203.000000	32.106553
1202.000000	32.062935
1201.000000	32.030743
1200.000000	32.002763
1199.000000	31.949438
1198.000000	31.887738
1197.000000	31.854784
1196.000000	31.862851
1195.000000	31.836667
1194.000000	31.798124
1193.000000	31.763924
1192.000000	31.733579
1191.000000	31.703690
1190.000000	31.654339
1189.000000	31.597131
1188.000000	31.594152
1187.000000	31.598543
1186.000000	31.585848
1185.000000	31.585642
1184.000000	31.588196
1183.000000	31.591799
1182.000000	31.618059
1181.000000	31.647756
1180.000000	31.673111
1179.000000	31.710472
1178.000000	31.762689
1177.000000	31.799721
1176.000000	31.826341
1175.000000	31.872354
1174.000000	31.933147
1173.000000	31.988428
1172.000000	32.051976
1171.000000	32.116032
1170.000000	32.177898
1169.000000	32.243641
1168.000000	32.312349
1167.000000	32.389097
1166.000000	32.466938
1165.000000	32.536677
1164.000000	32.613100
1163.000000	32.701919
1162.000000	32.770870
1161.000000	32.840735
1160.000000	32.925418
1159.000000	32.996238
1158.000000	33.060228
1157.000000	33.122674
1156.000000	33.188315
1155.000000	33.254165
1154.000000	33.290020
1153.000000	33.340714
1152.000000	33.413115
1151.000000	33.464384
1150.000000	33.509322
1149.000000	33.563986
1148.000000	33.615029
1147.000000	33.664564
1146.000000	33.722565
1145.000000	33.767111
1144.000000	33.799257
1143.000000	33.844406
1142.000000	33.889615
1141.000000	33.930998
1140.000000	33.977215
1139.000000	34.023641
1138.000000	34.064326
1137.000000	34.107499
1136.000000	34.148402
1135.000000	34.193749
1134.000000	34.232279
1133.000000	34.260907
1132.000000	34.291406
1131.000000	34.300811
1130.000000	34.314714
1129.000000	34.347663
1128.000000	34.387971
1127.000000	34.420318
1126.000000	34.438530
1125.000000	34.457352
1124.000000	34.488006
1123.000000	34.509142
1122.000000	34.511567
1121.000000	34.520054
1120.000000	34.526680
1119.000000	34.537490
1118.000000	34.552083
1117.000000	34.553483
1116.000000	34.562955
1115.000000	34.571597
1114.000000	34.569088
1113.000000	34.536926
1112.000000	34.551929
1111.000000	34.564611
1110.000000	34.563623
1109.000000	34.578158
1108.000000	34.580886
1107.000000	34.588717
1106.000000	34.588464
1105.000000	34.591820
1104.000000	34.595523
1103.000000	34.603096
1102.000000	34.598145
1101.000000	34.600995
1100.000000	34.574236
1099.000000	34.569331
1098.000000	34.575847
1097.000000	34.589379
1096.000000	34.592932
1095.000000	34.597715
1094.000000	34.598144
1093.000000	34.609111
1092.000000	34.582525
1091.000000	34.575107
1090.000000	34.563133
1089.000000	34.582799
1088.000000	34.583380
1087.000000	34.570662
1086.000000	34.547887
1085.000000	34.551510
1084.000000	34.555338
1083.000000	34.559425
1082.000000	34.579559
1081.000000	34.569553
1080.000000	34.556029
1079.000000	34.524705
1078.000000	34.509987
1077.000000	34.513488
1076.000000	34.523409
1075.000000	34.506262
1074.000000	34.508634
1073.000000	34.514700
1072.000000	34.507439
1071.000000	34.478302
1070.000000	34.459603
1069.000000	34.460191
1068.000000	34.469982
1067.000000	34.466047
1066.000000	34.453314
1065.000000	34.457484
1064.000000	34.410948
1063.000000	34.413879
1062.000000	34.404640
1061.000000	34.413962
1060.000000	34.403269
1059.000000	34.398843
1058.000000	34.408070
1057.000000	34.364313
1056.000000	34.341948
1055.000000	34.371764
1054.000000	34.360304
1053.000000	34.349165
1052.000000	34.311475
1051.000000	34.298658
1050.000000	34.302701
1049.000000	34.297871
1048.000000	34.303653
1047.000000	34.252055
1046.000000	34.247741
1045.000000	34.265722
1044.000000	34.258339
1043.000000	34.271536
1042.000000	34.230289
1041.000000	34.250684
1040.000000	34.244690
1039.000000	34.254808
1038.000000	34.221171
1037.000000	34.212334
1036.000000	34.218509
1035.000000	34.218711
1034.000000	34.228973
1033.000000	34.201371
1032.000000	34.204861
1031.000000	34.208409
1030.000000	34.197425
1029.000000	34.186127
1028.000000	34.185680
1027.000000	34.189152
1026.000000	34.169969
1025.000000	34.189119
1024.000000	34.192866
1023.000000	34.202352
1022.000000	34.209715
1021.000000	34.186008
1020.000000	34.164285
1019.000000	34.175825
1018.000000	34.195976
1017.000000	34.211691
1016.000000	34.216441
1015.000000	34.215933
1014.000000	34.214246
1013.000000	34.218898
1012.000000	34.212339
1011.000000	34.228722
1010.000000	34.240789
1009.000000	34.251219
1008.000000	34.243353
1007.000000	34.246534
1006.000000	34.235738
1005.000000	34.263815
1004.000000	34.296688
1003.000000	34.297038
1002.000000	34.282876
1001.000000	34.275984
1000.000000	34.297279
999.000000	34.309015
998.000000	34.323795
997.000000	34.318724
996.000000	34.321545
995.000000	34.320505
994.000000	34.337552
993.000000	34.351864
992.000000	34.341705
991.000000	34.352749
990.000000	34.349483
989.000000	34.356751
988.000000	34.382215
987.000000	34.386048
986.000000	34.386678
985.000000	34.407862
984.000000	34.407808
983.000000	34.412354
982.000000	34.437756
981.000000	34.457322
980.000000	34.476574
979.000000	34.499197
978.000000	34.518666
977.000000	34.532035
976.000000	34.546513
975.000000	34.556464
974.000000	34.562140
973.000000	34.579661
972.000000	34.605374
971.000000	34.612833
970.000000	34.617097
969.000000	34.628802
968.000000	34.637279
967.000000	34.637384
966.000000	34.631405
965.000000	34.644735
964.000000	34.659101
963.000000	34.684440
962.000000	34.691756
961.000000	34.693034
960.000000	34.707122
959.000000	34.714108
958.000000	34.714787
957.000000	34.721039
956.000000	34.736229
955.000000	34.746037
954.000000	34.750469
953.000000	34.747577
952.000000	34.767253
951.000000	34.772022
950.000000	34.761838
949.000000	34.773733
948.000000	34.784035
947.000000	34.785324
946.000000	34.787311
945.000000	34.791970
944.000000	34.784607
943.000000	34.780887
942.000000	34.783418
941.000000	34.798054
940.000000	34.799505
939.000000	34.805607
938.000000	34.811975
937.000000	34.810623
936.000000	34.810250
935.000000	34.808509
934.000000	34.809783
933.000000	34.803488
932.000000	34.802801
931.000000	34.803307
930.000000	34.803651
929.000000	34.799078
928.000000	34.797222
927.000000	34.808191
926.000000	34.814984
925.000000	34.805589
924.000000	34.795314
923.000000	34.779456
922.000000	34.770391
921.000000	34.786656
920.000000	34.800180
919.000000	34.781138
918.000000	34.784894
917.000000	34.788359
916.000000	34.786883
915.000000	34.806227
914.000000	34.811954
913.000000	34.786060
912.000000	34.786753
911.000000	34.799362
910.000000	34.794376
909.000000	34.785963
908.000000	34.767374
907.000000	34.758933
906.000000	34.799292
905.000000	34.815913
904.000000	34.839359
903.000000	34.837055
902.000000	34.870007
901.000000	34.850800
900.000000	34.858468
899.000000	34.864569
898.000000	34.846572
897.000000	34.862852
896.000000	34.858904
895.000000	34.875155
894.000000	34.874067
893.000000	34.889018
892.000000	34.909298
891.000000	34.925410
890.000000	34.916704
889.000000	34.906772
888.000000	34.928369
887.000000	34.941839
886.000000	34.983169
885.000000	34.966760
884.000000	34.953177
883.000000	35.013101
882.000000	34.974427
881.000000	34.952798
880.000000	34.947374
879.000000	34.956780
878.000000	34.934015
877.000000	34.980615
876.000000	34.959549
875.000000	34.998060
874.000000	34.995962
873.000000	35.010682
872.000000	34.991685
871.000000	35.002206
870.000000	34.958346
869.000000	34.944565
868.000000	35.045140
867.000000	35.087811
866.000000	35.082011
865.000000	35.089618
864.000000	35.101252
863.000000	35.005177
862.000000	34.982007
861.000000	34.968952
860.000000	35.015937
859.000000	35.126616
858.000000	35.136580
857.000000	34.962467
856.000000	35.061755
855.000000	35.160049
854.000000	35.073322
853.000000	34.996230
852.000000	35.090327
851.000000	34.994915
850.000000	34.965242
849.000000	35.036360
848.000000	34.963261
847.000000	35.019009
846.000000	34.999708
845.000000	34.976571
844.000000	34.985678
843.000000	35.020046
842.000000	34.951619
841.000000	35.033739
840.000000	34.999177
839.000000	34.984598
838.000000	34.845275
837.000000	34.964861
836.000000	34.890202
835.000000	34.920550
834.000000	34.980673
833.000000	34.878419
832.000000	34.904969
831.000000	34.769922
830.000000	34.850541
829.000000	34.845273
828.000000	34.899125
827.000000	34.961211
826.000000	34.974313
825.000000	34.877030
824.000000	34.914728
823.000000	34.864306
822.000000	34.923678
821.000000	34.863382
820.000000	34.877128
819.000000	34.927258
818.000000	34.920180
817.000000	34.945408
816.000000	34.885130
815.000000	34.865483
814.000000	34.896113
813.000000	34.872981
812.000000	34.894972
811.000000	34.874836
810.000000	34.859587
809.000000	34.888215
808.000000	34.879976
807.000000	34.880481
806.000000	34.907183
805.000000	34.920203
804.000000	34.874059
803.000000	34.912999
802.000000	34.924407
801.000000	34.843350
800.000000	34.934944
799.000000	34.817216
798.000000	34.861795
797.000000	34.820948
796.000000	34.849504
795.000000	34.829565
794.000000	34.878380
793.000000	34.862173
792.000000	34.811994
791.000000	34.812677
790.000000	34.805677
789.000000	34.867853
788.000000	34.831600
787.000000	34.814512
786.000000	34.850831
785.000000	34.838277
784.000000	34.815299
783.000000	34.780439
782.000000	34.780581
781.000000	34.791134
780.000000	34.796973
779.000000	34.795479
778.000000	34.776332
777.000000	34.794665
776.000000	34.781159
775.000000	34.818707
774.000000	34.835769
773.000000	34.790646
772.000000	34.716056
771.000000	34.772500
770.000000	34.771373
769.000000	34.788582
768.000000	34.802250
767.000000	34.814951
766.000000	34.806361
765.000000	34.744820
764.000000	34.749491
763.000000	34.788618
762.000000	34.779614
761.000000	34.771430
760.000000	34.779348
759.000000	34.744007
758.000000	34.718907
757.000000	34.738474
756.000000	34.774419
755.000000	34.772414
754.000000	34.764245
753.000000	34.721495
752.000000	34.681906
751.000000	34.704990
750.000000	34.721564
749.000000	34.731729
748.000000	34.728535
747.000000	34.716916
746.000000	34.684985
745.000000	34.680949
744.000000	34.697047
743.000000	34.688753
742.000000	34.716064
741.000000	34.752868
740.000000	34.749221
739.000000	34.715017
738.000000	34.700539
737.000000	34.645879
736.000000	34.646102
735.000000	34.690808
734.000000	34.639640
733.000000	34.628202
732.000000	34.664233
731.000000	34.685222
730.000000	34.646055
729.000000	34.619985
728.000000	34.619335
727.000000	34.643862
726.000000	34.655015
725.000000	34.645697
724.000000	34.642589
723.000000	34.639375
722.000000	34.641512
721.000000	34.662518
720.000000	34.632836
719.000000	34.601288
718.000000	34.605464
717.000000	34.609431
716.000000	34.590870
715.000000	34.590130
714.000000	34.592574
713.000000	34.589758
712.000000	34.576847
711.000000	34.573823
710.000000	34.577239
709.000000	34.585469
708.000000	34.579737
707.000000	34.577926
706.000000	34.579416
705.000000	34.574509
704.000000	34.570440
703.000000	34.583398
702.000000	34.570098
701.000000	34.589321
700.000000	34.592625
699.000000	34.557837
698.000000	34.542841
697.000000	34.548231
696.000000	34.548789
695.000000	34.539828
694.000000	34.530560
693.000000	34.521306
692.000000	34.504978
691.000000	34.499059
690.000000	34.504632
689.000000	34.507413
688.000000	34.460681
687.000000	34.414987
686.000000	34.428283
685.000000	34.446726
684.000000	34.431506
683.000000	34.415598
682.000000	34.413704
681.000000	34.409341
680.000000	34.394358
679.000000	34.399555
678.000000	34.434329
677.000000	34.441336
676.000000	34.452398
675.000000	34.405909
674.000000	34.387239
673.000000	34.368583
672.000000	34.346997
671.000000	34.349964
670.000000	34.365820
669.000000	34.376324
668.000000	34.352228
667.000000	34.365733
666.000000	34.363600
665.000000	34.332223
664.000000	34.304599
663.000000	34.312761
662.000000	34.309157
661.000000	34.285623
660.000000	34.299968
659.000000	34.296883
658.000000	34.272098
657.000000	34.313528
656.000000	34.249212
655.000000	34.256178
654.000000	34.255851
653.000000	34.286733
652.000000	34.252228
651.000000	34.241899
650.000000	34.239220
649.000000	34.212859
648.000000	34.212818
647.000000	34.204000
646.000000	34.181936
645.000000	34.203804
644.000000	34.213207
643.000000	34.188874
642.000000	34.180723
641.000000	34.178187
640.000000	34.131906
639.000000	34.135995
638.000000	34.130586
637.000000	34.128770
636.000000	34.101086
635.000000	34.118019
634.000000	34.091106
633.000000	34.077935
632.000000	34.072020
631.000000	34.109312
630.000000	34.061308
629.000000	34.052947
628.000000	34.058520
627.000000	34.052276
626.000000	34.024462
625.000000	34.010435
624.000000	34.022938
623.000000	34.008702
622.000000	34.007911
621.000000	34.005950
620.000000	33.953002
619.000000	33.964323
618.000000	33.964411
617.000000	33.949923
616.000000	33.916657
615.000000	33.922114
614.000000	33.903010
613.000000	33.868355
612.000000	33.851858
611.000000	33.882863
610.000000	33.862083
609.000000	33.845608
608.000000	33.814270
607.000000	33.786782
606.000000	33.765545
605.000000	33.773297
604.000000	33.760626
603.000000	33.775641
602.000000	33.729698
601.000000	33.739658
600.000000	33.696688
599.000000	33.702628
598.000000	33.687812
597.000000	33.681680
596.000000	33.659934
595.000000	33.648558
594.000000	33.646610
593.000000	33.633002
592.000000	33.558476
591.000000	33.595555
590.000000	33.541948
589.000000	33.551781
588.000000	33.545084
587.000000	33.479804
586.000000	33.504462
585.000000	33.471932
584.000000	33.439103
583.000000	33.447560
582.000000	33.402477
581.000000	33.406243
580.000000	33.386687
579.000000	33.373607
578.000000	33.333457
577.000000	33.288489
576.000000	33.313055
575.000000	33.289609
574.000000	33.228273
573.000000	33.253237
572.000000	33.216548
571.000000	33.223148
570.000000	33.206319
569.000000	33.160283
568.000000	33.134058
567.000000	33.109876
566.000000	33.099448
565.000000	33.079595
564.000000	33.072767
563.000000	33.019276
562.000000	32.974280
561.000000	32.995573
560.000000	32.971821
559.000000	32.970210
558.000000	32.907294
557.000000	32.891932
556.000000	32.861183
555.000000	32.827619
554.000000	32.803796
553.000000	32.794960
552.000000	32.755676
551.000000	32.743074
550.000000	32.703067
549.000000	32.657419
548.000000	32.647861
547.000000	32.623084
546.000000	32.601779
545.000000	32.572873
544.000000	32.536017
543.000000	32.492827
542.000000	32.477053
541.000000	32.447910
540.000000	32.412010
539.000000	32.387690
538.000000	32.341676
537.000000	32.338699
536.000000	32.255188
535.000000	32.240871
534.000000	32.204176
533.000000	32.184877
532.000000	32.158502
531.000000	32.107916
530.000000	32.061509
529.000000	32.013916
528.000000	31.982225
527.000000	31.970131
526.000000	31.922175
525.000000	31.874267
524.000000	31.823304
523.000000	31.789693
522.000000	31.749454
521.000000	31.697330
520.000000	31.674164
519.000000	31.618708
518.000000	31.572700
517.000000	31.525558
516.000000	31.477500
515.000000	31.430413
514.000000	31.396671
513.000000	31.344391
512.000000	31.309731
511.000000	31.258953
510.000000	31.195604
509.000000	31.172488
508.000000	31.104348
507.000000	31.033714
506.000000	30.978686
505.000000	30.946175
504.000000	30.892828
503.000000	30.851243
502.000000	30.800175
501.000000	30.738540
500.000000	30.679811
499.000000	30.637144
498.000000	30.592484
497.000000	30.545607
496.000000	30.475377
495.000000	30.430670
494.000000	30.390103
493.000000	30.313364
492.000000	30.264278
491.000000	30.200942
490.000000	30.158618
489.000000	30.106938
488.000000	30.046242
487.000000	29.966427
486.000000	29.897952
485.000000	29.835133
484.000000	29.790781
483.000000	29.747133
482.000000	29.690417
481.000000	29.628999
480.000000	29.542518
479.000000	29.487261
478.000000	29.428024
477.000000	29.345265
476.000000	29.276311
475.000000	29.209025
474.000000	29.116608
473.000000	29.059796
472.000000	29.008939
471.000000	28.909782
470.000000	28.822979
469.000000	28.752582
468.000000	28.671825
467.000000	28.594702
466.000000	28.523863
465.000000	28.445930
464.000000	28.353512
463.000000	28.255288
462.000000	28.155575
461.000000	28.070213
460.000000	27.987068
459.000000	27.903313
458.000000	27.809719
457.000000	27.700558
456.000000	27.570040
455.000000	27.444182
454.000000	27.356966
453.000000	27.238552
452.000000	27.139701
451.000000	27.024779
450.000000	26.902027
449.000000	26.798841
448.000000	26.671579
447.000000	26.533915
446.000000	26.426340
445.000000	26.320975
444.000000	26.181467
443.000000	26.064790
442.000000	25.976533
441.000000	25.847214
440.000000	25.698321
439.000000	25.598917
438.000000	25.474027
437.000000	25.340172
436.000000	25.238114
435.000000	25.100935
434.000000	24.981932
433.000000	24.878452
432.000000	24.767708
431.000000	24.619033
430.000000	24.500070
429.000000	24.355605
428.000000	24.230566
427.000000	24.090785
426.000000	23.949827
425.000000	23.817066
424.000000	23.669208
423.000000	23.539563
422.000000	23.409283
421.000000	23.273512
420.000000	23.118856
419.000000	22.955571
418.000000	22.840225
417.000000	22.663502
416.000000	22.489862
415.000000	22.338434
414.000000	22.200228
413.000000	22.038847
412.000000	21.904762
411.000000	21.723180
410.000000	21.576524
409.000000	21.421524
408.000000	21.239545
407.000000	21.061292
406.000000	20.920455
405.000000	20.739159
404.000000	20.600476
403.000000	20.458345
402.000000	20.289258
401.000000	20.105299
400.000000	19.948343
399.000000	19.777939
398.000000	19.637867
397.000000	19.474813
396.000000	19.286957
395.000000	19.118406
394.000000	18.973260
393.000000	18.811660
392.000000	18.654170
391.000000	18.523332
390.000000	18.344799
389.000000	18.184477
388.000000	18.032376
387.000000	17.859236
386.000000	17.682629
385.000000	17.523027
384.000000	17.400459
383.000000	17.234931
382.000000	17.068063
381.000000	16.912396
380.000000	16.742935
379.000000	16.561970
378.000000	16.373186
377.000000	16.327590
376.000000	16.095324
375.000000	15.969285
374.000000	15.832239
373.000000	15.624512
372.000000	15.447161
371.000000	15.292677
370.000000	15.155503
369.000000	14.951174
368.000000	14.781746
367.000000	14.575116
366.000000	14.427915
365.000000	14.234838
364.000000	14.005586
363.000000	13.866383
362.000000	13.681923
361.000000	13.517225
360.000000	13.335197
359.000000	13.183116
358.000000	12.971092
357.000000	12.783791
356.000000	12.601131
355.000000	12.367599
354.000000	12.163089
353.000000	12.018290
352.000000	11.823031
351.000000	11.705278
350.000000	11.513788
349.000000	11.280907
348.000000	11.152106
347.000000	10.907178
346.000000	10.761148
345.000000	10.566869
344.000000	10.364967
343.000000	10.268855
342.000000	9.982995
341.000000	9.817204
340.000000	9.590405
339.000000	9.509129
338.000000	9.221226
337.000000	9.082970
336.000000	8.852244
335.000000	8.643120
334.000000	8.498749
333.000000	8.307472
332.000000	8.019370
331.000000	7.937181
330.000000	7.727335
329.000000	7.546840
328.000000	7.336108
327.000000	7.121784
326.000000	6.920655
325.000000	6.710843
324.000000	6.493986
323.000000	6.355193
322.000000	6.185952
321.000000	5.965162
320.000000	5.763683
319.000000	5.573998
318.000000	5.448325
317.000000	5.281518
316.000000	5.100603
315.000000	4.910924
314.000000	4.742490
313.000000	4.577399
312.000000	4.385404
311.000000	4.241670
310.000000	4.019459
309.000000	3.891836
308.000000	3.734570
307.000000	3.579088
306.000000	3.419650
305.000000	3.245327
304.000000	3.069519
303.000000	2.883707
302.000000	2.740132
301.000000	2.570016
300.000000	2.389689
299.000000	2.213186
298.000000	2.041989
297.000000	1.871495
296.000000	1.713901
295.000000	1.552469
294.000000	1.394228
293.000000	1.263520
292.000000	1.161990
291.000000	1.036678
290.000000	0.980167
289.000000	0.908018
288.000000	0.859783
287.000000	0.825125
286.000000	0.799564
285.000000	0.771343
284.000000	0.759311
283.000000	0.755038
282.000000	0.751549
281.000000	0.747573
280.000000	0.747901
279.000000	0.741388
278.000000	0.753918
277.000000	0.757048
276.000000	0.775198
275.000000	0.782401
274.000000	0.789586
273.000000	0.796182
272.000000	0.832892
271.000000	0.828519
270.000000	0.837628
269.000000	0.843965
268.000000	0.859558
267.000000	0.880881
266.000000	0.914858
265.000000	0.932679
264.000000	0.963080
263.000000	0.978590
262.000000	1.007634
261.000000	1.025258
260.000000	1.044514
259.000000	1.068867
258.000000	1.080545
257.000000	1.109064
256.000000	1.113781
255.000000	1.121470
254.000000	1.138170
253.000000	1.127991
252.000000	1.112604
251.000000	1.094148
250.000000	1.078369
249.000000	1.040670
248.000000	0.994870
247.000000	0.931887
246.000000	0.865748
245.000000	0.806739
244.000000	0.745106
243.000000	0.693625
242.000000	0.628177
241.000000	0.571060
240.000000	0.529310
239.000000	0.494102
238.000000	0.452477
237.000000	0.437027
236.000000	0.420839
235.000000	0.392337
234.000000	0.366236
233.000000	0.338960
232.000000	0.328347
231.000000	0.308190
230.000000	0.269953
229.000000	0.246636
228.000000	0.238632
227.000000	0.216741
226.000000	0.196423
225.000000	0.184260
224.000000	0.179050
223.000000	0.153766
222.000000	0.122503
221.000000	0.117211
220.000000	0.114997
219.000000	0.116662
218.000000	0.122881
217.000000	0.122046
216.000000	0.121765
215.000000	0.121898
214.000000	0.133897
213.000000	0.128067
212.000000	0.133498
211.000000	0.128060
210.000000	0.106015
209.000000	0.085554
208.000000	0.075673
207.000000	0.091520
206.000000	0.112449
205.000000	0.123136
204.000000	0.124533
203.000000	0.081946
202.000000	0.053852
201.000000	0.054432
200.000000	0.139823
