PE UV       SUBTECH     SPECTRUM    ASCII       PEDS        4.00        
   -1
Empty Chamber.Sample.asc
18/02/28
08:58:21.00
18/02/28
08:58:21.00
Administrator

200.000000
1
Lambda 750
750N8071901
PerkinElmer UV WinLab 6.0.4.0738 / 1.61.00 Lambda 900

0
0
3350/servo 860.8/2
0
0
UV/VIS
1
1
1
CommonBeamDepol,150mm sphere / downward view
0
0
0
0
Program
Program
3350/servo 860.8/2
3350/0.2 860.8/0.2
3350/0.2 860.8/0.2
0
1
 
 
 
0
 
860.8
319.2
860.8
Front
100
on
 
 
0
0
0
 
0
 
 
 
0
 
 
0
0
0
0
0
 
 
 
 
0
0


0
0
#HDR
-1
-1
#GR
nm
%T
1.0
0.0
2350.000000
-1.000000
2151
8
100.679012
99.242684
#DATA
2350.000000	100.214952
2349.000000	100.264229
2348.000000	99.312199
2347.000000	99.800726
2346.000000	99.937567
2345.000000	100.135930
2344.000000	100.509582
2343.000000	100.139763
2342.000000	99.910768
2341.000000	100.236751
2340.000000	100.197221
2339.000000	99.761573
2338.000000	100.305817
2337.000000	99.948747
2336.000000	99.242684
2335.000000	100.111317
2334.000000	100.224645
2333.000000	100.075996
2332.000000	100.511407
2331.000000	100.063327
2330.000000	99.825378
2329.000000	100.034049
2328.000000	100.169261
2327.000000	99.715428
2326.000000	99.980477
2325.000000	100.163560
2324.000000	100.233254
2323.000000	100.021533
2322.000000	100.167078
2321.000000	100.277374
2320.000000	99.749443
2319.000000	99.885099
2318.000000	100.324946
2317.000000	100.305092
2316.000000	99.868895
2315.000000	99.933296
2314.000000	100.298803
2313.000000	99.969834
2312.000000	99.923579
2311.000000	99.992507
2310.000000	100.078928
2309.000000	100.003852
2308.000000	99.966683
2307.000000	99.868358
2306.000000	99.928241
2305.000000	100.010818
2304.000000	99.852681
2303.000000	99.987141
2302.000000	100.331996
2301.000000	99.908068
2300.000000	99.868343
2299.000000	99.890810
2298.000000	99.941385
2297.000000	99.959393
2296.000000	100.151113
2295.000000	99.922623
2294.000000	99.851904
2293.000000	99.941114
2292.000000	99.639296
2291.000000	99.813918
2290.000000	100.004955
2289.000000	100.310071
2288.000000	100.276883
2287.000000	100.075514
2286.000000	99.910571
2285.000000	99.928475
2284.000000	99.981558
2283.000000	99.822794
2282.000000	99.930860
2281.000000	100.139947
2280.000000	99.936983
2279.000000	99.849538
2278.000000	100.085101
2277.000000	100.011548
2276.000000	99.987249
2275.000000	100.045153
2274.000000	100.089372
2273.000000	100.263577
2272.000000	100.284616
2271.000000	99.976881
2270.000000	100.116889
2269.000000	100.064890
2268.000000	99.809164
2267.000000	100.024221
2266.000000	100.259118
2265.000000	100.219214
2264.000000	100.145111
2263.000000	99.991086
2262.000000	99.874641
2261.000000	99.930170
2260.000000	100.155180
2259.000000	100.128835
2258.000000	100.129767
2257.000000	100.121311
2256.000000	100.073942
2255.000000	100.121123
2254.000000	100.048219
2253.000000	100.010034
2252.000000	99.926675
2251.000000	99.929112
2250.000000	99.946292
2249.000000	99.845859
2248.000000	99.922720
2247.000000	99.992910
2246.000000	99.961417
2245.000000	100.064653
2244.000000	100.170250
2243.000000	100.087319
2242.000000	100.086665
2241.000000	100.024423
2240.000000	99.996352
2239.000000	99.972246
2238.000000	100.070633
2237.000000	100.195057
2236.000000	100.144105
2235.000000	100.095550
2234.000000	100.131336
2233.000000	100.022405
2232.000000	99.901347
2231.000000	99.807000
2230.000000	99.768092
2229.000000	99.833720
2228.000000	99.922676
2227.000000	99.935896
2226.000000	99.887995
2225.000000	99.960998
2224.000000	99.936667
2223.000000	100.010435
2222.000000	99.949930
2221.000000	100.097328
2220.000000	100.101413
2219.000000	99.894952
2218.000000	99.958067
2217.000000	100.051626
2216.000000	100.010925
2215.000000	99.980981
2214.000000	99.955677
2213.000000	100.125293
2212.000000	100.044477
2211.000000	99.946199
2210.000000	100.021883
2209.000000	100.065154
2208.000000	100.062445
2207.000000	100.116887
2206.000000	100.077280
2205.000000	100.048246
2204.000000	100.007908
2203.000000	100.024724
2202.000000	99.997266
2201.000000	99.986746
2200.000000	99.955699
2199.000000	99.998988
2198.000000	100.197755
2197.000000	99.944650
2196.000000	100.038583
2195.000000	100.190339
2194.000000	100.131394
2193.000000	99.986142
2192.000000	100.099374
2191.000000	100.123256
2190.000000	100.137976
2189.000000	99.882877
2188.000000	99.889414
2187.000000	99.787308
2186.000000	99.851632
2185.000000	99.922695
2184.000000	100.177432
2183.000000	100.277902
2182.000000	100.064675
2181.000000	100.261259
2180.000000	99.994844
2179.000000	99.954194
2178.000000	100.073052
2177.000000	99.938576
2176.000000	100.022741
2175.000000	100.165422
2174.000000	100.185557
2173.000000	100.107121
2172.000000	100.220977
2171.000000	100.022999
2170.000000	100.000504
2169.000000	100.191312
2168.000000	100.342477
2167.000000	100.108417
2166.000000	100.044923
2165.000000	99.871614
2164.000000	99.953292
2163.000000	99.891480
2162.000000	100.140008
2161.000000	100.048042
2160.000000	100.046215
2159.000000	100.036731
2158.000000	100.038844
2157.000000	99.990623
2156.000000	100.007660
2155.000000	99.863601
2154.000000	100.002721
2153.000000	100.460916
2152.000000	99.888471
2151.000000	100.024821
2150.000000	100.075153
2149.000000	99.795039
2148.000000	99.881360
2147.000000	99.807983
2146.000000	99.872348
2145.000000	100.056678
2144.000000	100.150221
2143.000000	100.086057
2142.000000	99.867956
2141.000000	99.939046
2140.000000	99.870522
2139.000000	100.032247
2138.000000	100.164187
2137.000000	99.996372
2136.000000	99.873946
2135.000000	100.136765
2134.000000	99.903039
2133.000000	100.089116
2132.000000	100.206953
2131.000000	100.018839
2130.000000	100.276664
2129.000000	100.019478
2128.000000	99.864789
2127.000000	100.051092
2126.000000	100.121579
2125.000000	99.880036
2124.000000	99.936970
2123.000000	100.085470
2122.000000	100.027040
2121.000000	100.027033
2120.000000	100.010185
2119.000000	99.903769
2118.000000	99.938642
2117.000000	99.954886
2116.000000	100.201783
2115.000000	100.163478
2114.000000	99.986669
2113.000000	100.007166
2112.000000	100.172643
2111.000000	100.096452
2110.000000	100.134333
2109.000000	100.146488
2108.000000	100.064360
2107.000000	100.014448
2106.000000	100.034891
2105.000000	99.971499
2104.000000	99.911520
2103.000000	99.870067
2102.000000	99.926818
2101.000000	99.904361
2100.000000	100.139023
2099.000000	100.087509
2098.000000	100.001011
2097.000000	99.962006
2096.000000	99.882121
2095.000000	100.059874
2094.000000	100.062300
2093.000000	100.005459
2092.000000	100.045798
2091.000000	99.995858
2090.000000	100.064391
2089.000000	99.880376
2088.000000	99.977864
2087.000000	100.068766
2086.000000	99.988675
2085.000000	100.073143
2084.000000	99.886226
2083.000000	99.973200
2082.000000	99.897807
2081.000000	99.973798
2080.000000	100.043706
2079.000000	100.000809
2078.000000	99.966215
2077.000000	99.997977
2076.000000	100.155679
2075.000000	99.962074
2074.000000	99.854166
2073.000000	100.014057
2072.000000	99.944606
2071.000000	99.932967
2070.000000	100.028822
2069.000000	100.015176
2068.000000	100.043303
2067.000000	100.086354
2066.000000	99.968529
2065.000000	99.981377
2064.000000	100.103323
2063.000000	100.121743
2062.000000	100.013665
2061.000000	99.984314
2060.000000	99.924446
2059.000000	99.978341
2058.000000	100.079355
2057.000000	100.104886
2056.000000	100.070441
2055.000000	100.021955
2054.000000	99.979461
2053.000000	100.021468
2052.000000	100.058660
2051.000000	100.040005
2050.000000	99.994837
2049.000000	99.987246
2048.000000	99.987752
2047.000000	100.006683
2046.000000	100.001620
2045.000000	99.972672
2044.000000	99.974079
2043.000000	99.967299
2042.000000	99.927103
2041.000000	100.020256
2040.000000	100.062206
2039.000000	100.036875
2038.000000	100.043459
2037.000000	99.976397
2036.000000	99.907171
2035.000000	99.965561
2034.000000	100.098154
2033.000000	100.082217
2032.000000	100.016622
2031.000000	100.028886
2030.000000	99.987841
2029.000000	99.971531
2028.000000	100.021478
2027.000000	100.033236
2026.000000	100.039942
2025.000000	100.033968
2024.000000	100.031029
2023.000000	100.027586
2022.000000	99.947586
2021.000000	99.951037
2020.000000	100.008722
2019.000000	100.026468
2018.000000	99.987127
2017.000000	99.965538
2016.000000	99.944754
2015.000000	99.936640
2014.000000	99.951240
2013.000000	99.976479
2012.000000	100.059653
2011.000000	100.084830
2010.000000	100.026981
2009.000000	100.002941
2008.000000	100.023532
2007.000000	99.996855
2006.000000	99.968049
2005.000000	99.972512
2004.000000	99.993203
2003.000000	99.961046
2002.000000	99.976867
2001.000000	99.931640
2000.000000	99.916728
1999.000000	99.963474
1998.000000	100.013294
1997.000000	99.986706
1996.000000	99.998072
1995.000000	99.961540
1994.000000	99.940844
1993.000000	99.941544
1992.000000	99.985485
1991.000000	99.992894
1990.000000	99.971171
1989.000000	99.993808
1988.000000	99.963454
1987.000000	100.015335
1986.000000	99.970247
1985.000000	99.909151
1984.000000	99.967310
1983.000000	100.019907
1982.000000	99.970656
1981.000000	99.967915
1980.000000	99.963555
1979.000000	99.994008
1978.000000	100.012697
1977.000000	100.005891
1976.000000	100.056072
1975.000000	100.024378
1974.000000	100.005891
1973.000000	99.985680
1972.000000	99.971872
1971.000000	99.966696
1970.000000	99.959188
1969.000000	99.954819
1968.000000	99.951886
1967.000000	100.019802
1966.000000	100.032901
1965.000000	99.978274
1964.000000	99.990356
1963.000000	100.006802
1962.000000	99.996446
1961.000000	100.029044
1960.000000	100.017771
1959.000000	100.041846
1958.000000	100.005281
1957.000000	99.957880
1956.000000	99.943278
1955.000000	99.949762
1954.000000	99.961941
1953.000000	100.052694
1952.000000	100.057368
1951.000000	100.034936
1950.000000	100.060223
1949.000000	100.012084
1948.000000	100.013199
1947.000000	100.020303
1946.000000	100.008320
1945.000000	100.013394
1944.000000	99.981738
1943.000000	100.030655
1942.000000	99.980520
1941.000000	99.967638
1940.000000	99.937420
1939.000000	99.997666
1938.000000	99.979008
1937.000000	99.959637
1936.000000	99.958711
1935.000000	100.017046
1934.000000	99.942813
1933.000000	100.066052
1932.000000	100.024143
1931.000000	100.057824
1930.000000	100.060797
1929.000000	100.010549
1928.000000	99.998376
1927.000000	99.879970
1926.000000	99.960341
1925.000000	99.926915
1924.000000	99.915755
1923.000000	99.911731
1922.000000	99.985604
1921.000000	99.957116
1920.000000	99.896012
1919.000000	100.003144
1918.000000	99.958801
1917.000000	99.989855
1916.000000	100.052452
1915.000000	100.048769
1914.000000	99.971914
1913.000000	100.115008
1912.000000	99.932771
1911.000000	100.030142
1910.000000	100.032888
1909.000000	99.995536
1908.000000	99.930625
1907.000000	100.135534
1906.000000	100.038862
1905.000000	99.989144
1904.000000	99.991780
1903.000000	100.026168
1902.000000	100.003857
1901.000000	100.037029
1900.000000	100.035605
1899.000000	99.950698
1898.000000	100.014007
1897.000000	100.036030
1896.000000	100.018671
1895.000000	100.008627
1894.000000	100.015532
1893.000000	100.089151
1892.000000	99.980318
1891.000000	100.015119
1890.000000	100.041414
1889.000000	100.024651
1888.000000	99.969072
1887.000000	100.005986
1886.000000	99.989655
1885.000000	100.017648
1884.000000	99.994526
1883.000000	100.054784
1882.000000	99.969083
1881.000000	99.984696
1880.000000	100.027675
1879.000000	99.993819
1878.000000	99.964943
1877.000000	99.992400
1876.000000	100.024425
1875.000000	99.962015
1874.000000	99.973664
1873.000000	99.967895
1872.000000	99.940549
1871.000000	99.999899
1870.000000	99.972755
1869.000000	99.992604
1868.000000	100.020979
1867.000000	100.017229
1866.000000	100.050264
1865.000000	99.998176
1864.000000	99.969304
1863.000000	100.017330
1862.000000	100.032635
1861.000000	100.014089
1860.000000	99.970508
1859.000000	99.980233
1858.000000	99.946082
1857.000000	99.936687
1856.000000	99.960990
1855.000000	99.990677
1854.000000	99.989461
1853.000000	99.980948
1852.000000	99.975383
1851.000000	99.996048
1850.000000	100.041657
1849.000000	100.007499
1848.000000	100.040651
1847.000000	100.041162
1846.000000	100.011051
1845.000000	99.981047
1844.000000	100.010134
1843.000000	100.003243
1842.000000	100.006992
1841.000000	99.991893
1840.000000	100.008006
1839.000000	100.027974
1838.000000	100.017637
1837.000000	99.996047
1836.000000	100.010951
1835.000000	100.012169
1834.000000	99.997769
1833.000000	100.011560
1832.000000	100.018254
1831.000000	100.005883
1830.000000	100.029418
1829.000000	100.044740
1828.000000	100.009027
1827.000000	100.024449
1826.000000	100.037136
1825.000000	100.021408
1824.000000	100.027297
1823.000000	100.034811
1822.000000	100.017352
1821.000000	100.010859
1820.000000	100.006293
1819.000000	100.010860
1818.000000	100.005075
1817.000000	99.991067
1816.000000	99.985486
1815.000000	100.007613
1814.000000	100.014011
1813.000000	99.990152
1812.000000	99.961624
1811.000000	99.972082
1810.000000	99.992386
1809.000000	99.994416
1808.000000	99.992588
1807.000000	99.994719
1806.000000	99.979996
1805.000000	99.983042
1804.000000	99.996750
1803.000000	100.024784
1802.000000	100.021126
1801.000000	99.984868
1800.000000	100.012088
1799.000000	100.001422
1798.000000	99.979994
1797.000000	99.996750
1796.000000	99.993500
1795.000000	99.991976
1794.000000	99.994211
1793.000000	100.004571
1792.000000	100.042979
1791.000000	100.052429
1790.000000	99.997562
1789.000000	99.987609
1788.000000	99.992280
1787.000000	99.983138
1786.000000	100.020116
1785.000000	100.010768
1784.000000	99.985271
1783.000000	99.977857
1782.000000	99.972271
1781.000000	99.972677
1780.000000	99.987302
1779.000000	100.007009
1778.000000	99.984156
1777.000000	99.998070
1776.000000	100.007010
1775.000000	99.990857
1774.000000	100.010869
1773.000000	100.007923
1772.000000	99.974916
1771.000000	99.978268
1770.000000	99.997867
1769.000000	99.973692
1768.000000	99.995632
1767.000000	99.985374
1766.000000	99.986796
1765.000000	99.992584
1764.000000	100.013308
1763.000000	100.014019
1762.000000	99.986290
1761.000000	100.025189
1760.000000	100.003860
1759.000000	100.007721
1758.000000	100.000406
1757.000000	100.006705
1756.000000	100.002641
1755.000000	100.006399
1754.000000	99.996140
1753.000000	100.018079
1752.000000	99.998070
1751.000000	99.986899
1750.000000	99.985579
1749.000000	99.990556
1748.000000	99.986187
1747.000000	100.016860
1746.000000	100.020316
1745.000000	99.985985
1744.000000	100.044391
1743.000000	99.991369
1742.000000	100.007413
1741.000000	99.966797
1740.000000	100.022650
1739.000000	100.000102
1738.000000	99.983144
1737.000000	99.975326
1736.000000	100.002031
1735.000000	99.978879
1734.000000	99.986595
1733.000000	100.017269
1732.000000	100.042057
1731.000000	100.013407
1730.000000	99.972080
1729.000000	99.989338
1728.000000	100.002437
1727.000000	99.961822
1726.000000	99.984871
1725.000000	100.039110
1724.000000	100.024374
1723.000000	99.996041
1722.000000	99.992993
1721.000000	99.989542
1720.000000	99.988729
1719.000000	100.022952
1718.000000	99.988423
1717.000000	100.016246
1716.000000	99.998883
1715.000000	99.970049
1714.000000	100.012492
1713.000000	100.001828
1712.000000	100.004368
1711.000000	99.977659
1710.000000	99.959386
1709.000000	99.982231
1708.000000	99.999898
1707.000000	99.971064
1706.000000	100.009647
1705.000000	100.007414
1704.000000	99.974415
1703.000000	99.973194
1702.000000	99.993298
1701.000000	99.987003
1700.000000	99.954315
1699.000000	100.003147
1698.000000	99.974414
1697.000000	100.010663
1696.000000	100.025388
1695.000000	99.995939
1694.000000	99.989747
1693.000000	99.989744
1692.000000	99.969032
1691.000000	100.006702
1690.000000	100.003555
1689.000000	100.001016
1688.000000	99.963754
1687.000000	99.979285
1686.000000	99.969745
1685.000000	100.020510
1684.000000	100.012184
1683.000000	100.005686
1682.000000	99.967214
1681.000000	100.009849
1680.000000	99.990660
1679.000000	100.017870
1678.000000	100.017261
1677.000000	99.992284
1676.000000	100.005077
1675.000000	100.002945
1674.000000	100.004772
1673.000000	100.001015
1672.000000	100.004569
1671.000000	99.980300
1670.000000	100.001929
1669.000000	99.991678
1668.000000	99.983053
1667.000000	100.000913
1666.000000	99.994520
1665.000000	100.020403
1664.000000	99.989040
1663.000000	99.993607
1662.000000	100.004769
1661.000000	100.001116
1660.000000	99.999391
1659.000000	99.992592
1658.000000	99.959922
1657.000000	99.988636
1656.000000	99.992594
1655.000000	99.974333
1654.000000	100.011365
1653.000000	100.012482
1652.000000	100.000913
1651.000000	99.987824
1650.000000	100.021414
1649.000000	100.005582
1648.000000	99.995839
1647.000000	99.998681
1646.000000	99.993912
1645.000000	99.996651
1644.000000	100.008727
1643.000000	100.007407
1642.000000	100.015526
1641.000000	99.994420
1640.000000	99.991274
1639.000000	100.006798
1638.000000	99.982245
1637.000000	99.995636
1636.000000	99.998884
1635.000000	100.011365
1634.000000	100.004262
1633.000000	100.000507
1632.000000	99.994419
1631.000000	100.007307
1630.000000	99.984169
1629.000000	99.981229
1628.000000	99.997666
1627.000000	99.985187
1626.000000	99.974231
1625.000000	99.983866
1624.000000	99.981532
1623.000000	100.005479
1622.000000	100.013395
1621.000000	100.011974
1620.000000	100.009539
1619.000000	100.001827
1618.000000	99.995536
1617.000000	100.001015
1616.000000	99.999797
1615.000000	100.004769
1614.000000	99.999797
1613.000000	99.991782
1612.000000	99.993810
1611.000000	99.997362
1610.000000	100.004667
1609.000000	100.006798
1608.000000	99.998985
1607.000000	99.980418
1606.000000	99.997971
1605.000000	100.006291
1604.000000	100.007103
1603.000000	100.016439
1602.000000	100.014004
1601.000000	100.002435
1600.000000	100.009843
1599.000000	100.001725
1598.000000	99.987419
1597.000000	99.986304
1596.000000	99.986406
1595.000000	100.002131
1594.000000	100.006088
1593.000000	99.992797
1592.000000	99.994014
1591.000000	99.999797
1590.000000	100.002131
1589.000000	99.992797
1588.000000	100.001623
1587.000000	100.015221
1586.000000	100.012989
1585.000000	100.018977
1584.000000	100.013293
1583.000000	99.992492
1582.000000	100.004261
1581.000000	99.998478
1580.000000	99.994623
1579.000000	100.000710
1578.000000	99.998377
1577.000000	100.009741
1576.000000	100.016742
1575.000000	100.018265
1574.000000	100.012276
1573.000000	100.034293
1572.000000	100.031349
1571.000000	100.012377
1570.000000	99.999696
1569.000000	100.007000
1568.000000	99.989450
1567.000000	99.984278
1566.000000	99.991581
1565.000000	99.996145
1564.000000	100.001116
1563.000000	100.025667
1562.000000	100.012578
1561.000000	100.003753
1560.000000	100.005883
1559.000000	99.986307
1558.000000	99.996855
1557.000000	100.014508
1556.000000	99.991276
1555.000000	100.007607
1554.000000	100.020592
1553.000000	100.000000
1552.000000	99.995334
1551.000000	100.008217
1550.000000	99.997768
1549.000000	100.001826
1548.000000	100.001927
1547.000000	99.986003
1546.000000	99.995740
1545.000000	100.005173
1544.000000	99.992494
1543.000000	99.974440
1542.000000	99.987320
1541.000000	99.982960
1540.000000	99.994827
1539.000000	100.006289
1538.000000	99.997363
1537.000000	99.985803
1536.000000	99.973835
1535.000000	99.983570
1534.000000	99.999899
1533.000000	99.999391
1532.000000	99.984382
1531.000000	99.998580
1530.000000	100.025768
1529.000000	99.998985
1528.000000	100.001217
1527.000000	99.998681
1526.000000	99.996348
1525.000000	100.008016
1524.000000	100.000913
1523.000000	99.997058
1522.000000	100.001217
1521.000000	100.009027
1520.000000	99.988640
1519.000000	99.989958
1518.000000	100.031150
1517.000000	100.007000
1516.000000	99.969162
1515.000000	100.021815
1514.000000	100.000609
1513.000000	99.995740
1512.000000	99.968351
1511.000000	99.982754
1510.000000	100.002942
1509.000000	100.036428
1508.000000	100.000203
1507.000000	100.005783
1506.000000	99.999899
1505.000000	99.966827
1504.000000	100.010858
1503.000000	99.987723
1502.000000	99.974028
1501.000000	99.997362
1500.000000	100.001420
1499.000000	99.987928
1498.000000	100.009741
1497.000000	100.001725
1496.000000	99.989247
1495.000000	100.003957
1494.000000	100.001015
1493.000000	99.991277
1492.000000	99.994117
1491.000000	99.984380
1490.000000	100.005681
1489.000000	100.006087
1488.000000	100.004667
1487.000000	100.016336
1486.000000	99.985393
1485.000000	99.999493
1484.000000	99.992798
1483.000000	99.992798
1482.000000	99.981337
1481.000000	99.986510
1480.000000	99.976878
1479.000000	99.974545
1478.000000	99.969474
1477.000000	99.988744
1476.000000	99.985093
1475.000000	99.995131
1474.000000	99.968867
1473.000000	100.008216
1472.000000	100.030638
1471.000000	99.982556
1470.000000	100.006390
1469.000000	100.013187
1468.000000	99.975861
1467.000000	99.986614
1466.000000	100.004057
1465.000000	100.009941
1464.000000	99.998580
1463.000000	99.997160
1462.000000	99.980325
1461.000000	99.999189
1460.000000	100.043832
1459.000000	99.981441
1458.000000	99.968563
1457.000000	99.996451
1456.000000	100.016936
1455.000000	100.027387
1454.000000	100.010244
1453.000000	99.988033
1452.000000	99.990873
1451.000000	100.026678
1450.000000	100.010750
1449.000000	99.999797
1448.000000	99.978399
1447.000000	99.988743
1446.000000	100.023735
1445.000000	100.024245
1444.000000	100.012069
1443.000000	99.991482
1442.000000	99.980426
1441.000000	100.001724
1440.000000	99.996958
1439.000000	100.003448
1438.000000	100.023430
1437.000000	100.014603
1436.000000	100.026368
1435.000000	99.998276
1434.000000	100.026268
1433.000000	100.034685
1432.000000	100.015920
1431.000000	99.985906
1430.000000	99.997871
1429.000000	99.977082
1428.000000	99.987629
1427.000000	99.992700
1426.000000	99.983678
1425.000000	100.011863
1424.000000	99.992701
1423.000000	99.994628
1422.000000	100.001521
1421.000000	100.005676
1420.000000	100.006486
1419.000000	100.020876
1418.000000	100.021485
1417.000000	100.008410
1416.000000	100.003040
1415.000000	100.000000
1414.000000	99.994733
1413.000000	99.992708
1412.000000	100.005773
1411.000000	100.000203
1410.000000	100.001316
1409.000000	99.998380
1408.000000	99.989674
1407.000000	99.985425
1406.000000	99.982593
1405.000000	100.004656
1404.000000	100.001822
1403.000000	99.998684
1402.000000	99.998786
1401.000000	99.981486
1400.000000	99.982294
1399.000000	99.984420
1398.000000	99.992312
1397.000000	99.987862
1396.000000	99.982301
1395.000000	99.976133
1394.000000	99.974416
1393.000000	99.989889
1392.000000	100.002124
1391.000000	100.015373
1390.000000	100.011124
1389.000000	99.994540
1388.000000	99.977047
1387.000000	100.014260
1386.000000	100.025789
1385.000000	99.991202
1384.000000	99.992517
1383.000000	100.031251
1382.000000	100.030948
1381.000000	100.001011
1380.000000	100.017699
1379.000000	100.007990
1378.000000	99.979474
1377.000000	100.019013
1376.000000	100.024980
1375.000000	99.996562
1374.000000	100.002023
1373.000000	100.018104
1372.000000	100.011935
1371.000000	100.004147
1370.000000	100.002831
1369.000000	99.978059
1368.000000	99.963300
1367.000000	99.991507
1366.000000	99.997776
1365.000000	99.988172
1364.000000	99.982109
1363.000000	99.994036
1362.000000	100.000607
1361.000000	99.991407
1360.000000	99.984330
1359.000000	99.987260
1358.000000	99.999393
1357.000000	99.993831
1356.000000	99.997775
1355.000000	99.984728
1354.000000	99.963185
1353.000000	99.975316
1352.000000	100.002125
1351.000000	100.037657
1350.000000	100.047279
1349.000000	100.026114
1348.000000	99.997166
1347.000000	99.999798
1346.000000	100.011640
1345.000000	99.997267
1344.000000	99.996660
1343.000000	99.991295
1342.000000	100.018830
1341.000000	100.029863
1340.000000	100.036642
1339.000000	100.027328
1338.000000	100.004453
1337.000000	99.989575
1336.000000	100.003947
1335.000000	99.987149
1334.000000	99.979560
1333.000000	99.995143
1332.000000	100.026517
1331.000000	100.016393
1330.000000	99.990793
1329.000000	99.980068
1328.000000	99.996863
1327.000000	100.030971
1326.000000	99.986644
1325.000000	99.985533
1324.000000	100.020341
1323.000000	100.022767
1322.000000	99.982093
1321.000000	100.032788
1320.000000	99.990893
1319.000000	99.981285
1318.000000	100.015583
1317.000000	100.009917
1316.000000	99.966007
1315.000000	99.970757
1314.000000	99.991298
1313.000000	99.993727
1312.000000	100.033601
1311.000000	100.001720
1310.000000	99.969441
1309.000000	100.027333
1308.000000	99.992512
1307.000000	99.963474
1306.000000	99.987553
1305.000000	99.989982
1304.000000	100.022269
1303.000000	100.004251
1302.000000	100.015992
1301.000000	99.998381
1300.000000	99.982798
1299.000000	99.981583
1298.000000	100.000405
1297.000000	99.994433
1296.000000	99.973487
1295.000000	100.009816
1294.000000	99.997875
1293.000000	99.974199
1292.000000	99.981686
1291.000000	99.985126
1290.000000	99.985228
1289.000000	99.989782
1288.000000	99.995447
1287.000000	100.011230
1286.000000	100.011128
1285.000000	100.001619
1284.000000	100.015478
1283.000000	99.988875
1282.000000	99.974921
1281.000000	99.989078
1280.000000	100.005259
1279.000000	99.949954
1278.000000	99.980992
1277.000000	100.000202
1276.000000	100.001112
1275.000000	100.004651
1274.000000	100.003033
1273.000000	99.999394
1272.000000	100.001718
1271.000000	100.001617
1270.000000	99.995856
1269.000000	99.999899
1268.000000	99.980189
1267.000000	99.971909
1266.000000	99.977569
1265.000000	99.987269
1264.000000	100.010209
1263.000000	100.000000
1262.000000	99.984137
1261.000000	99.977668
1260.000000	99.985046
1259.000000	100.030427
1258.000000	100.022233
1257.000000	99.979691
1256.000000	99.996969
1255.000000	99.968173
1254.000000	99.985553
1253.000000	99.992826
1252.000000	99.991918
1251.000000	99.982118
1250.000000	99.998282
1249.000000	99.987069
1248.000000	99.969796
1247.000000	99.998990
1246.000000	99.984746
1245.000000	99.986465
1244.000000	99.986364
1243.000000	99.980404
1242.000000	99.976969
1241.000000	99.991616
1240.000000	99.991920
1239.000000	99.983337
1238.000000	100.011210
1237.000000	100.014947
1236.000000	100.010906
1235.000000	100.004038
1234.000000	100.012922
1233.000000	100.007774
1232.000000	99.998486
1231.000000	99.992834
1230.000000	99.985671
1229.000000	100.008880
1228.000000	100.006458
1227.000000	99.994350
1226.000000	99.988199
1225.000000	100.000807
1224.000000	99.994957
1223.000000	100.006556
1222.000000	100.019262
1221.000000	100.009781
1220.000000	99.995867
1219.000000	100.007562
1218.000000	100.004940
1217.000000	99.997178
1216.000000	99.974601
1215.000000	100.007661
1214.000000	100.021170
1213.000000	99.997379
1212.000000	99.973394
1211.000000	99.992844
1210.000000	100.019958
1209.000000	99.984985
1208.000000	99.971482
1207.000000	100.023483
1206.000000	99.991838
1205.000000	99.969973
1204.000000	99.998690
1203.000000	100.004938
1202.000000	99.970981
1201.000000	99.999899
1200.000000	100.007759
1199.000000	100.008061
1198.000000	100.004433
1197.000000	99.991032
1196.000000	100.004232
1195.000000	99.990329
1194.000000	100.001007
1193.000000	100.018539
1192.000000	99.998086
1191.000000	100.008664
1190.000000	100.025595
1189.000000	100.021164
1188.000000	100.009774
1187.000000	99.996273
1186.000000	99.993553
1185.000000	100.007555
1184.000000	99.997381
1183.000000	99.993051
1182.000000	99.997885
1181.000000	99.994965
1180.000000	99.995066
1179.000000	100.000201
1178.000000	100.009062
1177.000000	99.992753
1176.000000	99.982990
1175.000000	99.992150
1174.000000	100.012379
1173.000000	100.007347
1172.000000	99.996780
1171.000000	99.996679
1170.000000	100.005937
1169.000000	100.000906
1168.000000	100.000604
1167.000000	100.000201
1166.000000	99.995776
1165.000000	99.984412
1164.000000	99.986023
1163.000000	100.004726
1162.000000	100.001910
1161.000000	99.997688
1160.000000	99.994673
1159.000000	99.992663
1158.000000	99.999799
1157.000000	100.000703
1156.000000	100.004020
1155.000000	100.003718
1154.000000	99.990355
1153.000000	99.996383
1152.000000	100.009041
1151.000000	100.000201
1150.000000	99.999498
1149.000000	100.002711
1148.000000	100.001004
1147.000000	100.008534
1146.000000	100.007127
1145.000000	99.997290
1144.000000	99.982341
1143.000000	100.000201
1142.000000	100.002509
1141.000000	99.982844
1140.000000	99.990670
1139.000000	99.997392
1138.000000	100.003009
1137.000000	99.984858
1136.000000	99.972028
1135.000000	99.993283
1134.000000	99.995990
1133.000000	100.008622
1132.000000	99.996392
1131.000000	100.001904
1130.000000	100.008818
1129.000000	100.009818
1128.000000	99.999199
1127.000000	99.990686
1126.000000	100.005608
1125.000000	100.014021
1124.000000	100.000701
1123.000000	100.006007
1122.000000	100.003904
1121.000000	99.986387
1120.000000	99.986689
1119.000000	99.995396
1118.000000	99.993796
1117.000000	100.005904
1116.000000	100.009405
1115.000000	100.001501
1114.000000	100.002401
1113.000000	100.008201
1112.000000	100.019902
1111.000000	99.999500
1110.000000	99.965311
1109.000000	99.980806
1108.000000	100.003199
1107.000000	100.006597
1106.000000	100.001599
1105.000000	100.007595
1104.000000	99.998002
1103.000000	100.010889
1102.000000	100.002497
1101.000000	100.014978
1100.000000	100.015375
1099.000000	100.024857
1098.000000	100.004591
1097.000000	99.999601
1096.000000	99.974458
1095.000000	99.978950
1094.000000	99.985237
1093.000000	99.997407
1092.000000	100.019550
1091.000000	100.001396
1090.000000	99.996013
1089.000000	99.984352
1088.000000	99.998505
1087.000000	100.021924
1086.000000	100.014643
1085.000000	99.990440
1084.000000	100.008365
1083.000000	100.005477
1082.000000	99.997312
1081.000000	100.001393
1080.000000	100.002289
1079.000000	100.004178
1078.000000	100.006068
1077.000000	99.999105
1076.000000	99.983793
1075.000000	99.994332
1074.000000	99.992345
1073.000000	100.017096
1072.000000	100.011227
1071.000000	100.020763
1070.000000	100.023643
1069.000000	100.020160
1068.000000	100.012611
1067.000000	100.025314
1066.000000	99.987394
1065.000000	99.989878
1064.000000	100.001588
1063.000000	99.996925
1062.000000	99.981654
1061.000000	99.982847
1060.000000	99.998216
1059.000000	99.969081
1058.000000	99.991975
1057.000000	99.993165
1056.000000	99.999406
1055.000000	100.007328
1054.000000	100.016831
1053.000000	100.016827
1052.000000	99.993370
1051.000000	99.990799
1050.000000	99.996736
1049.000000	99.999308
1048.000000	100.015818
1047.000000	100.022635
1046.000000	100.005040
1045.000000	100.004347
1044.000000	99.989235
1043.000000	100.004641
1042.000000	99.980257
1041.000000	100.000493
1040.000000	99.972374
1039.000000	99.996942
1038.000000	100.001676
1037.000000	100.011931
1036.000000	100.000789
1035.000000	99.999901
1034.000000	100.000197
1033.000000	100.007486
1032.000000	100.012309
1031.000000	100.006202
1030.000000	99.996851
1029.000000	99.985046
1028.000000	99.996361
1027.000000	100.027730
1026.000000	100.023299
1025.000000	100.012088
1024.000000	99.999411
1023.000000	99.985369
1022.000000	99.992441
1021.000000	100.017962
1020.000000	100.004415
1019.000000	100.011672
1018.000000	100.014610
1017.000000	99.982456
1016.000000	100.002940
1015.000000	99.992164
1014.000000	99.992950
1013.000000	100.011946
1012.000000	100.018889
1011.000000	100.029743
1010.000000	99.991786
1009.000000	99.984359
1008.000000	99.989543
1007.000000	99.994334
1006.000000	100.015334
1005.000000	100.019916
1004.000000	100.023032
1003.000000	99.996294
1002.000000	99.996392
1001.000000	99.985185
1000.000000	99.989671
999.000000	100.004578
998.000000	100.001655
997.000000	100.021510
996.000000	99.990467
995.000000	99.986387
994.000000	99.984642
993.000000	100.015353
992.000000	100.009811
991.000000	99.996990
990.000000	100.005144
989.000000	100.010865
988.000000	100.019882
987.000000	100.017256
986.000000	100.000194
985.000000	99.984018
984.000000	99.989640
983.000000	99.997968
982.000000	99.995840
981.000000	100.003675
980.000000	99.998743
979.000000	99.995362
978.000000	100.012847
977.000000	100.006372
976.000000	99.985624
975.000000	99.986016
974.000000	99.991035
973.000000	99.991617
972.000000	99.984976
971.000000	99.993357
970.000000	99.994226
969.000000	99.997595
968.000000	99.986253
967.000000	99.998847
966.000000	100.006243
965.000000	99.992321
964.000000	99.981961
963.000000	100.014868
962.000000	100.017830
961.000000	100.017053
960.000000	100.033711
959.000000	100.007178
958.000000	100.011383
957.000000	100.019409
956.000000	99.996465
955.000000	100.011078
954.000000	100.026442
953.000000	100.027857
952.000000	100.009915
951.000000	99.995808
950.000000	100.010759
949.000000	100.001332
948.000000	99.997432
947.000000	99.995628
946.000000	100.002470
945.000000	100.003038
944.000000	99.999715
943.000000	100.011948
942.000000	99.995262
941.000000	99.986934
940.000000	100.005679
939.000000	100.015890
938.000000	100.004536
937.000000	99.968743
936.000000	99.987163
935.000000	100.030661
934.000000	100.002356
933.000000	99.987566
932.000000	99.990587
931.000000	99.975547
930.000000	99.971238
929.000000	99.983371
928.000000	100.002816
927.000000	100.012288
926.000000	100.010498
925.000000	100.009085
924.000000	100.003463
923.000000	99.986721
922.000000	99.993646
921.000000	99.986367
920.000000	100.000093
919.000000	100.005688
918.000000	100.026927
917.000000	100.020204
916.000000	100.005489
915.000000	100.037098
914.000000	100.037716
913.000000	100.031464
912.000000	100.023828
911.000000	100.031501
910.000000	99.991855
909.000000	100.025257
908.000000	99.989094
907.000000	99.958915
906.000000	99.968458
905.000000	99.991521
904.000000	99.962891
903.000000	99.996412
902.000000	100.026284
901.000000	99.992012
900.000000	100.028175
899.000000	99.981940
898.000000	99.986261
897.000000	99.998536
896.000000	100.016736
895.000000	100.028230
894.000000	99.992790
893.000000	99.969725
892.000000	99.976223
891.000000	99.962225
890.000000	99.972177
889.000000	99.926042
888.000000	99.957526
887.000000	100.034471
886.000000	99.973276
885.000000	99.955381
884.000000	100.026954
883.000000	100.030099
882.000000	99.978971
881.000000	100.013797
880.000000	100.027208
879.000000	100.021866
878.000000	99.874400
877.000000	99.983378
876.000000	99.967507
875.000000	99.964573
874.000000	99.957974
873.000000	99.995793
872.000000	100.190259
871.000000	100.044074
870.000000	100.031532
869.000000	99.938227
868.000000	99.885254
867.000000	100.030001
866.000000	99.918150
865.000000	99.964972
864.000000	100.037948
863.000000	99.984923
862.000000	99.952335
861.000000	99.984329
860.000000	99.945886
859.000000	100.523251
858.000000	100.079707
857.000000	100.679012
856.000000	100.152715
855.000000	99.842842
854.000000	99.386450
853.000000	99.851979
852.000000	100.011970
851.000000	99.623057
850.000000	99.603993
849.000000	99.955081
848.000000	100.034049
847.000000	100.109727
846.000000	99.975275
845.000000	100.158298
844.000000	100.015526
843.000000	100.339991
842.000000	99.940261
841.000000	100.009514
840.000000	99.974295
839.000000	99.903997
838.000000	100.051303
837.000000	99.779390
836.000000	100.095590
835.000000	100.065221
834.000000	99.975296
833.000000	100.103345
832.000000	99.891137
831.000000	100.014683
830.000000	100.031140
829.000000	99.882636
828.000000	100.092929
827.000000	100.087181
826.000000	99.986496
825.000000	99.949180
824.000000	100.001579
823.000000	100.076192
822.000000	99.908044
821.000000	99.555093
820.000000	100.049316
819.000000	99.961305
818.000000	100.212402
817.000000	99.928514
816.000000	100.173024
815.000000	99.895684
814.000000	100.229090
813.000000	99.861821
812.000000	100.131592
811.000000	100.091199
810.000000	100.028621
809.000000	100.075456
808.000000	100.066068
807.000000	99.927870
806.000000	100.099635
805.000000	100.132095
804.000000	100.080008
803.000000	99.790791
802.000000	99.950902
801.000000	99.993406
800.000000	100.031314
799.000000	99.978083
798.000000	99.925590
797.000000	99.991282
796.000000	99.900501
795.000000	99.974191
794.000000	99.999559
793.000000	100.044488
792.000000	100.053049
791.000000	100.058186
790.000000	99.958522
789.000000	100.014057
788.000000	99.904646
787.000000	100.018233
786.000000	99.924013
785.000000	100.038852
784.000000	100.023047
783.000000	100.103195
782.000000	99.925403
781.000000	100.063359
780.000000	99.924849
779.000000	100.046546
778.000000	100.059963
777.000000	100.097444
776.000000	100.076912
775.000000	99.948560
774.000000	100.075381
773.000000	99.964662
772.000000	100.000267
771.000000	100.050094
770.000000	100.188000
769.000000	99.912983
768.000000	99.891434
767.000000	99.821594
766.000000	99.848095
765.000000	99.806303
764.000000	99.866166
763.000000	99.908126
762.000000	99.997585
761.000000	100.042275
760.000000	100.140391
759.000000	100.063433
758.000000	100.006274
757.000000	100.011211
756.000000	100.041794
755.000000	100.053106
754.000000	99.947037
753.000000	100.094651
752.000000	99.958016
751.000000	99.845542
750.000000	99.958751
749.000000	99.995862
748.000000	99.977501
747.000000	100.113815
746.000000	100.029004
745.000000	99.901363
744.000000	99.999549
743.000000	100.072800
742.000000	99.997294
741.000000	100.087577
740.000000	100.016799
739.000000	99.975778
738.000000	100.017727
737.000000	99.990323
736.000000	99.992947
735.000000	99.989870
734.000000	100.010320
733.000000	99.973110
732.000000	100.098671
731.000000	100.120976
730.000000	99.998279
729.000000	99.982324
728.000000	100.001451
727.000000	100.036559
726.000000	100.052094
725.000000	100.008261
724.000000	100.055507
723.000000	100.054594
722.000000	99.952764
721.000000	99.946024
720.000000	99.939212
719.000000	100.020092
718.000000	100.070335
717.000000	100.064537
716.000000	99.972517
715.000000	100.020220
714.000000	99.990892
713.000000	99.970482
712.000000	100.045591
711.000000	100.076008
710.000000	99.986682
709.000000	99.991610
708.000000	99.990153
707.000000	99.912127
706.000000	100.006569
705.000000	100.078986
704.000000	100.068134
703.000000	100.024846
702.000000	100.026779
701.000000	100.024216
700.000000	100.033269
699.000000	100.020571
698.000000	99.999543
697.000000	100.021596
696.000000	99.972641
695.000000	100.009889
694.000000	100.070086
693.000000	100.091973
692.000000	100.002932
691.000000	100.029798
690.000000	100.121167
689.000000	100.101283
688.000000	100.036175
687.000000	99.993864
686.000000	100.014932
685.000000	100.058649
684.000000	100.030433
683.000000	99.986161
682.000000	100.038421
681.000000	100.064771
680.000000	100.007063
679.000000	99.967809
678.000000	99.958911
677.000000	100.045995
676.000000	100.041700
675.000000	99.963378
674.000000	99.970710
673.000000	99.973738
672.000000	99.972181
671.000000	99.959322
670.000000	99.951134
669.000000	99.911526
668.000000	99.899496
667.000000	99.923377
666.000000	99.973074
665.000000	99.987770
664.000000	99.960088
663.000000	100.002023
662.000000	100.006717
661.000000	99.966491
660.000000	99.991067
659.000000	99.991164
658.000000	100.001381
657.000000	100.002578
656.000000	99.927259
655.000000	99.946652
654.000000	100.009585
653.000000	99.930056
652.000000	99.948935
651.000000	99.957611
650.000000	99.972515
649.000000	100.032130
648.000000	99.960521
647.000000	99.924134
646.000000	99.942448
645.000000	99.941340
644.000000	99.935687
643.000000	99.907274
642.000000	99.875249
641.000000	99.972222
640.000000	99.993903
639.000000	100.063682
638.000000	99.939225
637.000000	99.905996
636.000000	100.010717
635.000000	100.069870
634.000000	100.098720
633.000000	100.029961
632.000000	99.959243
631.000000	99.982425
630.000000	100.063554
629.000000	100.042173
628.000000	99.904947
627.000000	99.989820
626.000000	100.001850
625.000000	99.867473
624.000000	100.020464
623.000000	99.985653
622.000000	100.030558
621.000000	100.009815
620.000000	99.889750
619.000000	99.903037
618.000000	100.066436
617.000000	100.059573
616.000000	99.973790
615.000000	99.996294
614.000000	99.971464
613.000000	100.024658
612.000000	99.931349
611.000000	100.058515
610.000000	99.852302
609.000000	99.924989
608.000000	99.993784
607.000000	99.907571
606.000000	99.968387
605.000000	100.027263
604.000000	99.951761
603.000000	99.966056
602.000000	100.024782
601.000000	100.004918
600.000000	100.007238
599.000000	99.938052
598.000000	99.874250
597.000000	100.018108
596.000000	100.002321
595.000000	99.932158
594.000000	99.952109
593.000000	99.936887
592.000000	99.968155
591.000000	100.051552
590.000000	99.850494
589.000000	100.072681
588.000000	100.040211
587.000000	99.934989
586.000000	99.998421
585.000000	100.012730
584.000000	99.919453
583.000000	99.937395
582.000000	99.988198
581.000000	99.951522
580.000000	99.832624
579.000000	100.013384
578.000000	99.963008
577.000000	99.965515
576.000000	99.979643
575.000000	100.067121
574.000000	99.993212
573.000000	100.026314
572.000000	99.898078
571.000000	99.935504
570.000000	100.031524
569.000000	99.998512
568.000000	99.925986
567.000000	100.018693
566.000000	99.944018
565.000000	99.937814
564.000000	99.920218
563.000000	100.027454
562.000000	100.010979
561.000000	99.970136
560.000000	99.889259
559.000000	99.988745
558.000000	100.008747
557.000000	99.985300
556.000000	100.012562
555.000000	100.048864
554.000000	99.961937
553.000000	100.073011
552.000000	100.012663
551.000000	99.956521
550.000000	99.981660
549.000000	99.928891
548.000000	100.011177
547.000000	100.082449
546.000000	99.995623
545.000000	99.967966
544.000000	100.012854
543.000000	99.984447
542.000000	99.949232
541.000000	99.981552
540.000000	99.960027
539.000000	99.962740
538.000000	100.071189
537.000000	100.013137
536.000000	100.040274
535.000000	100.115912
534.000000	99.961989
533.000000	99.958999
532.000000	100.002889
531.000000	100.044751
530.000000	100.040653
529.000000	100.057083
528.000000	99.974362
527.000000	99.979767
526.000000	100.015479
525.000000	100.009138
524.000000	100.055858
523.000000	99.998694
522.000000	99.938356
521.000000	100.014085
520.000000	100.041964
519.000000	100.013989
518.000000	99.983773
517.000000	100.019775
516.000000	100.040301
515.000000	99.988342
514.000000	100.037406
513.000000	100.046744
512.000000	99.981624
511.000000	100.013152
510.000000	99.998322
509.000000	100.001306
508.000000	100.118792
507.000000	99.998228
506.000000	99.987221
505.000000	100.032655
504.000000	100.015299
503.000000	99.988336
502.000000	99.979847
501.000000	100.008208
500.000000	99.992351
499.000000	100.026691
498.000000	99.928368
497.000000	100.023973
496.000000	100.005970
495.000000	99.969491
494.000000	99.964156
493.000000	100.000560
492.000000	100.047704
491.000000	100.022679
490.000000	100.072967
489.000000	100.076242
488.000000	99.994496
487.000000	99.966510
486.000000	99.925756
485.000000	99.989921
484.000000	99.980487
483.000000	99.897295
482.000000	100.007194
481.000000	100.051596
480.000000	99.968971
479.000000	99.950179
478.000000	99.948956
477.000000	100.006080
476.000000	99.988118
475.000000	99.969215
474.000000	99.994291
473.000000	100.017505
472.000000	100.039224
471.000000	99.988675
470.000000	99.969488
469.000000	99.941681
468.000000	99.948037
467.000000	100.017511
466.000000	100.010303
465.000000	99.982195
464.000000	99.983599
463.000000	100.011057
462.000000	99.959260
461.000000	99.975186
460.000000	100.011989
459.000000	99.940033
458.000000	99.888578
457.000000	99.935242
456.000000	99.994563
455.000000	100.049588
454.000000	100.024839
453.000000	99.994000
452.000000	100.012098
451.000000	100.009752
450.000000	100.067630
449.000000	100.086596
448.000000	100.031795
447.000000	99.959667
446.000000	99.946338
445.000000	100.043081
444.000000	100.000563
443.000000	99.969240
442.000000	100.073047
441.000000	100.025260
440.000000	100.034360
439.000000	100.015019
438.000000	99.917590
437.000000	99.985163
436.000000	99.976148
435.000000	99.923540
434.000000	99.968811
433.000000	99.986004
432.000000	100.048584
431.000000	100.012591
430.000000	100.019924
429.000000	99.914468
428.000000	99.899553
427.000000	99.954901
426.000000	99.985806
425.000000	99.953650
424.000000	100.006205
423.000000	99.969348
422.000000	99.931361
421.000000	100.056269
420.000000	100.042447
419.000000	100.006586
418.000000	99.979952
417.000000	99.835510
416.000000	99.898775
415.000000	100.054342
414.000000	100.123366
413.000000	100.054994
412.000000	100.017232
411.000000	100.020608
410.000000	99.965935
409.000000	99.969687
408.000000	100.026468
407.000000	100.025803
406.000000	100.009511
405.000000	99.933621
404.000000	100.045899
403.000000	100.021010
402.000000	100.072952
401.000000	100.105562
400.000000	99.945295
399.000000	99.912598
398.000000	99.961342
397.000000	100.064593
396.000000	100.014708
395.000000	99.886390
394.000000	99.979743
393.000000	100.024404
392.000000	100.029810
391.000000	100.082634
390.000000	99.973705
389.000000	100.083316
388.000000	99.999245
387.000000	100.052832
386.000000	99.903822
385.000000	99.900230
384.000000	100.048840
383.000000	99.959265
382.000000	99.995944
381.000000	100.018012
380.000000	100.035403
379.000000	100.008484
378.000000	100.159881
377.000000	100.206203
376.000000	100.272727
375.000000	100.021441
374.000000	100.132009
373.000000	100.125130
372.000000	100.216574
371.000000	100.328721
370.000000	100.028484
369.000000	99.938448
368.000000	99.811503
367.000000	100.110505
366.000000	99.950431
365.000000	100.107947
364.000000	100.018709
363.000000	100.141455
362.000000	99.823908
361.000000	99.896316
360.000000	99.865286
359.000000	99.842606
358.000000	99.873697
357.000000	99.709539
356.000000	99.817432
355.000000	100.025485
354.000000	99.800530
353.000000	100.116301
352.000000	99.861413
351.000000	100.040537
350.000000	99.741050
349.000000	100.083866
348.000000	99.863944
347.000000	100.184973
346.000000	100.018807
345.000000	99.989013
344.000000	100.095421
343.000000	99.865217
342.000000	99.770619
341.000000	99.853312
340.000000	100.009387
339.000000	100.176062
338.000000	99.956783
337.000000	100.032132
336.000000	100.097408
335.000000	100.115639
334.000000	99.856025
333.000000	100.041320
332.000000	99.925760
331.000000	100.225702
330.000000	100.013078
329.000000	100.041224
328.000000	99.967139
327.000000	100.096220
326.000000	100.488356
325.000000	100.298027
324.000000	99.583576
323.000000	99.695950
322.000000	99.927625
321.000000	100.137218
320.000000	100.058070
319.000000	99.848341
318.000000	100.378823
317.000000	99.823053
316.000000	100.081595
315.000000	99.746601
314.000000	99.983082
313.000000	99.803020
312.000000	99.949202
311.000000	99.866849
310.000000	99.973043
309.000000	100.212813
308.000000	100.110670
307.000000	99.993564
306.000000	99.783328
305.000000	100.012154
304.000000	100.023831
303.000000	99.977752
302.000000	100.114067
301.000000	99.756699
300.000000	99.818927
299.000000	100.025943
298.000000	100.188118
297.000000	99.919829
296.000000	99.934103
295.000000	100.002343
294.000000	99.746533
293.000000	99.841632
292.000000	100.006930
291.000000	100.164686
290.000000	100.052693
289.000000	100.029673
288.000000	100.297018
287.000000	100.111644
286.000000	100.096330
285.000000	99.980536
284.000000	99.712533
283.000000	99.866791
282.000000	99.961031
281.000000	99.906709
280.000000	99.925449
279.000000	100.134808
278.000000	100.096196
277.000000	100.102446
276.000000	99.839047
275.000000	100.104172
274.000000	100.159945
273.000000	99.960609
272.000000	99.764433
271.000000	99.897328
270.000000	100.078866
269.000000	100.034725
268.000000	100.015708
267.000000	99.691062
266.000000	99.783705
265.000000	99.718869
264.000000	99.778952
263.000000	99.912824
262.000000	100.099624
261.000000	100.119759
260.000000	99.939563
259.000000	100.053189
258.000000	100.032815
257.000000	99.958030
256.000000	99.825605
255.000000	100.115926
254.000000	99.979684
253.000000	99.993172
252.000000	100.198100
251.000000	100.114170
250.000000	99.900179
249.000000	99.867315
248.000000	99.635109
247.000000	99.723697
246.000000	99.963896
245.000000	99.914867
244.000000	99.944953
243.000000	100.040762
242.000000	99.974133
241.000000	100.213836
240.000000	100.027837
239.000000	99.741097
238.000000	99.712940
237.000000	99.961051
236.000000	99.922948
235.000000	99.900484
234.000000	100.010150
233.000000	100.173895
232.000000	99.992441
231.000000	99.855648
230.000000	100.097760
229.000000	100.121542
228.000000	99.889204
227.000000	99.891146
226.000000	99.702927
225.000000	99.720590
224.000000	100.000418
223.000000	100.054681
222.000000	100.028377
221.000000	99.998427
220.000000	100.384209
219.000000	100.070611
218.000000	99.840174
217.000000	99.996296
216.000000	100.050185
215.000000	99.992033
214.000000	100.280431
213.000000	100.386421
212.000000	99.885625
211.000000	99.773249
210.000000	100.349914
209.000000	100.285311
208.000000	99.813227
207.000000	99.803498
206.000000	99.731727
205.000000	99.997943
204.000000	100.229781
203.000000	99.899081
202.000000	99.807696
201.000000	100.277940
200.000000	99.839542
