PE UV       SUBTECH     SPECTRUM    ASCII       PEDS        4.00        
   -1
TTVeauUK 42.Sample.asc
18/02/28
09:49:15.00
18/02/28
09:49:15.00
Administrator

200.000000
1
Lambda 750
750N8071901
PerkinElmer UV WinLab 6.0.4.0738 / 1.61.00 Lambda 900

0
0
3350/servo 860.8/2
0
0
UV/VIS
1
1
1
CommonBeamDepol,150mm sphere / downward view
0
0
0
0
Program
Program
3350/servo 860.8/2
3350/0.2 860.8/0.2
3350/0.2 860.8/0.2
0
1
 
 
 
0
 
860.8
319.2
860.8
Front
100
on
 
 
0
0
0
 
0
 
 
 
0
 
 
0
0
0
0
0
 
 
 
 
0
0


0
0
#HDR
-1
-1
#GR
nm
%T
1.0
0.0
2350.000000
-1.000000
2151
8
55.556670
0.306838
#DATA
2350.000000	18.051318
2349.000000	18.503465
2348.000000	18.052210
2347.000000	18.701499
2346.000000	18.231460
2345.000000	17.973330
2344.000000	18.039416
2343.000000	17.810575
2342.000000	18.447197
2341.000000	18.615067
2340.000000	18.579345
2339.000000	18.827231
2338.000000	18.895762
2337.000000	18.742982
2336.000000	18.947487
2335.000000	19.214691
2334.000000	18.990049
2333.000000	19.016599
2332.000000	19.300055
2331.000000	19.221062
2330.000000	19.069019
2329.000000	19.198116
2328.000000	19.084048
2327.000000	18.952180
2326.000000	18.911474
2325.000000	18.960118
2324.000000	18.770750
2323.000000	18.805431
2322.000000	18.904009
2321.000000	19.068544
2320.000000	18.671109
2319.000000	18.790311
2318.000000	18.616021
2317.000000	18.682257
2316.000000	18.456849
2315.000000	18.294190
2314.000000	18.234985
2313.000000	18.178625
2312.000000	18.231333
2311.000000	17.977838
2310.000000	18.019691
2309.000000	18.000182
2308.000000	17.928953
2307.000000	17.773481
2306.000000	17.709603
2305.000000	17.469844
2304.000000	17.375927
2303.000000	17.233778
2302.000000	17.194759
2301.000000	17.199467
2300.000000	16.843103
2299.000000	16.859774
2298.000000	16.508926
2297.000000	16.204576
2296.000000	16.272223
2295.000000	16.131829
2294.000000	16.260957
2293.000000	16.100830
2292.000000	15.963738
2291.000000	15.900035
2290.000000	15.916105
2289.000000	15.851636
2288.000000	15.812023
2287.000000	15.632393
2286.000000	15.621004
2285.000000	15.618857
2284.000000	15.477784
2283.000000	15.414353
2282.000000	15.448071
2281.000000	15.654135
2280.000000	15.686443
2279.000000	15.516080
2278.000000	15.502712
2277.000000	15.559560
2276.000000	15.711394
2275.000000	15.722096
2274.000000	15.734879
2273.000000	15.820293
2272.000000	15.931266
2271.000000	15.989479
2270.000000	16.005211
2269.000000	16.023685
2268.000000	16.116763
2267.000000	16.214704
2266.000000	16.420540
2265.000000	16.756196
2264.000000	16.765655
2263.000000	16.845632
2262.000000	17.011269
2261.000000	17.135018
2260.000000	17.232991
2259.000000	17.516125
2258.000000	17.808652
2257.000000	18.030737
2256.000000	18.362539
2255.000000	18.617703
2254.000000	18.814680
2253.000000	19.011281
2252.000000	19.214978
2251.000000	19.462971
2250.000000	19.882105
2249.000000	20.175611
2248.000000	20.347769
2247.000000	20.502788
2246.000000	20.672764
2245.000000	20.983685
2244.000000	21.308919
2243.000000	21.562546
2242.000000	21.789406
2241.000000	21.923780
2240.000000	22.067550
2239.000000	22.232588
2238.000000	22.341048
2237.000000	22.481814
2236.000000	22.641469
2235.000000	22.621690
2234.000000	22.734630
2233.000000	22.896530
2232.000000	23.005625
2231.000000	23.058871
2230.000000	23.045570
2229.000000	23.160526
2228.000000	23.240352
2227.000000	23.204765
2226.000000	23.169920
2225.000000	23.214454
2224.000000	23.148620
2223.000000	23.085301
2222.000000	23.121590
2221.000000	23.152907
2220.000000	23.140236
2219.000000	22.973870
2218.000000	22.870255
2217.000000	22.874210
2216.000000	22.857247
2215.000000	22.901663
2214.000000	22.857776
2213.000000	22.747098
2212.000000	22.566442
2211.000000	22.503916
2210.000000	22.400682
2209.000000	22.265500
2208.000000	22.250651
2207.000000	22.293484
2206.000000	22.118235
2205.000000	21.985642
2204.000000	21.830188
2203.000000	21.699692
2202.000000	21.731043
2201.000000	21.574724
2200.000000	21.522159
2199.000000	21.445073
2198.000000	21.378818
2197.000000	21.169727
2196.000000	21.089093
2195.000000	21.009424
2194.000000	20.865258
2193.000000	20.769586
2192.000000	20.700616
2191.000000	20.703785
2190.000000	20.559176
2189.000000	20.398099
2188.000000	20.193354
2187.000000	20.106164
2186.000000	20.113058
2185.000000	20.187856
2184.000000	20.140226
2183.000000	20.077043
2182.000000	19.927463
2181.000000	19.952686
2180.000000	19.868414
2179.000000	19.733093
2178.000000	19.735171
2177.000000	19.801847
2176.000000	19.863068
2175.000000	19.817327
2174.000000	19.739108
2173.000000	19.779593
2172.000000	19.892411
2171.000000	19.937601
2170.000000	20.088159
2169.000000	20.079735
2168.000000	20.185309
2167.000000	20.408285
2166.000000	20.357064
2165.000000	20.425640
2164.000000	20.586989
2163.000000	20.632161
2162.000000	20.877970
2161.000000	21.047851
2160.000000	21.071113
2159.000000	21.181509
2158.000000	21.400552
2157.000000	21.663642
2156.000000	21.853713
2155.000000	21.913164
2154.000000	21.987741
2153.000000	22.484215
2152.000000	22.565997
2151.000000	22.596962
2150.000000	22.769412
2149.000000	22.903534
2148.000000	22.947120
2147.000000	23.407576
2146.000000	23.486040
2145.000000	23.571983
2144.000000	23.790381
2143.000000	24.038087
2142.000000	23.962029
2141.000000	24.333389
2140.000000	24.551209
2139.000000	24.699951
2138.000000	24.869952
2137.000000	25.073855
2136.000000	25.017734
2135.000000	25.159905
2134.000000	25.403390
2133.000000	25.321938
2132.000000	25.493189
2131.000000	25.706071
2130.000000	25.983079
2129.000000	25.994976
2128.000000	25.970757
2127.000000	25.971804
2126.000000	26.027814
2125.000000	26.132150
2124.000000	26.424355
2123.000000	26.439891
2122.000000	26.429414
2121.000000	26.432619
2120.000000	26.325800
2119.000000	26.522145
2118.000000	26.643879
2117.000000	26.645889
2116.000000	26.793729
2115.000000	26.820801
2114.000000	26.770080
2113.000000	26.744258
2112.000000	26.774067
2111.000000	26.897436
2110.000000	26.757185
2109.000000	26.964981
2108.000000	27.017740
2107.000000	27.046044
2106.000000	27.089254
2105.000000	27.083554
2104.000000	27.067031
2103.000000	27.043400
2102.000000	27.072983
2101.000000	27.079245
2100.000000	27.106885
2099.000000	26.996311
2098.000000	27.092841
2097.000000	27.103473
2096.000000	27.015280
2095.000000	27.070921
2094.000000	27.118569
2093.000000	27.097685
2092.000000	27.121804
2091.000000	27.087852
2090.000000	27.009660
2089.000000	26.997951
2088.000000	26.978954
2087.000000	26.899763
2086.000000	26.819872
2085.000000	26.847059
2084.000000	26.716440
2083.000000	26.587541
2082.000000	26.586665
2081.000000	26.607977
2080.000000	26.509709
2079.000000	26.365658
2078.000000	26.188612
2077.000000	26.095111
2076.000000	26.014091
2075.000000	25.860357
2074.000000	25.745064
2073.000000	25.590307
2072.000000	25.450407
2071.000000	25.403262
2070.000000	25.254877
2069.000000	25.065283
2068.000000	24.838297
2067.000000	24.721654
2066.000000	24.495733
2065.000000	24.234306
2064.000000	24.133603
2063.000000	23.981696
2062.000000	23.773045
2061.000000	23.586090
2060.000000	23.403078
2059.000000	23.260011
2058.000000	23.003400
2057.000000	22.790806
2056.000000	22.609927
2055.000000	22.457807
2054.000000	22.252306
2053.000000	22.088765
2052.000000	21.965821
2051.000000	21.792707
2050.000000	21.624054
2049.000000	21.530552
2048.000000	21.417256
2047.000000	21.308384
2046.000000	21.219481
2045.000000	21.194004
2044.000000	21.146612
2043.000000	21.088338
2042.000000	21.106819
2041.000000	21.117409
2040.000000	21.131148
2039.000000	21.223025
2038.000000	21.284243
2037.000000	21.328059
2036.000000	21.392678
2035.000000	21.572780
2034.000000	21.751655
2033.000000	21.912570
2032.000000	22.042398
2031.000000	22.162828
2030.000000	22.374946
2029.000000	22.552444
2028.000000	22.709456
2027.000000	22.877484
2026.000000	23.048577
2025.000000	23.196244
2024.000000	23.307267
2023.000000	23.441262
2022.000000	23.525947
2021.000000	23.604440
2020.000000	23.711132
2019.000000	23.782104
2018.000000	23.859354
2017.000000	23.930849
2016.000000	23.942650
2015.000000	23.932281
2014.000000	23.915144
2013.000000	23.921445
2012.000000	23.939361
2011.000000	23.935696
2010.000000	23.896861
2009.000000	23.840411
2008.000000	23.780641
2007.000000	23.693466
2006.000000	23.586680
2005.000000	23.506189
2004.000000	23.449667
2003.000000	23.370136
2002.000000	23.273947
2001.000000	23.158874
2000.000000	23.024423
1999.000000	22.940256
1998.000000	22.835540
1997.000000	22.714196
1996.000000	22.602405
1995.000000	22.472036
1994.000000	22.343848
1993.000000	22.256220
1992.000000	22.108583
1991.000000	21.971370
1990.000000	21.841978
1989.000000	21.703318
1988.000000	21.604095
1987.000000	21.506052
1986.000000	21.351760
1985.000000	21.236824
1984.000000	21.127534
1983.000000	20.990718
1982.000000	20.868673
1981.000000	20.772813
1980.000000	20.645873
1979.000000	20.535921
1978.000000	20.407579
1977.000000	20.299953
1976.000000	20.190420
1975.000000	20.078232
1974.000000	19.954845
1973.000000	19.843254
1972.000000	19.708684
1971.000000	19.583317
1970.000000	19.484281
1969.000000	19.404216
1968.000000	19.290342
1967.000000	19.192236
1966.000000	19.070419
1965.000000	18.967618
1964.000000	18.855986
1963.000000	18.776264
1962.000000	18.663584
1961.000000	18.577261
1960.000000	18.472695
1959.000000	18.333459
1958.000000	18.263179
1957.000000	18.152708
1956.000000	18.052998
1955.000000	18.006256
1954.000000	17.943453
1953.000000	17.899669
1952.000000	17.820452
1951.000000	17.808087
1950.000000	17.748782
1949.000000	17.681747
1948.000000	17.684321
1947.000000	17.654242
1946.000000	17.630097
1945.000000	17.681564
1944.000000	17.669361
1943.000000	17.737626
1942.000000	17.721274
1941.000000	17.777670
1940.000000	17.927065
1939.000000	18.001232
1938.000000	18.076426
1937.000000	18.174489
1936.000000	18.358353
1935.000000	18.483110
1934.000000	18.675911
1933.000000	18.891889
1932.000000	19.055932
1931.000000	19.179040
1930.000000	19.473983
1929.000000	19.638209
1928.000000	19.972705
1927.000000	20.188642
1926.000000	20.510228
1925.000000	20.778047
1924.000000	21.076690
1923.000000	21.411249
1922.000000	21.723831
1921.000000	22.060800
1920.000000	22.378351
1919.000000	22.796435
1918.000000	23.258346
1917.000000	23.593783
1916.000000	23.958521
1915.000000	24.351201
1914.000000	24.864334
1913.000000	25.292315
1912.000000	25.649400
1911.000000	26.126166
1910.000000	26.596248
1909.000000	27.094896
1908.000000	27.558542
1907.000000	28.077893
1906.000000	28.566906
1905.000000	29.140464
1904.000000	29.625860
1903.000000	30.173270
1902.000000	30.738556
1901.000000	31.265173
1900.000000	31.814576
1899.000000	32.391260
1898.000000	32.948680
1897.000000	33.503402
1896.000000	33.974592
1895.000000	34.543755
1894.000000	35.008750
1893.000000	35.545616
1892.000000	36.029110
1891.000000	36.435154
1890.000000	36.992657
1889.000000	37.438993
1888.000000	37.904974
1887.000000	38.353798
1886.000000	38.756808
1885.000000	39.206989
1884.000000	39.551591
1883.000000	39.986913
1882.000000	40.318660
1881.000000	40.623622
1880.000000	41.003292
1879.000000	41.280079
1878.000000	41.572995
1877.000000	41.845252
1876.000000	42.129550
1875.000000	42.370950
1874.000000	42.595753
1873.000000	42.827063
1872.000000	43.022546
1871.000000	43.207580
1870.000000	43.393324
1869.000000	43.522850
1868.000000	43.668612
1867.000000	43.757278
1866.000000	43.893526
1865.000000	43.979082
1864.000000	44.053315
1863.000000	44.129254
1862.000000	44.183407
1861.000000	44.214275
1860.000000	44.297243
1859.000000	44.356544
1858.000000	44.369659
1857.000000	44.405691
1856.000000	44.455061
1855.000000	44.468292
1854.000000	44.492524
1853.000000	44.496917
1852.000000	44.499915
1851.000000	44.517038
1850.000000	44.536182
1849.000000	44.501947
1848.000000	44.522052
1847.000000	44.498854
1846.000000	44.472112
1845.000000	44.450999
1844.000000	44.421574
1843.000000	44.405856
1842.000000	44.369696
1841.000000	44.343077
1840.000000	44.316254
1839.000000	44.275362
1838.000000	44.220613
1837.000000	44.155202
1836.000000	44.130880
1835.000000	44.088330
1834.000000	44.034669
1833.000000	43.981553
1832.000000	43.935608
1831.000000	43.901868
1830.000000	43.869277
1829.000000	43.800053
1828.000000	43.737550
1827.000000	43.695326
1826.000000	43.663977
1825.000000	43.596760
1824.000000	43.559795
1823.000000	43.543386
1822.000000	43.469027
1821.000000	43.416295
1820.000000	43.375515
1819.000000	43.325380
1818.000000	43.282755
1817.000000	43.226722
1816.000000	43.187853
1815.000000	43.176018
1814.000000	43.130910
1813.000000	43.081520
1812.000000	43.031951
1811.000000	42.982158
1810.000000	42.946888
1809.000000	42.911849
1808.000000	42.866151
1807.000000	42.820831
1806.000000	42.788427
1805.000000	42.749751
1804.000000	42.700185
1803.000000	42.663468
1802.000000	42.621351
1801.000000	42.597198
1800.000000	42.561687
1799.000000	42.510634
1798.000000	42.468440
1797.000000	42.446357
1796.000000	42.439449
1795.000000	42.424184
1794.000000	42.384838
1793.000000	42.348754
1792.000000	42.319381
1791.000000	42.275186
1790.000000	42.240224
1789.000000	42.209194
1788.000000	42.186960
1787.000000	42.171370
1786.000000	42.161140
1785.000000	42.111770
1784.000000	42.056745
1783.000000	42.012209
1782.000000	41.979235
1781.000000	41.928361
1780.000000	41.880605
1779.000000	41.828394
1778.000000	41.758894
1777.000000	41.710150
1776.000000	41.693997
1775.000000	41.621569
1774.000000	41.532929
1773.000000	41.500403
1772.000000	41.412049
1771.000000	41.329431
1770.000000	41.285184
1769.000000	41.226541
1768.000000	41.157045
1767.000000	41.083477
1766.000000	41.015250
1765.000000	40.965761
1764.000000	40.911150
1763.000000	40.838479
1762.000000	40.736295
1761.000000	40.701215
1760.000000	40.623886
1759.000000	40.544750
1758.000000	40.494545
1757.000000	40.425082
1756.000000	40.357108
1755.000000	40.289128
1754.000000	40.221517
1753.000000	40.142844
1752.000000	40.062619
1751.000000	40.020169
1750.000000	39.949505
1749.000000	39.872511
1748.000000	39.801374
1747.000000	39.735748
1746.000000	39.663907
1745.000000	39.584814
1744.000000	39.510807
1743.000000	39.426604
1742.000000	39.372078
1741.000000	39.310112
1740.000000	39.272474
1739.000000	39.237723
1738.000000	39.168129
1737.000000	39.109283
1736.000000	39.088560
1735.000000	39.039119
1734.000000	39.060033
1733.000000	39.043845
1732.000000	39.021583
1731.000000	39.034240
1730.000000	39.046075
1729.000000	39.084053
1728.000000	39.138497
1727.000000	39.181556
1726.000000	39.238391
1725.000000	39.329338
1724.000000	39.414039
1723.000000	39.473398
1722.000000	39.559555
1721.000000	39.655628
1720.000000	39.775606
1719.000000	39.899193
1718.000000	39.960964
1717.000000	40.057023
1716.000000	40.171538
1715.000000	40.251729
1714.000000	40.339834
1713.000000	40.452453
1712.000000	40.529422
1711.000000	40.597223
1710.000000	40.622944
1709.000000	40.697893
1708.000000	40.755293
1707.000000	40.806460
1706.000000	40.837888
1705.000000	40.855850
1704.000000	40.862324
1703.000000	40.876617
1702.000000	40.916629
1701.000000	40.922000
1700.000000	40.950692
1699.000000	40.960120
1698.000000	40.979013
1697.000000	41.019662
1696.000000	41.063041
1695.000000	41.072807
1694.000000	41.127462
1693.000000	41.183776
1692.000000	41.260624
1691.000000	41.323374
1690.000000	41.447378
1689.000000	41.522247
1688.000000	41.650134
1687.000000	41.771027
1686.000000	41.887511
1685.000000	42.040734
1684.000000	42.204213
1683.000000	42.380952
1682.000000	42.534621
1681.000000	42.749470
1680.000000	42.900654
1679.000000	43.112646
1678.000000	43.298937
1677.000000	43.499753
1676.000000	43.697442
1675.000000	43.914141
1674.000000	44.112869
1673.000000	44.288920
1672.000000	44.481257
1671.000000	44.658638
1670.000000	44.825241
1669.000000	44.991090
1668.000000	45.142516
1667.000000	45.281162
1666.000000	45.386191
1665.000000	45.506396
1664.000000	45.612240
1663.000000	45.690719
1662.000000	45.771944
1661.000000	45.880087
1660.000000	45.947567
1659.000000	46.000365
1658.000000	46.035634
1657.000000	46.081691
1656.000000	46.134554
1655.000000	46.163499
1654.000000	46.187396
1653.000000	46.212157
1652.000000	46.226052
1651.000000	46.223916
1650.000000	46.230937
1649.000000	46.215642
1648.000000	46.184297
1647.000000	46.179409
1646.000000	46.163283
1645.000000	46.157999
1644.000000	46.141091
1643.000000	46.113392
1642.000000	46.088259
1641.000000	46.047700
1640.000000	46.011577
1639.000000	45.988773
1638.000000	45.939422
1637.000000	45.919028
1636.000000	45.875322
1635.000000	45.825473
1634.000000	45.779620
1633.000000	45.727034
1632.000000	45.678122
1631.000000	45.634071
1630.000000	45.578110
1629.000000	45.513820
1628.000000	45.472691
1627.000000	45.422762
1626.000000	45.365416
1625.000000	45.316293
1624.000000	45.264547
1623.000000	45.210186
1622.000000	45.167117
1621.000000	45.109237
1620.000000	45.043294
1619.000000	44.982308
1618.000000	44.921995
1617.000000	44.864259
1616.000000	44.797656
1615.000000	44.737406
1614.000000	44.671035
1613.000000	44.610165
1612.000000	44.556059
1611.000000	44.485491
1610.000000	44.411617
1609.000000	44.343654
1608.000000	44.282557
1607.000000	44.204201
1606.000000	44.122914
1605.000000	44.061684
1604.000000	43.995673
1603.000000	43.927177
1602.000000	43.862232
1601.000000	43.786319
1600.000000	43.718297
1599.000000	43.643198
1598.000000	43.568901
1597.000000	43.494188
1596.000000	43.434183
1595.000000	43.386696
1594.000000	43.321165
1593.000000	43.262142
1592.000000	43.198835
1591.000000	43.130595
1590.000000	43.076912
1589.000000	43.014963
1588.000000	42.958740
1587.000000	42.913039
1586.000000	42.862956
1585.000000	42.811651
1584.000000	42.751004
1583.000000	42.698089
1582.000000	42.657724
1581.000000	42.596649
1580.000000	42.542612
1579.000000	42.491410
1578.000000	42.444718
1577.000000	42.400404
1576.000000	42.352537
1575.000000	42.311037
1574.000000	42.249334
1573.000000	42.191097
1572.000000	42.126483
1571.000000	42.072537
1570.000000	42.024475
1569.000000	41.981329
1568.000000	41.942284
1567.000000	41.895602
1566.000000	41.848892
1565.000000	41.813850
1564.000000	41.796421
1563.000000	41.775453
1562.000000	41.726608
1561.000000	41.698069
1560.000000	41.671578
1559.000000	41.628943
1558.000000	41.622083
1557.000000	41.603124
1556.000000	41.558763
1555.000000	41.530285
1554.000000	41.504793
1553.000000	41.481290
1552.000000	41.456601
1551.000000	41.417845
1550.000000	41.370626
1549.000000	41.328919
1548.000000	41.280447
1547.000000	41.221163
1546.000000	41.157664
1545.000000	41.094852
1544.000000	41.021095
1543.000000	40.937390
1542.000000	40.860392
1541.000000	40.764175
1540.000000	40.679099
1539.000000	40.595655
1538.000000	40.483401
1537.000000	40.392510
1536.000000	40.297769
1535.000000	40.194681
1534.000000	40.078561
1533.000000	39.988863
1532.000000	39.885622
1531.000000	39.799101
1530.000000	39.731082
1529.000000	39.684324
1528.000000	39.645763
1527.000000	39.596758
1526.000000	39.519046
1525.000000	39.430776
1524.000000	39.326960
1523.000000	39.216880
1522.000000	39.140438
1521.000000	39.057942
1520.000000	39.017394
1519.000000	38.973814
1518.000000	38.922316
1517.000000	38.865222
1516.000000	38.842756
1515.000000	38.784305
1514.000000	38.730915
1513.000000	38.690447
1512.000000	38.666592
1511.000000	38.648908
1510.000000	38.605934
1509.000000	38.561519
1508.000000	38.529933
1507.000000	38.488127
1506.000000	38.464371
1505.000000	38.451643
1504.000000	38.454911
1503.000000	38.444088
1502.000000	38.433888
1501.000000	38.421326
1500.000000	38.397526
1499.000000	38.392209
1498.000000	38.402397
1497.000000	38.385706
1496.000000	38.386480
1495.000000	38.418369
1494.000000	38.416587
1493.000000	38.431023
1492.000000	38.470714
1491.000000	38.501822
1490.000000	38.551579
1489.000000	38.581048
1488.000000	38.652779
1487.000000	38.706872
1486.000000	38.756611
1485.000000	38.808603
1484.000000	38.885846
1483.000000	38.945776
1482.000000	39.007041
1481.000000	39.083888
1480.000000	39.166049
1479.000000	39.250193
1478.000000	39.313708
1477.000000	39.374438
1476.000000	39.458206
1475.000000	39.531930
1474.000000	39.571118
1473.000000	39.659751
1472.000000	39.727139
1471.000000	39.760551
1470.000000	39.837105
1469.000000	39.904079
1468.000000	39.955455
1467.000000	40.031620
1466.000000	40.104704
1465.000000	40.135440
1464.000000	40.183880
1463.000000	40.232990
1462.000000	40.293199
1461.000000	40.365343
1460.000000	40.432986
1459.000000	40.453134
1458.000000	40.508454
1457.000000	40.568820
1456.000000	40.646012
1455.000000	40.717400
1454.000000	40.772544
1453.000000	40.841666
1452.000000	40.909202
1451.000000	40.972530
1450.000000	41.015655
1449.000000	41.088652
1448.000000	41.163955
1447.000000	41.259138
1446.000000	41.365159
1445.000000	41.440736
1444.000000	41.496143
1443.000000	41.575528
1442.000000	41.681051
1441.000000	41.760253
1440.000000	41.851530
1439.000000	41.935418
1438.000000	42.038625
1437.000000	42.120485
1436.000000	42.235429
1435.000000	42.327216
1434.000000	42.441914
1433.000000	42.552110
1432.000000	42.670924
1431.000000	42.809427
1430.000000	42.932812
1429.000000	43.067010
1428.000000	43.204373
1427.000000	43.340079
1426.000000	43.462411
1425.000000	43.612034
1424.000000	43.764135
1423.000000	43.906649
1422.000000	44.057861
1421.000000	44.220291
1420.000000	44.392738
1419.000000	44.589712
1418.000000	44.781828
1417.000000	44.966829
1416.000000	45.151076
1415.000000	45.323620
1414.000000	45.507711
1413.000000	45.705382
1412.000000	45.916032
1411.000000	46.121861
1410.000000	46.319231
1409.000000	46.508920
1408.000000	46.683620
1407.000000	46.860710
1406.000000	47.059008
1405.000000	47.260129
1404.000000	47.441614
1403.000000	47.628045
1402.000000	47.805019
1401.000000	47.968970
1400.000000	48.151521
1399.000000	48.307238
1398.000000	48.466786
1397.000000	48.631128
1396.000000	48.796290
1395.000000	48.950451
1394.000000	49.089846
1393.000000	49.243611
1392.000000	49.402799
1391.000000	49.548720
1390.000000	49.687177
1389.000000	49.832850
1388.000000	49.986046
1387.000000	50.136683
1386.000000	50.241763
1385.000000	50.342653
1384.000000	50.465360
1383.000000	50.573894
1382.000000	50.657134
1381.000000	50.734177
1380.000000	50.838905
1379.000000	50.918397
1378.000000	50.979795
1377.000000	51.064598
1376.000000	51.114302
1375.000000	51.154459
1374.000000	51.238006
1373.000000	51.302624
1372.000000	51.348202
1371.000000	51.399901
1370.000000	51.438487
1369.000000	51.475645
1368.000000	51.538580
1367.000000	51.617163
1366.000000	51.680386
1365.000000	51.730615
1364.000000	51.778332
1363.000000	51.835188
1362.000000	51.892781
1361.000000	51.958272
1360.000000	52.020870
1359.000000	52.075569
1358.000000	52.134706
1357.000000	52.190450
1356.000000	52.247177
1355.000000	52.310759
1354.000000	52.385889
1353.000000	52.452219
1352.000000	52.513496
1351.000000	52.584082
1350.000000	52.652147
1349.000000	52.715850
1348.000000	52.778003
1347.000000	52.840168
1346.000000	52.886006
1345.000000	52.939628
1344.000000	53.009027
1343.000000	53.076784
1342.000000	53.146288
1341.000000	53.208429
1340.000000	53.265420
1339.000000	53.315688
1338.000000	53.354088
1337.000000	53.394796
1336.000000	53.428508
1335.000000	53.460814
1334.000000	53.508822
1333.000000	53.545210
1332.000000	53.603320
1331.000000	53.652265
1330.000000	53.679158
1329.000000	53.702450
1328.000000	53.716029
1327.000000	53.755172
1326.000000	53.773776
1325.000000	53.778434
1324.000000	53.824256
1323.000000	53.851065
1322.000000	53.833547
1321.000000	53.850825
1320.000000	53.885865
1319.000000	53.889311
1318.000000	53.904720
1317.000000	53.932276
1316.000000	53.929525
1315.000000	53.935814
1314.000000	53.942883
1313.000000	53.956096
1312.000000	53.967913
1311.000000	53.979529
1310.000000	53.991856
1309.000000	54.010111
1308.000000	54.015458
1307.000000	54.018564
1306.000000	54.028049
1305.000000	54.029123
1304.000000	54.056631
1303.000000	54.071010
1302.000000	54.078561
1301.000000	54.067395
1300.000000	54.058900
1299.000000	54.059420
1298.000000	54.059492
1297.000000	54.061251
1296.000000	54.058668
1295.000000	54.053581
1294.000000	54.054522
1293.000000	54.036555
1292.000000	54.028315
1291.000000	54.021228
1290.000000	54.014844
1289.000000	53.987997
1288.000000	53.985377
1287.000000	53.988187
1286.000000	53.972212
1285.000000	53.973678
1284.000000	53.949102
1283.000000	53.908883
1282.000000	53.908244
1281.000000	53.904521
1280.000000	53.917589
1279.000000	53.907003
1278.000000	53.916199
1277.000000	53.906617
1276.000000	53.894872
1275.000000	53.903253
1274.000000	53.900803
1273.000000	53.889250
1272.000000	53.874553
1271.000000	53.887272
1270.000000	53.908747
1269.000000	53.906817
1268.000000	53.893317
1267.000000	53.902211
1266.000000	53.886337
1265.000000	53.888211
1264.000000	53.945661
1263.000000	53.953356
1262.000000	53.943368
1261.000000	53.953283
1260.000000	53.955117
1259.000000	54.000487
1258.000000	53.996912
1257.000000	54.005349
1256.000000	53.982526
1255.000000	53.987966
1254.000000	53.978883
1253.000000	53.977827
1252.000000	53.982058
1251.000000	53.971131
1250.000000	53.977773
1249.000000	53.960785
1248.000000	53.967305
1247.000000	53.952017
1246.000000	53.938860
1245.000000	53.931660
1244.000000	53.911981
1243.000000	53.891648
1242.000000	53.879434
1241.000000	53.840210
1240.000000	53.798577
1239.000000	53.771541
1238.000000	53.754975
1237.000000	53.741214
1236.000000	53.698185
1235.000000	53.655020
1234.000000	53.628891
1233.000000	53.604481
1232.000000	53.567845
1231.000000	53.542235
1230.000000	53.530239
1229.000000	53.504894
1228.000000	53.477805
1227.000000	53.440017
1226.000000	53.408209
1225.000000	53.398272
1224.000000	53.374654
1223.000000	53.361676
1222.000000	53.346591
1221.000000	53.315714
1220.000000	53.279927
1219.000000	53.254649
1218.000000	53.215486
1217.000000	53.184684
1216.000000	53.155725
1215.000000	53.116076
1214.000000	53.101666
1213.000000	53.059229
1212.000000	53.024302
1211.000000	52.980998
1210.000000	52.942291
1209.000000	52.882538
1208.000000	52.835083
1207.000000	52.808976
1206.000000	52.759907
1205.000000	52.698367
1204.000000	52.648178
1203.000000	52.614813
1202.000000	52.556148
1201.000000	52.503386
1200.000000	52.461162
1199.000000	52.425557
1198.000000	52.394866
1197.000000	52.342661
1196.000000	52.285883
1195.000000	52.241771
1194.000000	52.208894
1193.000000	52.180800
1192.000000	52.145067
1191.000000	52.134166
1190.000000	52.096234
1189.000000	52.039401
1188.000000	52.024827
1187.000000	52.014483
1186.000000	52.003618
1185.000000	52.000737
1184.000000	52.001732
1183.000000	52.018752
1182.000000	52.028336
1181.000000	52.049087
1180.000000	52.087816
1179.000000	52.125796
1178.000000	52.161039
1177.000000	52.195235
1176.000000	52.241256
1175.000000	52.303992
1174.000000	52.364068
1173.000000	52.426788
1172.000000	52.481601
1171.000000	52.536054
1170.000000	52.618915
1169.000000	52.700462
1168.000000	52.777934
1167.000000	52.870072
1166.000000	52.952448
1165.000000	53.033977
1164.000000	53.125019
1163.000000	53.210455
1162.000000	53.287590
1161.000000	53.372217
1160.000000	53.448749
1159.000000	53.526978
1158.000000	53.619500
1157.000000	53.698381
1156.000000	53.766514
1155.000000	53.842853
1154.000000	53.903374
1153.000000	53.962942
1152.000000	54.029994
1151.000000	54.075819
1150.000000	54.125321
1149.000000	54.184285
1148.000000	54.239021
1147.000000	54.290410
1146.000000	54.340776
1145.000000	54.384493
1144.000000	54.422094
1143.000000	54.478309
1142.000000	54.528670
1141.000000	54.561516
1140.000000	54.605802
1139.000000	54.635924
1138.000000	54.674109
1137.000000	54.725721
1136.000000	54.776447
1135.000000	54.822729
1134.000000	54.862732
1133.000000	54.909853
1132.000000	54.930567
1131.000000	54.965373
1130.000000	55.012265
1129.000000	55.038927
1128.000000	55.076057
1127.000000	55.096731
1126.000000	55.116796
1125.000000	55.141919
1124.000000	55.156058
1123.000000	55.157289
1122.000000	55.164287
1121.000000	55.185133
1120.000000	55.193531
1119.000000	55.195339
1118.000000	55.212421
1117.000000	55.223812
1116.000000	55.237122
1115.000000	55.240370
1114.000000	55.240273
1113.000000	55.239129
1112.000000	55.239466
1111.000000	55.250220
1110.000000	55.252777
1109.000000	55.248786
1108.000000	55.256192
1107.000000	55.264912
1106.000000	55.240354
1105.000000	55.234366
1104.000000	55.239221
1103.000000	55.250492
1102.000000	55.243010
1101.000000	55.238294
1100.000000	55.237079
1099.000000	55.255889
1098.000000	55.246107
1097.000000	55.232416
1096.000000	55.227760
1095.000000	55.217566
1094.000000	55.224994
1093.000000	55.223041
1092.000000	55.238789
1091.000000	55.228552
1090.000000	55.226640
1089.000000	55.213824
1088.000000	55.199490
1087.000000	55.199530
1086.000000	55.197008
1085.000000	55.188410
1084.000000	55.193810
1083.000000	55.181969
1082.000000	55.152838
1081.000000	55.146269
1080.000000	55.137952
1079.000000	55.134442
1078.000000	55.145273
1077.000000	55.141078
1076.000000	55.097364
1075.000000	55.095823
1074.000000	55.100140
1073.000000	55.086312
1072.000000	55.087612
1071.000000	55.076288
1070.000000	55.081262
1069.000000	55.065421
1068.000000	55.054925
1067.000000	55.017526
1066.000000	55.027595
1065.000000	55.005349
1064.000000	55.001771
1063.000000	55.004350
1062.000000	54.980648
1061.000000	54.955344
1060.000000	54.944637
1059.000000	54.926285
1058.000000	54.928273
1057.000000	54.918128
1056.000000	54.917657
1055.000000	54.881918
1054.000000	54.887155
1053.000000	54.872332
1052.000000	54.860150
1051.000000	54.854300
1050.000000	54.843834
1049.000000	54.819620
1048.000000	54.810897
1047.000000	54.816170
1046.000000	54.812033
1045.000000	54.814141
1044.000000	54.771525
1043.000000	54.767613
1042.000000	54.762977
1041.000000	54.769528
1040.000000	54.737006
1039.000000	54.737245
1038.000000	54.733968
1037.000000	54.745152
1036.000000	54.736120
1035.000000	54.718407
1034.000000	54.712674
1033.000000	54.702321
1032.000000	54.701226
1031.000000	54.696697
1030.000000	54.691736
1029.000000	54.681076
1028.000000	54.662767
1027.000000	54.672750
1026.000000	54.689073
1025.000000	54.679713
1024.000000	54.691701
1023.000000	54.650963
1022.000000	54.640412
1021.000000	54.656610
1020.000000	54.659256
1019.000000	54.674618
1018.000000	54.675726
1017.000000	54.672682
1016.000000	54.678267
1015.000000	54.637132
1014.000000	54.660724
1013.000000	54.684324
1012.000000	54.692328
1011.000000	54.710980
1010.000000	54.690657
1009.000000	54.695371
1008.000000	54.697239
1007.000000	54.700820
1006.000000	54.717582
1005.000000	54.724970
1004.000000	54.710802
1003.000000	54.717609
1002.000000	54.721660
1001.000000	54.720827
1000.000000	54.746969
999.000000	54.756431
998.000000	54.746863
997.000000	54.744430
996.000000	54.729251
995.000000	54.742511
994.000000	54.762060
993.000000	54.769811
992.000000	54.769757
991.000000	54.786628
990.000000	54.788315
989.000000	54.787922
988.000000	54.794616
987.000000	54.798802
986.000000	54.800493
985.000000	54.812942
984.000000	54.822162
983.000000	54.839933
982.000000	54.868915
981.000000	54.871039
980.000000	54.890534
979.000000	54.905853
978.000000	54.923198
977.000000	54.922015
976.000000	54.921532
975.000000	54.935947
974.000000	54.936864
973.000000	54.948327
972.000000	54.958607
971.000000	54.971513
970.000000	54.973320
969.000000	54.980325
968.000000	54.990944
967.000000	55.000216
966.000000	55.001133
965.000000	55.007108
964.000000	55.016168
963.000000	55.034071
962.000000	55.029698
961.000000	55.033934
960.000000	55.042613
959.000000	55.051161
958.000000	55.058533
957.000000	55.072061
956.000000	55.065092
955.000000	55.064243
954.000000	55.085160
953.000000	55.083367
952.000000	55.070260
951.000000	55.072409
950.000000	55.077071
949.000000	55.081588
948.000000	55.086669
947.000000	55.082594
946.000000	55.080146
945.000000	55.085967
944.000000	55.088464
943.000000	55.105495
942.000000	55.117052
941.000000	55.097761
940.000000	55.088571
939.000000	55.098043
938.000000	55.089553
937.000000	55.078165
936.000000	55.088449
935.000000	55.075675
934.000000	55.060962
933.000000	55.067810
932.000000	55.070068
931.000000	55.063013
930.000000	55.054023
929.000000	55.050075
928.000000	55.035949
927.000000	55.039050
926.000000	55.019468
925.000000	55.009998
924.000000	55.020436
923.000000	54.997564
922.000000	54.987413
921.000000	54.983295
920.000000	54.971047
919.000000	54.964709
918.000000	54.974932
917.000000	54.973162
916.000000	54.965229
915.000000	54.977323
914.000000	54.975884
913.000000	54.975748
912.000000	54.950368
911.000000	54.942242
910.000000	54.960240
909.000000	54.964146
908.000000	54.927845
907.000000	54.921879
906.000000	54.917092
905.000000	54.940169
904.000000	54.948135
903.000000	54.939301
902.000000	54.917436
901.000000	54.934054
900.000000	54.942521
899.000000	54.902579
898.000000	54.919859
897.000000	54.934462
896.000000	54.948950
895.000000	54.951369
894.000000	54.958198
893.000000	54.960556
892.000000	54.940076
891.000000	54.969448
890.000000	54.950809
889.000000	54.972302
888.000000	54.957091
887.000000	54.990747
886.000000	54.987295
885.000000	54.990529
884.000000	55.030292
883.000000	55.040706
882.000000	55.022568
881.000000	55.008197
880.000000	55.034150
879.000000	55.009295
878.000000	54.975172
877.000000	55.013702
876.000000	55.008343
875.000000	55.028117
874.000000	55.020735
873.000000	55.010450
872.000000	55.043555
871.000000	55.008019
870.000000	54.982523
869.000000	54.969461
868.000000	54.932074
867.000000	54.988133
866.000000	55.056913
865.000000	55.048554
864.000000	55.064894
863.000000	54.865736
862.000000	54.913383
861.000000	54.966627
860.000000	54.913078
859.000000	55.187448
858.000000	55.296719
857.000000	55.157189
856.000000	55.337831
855.000000	55.556670
854.000000	54.981551
853.000000	55.366777
852.000000	55.278467
851.000000	55.016086
850.000000	55.247668
849.000000	55.214835
848.000000	55.128272
847.000000	55.352067
846.000000	55.188503
845.000000	55.331221
844.000000	55.019376
843.000000	55.538564
842.000000	55.192400
841.000000	55.293790
840.000000	55.152673
839.000000	55.351962
838.000000	55.261205
837.000000	55.181036
836.000000	55.319830
835.000000	55.314898
834.000000	55.242583
833.000000	55.268477
832.000000	55.141122
831.000000	55.288704
830.000000	55.110082
829.000000	55.096071
828.000000	55.209433
827.000000	55.150567
826.000000	55.013513
825.000000	55.085516
824.000000	55.115287
823.000000	55.099484
822.000000	54.999422
821.000000	54.993607
820.000000	55.001467
819.000000	55.034343
818.000000	55.010633
817.000000	54.994849
816.000000	55.130417
815.000000	54.863600
814.000000	55.102071
813.000000	54.917150
812.000000	55.018597
811.000000	54.999557
810.000000	54.999548
809.000000	55.068301
808.000000	55.040287
807.000000	54.890564
806.000000	54.932180
805.000000	54.813658
804.000000	54.962713
803.000000	54.847987
802.000000	54.850884
801.000000	54.874631
800.000000	54.844427
799.000000	54.943217
798.000000	54.746343
797.000000	54.868584
796.000000	54.676452
795.000000	54.687817
794.000000	54.753198
793.000000	54.734104
792.000000	54.846321
791.000000	54.772483
790.000000	54.717359
789.000000	54.715363
788.000000	54.682151
787.000000	54.832305
786.000000	54.676207
785.000000	54.622306
784.000000	54.762521
783.000000	54.767568
782.000000	54.646864
781.000000	54.737364
780.000000	54.641109
779.000000	54.653251
778.000000	54.594959
777.000000	54.601795
776.000000	54.625810
775.000000	54.571469
774.000000	54.607219
773.000000	54.603207
772.000000	54.498319
771.000000	54.515392
770.000000	54.559285
769.000000	54.530533
768.000000	54.422850
767.000000	54.386292
766.000000	54.424357
765.000000	54.349941
764.000000	54.398115
763.000000	54.392815
762.000000	54.396590
761.000000	54.468250
760.000000	54.459505
759.000000	54.362527
758.000000	54.255683
757.000000	54.288579
756.000000	54.262393
755.000000	54.218258
754.000000	54.241967
753.000000	54.287029
752.000000	54.234647
751.000000	54.217400
750.000000	54.164720
749.000000	54.119593
748.000000	54.113052
747.000000	54.198045
746.000000	54.107395
745.000000	54.087885
744.000000	54.083341
743.000000	54.108176
742.000000	54.058930
741.000000	54.063109
740.000000	54.034024
739.000000	54.044112
738.000000	54.072595
737.000000	53.996958
736.000000	53.933548
735.000000	53.893292
734.000000	53.915186
733.000000	53.927208
732.000000	53.921190
731.000000	53.917492
730.000000	53.857185
729.000000	53.812490
728.000000	53.791727
727.000000	53.809421
726.000000	53.789871
725.000000	53.780085
724.000000	53.752841
723.000000	53.726918
722.000000	53.707913
721.000000	53.650115
720.000000	53.572571
719.000000	53.585118
718.000000	53.628290
717.000000	53.633485
716.000000	53.555324
715.000000	53.558147
714.000000	53.538526
713.000000	53.522886
712.000000	53.522190
711.000000	53.502394
710.000000	53.437086
709.000000	53.377859
708.000000	53.330452
707.000000	53.278750
706.000000	53.287518
705.000000	53.314480
704.000000	53.287582
703.000000	53.237219
702.000000	53.190636
701.000000	53.150524
700.000000	53.181842
699.000000	53.139980
698.000000	53.090724
697.000000	53.118294
696.000000	53.049912
695.000000	52.996487
694.000000	52.984780
693.000000	52.963604
692.000000	52.944513
691.000000	52.917705
690.000000	52.891187
689.000000	52.797892
688.000000	52.728204
687.000000	52.680414
686.000000	52.650827
685.000000	52.641582
684.000000	52.626151
683.000000	52.575158
682.000000	52.560060
681.000000	52.556223
680.000000	52.492389
679.000000	52.436326
678.000000	52.392076
677.000000	52.383912
676.000000	52.352217
675.000000	52.259575
674.000000	52.233287
673.000000	52.205728
672.000000	52.187094
671.000000	52.128089
670.000000	52.073490
669.000000	52.047591
668.000000	52.002326
667.000000	51.957646
666.000000	51.918979
665.000000	51.928248
664.000000	51.881365
663.000000	51.864056
662.000000	51.803320
661.000000	51.796225
660.000000	51.768488
659.000000	51.680234
658.000000	51.631365
657.000000	51.601568
656.000000	51.543263
655.000000	51.531572
654.000000	51.495297
653.000000	51.427718
652.000000	51.376580
651.000000	51.319355
650.000000	51.335640
649.000000	51.329969
648.000000	51.205370
647.000000	51.126096
646.000000	51.119768
645.000000	51.062376
644.000000	50.964189
643.000000	50.939114
642.000000	50.889402
641.000000	50.856259
640.000000	50.841345
639.000000	50.804338
638.000000	50.701544
637.000000	50.692844
636.000000	50.610935
635.000000	50.609931
634.000000	50.508573
633.000000	50.448069
632.000000	50.372407
631.000000	50.395474
630.000000	50.307085
629.000000	50.291283
628.000000	50.173740
627.000000	50.144365
626.000000	50.052226
625.000000	50.032138
624.000000	50.044400
623.000000	49.957004
622.000000	49.899991
621.000000	49.844679
620.000000	49.785564
619.000000	49.689403
618.000000	49.718551
617.000000	49.676516
616.000000	49.573558
615.000000	49.557174
614.000000	49.467910
613.000000	49.461475
612.000000	49.400024
611.000000	49.353779
610.000000	49.286496
609.000000	49.213963
608.000000	49.190147
607.000000	49.091379
606.000000	49.043083
605.000000	49.059375
604.000000	49.003037
603.000000	48.929388
602.000000	48.908681
601.000000	48.854822
600.000000	48.830994
599.000000	48.739844
598.000000	48.642255
597.000000	48.656956
596.000000	48.587175
595.000000	48.520801
594.000000	48.495550
593.000000	48.422968
592.000000	48.355540
591.000000	48.329243
590.000000	48.248991
589.000000	48.243005
588.000000	48.153098
587.000000	48.087293
586.000000	48.030714
585.000000	48.024650
584.000000	47.961717
583.000000	47.854110
582.000000	47.819320
581.000000	47.722880
580.000000	47.673177
579.000000	47.693616
578.000000	47.558562
577.000000	47.511698
576.000000	47.489152
575.000000	47.412868
574.000000	47.337336
573.000000	47.291906
572.000000	47.210304
571.000000	47.186624
570.000000	47.152438
569.000000	47.058599
568.000000	47.000726
567.000000	46.955217
566.000000	46.895703
565.000000	46.843408
564.000000	46.803046
563.000000	46.784829
562.000000	46.706258
561.000000	46.665004
560.000000	46.584664
559.000000	46.529054
558.000000	46.483691
557.000000	46.433240
556.000000	46.383533
555.000000	46.325645
554.000000	46.266287
553.000000	46.219693
552.000000	46.136499
551.000000	46.089720
550.000000	46.007897
549.000000	45.962828
548.000000	45.892128
547.000000	45.848395
546.000000	45.740686
545.000000	45.697199
544.000000	45.626547
543.000000	45.550718
542.000000	45.488495
541.000000	45.439359
540.000000	45.358557
539.000000	45.275424
538.000000	45.221571
537.000000	45.141611
536.000000	45.092826
535.000000	45.044425
534.000000	44.937385
533.000000	44.865923
532.000000	44.806931
531.000000	44.754904
530.000000	44.666980
529.000000	44.621641
528.000000	44.533675
527.000000	44.477535
526.000000	44.421185
525.000000	44.330457
524.000000	44.258426
523.000000	44.202246
522.000000	44.116141
521.000000	44.066748
520.000000	43.981834
519.000000	43.893252
518.000000	43.808247
517.000000	43.738369
516.000000	43.669846
515.000000	43.594266
514.000000	43.511858
513.000000	43.442157
512.000000	43.335830
511.000000	43.265521
510.000000	43.158104
509.000000	43.100052
508.000000	43.035763
507.000000	42.912624
506.000000	42.839500
505.000000	42.755379
504.000000	42.634621
503.000000	42.564334
502.000000	42.439408
501.000000	42.353434
500.000000	42.276286
499.000000	42.192696
498.000000	42.039929
497.000000	41.928148
496.000000	41.789071
495.000000	41.696507
494.000000	41.649981
493.000000	41.515254
492.000000	41.402784
491.000000	41.310153
490.000000	41.150114
489.000000	41.004197
488.000000	40.884809
487.000000	40.759578
486.000000	40.657056
485.000000	40.565107
484.000000	40.430252
483.000000	40.295885
482.000000	40.200719
481.000000	40.090461
480.000000	39.929400
479.000000	39.798528
478.000000	39.672511
477.000000	39.541562
476.000000	39.371284
475.000000	39.230289
474.000000	39.101432
473.000000	38.964144
472.000000	38.818533
471.000000	38.622875
470.000000	38.451135
469.000000	38.318739
468.000000	38.171308
467.000000	38.026991
466.000000	37.876033
465.000000	37.703720
464.000000	37.514749
463.000000	37.335751
462.000000	37.144168
461.000000	36.971066
460.000000	36.794326
459.000000	36.608002
458.000000	36.424463
457.000000	36.227782
456.000000	36.033183
455.000000	35.829276
454.000000	35.633790
453.000000	35.450543
452.000000	35.252626
451.000000	35.034905
450.000000	34.835366
449.000000	34.641438
448.000000	34.402636
447.000000	34.157524
446.000000	33.957480
445.000000	33.772220
444.000000	33.543132
443.000000	33.295478
442.000000	33.081079
441.000000	32.854088
440.000000	32.617004
439.000000	32.356671
438.000000	32.123934
437.000000	31.901030
436.000000	31.649249
435.000000	31.401452
434.000000	31.140409
433.000000	30.881513
432.000000	30.648511
431.000000	30.371658
430.000000	30.092573
429.000000	29.812506
428.000000	29.554219
427.000000	29.291495
426.000000	29.044639
425.000000	28.773068
424.000000	28.457660
423.000000	28.164796
422.000000	27.890155
421.000000	27.641957
420.000000	27.387319
419.000000	27.102434
418.000000	26.859045
417.000000	26.539699
416.000000	26.297346
415.000000	26.093471
414.000000	25.859820
413.000000	25.648397
412.000000	25.437182
411.000000	25.231607
410.000000	25.068694
409.000000	24.932667
408.000000	24.841970
407.000000	24.698320
406.000000	24.568085
405.000000	24.427306
404.000000	24.348979
403.000000	24.251269
402.000000	24.157136
401.000000	24.089460
400.000000	23.971448
399.000000	23.891060
398.000000	23.820722
397.000000	23.723081
396.000000	23.604722
395.000000	23.483878
394.000000	23.384453
393.000000	23.286985
392.000000	23.169966
391.000000	23.026166
390.000000	22.896109
389.000000	22.789616
388.000000	22.624647
387.000000	22.498113
386.000000	22.291988
385.000000	22.115303
384.000000	21.971498
383.000000	21.768452
382.000000	21.625889
381.000000	21.429952
380.000000	21.225172
379.000000	20.971516
378.000000	20.737598
377.000000	20.640716
376.000000	20.418646
375.000000	20.175065
374.000000	19.944487
373.000000	19.660935
372.000000	19.420077
371.000000	19.238223
370.000000	19.010723
369.000000	18.796358
368.000000	18.518936
367.000000	18.311517
366.000000	18.124935
365.000000	17.847523
364.000000	17.680649
363.000000	17.393961
362.000000	17.186924
361.000000	16.891972
360.000000	16.715527
359.000000	16.485684
358.000000	16.248049
357.000000	16.041635
356.000000	15.731160
355.000000	15.648510
354.000000	15.351488
353.000000	15.188520
352.000000	14.868094
351.000000	14.755720
350.000000	14.456895
349.000000	14.259903
348.000000	14.181780
347.000000	13.940581
346.000000	13.734402
345.000000	13.548322
344.000000	13.374141
343.000000	13.170350
342.000000	12.998007
341.000000	12.808419
340.000000	12.668877
339.000000	12.450577
338.000000	12.277588
337.000000	12.052827
336.000000	11.938874
335.000000	11.773014
334.000000	11.566138
333.000000	11.464666
332.000000	11.255717
331.000000	11.109656
330.000000	10.913709
329.000000	10.761810
328.000000	10.616216
327.000000	10.448613
326.000000	10.385726
325.000000	10.237663
324.000000	9.987826
323.000000	9.945833
322.000000	9.801711
321.000000	9.680970
320.000000	9.455062
319.000000	9.307987
318.000000	9.228654
317.000000	9.039333
316.000000	8.923862
315.000000	8.715078
314.000000	8.589724
313.000000	8.376108
312.000000	8.226517
311.000000	8.027127
310.000000	7.853548
309.000000	7.627517
308.000000	7.427864
307.000000	7.204080
306.000000	6.989057
305.000000	6.763343
304.000000	6.534539
303.000000	6.324329
302.000000	6.080105
301.000000	5.761980
300.000000	5.493639
299.000000	5.194626
298.000000	4.849993
297.000000	4.466063
296.000000	4.093662
295.000000	3.649884
294.000000	3.165768
293.000000	2.668021
292.000000	2.248462
291.000000	1.871963
290.000000	1.581898
289.000000	1.374593
288.000000	1.241795
287.000000	1.174369
286.000000	1.121511
285.000000	1.112553
284.000000	1.124143
283.000000	1.140813
282.000000	1.136119
281.000000	1.133509
280.000000	1.143719
279.000000	1.178814
278.000000	1.190833
277.000000	1.203691
276.000000	1.223203
275.000000	1.265208
274.000000	1.301723
273.000000	1.335187
272.000000	1.355466
271.000000	1.370973
270.000000	1.389366
269.000000	1.411057
268.000000	1.424830
267.000000	1.446113
266.000000	1.493517
265.000000	1.516390
264.000000	1.543908
263.000000	1.581762
262.000000	1.634077
261.000000	1.654945
260.000000	1.678448
259.000000	1.706520
258.000000	1.742219
257.000000	1.781001
256.000000	1.792755
255.000000	1.802367
254.000000	1.809223
253.000000	1.781946
252.000000	1.754100
251.000000	1.710607
250.000000	1.658055
249.000000	1.585513
248.000000	1.502074
247.000000	1.401569
246.000000	1.317706
245.000000	1.209828
244.000000	1.099898
243.000000	1.017169
242.000000	0.938653
241.000000	0.865826
240.000000	0.787903
239.000000	0.741631
238.000000	0.705028
237.000000	0.662137
236.000000	0.657955
235.000000	0.639241
234.000000	0.608305
233.000000	0.594123
232.000000	0.573752
231.000000	0.539355
230.000000	0.524904
229.000000	0.490103
228.000000	0.459648
227.000000	0.434587
226.000000	0.398693
225.000000	0.373207
224.000000	0.352655
223.000000	0.351821
222.000000	0.345136
221.000000	0.331975
220.000000	0.328115
219.000000	0.337471
218.000000	0.328861
217.000000	0.313489
216.000000	0.306838
215.000000	0.314756
214.000000	0.328358
213.000000	0.332333
212.000000	0.321979
211.000000	0.328800
210.000000	0.325127
209.000000	0.326131
208.000000	0.364287
207.000000	0.373957
206.000000	0.334047
205.000000	0.345221
204.000000	0.389330
203.000000	0.410230
202.000000	0.424966
201.000000	0.425548
200.000000	0.449260
