PE UV       SUBTECH     SPECTRUM    ASCII       PEDS        4.00        
   -1
004-1S-F8-NR001-F001.Sample.asc
24/01/08
17:56:36.00
24/01/08
17:56:36.00
Administrator

250.000000
1
Lambda 750
750N8071901
PerkinElmer UV WinLab 6.0.4.0738 / 1.61.00 Lambda 900

0
0
3350/servo 860.8/2
0
0
UV/VIS
1
1
1
CommonBeamDepol,150mm sphere / downward view
0
0
0
0
Program
Program
3350/servo 860.8/2
3350/0.2 860.8/0.2
3350/0.2 860.8/0.2
0
1
 
 
 
0
 
860.8
319.2
860.8
Front
100
on
 
 
0
0
0
 
0
 
 
 
0
 
 
0
0
0
0
0
 
 
 
 
0
0


0
0
#HDR
-1
-1
#GR
nm
%R
1.0
0.0
2500.000000
-10.000000
226
8
63.181132
0.000000
#DATA
2500.000000	0.000000
2490.000000	25.858534
2480.000000	30.913768
2470.000000	29.711460
2460.000000	28.695638
2450.000000	30.019460
2440.000000	32.926783
2430.000000	32.216353
2420.000000	30.585405
2410.000000	33.180168
2400.000000	32.623965
2390.000000	33.817253
2380.000000	32.715130
2370.000000	32.533996
2360.000000	34.029669
2350.000000	33.495566
2340.000000	33.981300
2330.000000	32.561582
2320.000000	32.589465
2310.000000	31.789160
2300.000000	30.437926
2290.000000	31.112336
2280.000000	32.035095
2270.000000	31.177978
2260.000000	33.914688
2250.000000	35.761618
2240.000000	36.308739
2230.000000	37.370148
2220.000000	36.601841
2210.000000	36.003770
2200.000000	35.373430
2190.000000	34.843767
2180.000000	34.797456
2170.000000	35.718550
2160.000000	36.704521
2150.000000	38.226404
2140.000000	39.181228
2130.000000	40.458746
2120.000000	39.951022
2110.000000	40.419541
2100.000000	40.582727
2090.000000	40.293972
2080.000000	39.906507
2070.000000	38.076302
2060.000000	36.221720
2050.000000	35.576866
2040.000000	36.117925
2030.000000	37.013568
2020.000000	36.958843
2010.000000	36.235937
2000.000000	35.107128
1990.000000	34.256029
1980.000000	32.791694
1970.000000	31.544966
1960.000000	30.721929
1950.000000	30.445397
1940.000000	31.248466
1930.000000	33.201961
1920.000000	36.282884
1910.000000	40.895352
1900.000000	45.491121
1890.000000	49.467643
1880.000000	52.076617
1870.000000	53.252306
1860.000000	53.736620
1850.000000	54.031264
1840.000000	53.892179
1830.000000	53.500867
1820.000000	53.415305
1810.000000	52.980800
1800.000000	52.682022
1790.000000	52.453654
1780.000000	52.165075
1770.000000	51.815730
1760.000000	51.530324
1750.000000	51.052415
1740.000000	50.943825
1730.000000	51.346145
1720.000000	51.862929
1710.000000	52.300786
1700.000000	52.567711
1690.000000	53.254491
1680.000000	54.329419
1670.000000	55.330610
1660.000000	55.652143
1650.000000	55.664585
1640.000000	55.536814
1630.000000	55.304463
1620.000000	54.875668
1610.000000	54.354366
1600.000000	53.947726
1590.000000	53.449227
1580.000000	53.127363
1570.000000	52.782869
1560.000000	52.601263
1550.000000	52.342278
1540.000000	51.649992
1530.000000	50.956085
1520.000000	50.641585
1510.000000	50.383827
1500.000000	50.324469
1490.000000	50.453246
1480.000000	50.866023
1470.000000	51.188206
1460.000000	51.607946
1450.000000	52.186979
1440.000000	52.902028
1430.000000	53.775520
1420.000000	54.964946
1410.000000	56.389145
1400.000000	57.740325
1390.000000	58.758049
1380.000000	59.435533
1370.000000	59.644639
1360.000000	60.008255
1350.000000	60.404927
1340.000000	60.959205
1330.000000	61.363389
1320.000000	61.411482
1310.000000	61.288685
1300.000000	61.079181
1290.000000	60.945118
1280.000000	61.010762
1270.000000	61.086684
1260.000000	61.265054
1250.000000	61.130833
1240.000000	61.135772
1230.000000	61.155642
1220.000000	60.970449
1210.000000	60.806358
1200.000000	60.557537
1190.000000	60.546291
1180.000000	60.863001
1170.000000	61.029338
1160.000000	61.442754
1150.000000	61.683810
1140.000000	61.829151
1130.000000	61.966994
1120.000000	62.152554
1110.000000	62.122378
1100.000000	62.201094
1090.000000	62.252380
1080.000000	62.193925
1070.000000	62.089632
1060.000000	62.067601
1050.000000	62.103850
1040.000000	62.173295
1030.000000	62.143080
1020.000000	62.057970
1010.000000	62.045673
1000.000000	62.173949
990.000000	62.235513
980.000000	62.253500
970.000000	62.341977
960.000000	62.354383
950.000000	62.446966
940.000000	62.531179
930.000000	62.577156
920.000000	62.600384
910.000000	62.540834
900.000000	62.427124
890.000000	62.594511
880.000000	62.715038
870.000000	63.181132
860.000000	62.897154
850.000000	62.352286
840.000000	62.734469
830.000000	62.707965
820.000000	62.527550
810.000000	62.645330
800.000000	62.760089
790.000000	62.866149
780.000000	62.809300
770.000000	62.786208
760.000000	62.832105
750.000000	63.023616
740.000000	62.803930
730.000000	62.865110
720.000000	62.981377
710.000000	62.865994
700.000000	62.691583
690.000000	62.850494
680.000000	62.793685
670.000000	62.720436
660.000000	62.538106
650.000000	62.584681
640.000000	62.483995
630.000000	62.435306
620.000000	62.422682
610.000000	62.338784
600.000000	62.186598
590.000000	62.139500
580.000000	61.885111
570.000000	61.757143
560.000000	61.631962
550.000000	61.467028
540.000000	61.288019
530.000000	61.003860
520.000000	60.801190
510.000000	60.630139
500.000000	60.293036
490.000000	59.884450
480.000000	59.459173
470.000000	58.890657
460.000000	58.478278
450.000000	57.931019
440.000000	56.730403
430.000000	55.714184
420.000000	54.641568
410.000000	53.065148
400.000000	51.199129
390.000000	49.375914
380.000000	47.389328
370.000000	45.286608
360.000000	42.753342
350.000000	39.802500
340.000000	37.626160
330.000000	34.121305
320.000000	31.253360
310.000000	28.796090
300.000000	24.760283
290.000000	23.532625
280.000000	18.883443
270.000000	15.483494
260.000000	15.686175
250.000000	15.775103
