PE UV       SUBTECH     SPECTRUM    ASCII       PEDS        4.00        
   -1
004-1S-F8-NR001-C001.Sample.asc
24/01/08
18:00:42.00
24/01/08
18:00:42.00
Administrator

250.000000
1
Lambda 750
750N8071901
PerkinElmer UV WinLab 6.0.4.0738 / 1.61.00 Lambda 900

0
0
3350/servo 860.8/2
0
0
UV/VIS
1
1
1
CommonBeamDepol,150mm sphere / downward view
0
0
0
0
Program
Program
3350/servo 860.8/2
3350/0.2 860.8/0.2
3350/0.2 860.8/0.2
0
1
 
 
 
0
 
860.8
319.2
860.8
Front
100
on
 
 
0
0
0
 
0
 
 
 
0
 
 
0
0
0
0
0
 
 
 
 
0
0


0
0
#HDR
-1
-1
#GR
nm
%R
1.0
0.0
2500.000000
-10.000000
226
8
66.495584
0.000000
#DATA
2500.000000	0.000000
2490.000000	24.100570
2480.000000	25.140884
2470.000000	22.372684
2460.000000	25.462591
2450.000000	28.995277
2440.000000	26.904946
2430.000000	27.896721
2420.000000	27.007608
2410.000000	29.753269
2400.000000	28.297963
2390.000000	30.028861
2380.000000	28.889409
2370.000000	28.261679
2360.000000	27.785073
2350.000000	28.613036
2340.000000	29.654591
2330.000000	29.055641
2320.000000	27.474506
2310.000000	27.173040
2300.000000	26.126323
2290.000000	27.424289
2280.000000	27.543187
2270.000000	28.637504
2260.000000	30.140554
2250.000000	32.890466
2240.000000	33.462351
2230.000000	34.864661
2220.000000	33.167150
2210.000000	32.688876
2200.000000	31.866125
2190.000000	31.639715
2180.000000	31.415699
2170.000000	32.492647
2160.000000	32.988726
2150.000000	34.331137
2140.000000	36.975423
2130.000000	37.436406
2120.000000	38.217291
2110.000000	38.525557
2100.000000	37.990845
2090.000000	37.738596
2080.000000	36.926881
2070.000000	35.189998
2060.000000	33.600341
2050.000000	32.895597
2040.000000	33.417529
2030.000000	34.533034
2020.000000	34.689205
2010.000000	33.644946
2000.000000	32.340312
1990.000000	31.200345
1980.000000	29.823248
1970.000000	28.558241
1960.000000	27.742192
1950.000000	27.325052
1940.000000	28.139162
1930.000000	30.239431
1920.000000	33.774834
1910.000000	39.190939
1900.000000	44.481642
1890.000000	49.097084
1880.000000	52.029136
1870.000000	53.843512
1860.000000	54.324698
1850.000000	54.464606
1840.000000	54.376649
1830.000000	53.925681
1820.000000	53.696421
1810.000000	53.370692
1800.000000	52.936989
1790.000000	52.748076
1780.000000	52.195080
1770.000000	51.861269
1760.000000	51.406371
1750.000000	50.924448
1740.000000	50.601575
1730.000000	50.853179
1720.000000	51.875088
1710.000000	52.398830
1700.000000	52.778108
1690.000000	53.610120
1680.000000	54.990006
1670.000000	56.230093
1660.000000	56.728999
1650.000000	56.799821
1640.000000	56.654739
1630.000000	56.240133
1620.000000	55.809201
1610.000000	55.221610
1600.000000	54.741332
1590.000000	54.230727
1580.000000	53.817818
1570.000000	53.461059
1560.000000	53.289228
1550.000000	52.898785
1540.000000	52.092571
1530.000000	51.403700
1520.000000	50.902300
1510.000000	50.651258
1500.000000	50.608027
1490.000000	50.856430
1480.000000	51.235604
1470.000000	51.666921
1460.000000	52.178169
1450.000000	52.823346
1440.000000	53.712798
1430.000000	54.684145
1420.000000	56.086728
1410.000000	57.774846
1400.000000	59.404317
1390.000000	60.726754
1380.000000	61.466513
1370.000000	61.785076
1360.000000	62.151273
1350.000000	62.578093
1340.000000	63.165003
1330.000000	63.651006
1320.000000	63.904886
1310.000000	63.826141
1300.000000	63.671704
1290.000000	63.522342
1280.000000	63.564497
1270.000000	63.750931
1260.000000	63.710803
1250.000000	63.763232
1240.000000	63.693867
1230.000000	63.486158
1220.000000	63.349966
1210.000000	63.131579
1200.000000	63.001973
1190.000000	62.958526
1180.000000	63.244407
1170.000000	63.579433
1160.000000	64.021866
1150.000000	64.382111
1140.000000	64.636512
1130.000000	64.812244
1120.000000	64.813795
1110.000000	64.889804
1100.000000	64.965342
1090.000000	64.996235
1080.000000	64.929792
1070.000000	64.818379
1060.000000	64.815273
1050.000000	64.847460
1040.000000	64.872891
1030.000000	64.856406
1020.000000	64.884486
1010.000000	64.829815
1000.000000	65.027813
990.000000	65.120318
980.000000	65.090390
970.000000	65.178714
960.000000	65.295909
950.000000	65.226511
940.000000	65.360723
930.000000	65.433654
920.000000	65.423229
910.000000	65.333699
900.000000	65.370977
890.000000	65.329053
880.000000	65.715536
870.000000	65.777304
860.000000	65.769603
850.000000	65.115656
840.000000	66.469986
830.000000	66.495584
820.000000	65.858440
810.000000	66.017205
800.000000	65.878826
790.000000	65.761888
780.000000	65.829782
770.000000	65.856362
760.000000	65.940897
750.000000	65.859168
740.000000	65.787198
730.000000	65.688569
720.000000	65.685354
710.000000	65.528160
700.000000	65.437654
690.000000	65.456188
680.000000	65.384242
670.000000	65.271591
660.000000	64.969249
650.000000	64.863696
640.000000	64.688338
630.000000	64.541877
620.000000	64.360695
610.000000	64.136324
600.000000	63.784636
590.000000	63.508482
580.000000	63.137253
570.000000	62.788458
560.000000	62.477607
550.000000	62.003604
540.000000	61.637505
530.000000	61.079754
520.000000	60.649675
510.000000	60.148095
500.000000	59.543921
490.000000	58.796464
480.000000	58.003236
470.000000	57.306703
460.000000	56.371967
450.000000	55.368859
440.000000	53.963410
430.000000	52.634075
420.000000	51.058470
410.000000	48.878077
400.000000	46.711598
390.000000	44.420629
380.000000	42.169411
370.000000	39.994680
360.000000	37.597336
350.000000	34.344156
340.000000	32.752812
330.000000	29.880328
320.000000	27.716708
310.000000	26.611469
300.000000	24.241981
290.000000	24.471487
280.000000	18.989656
270.000000	15.746369
260.000000	14.621628
250.000000	14.521350
