PE UV       SUBTECH     SPECTRUM    ASCII       PEDS        4.00        
   -1
004-1S-H9-NR001-C001.Sample.asc
24/01/08
18:25:00.00
24/01/08
18:25:00.00
Administrator

250.000000
1
Lambda 750
750N8071901
PerkinElmer UV WinLab 6.0.4.0738 / 1.61.00 Lambda 900

0
0
3350/servo 860.8/2
0
0
UV/VIS
1
1
1
CommonBeamDepol,150mm sphere / downward view
0
0
0
0
Program
Program
3350/servo 860.8/2
3350/0.2 860.8/0.2
3350/0.2 860.8/0.2
0
1
 
 
 
0
 
860.8
319.2
860.8
Front
100
on
 
 
0
0
0
 
0
 
 
 
0
 
 
0
0
0
0
0
 
 
 
 
0
0


0
0
#HDR
-1
-1
#GR
nm
%R
1.0
0.0
2500.000000
-10.000000
226
8
78.440867
0.000000
#DATA
2500.000000	0.000000
2490.000000	35.275237
2480.000000	36.058203
2470.000000	35.333140
2460.000000	37.279687
2450.000000	37.516015
2440.000000	38.840189
2430.000000	40.198635
2420.000000	38.460618
2410.000000	41.474312
2400.000000	39.563826
2390.000000	42.407031
2380.000000	41.786585
2370.000000	39.823745
2360.000000	39.622244
2350.000000	41.193732
2340.000000	41.367516
2330.000000	40.595996
2320.000000	40.774659
2310.000000	39.657802
2300.000000	39.241725
2290.000000	39.568591
2280.000000	39.287897
2270.000000	40.421662
2260.000000	42.796653
2250.000000	44.659699
2240.000000	45.696098
2230.000000	46.255487
2220.000000	44.826259
2210.000000	45.033228
2200.000000	43.871100
2190.000000	43.625749
2180.000000	43.930755
2170.000000	44.251355
2160.000000	45.929838
2150.000000	47.265077
2140.000000	48.413019
2130.000000	49.660561
2120.000000	49.906643
2110.000000	50.117323
2100.000000	50.290255
2090.000000	49.795132
2080.000000	48.972384
2070.000000	47.158541
2060.000000	45.502202
2050.000000	44.974411
2040.000000	45.831352
2030.000000	46.528414
2020.000000	46.651494
2010.000000	45.920043
2000.000000	44.694087
1990.000000	43.499251
1980.000000	42.326752
1970.000000	41.048948
1960.000000	40.302498
1950.000000	39.844624
1940.000000	40.459947
1930.000000	42.869366
1920.000000	46.382426
1910.000000	51.105580
1900.000000	55.805043
1890.000000	60.178574
1880.000000	63.040669
1870.000000	64.765127
1860.000000	65.093230
1850.000000	65.337249
1840.000000	65.256231
1830.000000	64.791464
1820.000000	64.657796
1810.000000	64.304165
1800.000000	63.851838
1790.000000	63.579514
1780.000000	63.101413
1770.000000	62.854587
1760.000000	62.447327
1750.000000	61.869024
1740.000000	61.523539
1730.000000	62.056749
1720.000000	62.770321
1710.000000	63.471558
1700.000000	63.867042
1690.000000	64.664298
1680.000000	66.145264
1670.000000	67.338360
1660.000000	67.899486
1650.000000	67.956683
1640.000000	67.723518
1630.000000	67.376030
1620.000000	67.044980
1610.000000	66.384485
1600.000000	65.872523
1590.000000	65.381025
1580.000000	65.005826
1570.000000	64.680537
1560.000000	64.500674
1550.000000	64.157275
1540.000000	63.399039
1530.000000	62.691062
1520.000000	62.285165
1510.000000	62.054114
1500.000000	61.964573
1490.000000	62.196572
1480.000000	62.686735
1470.000000	63.099232
1460.000000	63.556363
1450.000000	64.198956
1440.000000	65.044591
1430.000000	66.029401
1420.000000	67.423042
1410.000000	69.137642
1400.000000	70.940365
1390.000000	72.497251
1380.000000	73.311710
1370.000000	73.688606
1360.000000	74.256081
1350.000000	74.843281
1340.000000	75.419320
1330.000000	75.777421
1320.000000	75.981586
1310.000000	76.021348
1300.000000	75.962261
1290.000000	75.901064
1280.000000	75.950232
1270.000000	76.081667
1260.000000	76.091535
1250.000000	76.148368
1240.000000	76.013564
1230.000000	75.759513
1220.000000	75.632980
1210.000000	75.449558
1200.000000	75.211856
1190.000000	75.219379
1180.000000	75.497076
1170.000000	75.947585
1160.000000	76.468654
1150.000000	76.816964
1140.000000	77.172530
1130.000000	77.314025
1120.000000	77.465628
1110.000000	77.482644
1100.000000	77.535099
1090.000000	77.609470
1080.000000	77.555276
1070.000000	77.442129
1060.000000	77.404213
1050.000000	77.422211
1040.000000	77.366839
1030.000000	77.335585
1020.000000	77.292932
1010.000000	77.344924
1000.000000	77.471917
990.000000	77.448934
980.000000	77.571840
970.000000	77.634267
960.000000	77.763146
950.000000	77.869015
940.000000	77.765686
930.000000	77.832838
920.000000	77.880472
910.000000	77.678383
900.000000	77.871191
890.000000	77.776729
880.000000	77.836027
870.000000	78.332373
860.000000	77.788268
850.000000	77.716464
840.000000	77.861316
830.000000	78.440867
820.000000	78.002253
810.000000	77.705060
800.000000	77.907677
790.000000	77.871948
780.000000	77.814117
770.000000	77.668636
760.000000	78.026135
750.000000	77.933911
740.000000	77.847075
730.000000	77.841489
720.000000	77.735558
710.000000	77.724480
700.000000	77.591852
690.000000	77.586238
680.000000	77.332114
670.000000	77.239698
660.000000	76.848296
650.000000	76.841115
640.000000	76.412995
630.000000	76.353117
620.000000	76.236904
610.000000	76.015943
600.000000	75.653426
590.000000	75.336045
580.000000	75.041064
570.000000	74.643918
560.000000	74.199141
550.000000	73.860561
540.000000	73.462450
530.000000	72.886028
520.000000	72.332980
510.000000	71.752234
500.000000	71.060162
490.000000	70.368391
480.000000	69.404373
470.000000	68.468844
460.000000	67.553261
450.000000	66.701172
440.000000	65.244551
430.000000	63.955080
420.000000	62.371237
410.000000	60.215903
400.000000	58.046295
390.000000	55.924860
380.000000	53.833280
370.000000	51.573642
360.000000	49.216078
350.000000	46.343869
340.000000	44.277769
330.000000	40.860649
320.000000	38.326889
310.000000	37.013595
300.000000	34.254664
290.000000	27.468308
280.000000	20.393513
270.000000	16.226292
260.000000	14.628264
250.000000	14.186464
