PE UV       SUBTECH     SPECTRUM    ASCII       PEDS        4.00        
   -1
005-2G-AG11-NR002-C002.Sample.asc
24/01/08
14:34:34.00
24/01/08
14:34:34.00
Administrator

250.000000
1
Lambda 750
750N8071901
PerkinElmer UV WinLab 6.0.4.0738 / 1.61.00 Lambda 900

0
0
3350/servo 860.8/2
0
0
UV/VIS
1
1
1
CommonBeamDepol,150mm sphere / downward view
0
0
0
0
Program
Program
3350/servo 860.8/2
3350/0.2 860.8/0.2
3350/0.2 860.8/0.2
0
1
 
 
 
0
 
860.8
319.2
860.8
Front
100
on
 
 
0
0
0
 
0
 
 
 
0
 
 
0
0
0
0
0
 
 
 
 
0
0


0
0
#HDR
-1
-1
#GR
nm
%R
1.0
0.0
2500.000000
-10.000000
226
8
78.396880
0.000000
#DATA
2500.000000	0.000000
2490.000000	33.465347
2480.000000	32.839388
2470.000000	32.118245
2460.000000	33.817353
2450.000000	35.131259
2440.000000	35.489044
2430.000000	36.618796
2420.000000	36.941265
2410.000000	37.361481
2400.000000	35.896104
2390.000000	38.008775
2380.000000	37.085060
2370.000000	37.286513
2360.000000	37.092791
2350.000000	36.865595
2340.000000	37.949821
2330.000000	37.579010
2320.000000	36.119373
2310.000000	35.925329
2300.000000	36.255384
2290.000000	37.204136
2280.000000	36.448432
2270.000000	37.282994
2260.000000	39.398599
2250.000000	41.281760
2240.000000	41.272077
2230.000000	42.104849
2220.000000	41.666234
2210.000000	41.561905
2200.000000	41.018955
2190.000000	41.093614
2180.000000	40.731436
2170.000000	41.645063
2160.000000	42.571968
2150.000000	43.389380
2140.000000	44.614133
2130.000000	45.234536
2120.000000	46.069273
2110.000000	46.266693
2100.000000	45.756488
2090.000000	45.548146
2080.000000	44.718439
2070.000000	43.459080
2060.000000	42.097319
2050.000000	41.690580
2040.000000	41.971753
2030.000000	42.666980
2020.000000	42.605772
2010.000000	42.240034
2000.000000	41.034855
1990.000000	40.115852
1980.000000	39.012695
1970.000000	38.234053
1960.000000	37.538364
1950.000000	37.047524
1940.000000	37.815825
1930.000000	39.650157
1920.000000	42.639846
1910.000000	46.534297
1900.000000	51.091620
1890.000000	55.276331
1880.000000	58.588251
1870.000000	60.256171
1860.000000	60.805726
1850.000000	61.001135
1840.000000	60.663724
1830.000000	60.399028
1820.000000	60.047005
1810.000000	59.734073
1800.000000	59.455151
1790.000000	59.088562
1780.000000	58.598263
1770.000000	58.080859
1760.000000	57.644311
1750.000000	57.047123
1740.000000	56.687400
1730.000000	57.021591
1720.000000	57.977769
1710.000000	58.735209
1700.000000	59.326351
1690.000000	60.418066
1680.000000	62.249987
1670.000000	63.666593
1660.000000	64.300098
1650.000000	64.421272
1640.000000	64.144217
1630.000000	63.767249
1620.000000	63.258075
1610.000000	62.566569
1600.000000	61.981675
1590.000000	61.450658
1580.000000	60.918526
1570.000000	60.469835
1560.000000	60.283530
1550.000000	59.850809
1540.000000	58.984542
1530.000000	58.280740
1520.000000	57.901873
1510.000000	57.623250
1500.000000	57.592894
1490.000000	57.720214
1480.000000	58.125969
1470.000000	58.428473
1460.000000	58.898819
1450.000000	59.616894
1440.000000	60.650756
1430.000000	61.898657
1420.000000	63.650573
1410.000000	65.827018
1400.000000	68.104289
1390.000000	70.018646
1380.000000	71.209542
1370.000000	71.890457
1360.000000	72.531654
1350.000000	73.318019
1340.000000	74.177777
1330.000000	74.746521
1320.000000	75.038273
1310.000000	75.115095
1300.000000	75.057176
1290.000000	74.919148
1280.000000	74.910634
1270.000000	75.119226
1260.000000	75.237998
1250.000000	75.081230
1240.000000	74.913745
1230.000000	74.575720
1220.000000	74.193324
1210.000000	73.854960
1200.000000	73.573678
1190.000000	73.637221
1180.000000	74.155273
1170.000000	74.827700
1160.000000	75.678529
1150.000000	76.259507
1140.000000	76.831730
1130.000000	77.175973
1120.000000	77.227386
1110.000000	77.430459
1100.000000	77.368182
1090.000000	77.424517
1080.000000	77.329751
1070.000000	77.308338
1060.000000	77.206351
1050.000000	77.237071
1040.000000	77.220558
1030.000000	77.157400
1020.000000	77.149749
1010.000000	77.157046
1000.000000	77.295930
990.000000	77.368765
980.000000	77.423443
970.000000	77.577416
960.000000	77.690859
950.000000	77.742512
940.000000	77.764185
930.000000	77.915055
920.000000	77.766699
910.000000	77.601981
900.000000	78.037138
890.000000	77.869212
880.000000	78.223979
870.000000	78.193539
860.000000	78.396880
850.000000	77.970394
840.000000	78.155713
830.000000	77.250232
820.000000	77.714696
810.000000	78.071135
800.000000	77.996208
790.000000	78.082840
780.000000	77.884147
770.000000	77.629275
760.000000	77.858939
750.000000	77.700969
740.000000	77.551118
730.000000	77.343752
720.000000	77.410370
710.000000	76.979775
700.000000	76.761543
690.000000	76.638829
680.000000	76.395131
670.000000	75.907931
660.000000	75.274068
650.000000	75.184366
640.000000	74.637733
630.000000	74.318485
620.000000	73.936864
610.000000	73.324713
600.000000	72.757282
590.000000	72.287534
580.000000	71.554020
570.000000	70.836548
560.000000	70.225791
550.000000	69.514166
540.000000	68.828619
530.000000	68.029825
520.000000	67.271719
510.000000	66.480235
500.000000	65.699016
490.000000	64.809283
480.000000	63.723493
470.000000	62.548819
460.000000	61.513075
450.000000	60.526934
440.000000	58.772819
430.000000	57.129064
420.000000	55.312650
410.000000	53.328829
400.000000	51.266961
390.000000	49.139514
380.000000	46.764117
370.000000	44.352475
360.000000	41.635645
350.000000	38.083752
340.000000	36.707081
330.000000	33.484086
320.000000	32.349693
310.000000	31.161862
300.000000	33.371806
290.000000	22.828984
280.000000	16.400502
270.000000	11.622434
260.000000	9.851075
250.000000	9.156120
