PE UV       SUBTECH     SPECTRUM    ASCII       PEDS        4.00        
   -1
005-2G-BD1-NR001-F001.Sample.asc
24/01/08
16:37:09.00
24/01/08
16:37:09.00
Administrator

250.000000
1
Lambda 750
750N8071901
PerkinElmer UV WinLab 6.0.4.0738 / 1.61.00 Lambda 900

0
0
3350/servo 860.8/2
0
0
UV/VIS
1
1
1
CommonBeamDepol,150mm sphere / downward view
0
0
0
0
Program
Program
3350/servo 860.8/2
3350/0.2 860.8/0.2
3350/0.2 860.8/0.2
0
1
 
 
 
0
 
860.8
319.2
860.8
Front
100
on
 
 
0
0
0
 
0
 
 
 
0
 
 
0
0
0
0
0
 
 
 
 
0
0


0
0
#HDR
-1
-1
#GR
nm
%R
1.0
0.0
2500.000000
-10.000000
226
8
79.139858
0.000000
#DATA
2500.000000	0.000000
2490.000000	44.388183
2480.000000	45.540050
2470.000000	44.290601
2460.000000	45.444002
2450.000000	47.183967
2440.000000	47.468950
2430.000000	50.317762
2420.000000	47.392314
2410.000000	50.911953
2400.000000	51.530683
2390.000000	50.989737
2380.000000	50.445200
2370.000000	49.037560
2360.000000	49.574146
2350.000000	49.933533
2340.000000	49.468739
2330.000000	49.703009
2320.000000	49.211031
2310.000000	48.140596
2300.000000	48.710338
2290.000000	48.382352
2280.000000	47.959067
2270.000000	49.263815
2260.000000	51.143887
2250.000000	52.689942
2240.000000	53.134023
2230.000000	53.669535
2220.000000	53.166714
2210.000000	53.005429
2200.000000	52.645101
2190.000000	52.101274
2180.000000	52.275848
2170.000000	53.311362
2160.000000	53.890926
2150.000000	55.270339
2140.000000	56.548957
2130.000000	56.933906
2120.000000	56.963875
2110.000000	57.707906
2100.000000	57.070086
2090.000000	56.828967
2080.000000	56.531831
2070.000000	55.233925
2060.000000	53.950127
2050.000000	53.242490
2040.000000	53.840959
2030.000000	54.206929
2020.000000	54.284525
2010.000000	53.667545
2000.000000	52.794771
1990.000000	51.964523
1980.000000	51.091396
1970.000000	50.042889
1960.000000	49.416700
1950.000000	49.254489
1940.000000	49.610894
1930.000000	51.542922
1920.000000	53.916664
1910.000000	57.124246
1900.000000	60.496309
1890.000000	63.528811
1880.000000	65.466784
1870.000000	66.708587
1860.000000	67.038160
1850.000000	67.280410
1840.000000	67.271626
1830.000000	66.937378
1820.000000	66.846621
1810.000000	66.434659
1800.000000	66.256428
1790.000000	66.175512
1780.000000	65.669120
1770.000000	65.748479
1760.000000	65.393765
1750.000000	65.072803
1740.000000	64.957401
1730.000000	65.189658
1720.000000	65.781809
1710.000000	66.204628
1700.000000	66.414226
1690.000000	66.994504
1680.000000	68.101130
1670.000000	68.906392
1660.000000	69.381508
1650.000000	69.429524
1640.000000	69.323479
1630.000000	69.059050
1620.000000	68.794109
1610.000000	68.256883
1600.000000	67.910996
1590.000000	67.574875
1580.000000	67.257204
1570.000000	67.050436
1560.000000	66.921468
1550.000000	66.705687
1540.000000	66.212078
1530.000000	65.738121
1520.000000	65.449459
1510.000000	65.270263
1500.000000	65.287864
1490.000000	65.409156
1480.000000	65.718217
1470.000000	66.016579
1460.000000	66.329163
1450.000000	66.840846
1440.000000	67.486532
1430.000000	68.215228
1420.000000	69.158037
1410.000000	70.545688
1400.000000	72.073460
1390.000000	73.337007
1380.000000	74.027062
1370.000000	74.471094
1360.000000	74.941219
1350.000000	75.435818
1340.000000	75.970437
1330.000000	76.242056
1320.000000	76.500768
1310.000000	76.560158
1300.000000	76.546457
1290.000000	76.469613
1280.000000	76.443471
1270.000000	76.594178
1260.000000	76.616624
1250.000000	76.647297
1240.000000	76.550442
1230.000000	76.371421
1220.000000	76.177773
1210.000000	75.892635
1200.000000	75.748916
1190.000000	75.726217
1180.000000	76.074126
1170.000000	76.440972
1160.000000	77.050572
1150.000000	77.396930
1140.000000	77.761784
1130.000000	77.959149
1120.000000	78.056224
1110.000000	78.076982
1100.000000	78.119439
1090.000000	78.191348
1080.000000	78.071210
1070.000000	78.059181
1060.000000	77.993892
1050.000000	77.985163
1040.000000	77.982773
1030.000000	77.972663
1020.000000	77.927325
1010.000000	77.902371
1000.000000	77.963599
990.000000	78.016264
980.000000	78.115199
970.000000	78.175879
960.000000	78.331332
950.000000	78.381818
940.000000	78.490710
930.000000	78.486355
920.000000	78.239806
910.000000	78.289606
900.000000	78.290451
890.000000	78.429920
880.000000	78.542464
870.000000	78.754590
860.000000	78.678470
850.000000	77.980269
840.000000	78.622403
830.000000	78.911716
820.000000	78.744146
810.000000	79.139858
800.000000	78.820034
790.000000	78.500907
780.000000	78.519385
770.000000	78.213959
760.000000	78.541509
750.000000	78.313259
740.000000	78.282944
730.000000	78.134766
720.000000	77.999361
710.000000	77.887257
700.000000	77.551913
690.000000	77.393592
680.000000	77.184250
670.000000	76.756875
660.000000	76.318054
650.000000	76.166463
640.000000	75.827423
630.000000	75.616186
620.000000	75.377090
610.000000	75.098120
600.000000	74.768585
590.000000	74.416303
580.000000	74.175305
570.000000	73.774951
560.000000	73.484582
550.000000	73.125438
540.000000	72.822564
530.000000	72.401263
520.000000	71.991126
510.000000	71.651352
500.000000	71.126005
490.000000	70.574530
480.000000	69.983164
470.000000	69.294180
460.000000	68.706454
450.000000	68.089894
440.000000	66.724122
430.000000	65.857637
420.000000	64.384483
410.000000	62.779083
400.000000	60.944964
390.000000	59.107147
380.000000	56.850458
370.000000	54.583913
360.000000	52.040895
350.000000	48.950052
340.000000	47.173037
330.000000	43.939041
320.000000	41.512418
310.000000	39.700020
300.000000	37.739367
290.000000	33.026448
280.000000	28.614682
270.000000	24.624782
260.000000	22.376266
250.000000	21.468500
