PE UV       SUBTECH     SPECTRUM    ASCII       PEDS        4.00        
   -1
005-2G-BG1-NR001-F001.Sample.asc
24/01/08
16:33:43.00
24/01/08
16:33:43.00
Administrator

250.000000
1
Lambda 750
750N8071901
PerkinElmer UV WinLab 6.0.4.0738 / 1.61.00 Lambda 900

0
0
3350/servo 860.8/2
0
0
UV/VIS
1
1
1
CommonBeamDepol,150mm sphere / downward view
0
0
0
0
Program
Program
3350/servo 860.8/2
3350/0.2 860.8/0.2
3350/0.2 860.8/0.2
0
1
 
 
 
0
 
860.8
319.2
860.8
Front
100
on
 
 
0
0
0
 
0
 
 
 
0
 
 
0
0
0
0
0
 
 
 
 
0
0


0
0
#HDR
-1
-1
#GR
nm
%R
1.0
0.0
2500.000000
-10.000000
226
8
74.539341
0.000000
#DATA
2500.000000	0.000000
2490.000000	31.143188
2480.000000	31.690322
2470.000000	31.732008
2460.000000	33.468870
2450.000000	34.327942
2440.000000	34.793792
2430.000000	35.254484
2420.000000	34.907857
2410.000000	36.641860
2400.000000	35.651552
2390.000000	36.740628
2380.000000	36.812955
2370.000000	34.531750
2360.000000	35.892510
2350.000000	35.979276
2340.000000	37.334691
2330.000000	36.354311
2320.000000	36.551137
2310.000000	35.665947
2300.000000	34.274857
2290.000000	34.136131
2280.000000	35.695189
2270.000000	36.037921
2260.000000	37.958501
2250.000000	39.651824
2240.000000	39.814290
2230.000000	40.683270
2220.000000	40.198437
2210.000000	39.771928
2200.000000	39.493529
2190.000000	39.294037
2180.000000	38.612060
2170.000000	39.412773
2160.000000	40.829958
2150.000000	42.037140
2140.000000	43.658447
2130.000000	43.759648
2120.000000	44.093357
2110.000000	44.368640
2100.000000	44.164208
2090.000000	43.667739
2080.000000	43.074741
2070.000000	41.411598
2060.000000	39.905020
2050.000000	39.479472
2040.000000	39.935111
2030.000000	40.261900
2020.000000	40.271535
2010.000000	39.359921
2000.000000	38.392348
1990.000000	37.273494
1980.000000	36.126978
1970.000000	34.859010
1960.000000	34.195019
1950.000000	33.701315
1940.000000	34.591998
1930.000000	36.516236
1920.000000	39.430284
1910.000000	43.753826
1900.000000	48.352031
1890.000000	52.523333
1880.000000	55.509274
1870.000000	57.447539
1860.000000	58.082553
1850.000000	58.307783
1840.000000	57.953652
1830.000000	57.696675
1820.000000	57.457125
1810.000000	57.064809
1800.000000	56.716559
1790.000000	56.526359
1780.000000	56.150305
1770.000000	55.720966
1760.000000	55.556067
1750.000000	55.132215
1740.000000	54.941790
1730.000000	55.211082
1720.000000	55.997849
1710.000000	56.534492
1700.000000	56.852630
1690.000000	57.689869
1680.000000	59.108356
1670.000000	60.246240
1660.000000	60.867891
1650.000000	60.913366
1640.000000	60.644134
1630.000000	60.181369
1620.000000	59.777859
1610.000000	59.138455
1600.000000	58.596950
1590.000000	58.022280
1580.000000	57.632272
1570.000000	57.160427
1560.000000	56.972366
1550.000000	56.589003
1540.000000	55.845888
1530.000000	55.190156
1520.000000	54.756643
1510.000000	54.505374
1500.000000	54.382007
1490.000000	54.463607
1480.000000	54.687894
1470.000000	55.036433
1460.000000	55.425174
1450.000000	56.088213
1440.000000	57.016601
1430.000000	58.082540
1420.000000	59.718343
1410.000000	61.813834
1400.000000	64.061411
1390.000000	65.968074
1380.000000	67.109045
1370.000000	67.741910
1360.000000	68.425355
1350.000000	69.257839
1340.000000	70.073775
1330.000000	70.656619
1320.000000	70.958037
1310.000000	71.049041
1300.000000	71.028899
1290.000000	70.983329
1280.000000	70.974202
1270.000000	71.089544
1260.000000	71.137091
1250.000000	70.998233
1240.000000	70.877760
1230.000000	70.628939
1220.000000	70.404684
1210.000000	70.056200
1200.000000	69.735400
1190.000000	69.701794
1180.000000	70.165795
1170.000000	70.777516
1160.000000	71.712786
1150.000000	72.360490
1140.000000	72.893752
1130.000000	73.336906
1120.000000	73.481672
1110.000000	73.631706
1100.000000	73.610319
1090.000000	73.655684
1080.000000	73.540300
1070.000000	73.474322
1060.000000	73.439693
1050.000000	73.425722
1040.000000	73.382301
1030.000000	73.357401
1020.000000	73.363776
1010.000000	73.274505
1000.000000	73.427570
990.000000	73.542678
980.000000	73.621459
970.000000	73.800852
960.000000	73.952154
950.000000	74.059841
940.000000	74.190353
930.000000	74.157147
920.000000	74.055884
910.000000	73.989989
900.000000	74.020485
890.000000	74.052231
880.000000	74.384361
870.000000	74.408586
860.000000	74.539341
850.000000	74.340605
840.000000	74.190222
830.000000	74.513406
820.000000	74.330673
810.000000	74.192065
800.000000	73.877567
790.000000	73.819897
780.000000	73.865115
770.000000	73.787844
760.000000	73.756997
750.000000	73.543233
740.000000	73.365366
730.000000	72.911695
720.000000	72.890720
710.000000	72.818534
700.000000	72.206549
690.000000	72.071210
680.000000	71.770231
670.000000	71.337767
660.000000	70.837447
650.000000	70.496643
640.000000	69.855093
630.000000	69.611427
620.000000	69.310344
610.000000	68.652785
600.000000	68.105400
590.000000	67.588855
580.000000	67.059704
570.000000	66.421884
560.000000	65.863207
550.000000	65.329372
540.000000	64.667976
530.000000	63.951910
520.000000	63.322745
510.000000	62.652084
500.000000	61.861209
490.000000	61.104916
480.000000	60.135144
470.000000	59.170767
460.000000	58.210842
450.000000	57.027624
440.000000	55.324526
430.000000	53.635718
420.000000	51.607760
410.000000	49.140057
400.000000	46.755774
390.000000	44.168405
380.000000	41.470981
370.000000	38.626439
360.000000	35.441696
350.000000	32.362950
340.000000	29.947275
330.000000	27.150412
320.000000	24.845638
310.000000	23.352279
300.000000	21.527516
290.000000	17.905886
280.000000	13.946414
270.000000	11.114446
260.000000	10.205051
250.000000	10.019518
