PE UV       SUBTECH     SPECTRUM    ASCII       PEDS        4.00        
   -1
005-2G-AD10-NR001-C001.Sample.asc
24/01/08
15:53:47.00
24/01/08
15:53:47.00
Administrator

250.000000
1
Lambda 750
750N8071901
PerkinElmer UV WinLab 6.0.4.0738 / 1.61.00 Lambda 900

0
0
3350/servo 860.8/2
0
0
UV/VIS
1
1
1
CommonBeamDepol,150mm sphere / downward view
0
0
0
0
Program
Program
3350/servo 860.8/2
3350/0.2 860.8/0.2
3350/0.2 860.8/0.2
0
1
 
 
 
0
 
860.8
319.2
860.8
Front
100
on
 
 
0
0
0
 
0
 
 
 
0
 
 
0
0
0
0
0
 
 
 
 
0
0


0
0
#HDR
-1
-1
#GR
nm
%R
1.0
0.0
2500.000000
-10.000000
226
8
79.686376
0.000000
#DATA
2500.000000	0.000000
2490.000000	23.544985
2480.000000	24.879649
2470.000000	23.155849
2460.000000	24.918035
2450.000000	26.077121
2440.000000	27.522709
2430.000000	27.833168
2420.000000	26.049597
2410.000000	28.343850
2400.000000	27.882001
2390.000000	29.255242
2380.000000	28.482629
2370.000000	28.534137
2360.000000	27.828037
2350.000000	27.115276
2340.000000	28.181343
2330.000000	27.471777
2320.000000	27.369711
2310.000000	26.785197
2300.000000	26.403487
2290.000000	27.224522
2280.000000	26.407183
2270.000000	27.829519
2260.000000	29.108647
2250.000000	30.717583
2240.000000	32.315080
2230.000000	32.533033
2220.000000	31.307285
2210.000000	31.858931
2200.000000	30.313640
2190.000000	30.530274
2180.000000	31.196829
2170.000000	31.324027
2160.000000	32.130582
2150.000000	33.633408
2140.000000	34.585802
2130.000000	35.952821
2120.000000	36.343120
2110.000000	36.451995
2100.000000	36.182530
2090.000000	36.184465
2080.000000	35.324254
2070.000000	33.679038
2060.000000	32.164592
2050.000000	31.921499
2040.000000	32.225098
2030.000000	33.194324
2020.000000	33.313152
2010.000000	32.670547
2000.000000	31.379499
1990.000000	30.797546
1980.000000	29.483352
1970.000000	28.606440
1960.000000	28.078271
1950.000000	27.710219
1940.000000	28.245778
1930.000000	30.068855
1920.000000	32.896104
1910.000000	37.607863
1900.000000	43.464868
1890.000000	48.758287
1880.000000	52.770486
1870.000000	54.985355
1860.000000	56.200379
1850.000000	56.209838
1840.000000	55.644883
1830.000000	55.136466
1820.000000	54.880452
1810.000000	54.385818
1800.000000	53.872408
1790.000000	53.510762
1780.000000	52.798149
1770.000000	52.153206
1760.000000	51.540879
1750.000000	50.778354
1740.000000	50.370252
1730.000000	50.655399
1720.000000	51.924532
1710.000000	52.900933
1700.000000	53.528408
1690.000000	54.953846
1680.000000	57.386083
1670.000000	59.403614
1660.000000	60.296351
1650.000000	60.435542
1640.000000	60.096623
1630.000000	59.495714
1620.000000	58.839479
1610.000000	57.871731
1600.000000	57.152001
1590.000000	56.335262
1580.000000	55.727467
1570.000000	55.086563
1560.000000	54.746979
1550.000000	54.206898
1540.000000	53.028009
1530.000000	52.091242
1520.000000	51.513679
1510.000000	51.212970
1500.000000	51.166291
1490.000000	51.445099
1480.000000	52.013657
1470.000000	52.605042
1460.000000	53.241908
1450.000000	54.200001
1440.000000	55.605844
1430.000000	57.303185
1420.000000	59.699704
1410.000000	62.697287
1400.000000	65.762790
1390.000000	68.309439
1380.000000	69.947974
1370.000000	70.882000
1360.000000	71.813498
1350.000000	72.909152
1340.000000	74.047242
1330.000000	74.821350
1320.000000	75.266447
1310.000000	75.381545
1300.000000	75.379417
1290.000000	75.198530
1280.000000	75.168907
1270.000000	75.412706
1260.000000	75.536588
1250.000000	75.391114
1240.000000	75.133816
1230.000000	74.665170
1220.000000	74.219305
1210.000000	73.717334
1200.000000	73.316242
1190.000000	73.261181
1180.000000	73.895171
1170.000000	74.915112
1160.000000	76.150906
1150.000000	77.028029
1140.000000	77.806237
1130.000000	78.308371
1120.000000	78.529017
1110.000000	78.737474
1100.000000	78.760031
1090.000000	78.778474
1080.000000	78.705140
1070.000000	78.645719
1060.000000	78.583311
1050.000000	78.549672
1040.000000	78.515598
1030.000000	78.480879
1020.000000	78.476323
1010.000000	78.512392
1000.000000	78.703308
990.000000	78.807453
980.000000	78.883449
970.000000	79.073321
960.000000	79.171732
950.000000	79.313363
940.000000	79.364841
930.000000	79.265806
920.000000	79.273879
910.000000	79.259089
900.000000	79.349341
890.000000	79.442633
880.000000	79.589502
870.000000	79.348981
860.000000	79.583815
850.000000	78.820119
840.000000	79.686376
830.000000	79.215946
820.000000	79.065895
810.000000	78.936292
800.000000	78.408859
790.000000	78.350482
780.000000	78.448858
770.000000	77.993488
760.000000	77.918598
750.000000	77.643111
740.000000	77.237010
730.000000	76.895865
720.000000	76.547685
710.000000	76.083484
700.000000	75.311556
690.000000	74.807801
680.000000	74.151633
670.000000	73.230921
660.000000	72.487569
650.000000	71.693368
640.000000	70.692169
630.000000	69.743612
620.000000	68.880437
610.000000	67.880015
600.000000	66.962459
590.000000	66.110789
580.000000	65.283204
570.000000	64.481015
560.000000	63.677261
550.000000	62.944560
540.000000	62.228363
530.000000	61.319498
520.000000	60.483033
510.000000	59.500371
500.000000	58.462520
490.000000	57.476765
480.000000	56.226226
470.000000	55.061332
460.000000	53.984396
450.000000	52.934470
440.000000	51.450637
430.000000	50.095693
420.000000	48.737564
410.000000	47.267553
400.000000	45.781745
390.000000	44.614352
380.000000	43.336154
370.000000	42.001606
360.000000	40.692335
350.000000	38.597681
340.000000	37.973479
330.000000	35.324709
320.000000	33.416784
310.000000	32.062552
300.000000	31.150019
290.000000	23.542740
280.000000	19.348870
270.000000	16.405154
260.000000	14.965999
250.000000	14.285173
