PE UV       SUBTECH     SPECTRUM    ASCII       PEDS        4.00        
   -1
005-2G-AD11-NR001-C001.Sample.asc
24/01/08
15:50:48.00
24/01/08
15:50:48.00
Administrator

250.000000
1
Lambda 750
750N8071901
PerkinElmer UV WinLab 6.0.4.0738 / 1.61.00 Lambda 900

0
0
3350/servo 860.8/2
0
0
UV/VIS
1
1
1
CommonBeamDepol,150mm sphere / downward view
0
0
0
0
Program
Program
3350/servo 860.8/2
3350/0.2 860.8/0.2
3350/0.2 860.8/0.2
0
1
 
 
 
0
 
860.8
319.2
860.8
Front
100
on
 
 
0
0
0
 
0
 
 
 
0
 
 
0
0
0
0
0
 
 
 
 
0
0


0
0
#HDR
-1
-1
#GR
nm
%R
1.0
0.0
2500.000000
-10.000000
226
8
75.981721
0.000000
#DATA
2500.000000	0.000000
2490.000000	13.362839
2480.000000	15.368393
2470.000000	13.328052
2460.000000	16.670952
2450.000000	15.360059
2440.000000	15.451053
2430.000000	16.897766
2420.000000	15.262243
2410.000000	17.574385
2400.000000	15.980749
2390.000000	18.363922
2380.000000	17.823159
2370.000000	17.130054
2360.000000	17.257080
2350.000000	17.167330
2340.000000	18.545304
2330.000000	17.588751
2320.000000	16.540849
2310.000000	16.399814
2300.000000	16.408371
2290.000000	15.636948
2280.000000	16.953851
2270.000000	17.225062
2260.000000	19.645690
2250.000000	21.053569
2240.000000	21.023501
2230.000000	22.205470
2220.000000	21.862705
2210.000000	21.013967
2200.000000	20.179574
2190.000000	20.122474
2180.000000	19.787546
2170.000000	20.320682
2160.000000	21.295698
2150.000000	22.973406
2140.000000	24.127208
2130.000000	24.903522
2120.000000	25.650656
2110.000000	26.332936
2100.000000	25.823922
2090.000000	25.205610
2080.000000	24.944607
2070.000000	23.256304
2060.000000	21.677996
2050.000000	21.233173
2040.000000	22.264215
2030.000000	23.194297
2020.000000	23.161275
2010.000000	22.422287
2000.000000	21.031218
1990.000000	20.685299
1980.000000	19.488115
1970.000000	18.517530
1960.000000	17.890143
1950.000000	17.702963
1940.000000	18.214911
1930.000000	20.030150
1920.000000	23.149635
1910.000000	27.935258
1900.000000	34.239054
1890.000000	40.197143
1880.000000	44.690092
1870.000000	47.478722
1860.000000	48.511547
1850.000000	48.680694
1840.000000	48.255639
1830.000000	47.624416
1820.000000	47.129947
1810.000000	46.569865
1800.000000	46.105938
1790.000000	45.639496
1780.000000	44.704696
1770.000000	43.959178
1760.000000	43.194938
1750.000000	42.252709
1740.000000	41.766118
1730.000000	42.299805
1720.000000	43.688195
1710.000000	44.656077
1700.000000	45.374502
1690.000000	47.124343
1680.000000	49.989885
1670.000000	52.289936
1660.000000	53.381594
1650.000000	53.457212
1640.000000	53.069511
1630.000000	52.402082
1620.000000	51.582051
1610.000000	50.505265
1600.000000	49.520098
1590.000000	48.640782
1580.000000	47.821676
1570.000000	47.209865
1560.000000	46.738226
1550.000000	46.100688
1540.000000	44.846213
1530.000000	43.688927
1520.000000	43.069298
1510.000000	42.612497
1500.000000	42.606696
1490.000000	42.928584
1480.000000	43.609563
1470.000000	44.293633
1460.000000	45.049298
1450.000000	46.161840
1440.000000	47.713473
1430.000000	49.746536
1420.000000	52.618868
1410.000000	56.040127
1400.000000	59.587781
1390.000000	62.511938
1380.000000	64.399109
1370.000000	65.534242
1360.000000	66.656726
1350.000000	67.825210
1340.000000	69.096226
1330.000000	70.152977
1320.000000	70.787905
1310.000000	71.006871
1300.000000	70.976994
1290.000000	70.774608
1280.000000	70.579882
1270.000000	70.821420
1260.000000	70.919200
1250.000000	70.861283
1240.000000	70.510437
1230.000000	69.940743
1220.000000	69.411522
1210.000000	68.848560
1200.000000	68.381390
1190.000000	68.305646
1180.000000	69.024833
1170.000000	70.259686
1160.000000	71.677510
1150.000000	72.676956
1140.000000	73.501793
1130.000000	74.177362
1120.000000	74.405121
1110.000000	74.535995
1100.000000	74.627066
1090.000000	74.688795
1080.000000	74.610629
1070.000000	74.518564
1060.000000	74.414161
1050.000000	74.396346
1040.000000	74.320829
1030.000000	74.299460
1020.000000	74.317557
1010.000000	74.363884
1000.000000	74.605188
990.000000	74.761094
980.000000	74.844081
970.000000	75.060468
960.000000	75.260903
950.000000	75.365614
940.000000	75.439755
930.000000	75.475110
920.000000	75.367108
910.000000	75.578531
900.000000	75.480820
890.000000	75.656883
880.000000	75.946744
870.000000	75.981721
860.000000	75.737161
850.000000	75.727345
840.000000	75.937125
830.000000	75.907605
820.000000	75.809292
810.000000	75.447637
800.000000	75.172327
790.000000	75.096896
780.000000	74.952568
770.000000	74.876997
760.000000	75.053455
750.000000	74.713225
740.000000	74.344243
730.000000	74.186782
720.000000	73.916760
710.000000	73.612581
700.000000	73.078322
690.000000	72.795609
680.000000	72.275114
670.000000	71.721178
660.000000	70.959284
650.000000	70.475537
640.000000	69.787517
630.000000	69.111412
620.000000	68.479004
610.000000	67.646558
600.000000	66.705880
590.000000	65.854152
580.000000	64.956712
570.000000	64.013381
560.000000	63.154677
550.000000	62.218235
540.000000	61.266899
530.000000	60.247183
520.000000	59.236374
510.000000	58.264385
500.000000	57.170014
490.000000	56.015632
480.000000	54.652915
470.000000	53.249492
460.000000	51.893920
450.000000	50.497830
440.000000	48.508806
430.000000	46.668190
420.000000	44.902321
410.000000	42.852525
400.000000	41.047509
390.000000	39.654991
380.000000	38.259346
370.000000	36.931440
360.000000	35.508660
350.000000	33.813749
340.000000	33.021765
330.000000	31.239867
320.000000	30.092696
310.000000	29.178889
300.000000	27.970655
290.000000	26.786736
280.000000	23.231881
270.000000	19.829984
260.000000	17.959339
250.000000	17.023861
