PE UV       SUBTECH     SPECTRUM    ASCII       PEDS        4.00        
   -1
005-2G-AG10-NR001-C001.Sample.asc
24/01/08
14:39:26.00
24/01/08
14:39:26.00
Administrator

250.000000
1
Lambda 750
750N8071901
PerkinElmer UV WinLab 6.0.4.0738 / 1.61.00 Lambda 900

0
0
3350/servo 860.8/2
0
0
UV/VIS
1
1
1
CommonBeamDepol,150mm sphere / downward view
0
0
0
0
Program
Program
3350/servo 860.8/2
3350/0.2 860.8/0.2
3350/0.2 860.8/0.2
0
1
 
 
 
0
 
860.8
319.2
860.8
Front
100
on
 
 
0
0
0
 
0
 
 
 
0
 
 
0
0
0
0
0
 
 
 
 
0
0


0
0
#HDR
-1
-1
#GR
nm
%R
1.0
0.0
2500.000000
-10.000000
226
8
77.641795
0.000000
#DATA
2500.000000	0.000000
2490.000000	32.352023
2480.000000	35.696288
2470.000000	34.534898
2460.000000	36.057718
2450.000000	36.492369
2440.000000	37.484125
2430.000000	38.216408
2420.000000	36.743209
2410.000000	39.537189
2400.000000	38.155419
2390.000000	39.821774
2380.000000	38.826753
2370.000000	39.001205
2360.000000	38.965089
2350.000000	37.664291
2340.000000	40.036010
2330.000000	38.674463
2320.000000	38.647849
2310.000000	37.742094
2300.000000	37.175266
2290.000000	38.265193
2280.000000	38.876764
2270.000000	38.612586
2260.000000	40.230764
2250.000000	42.318070
2240.000000	42.830372
2230.000000	43.770646
2220.000000	42.482042
2210.000000	43.033048
2200.000000	42.193432
2190.000000	41.736981
2180.000000	42.012578
2170.000000	42.871201
2160.000000	44.239547
2150.000000	44.512759
2140.000000	46.138622
2130.000000	46.252038
2120.000000	46.435665
2110.000000	47.127693
2100.000000	46.935895
2090.000000	46.366536
2080.000000	45.562581
2070.000000	44.599392
2060.000000	43.199129
2050.000000	42.969472
2040.000000	43.413261
2030.000000	43.951871
2020.000000	43.737482
2010.000000	43.138562
2000.000000	42.326524
1990.000000	41.501522
1980.000000	40.501544
1970.000000	39.570291
1960.000000	39.066120
1950.000000	38.803417
1940.000000	39.314442
1930.000000	40.927302
1920.000000	43.665532
1910.000000	47.414536
1900.000000	51.443695
1890.000000	55.572236
1880.000000	58.393471
1870.000000	59.933523
1860.000000	60.453799
1850.000000	60.683208
1840.000000	60.408570
1830.000000	59.990937
1820.000000	59.827072
1810.000000	59.452259
1800.000000	59.133871
1790.000000	58.783055
1780.000000	58.394717
1770.000000	57.849911
1760.000000	57.509263
1750.000000	56.926731
1740.000000	56.643029
1730.000000	56.968706
1720.000000	57.875099
1710.000000	58.590169
1700.000000	59.078141
1690.000000	60.143115
1680.000000	61.856710
1670.000000	63.218199
1660.000000	63.844588
1650.000000	64.014097
1640.000000	63.632812
1630.000000	63.223844
1620.000000	62.812445
1610.000000	62.086708
1600.000000	61.602487
1590.000000	61.034217
1580.000000	60.582985
1570.000000	60.214976
1560.000000	59.981536
1550.000000	59.601888
1540.000000	58.833431
1530.000000	58.150701
1520.000000	57.805213
1510.000000	57.509673
1500.000000	57.501147
1490.000000	57.652033
1480.000000	58.042022
1470.000000	58.399509
1460.000000	58.839007
1450.000000	59.518867
1440.000000	60.445857
1430.000000	61.663355
1420.000000	63.276734
1410.000000	65.451663
1400.000000	67.658581
1390.000000	69.484402
1380.000000	70.608197
1370.000000	71.306192
1360.000000	71.968472
1350.000000	72.746245
1340.000000	73.478047
1330.000000	73.954173
1320.000000	74.247519
1310.000000	74.340992
1300.000000	74.334027
1290.000000	74.204112
1280.000000	74.224164
1270.000000	74.315394
1260.000000	74.396296
1250.000000	74.347070
1240.000000	74.189847
1230.000000	73.866841
1220.000000	73.495860
1210.000000	73.090932
1200.000000	72.850024
1190.000000	72.861554
1180.000000	73.392665
1170.000000	74.006451
1160.000000	74.882038
1150.000000	75.430076
1140.000000	76.010690
1130.000000	76.321263
1120.000000	76.394595
1110.000000	76.524851
1100.000000	76.566455
1090.000000	76.597609
1080.000000	76.501430
1070.000000	76.487862
1060.000000	76.391995
1050.000000	76.413676
1040.000000	76.361772
1030.000000	76.350917
1020.000000	76.342505
1010.000000	76.311727
1000.000000	76.462052
990.000000	76.517385
980.000000	76.593488
970.000000	76.709669
960.000000	76.876746
950.000000	76.914584
940.000000	77.021398
930.000000	76.982347
920.000000	76.830358
910.000000	76.814199
900.000000	77.016563
890.000000	77.080201
880.000000	77.224053
870.000000	77.638679
860.000000	77.641795
850.000000	77.044489
840.000000	77.455304
830.000000	77.245521
820.000000	77.212886
810.000000	77.002166
800.000000	76.882198
790.000000	77.027389
780.000000	76.841146
770.000000	76.537382
760.000000	76.784322
750.000000	76.716123
740.000000	76.562914
730.000000	76.401165
720.000000	76.220722
710.000000	76.154954
700.000000	75.849578
690.000000	75.722549
680.000000	75.310540
670.000000	75.074241
660.000000	74.661841
650.000000	74.488099
640.000000	74.045809
630.000000	73.698486
620.000000	73.381112
610.000000	72.883203
600.000000	72.358216
590.000000	71.913462
580.000000	71.308899
570.000000	70.759911
560.000000	70.098982
550.000000	69.484761
540.000000	68.904047
530.000000	68.228104
520.000000	67.547018
510.000000	66.851234
500.000000	66.111747
490.000000	65.345859
480.000000	64.410318
470.000000	63.553314
460.000000	62.625549
450.000000	61.766133
440.000000	60.256841
430.000000	58.995261
420.000000	57.393639
410.000000	55.531847
400.000000	53.731361
390.000000	51.789542
380.000000	49.645555
370.000000	47.311190
360.000000	44.615317
350.000000	41.259747
340.000000	38.977790
330.000000	35.370143
320.000000	32.847024
310.000000	29.951098
300.000000	27.263723
290.000000	20.526425
280.000000	13.301559
270.000000	8.595823
260.000000	6.955354
250.000000	6.083580
