PE UV       SUBTECH     SPECTRUM    ASCII       PEDS        4.00        
   -1
RDAgneauUK 12.Sample.asc
18/03/02
16:45:29.00
18/03/02
16:45:29.00
Administrator

200.000000
1
Lambda 750
750N8071901
PerkinElmer UV WinLab 6.0.4.0738 / 1.61.00 Lambda 900

0
0
3350/servo 860.8/2
0
0
UV/VIS
1
1
1
CommonBeamDepol,150mm sphere / downward view
0
0
0
0
Program
Program
3350/servo 860.8/2
3350/0.2 860.8/0.2
3350/0.2 860.8/0.2
0
1
 
 
 
0
 
860.8
319.2
860.8
Front
100
on
 
 
0
0
0
 
0
 
 
 
0
 
 
0
0
0
0
0
 
 
 
 
0
0


0
0
#HDR
-1
-1
#GR
nm
%R
1.0
0.0
2350.000000
-1.000000
2151
8
72.003189
16.910585
#DATA
2350.000000	44.558786
2349.000000	44.036502
2348.000000	44.024923
2347.000000	44.978543
2346.000000	44.722794
2345.000000	44.601286
2344.000000	44.679071
2343.000000	44.322023
2342.000000	44.986773
2341.000000	44.708909
2340.000000	44.791359
2339.000000	45.142491
2338.000000	45.181414
2337.000000	44.872995
2336.000000	45.256588
2335.000000	45.218335
2334.000000	45.252813
2333.000000	45.319415
2332.000000	45.540782
2331.000000	45.295004
2330.000000	44.925055
2329.000000	45.141978
2328.000000	45.252743
2327.000000	44.961932
2326.000000	44.962969
2325.000000	45.050214
2324.000000	44.772866
2323.000000	45.059056
2322.000000	44.665898
2321.000000	44.607066
2320.000000	44.644392
2319.000000	44.438931
2318.000000	44.904275
2317.000000	44.761681
2316.000000	44.441300
2315.000000	44.273661
2314.000000	44.291658
2313.000000	44.220358
2312.000000	44.203514
2311.000000	44.182543
2310.000000	44.233331
2309.000000	44.163125
2308.000000	43.894471
2307.000000	43.807651
2306.000000	43.720694
2305.000000	43.682451
2304.000000	43.439640
2303.000000	43.613396
2302.000000	43.491624
2301.000000	43.280237
2300.000000	43.159564
2299.000000	43.257465
2298.000000	43.165495
2297.000000	43.186588
2296.000000	43.078839
2295.000000	43.073262
2294.000000	42.777076
2293.000000	42.632351
2292.000000	42.399715
2291.000000	42.544431
2290.000000	42.489822
2289.000000	42.578439
2288.000000	42.332104
2287.000000	42.249352
2286.000000	42.201257
2285.000000	42.085254
2284.000000	42.023949
2283.000000	42.095391
2282.000000	42.157813
2281.000000	42.163386
2280.000000	42.155998
2279.000000	42.018255
2278.000000	42.073890
2277.000000	42.051084
2276.000000	42.253427
2275.000000	42.198795
2274.000000	42.174805
2273.000000	42.344080
2272.000000	42.451721
2271.000000	42.434463
2270.000000	42.344537
2269.000000	42.423379
2268.000000	42.574955
2267.000000	42.671260
2266.000000	42.817232
2265.000000	42.864149
2264.000000	42.877365
2263.000000	43.076373
2262.000000	43.159216
2261.000000	43.278449
2260.000000	43.442290
2259.000000	43.503989
2258.000000	43.751047
2257.000000	43.967749
2256.000000	44.143724
2255.000000	44.367350
2254.000000	44.534169
2253.000000	44.561570
2252.000000	44.836922
2251.000000	45.195326
2250.000000	45.403658
2249.000000	45.525883
2248.000000	45.794283
2247.000000	46.110312
2246.000000	46.239043
2245.000000	46.347306
2244.000000	46.516455
2243.000000	46.729538
2242.000000	46.854916
2241.000000	46.892583
2240.000000	46.993277
2239.000000	47.197026
2238.000000	47.415831
2237.000000	47.583962
2236.000000	47.717963
2235.000000	47.788562
2234.000000	47.751563
2233.000000	47.952160
2232.000000	48.007025
2231.000000	47.956563
2230.000000	48.023505
2229.000000	48.105248
2228.000000	48.126281
2227.000000	48.238648
2226.000000	48.247870
2225.000000	48.201101
2224.000000	48.139269
2223.000000	48.126671
2222.000000	48.195941
2221.000000	48.287800
2220.000000	48.238633
2219.000000	48.231262
2218.000000	48.181567
2217.000000	48.027759
2216.000000	48.070065
2215.000000	48.093140
2214.000000	48.067478
2213.000000	48.048673
2212.000000	47.785275
2211.000000	47.596226
2210.000000	47.632206
2209.000000	47.665975
2208.000000	47.552316
2207.000000	47.469329
2206.000000	47.538277
2205.000000	47.323505
2204.000000	47.229511
2203.000000	47.243362
2202.000000	47.183856
2201.000000	47.124639
2200.000000	47.186929
2199.000000	47.085252
2198.000000	47.065780
2197.000000	46.959343
2196.000000	46.689485
2195.000000	46.540057
2194.000000	46.558372
2193.000000	46.465467
2192.000000	46.492140
2191.000000	46.522037
2190.000000	46.425129
2189.000000	46.269518
2188.000000	46.146357
2187.000000	46.166625
2186.000000	46.057759
2185.000000	46.109263
2184.000000	46.182558
2183.000000	46.209452
2182.000000	46.170549
2181.000000	45.990890
2180.000000	45.886652
2179.000000	45.872784
2178.000000	45.904928
2177.000000	46.000745
2176.000000	45.994203
2175.000000	45.877764
2174.000000	46.055621
2173.000000	45.994192
2172.000000	46.118297
2171.000000	46.155984
2170.000000	46.176414
2169.000000	46.382321
2168.000000	46.330676
2167.000000	46.349710
2166.000000	46.595889
2165.000000	46.656493
2164.000000	46.849295
2163.000000	46.883916
2162.000000	46.965873
2161.000000	47.326744
2160.000000	47.265081
2159.000000	47.455564
2158.000000	47.539064
2157.000000	47.500008
2156.000000	47.744822
2155.000000	48.023543
2154.000000	48.168262
2153.000000	48.417724
2152.000000	48.480638
2151.000000	48.530062
2150.000000	48.739210
2149.000000	48.804851
2148.000000	48.890918
2147.000000	49.352211
2146.000000	49.448214
2145.000000	49.687473
2144.000000	49.688844
2143.000000	49.732577
2142.000000	49.997439
2141.000000	50.139151
2140.000000	50.403405
2139.000000	50.432259
2138.000000	50.647524
2137.000000	50.542053
2136.000000	50.628260
2135.000000	50.940363
2134.000000	51.039398
2133.000000	50.917499
2132.000000	51.101256
2131.000000	51.449885
2130.000000	51.311696
2129.000000	51.333651
2128.000000	51.468834
2127.000000	51.530291
2126.000000	51.637134
2125.000000	51.470519
2124.000000	51.791997
2123.000000	51.995609
2122.000000	51.948511
2121.000000	51.783708
2120.000000	51.871761
2119.000000	51.908788
2118.000000	52.072626
2117.000000	51.996768
2116.000000	52.026936
2115.000000	52.085382
2114.000000	52.132955
2113.000000	51.989383
2112.000000	52.157732
2111.000000	52.206693
2110.000000	52.149022
2109.000000	52.265102
2108.000000	52.262877
2107.000000	52.357123
2106.000000	52.308842
2105.000000	52.292805
2104.000000	52.305235
2103.000000	52.423082
2102.000000	52.404832
2101.000000	52.361575
2100.000000	52.480547
2099.000000	52.380813
2098.000000	52.196250
2097.000000	52.362620
2096.000000	52.284497
2095.000000	52.311095
2094.000000	52.360371
2093.000000	52.371217
2092.000000	52.340839
2091.000000	52.263491
2090.000000	52.247971
2089.000000	52.255271
2088.000000	52.191139
2087.000000	52.233150
2086.000000	52.333689
2085.000000	52.137781
2084.000000	51.974767
2083.000000	51.988295
2082.000000	52.048216
2081.000000	51.904384
2080.000000	51.823793
2079.000000	51.832619
2078.000000	51.666085
2077.000000	51.598912
2076.000000	51.508724
2075.000000	51.454889
2074.000000	51.360159
2073.000000	51.275647
2072.000000	51.205811
2071.000000	51.090670
2070.000000	51.035687
2069.000000	50.892768
2068.000000	50.703002
2067.000000	50.573281
2066.000000	50.464378
2065.000000	50.329567
2064.000000	50.158855
2063.000000	49.997173
2062.000000	49.827838
2061.000000	49.675761
2060.000000	49.510565
2059.000000	49.381020
2058.000000	49.244488
2057.000000	49.130587
2056.000000	49.016288
2055.000000	48.800871
2054.000000	48.671344
2053.000000	48.574251
2052.000000	48.430666
2051.000000	48.228793
2050.000000	48.121395
2049.000000	48.097750
2048.000000	48.056557
2047.000000	47.989175
2046.000000	47.814340
2045.000000	47.698774
2044.000000	47.724970
2043.000000	47.740620
2042.000000	47.742862
2041.000000	47.752254
2040.000000	47.713280
2039.000000	47.759334
2038.000000	47.815153
2037.000000	47.824857
2036.000000	47.891206
2035.000000	48.022183
2034.000000	48.126014
2033.000000	48.185841
2032.000000	48.312993
2031.000000	48.444449
2030.000000	48.569494
2029.000000	48.693780
2028.000000	48.779512
2027.000000	48.927501
2026.000000	49.108461
2025.000000	49.228970
2024.000000	49.317468
2023.000000	49.432400
2022.000000	49.529090
2021.000000	49.589699
2020.000000	49.652928
2019.000000	49.715478
2018.000000	49.777308
2017.000000	49.837366
2016.000000	49.876068
2015.000000	49.869355
2014.000000	49.879211
2013.000000	49.919592
2012.000000	49.872879
2011.000000	49.859741
2010.000000	49.875173
2009.000000	49.818672
2008.000000	49.782077
2007.000000	49.757585
2006.000000	49.646579
2005.000000	49.617669
2004.000000	49.534587
2003.000000	49.452514
2002.000000	49.409238
2001.000000	49.331307
2000.000000	49.247936
1999.000000	49.178276
1998.000000	49.100729
1997.000000	49.045242
1996.000000	48.961265
1995.000000	48.892316
1994.000000	48.784960
1993.000000	48.706702
1992.000000	48.593707
1991.000000	48.479759
1990.000000	48.413875
1989.000000	48.310555
1988.000000	48.257172
1987.000000	48.141766
1986.000000	47.997948
1985.000000	47.941317
1984.000000	47.903306
1983.000000	47.803122
1982.000000	47.672170
1981.000000	47.615998
1980.000000	47.518414
1979.000000	47.425923
1978.000000	47.346128
1977.000000	47.255650
1976.000000	47.108757
1975.000000	47.008004
1974.000000	46.907567
1973.000000	46.833567
1972.000000	46.743271
1971.000000	46.650449
1970.000000	46.517863
1969.000000	46.433307
1968.000000	46.382621
1967.000000	46.275328
1966.000000	46.211984
1965.000000	46.157735
1964.000000	45.981652
1963.000000	45.897306
1962.000000	45.839309
1961.000000	45.699897
1960.000000	45.604818
1959.000000	45.547346
1958.000000	45.458173
1957.000000	45.429881
1956.000000	45.265948
1955.000000	45.194023
1954.000000	45.185148
1953.000000	45.095464
1952.000000	45.004891
1951.000000	44.986041
1950.000000	44.881609
1949.000000	44.800641
1948.000000	44.815853
1947.000000	44.798789
1946.000000	44.700666
1945.000000	44.739053
1944.000000	44.692374
1943.000000	44.693664
1942.000000	44.756631
1941.000000	44.760398
1940.000000	44.856870
1939.000000	44.884575
1938.000000	44.891596
1937.000000	45.039430
1936.000000	45.094999
1935.000000	45.156933
1934.000000	45.309999
1933.000000	45.455787
1932.000000	45.520998
1931.000000	45.683429
1930.000000	45.901989
1929.000000	46.037576
1928.000000	46.231757
1927.000000	46.349855
1926.000000	46.478307
1925.000000	46.767403
1924.000000	47.026614
1923.000000	47.301326
1922.000000	47.462409
1921.000000	47.824913
1920.000000	48.020788
1919.000000	48.267284
1918.000000	48.641763
1917.000000	48.929211
1916.000000	49.136843
1915.000000	49.525759
1914.000000	49.904539
1913.000000	50.229030
1912.000000	50.570847
1911.000000	50.883948
1910.000000	51.299023
1909.000000	51.613987
1908.000000	51.968302
1907.000000	52.293027
1906.000000	52.703858
1905.000000	53.217016
1904.000000	53.522222
1903.000000	53.886227
1902.000000	54.362979
1901.000000	54.698227
1900.000000	55.120993
1899.000000	55.569623
1898.000000	55.981695
1897.000000	56.342778
1896.000000	56.670770
1895.000000	57.114213
1894.000000	57.413228
1893.000000	57.870051
1892.000000	58.185405
1891.000000	58.625910
1890.000000	58.942847
1889.000000	59.269677
1888.000000	59.540776
1887.000000	59.889426
1886.000000	60.208626
1885.000000	60.430706
1884.000000	60.727098
1883.000000	60.947776
1882.000000	61.234597
1881.000000	61.507556
1880.000000	61.701364
1879.000000	61.890076
1878.000000	62.090929
1877.000000	62.320093
1876.000000	62.471341
1875.000000	62.621409
1874.000000	62.821540
1873.000000	62.955552
1872.000000	63.104491
1871.000000	63.166321
1870.000000	63.330351
1869.000000	63.449386
1868.000000	63.531915
1867.000000	63.567137
1866.000000	63.604754
1865.000000	63.711533
1864.000000	63.740752
1863.000000	63.762835
1862.000000	63.794459
1861.000000	63.851414
1860.000000	63.880940
1859.000000	63.917477
1858.000000	63.918973
1857.000000	63.986335
1856.000000	64.001892
1855.000000	64.008854
1854.000000	64.096890
1853.000000	64.097326
1852.000000	64.033219
1851.000000	64.022464
1850.000000	64.041471
1849.000000	64.035120
1848.000000	64.068955
1847.000000	64.081957
1846.000000	64.068842
1845.000000	64.045731
1844.000000	64.020462
1843.000000	63.943706
1842.000000	63.978236
1841.000000	63.963152
1840.000000	63.923391
1839.000000	63.952215
1838.000000	63.916806
1837.000000	63.856602
1836.000000	63.804706
1835.000000	63.797858
1834.000000	63.798454
1833.000000	63.736758
1832.000000	63.714465
1831.000000	63.649524
1830.000000	63.619367
1829.000000	63.592388
1828.000000	63.542196
1827.000000	63.560593
1826.000000	63.562503
1825.000000	63.530854
1824.000000	63.518309
1823.000000	63.496594
1822.000000	63.460870
1821.000000	63.460027
1820.000000	63.401281
1819.000000	63.366400
1818.000000	63.367335
1817.000000	63.359018
1816.000000	63.328737
1815.000000	63.304402
1814.000000	63.280788
1813.000000	63.221885
1812.000000	63.189051
1811.000000	63.165441
1810.000000	63.152348
1809.000000	63.149354
1808.000000	63.136294
1807.000000	63.098806
1806.000000	63.101134
1805.000000	63.088777
1804.000000	63.034590
1803.000000	63.010660
1802.000000	63.003459
1801.000000	62.987319
1800.000000	62.951225
1799.000000	62.917743
1798.000000	62.919977
1797.000000	62.899811
1796.000000	62.868038
1795.000000	62.882115
1794.000000	62.883559
1793.000000	62.826850
1792.000000	62.807754
1791.000000	62.812272
1790.000000	62.768039
1789.000000	62.734837
1788.000000	62.736294
1787.000000	62.706437
1786.000000	62.660119
1785.000000	62.661482
1784.000000	62.634836
1783.000000	62.618977
1782.000000	62.585751
1781.000000	62.564237
1780.000000	62.523896
1779.000000	62.495246
1778.000000	62.450176
1777.000000	62.392183
1776.000000	62.368810
1775.000000	62.336429
1774.000000	62.248098
1773.000000	62.211431
1772.000000	62.195419
1771.000000	62.162187
1770.000000	62.114264
1769.000000	62.055545
1768.000000	61.996921
1767.000000	61.926899
1766.000000	61.902879
1765.000000	61.864433
1764.000000	61.843526
1763.000000	61.780979
1762.000000	61.740464
1761.000000	61.691155
1760.000000	61.624758
1759.000000	61.585295
1758.000000	61.532609
1757.000000	61.484856
1756.000000	61.457636
1755.000000	61.407450
1754.000000	61.334865
1753.000000	61.332833
1752.000000	61.299708
1751.000000	61.227917
1750.000000	61.181826
1749.000000	61.145919
1748.000000	61.112373
1747.000000	61.011178
1746.000000	60.976928
1745.000000	60.950149
1744.000000	60.913606
1743.000000	60.853021
1742.000000	60.804670
1741.000000	60.751104
1740.000000	60.744096
1739.000000	60.660151
1738.000000	60.637955
1737.000000	60.614984
1736.000000	60.565587
1735.000000	60.569166
1734.000000	60.561265
1733.000000	60.564270
1732.000000	60.560193
1731.000000	60.621204
1730.000000	60.568194
1729.000000	60.595302
1728.000000	60.654143
1727.000000	60.689722
1726.000000	60.750176
1725.000000	60.795100
1724.000000	60.805434
1723.000000	60.922707
1722.000000	61.026894
1721.000000	61.087715
1720.000000	61.168670
1719.000000	61.225299
1718.000000	61.315289
1717.000000	61.365685
1716.000000	61.429681
1715.000000	61.489619
1714.000000	61.562093
1713.000000	61.674351
1712.000000	61.721074
1711.000000	61.762323
1710.000000	61.833154
1709.000000	61.839254
1708.000000	61.886522
1707.000000	61.967095
1706.000000	61.951758
1705.000000	61.982555
1704.000000	62.013109
1703.000000	62.021227
1702.000000	62.033406
1701.000000	62.033138
1700.000000	62.061133
1699.000000	62.076670
1698.000000	62.087326
1697.000000	62.146209
1696.000000	62.144195
1695.000000	62.128505
1694.000000	62.199515
1693.000000	62.207485
1692.000000	62.266454
1691.000000	62.307022
1690.000000	62.393097
1689.000000	62.440809
1688.000000	62.515863
1687.000000	62.572012
1686.000000	62.676156
1685.000000	62.805343
1684.000000	62.909406
1683.000000	63.013018
1682.000000	63.139564
1681.000000	63.282355
1680.000000	63.349182
1679.000000	63.495448
1678.000000	63.611814
1677.000000	63.749785
1676.000000	63.859559
1675.000000	64.009573
1674.000000	64.140991
1673.000000	64.271933
1672.000000	64.370373
1671.000000	64.493040
1670.000000	64.623855
1669.000000	64.749564
1668.000000	64.826389
1667.000000	64.953708
1666.000000	65.038151
1665.000000	65.094539
1664.000000	65.152940
1663.000000	65.216770
1662.000000	65.283733
1661.000000	65.352471
1660.000000	65.371028
1659.000000	65.420238
1658.000000	65.461276
1657.000000	65.488042
1656.000000	65.524627
1655.000000	65.551407
1654.000000	65.573731
1653.000000	65.587706
1652.000000	65.605526
1651.000000	65.620042
1650.000000	65.606707
1649.000000	65.610625
1648.000000	65.616467
1647.000000	65.637712
1646.000000	65.606765
1645.000000	65.598735
1644.000000	65.584959
1643.000000	65.568139
1642.000000	65.545781
1641.000000	65.518537
1640.000000	65.526769
1639.000000	65.529280
1638.000000	65.496294
1637.000000	65.482766
1636.000000	65.452002
1635.000000	65.426565
1634.000000	65.421597
1633.000000	65.385566
1632.000000	65.364710
1631.000000	65.333062
1630.000000	65.322075
1629.000000	65.274430
1628.000000	65.239672
1627.000000	65.218347
1626.000000	65.188794
1625.000000	65.157087
1624.000000	65.116142
1623.000000	65.085938
1622.000000	65.065687
1621.000000	65.031108
1620.000000	65.011716
1619.000000	64.976558
1618.000000	64.939712
1617.000000	64.910164
1616.000000	64.877909
1615.000000	64.841328
1614.000000	64.786159
1613.000000	64.752067
1612.000000	64.721535
1611.000000	64.688549
1610.000000	64.647070
1609.000000	64.601427
1608.000000	64.539452
1607.000000	64.491772
1606.000000	64.458349
1605.000000	64.423086
1604.000000	64.393972
1603.000000	64.346258
1602.000000	64.308057
1601.000000	64.262835
1600.000000	64.209319
1599.000000	64.179026
1598.000000	64.137983
1597.000000	64.098133
1596.000000	64.061087
1595.000000	64.035012
1594.000000	64.005620
1593.000000	63.949963
1592.000000	63.905103
1591.000000	63.883134
1590.000000	63.843450
1589.000000	63.787998
1588.000000	63.769067
1587.000000	63.743285
1586.000000	63.701825
1585.000000	63.683940
1584.000000	63.642137
1583.000000	63.610979
1582.000000	63.580874
1581.000000	63.545650
1580.000000	63.520357
1579.000000	63.485521
1578.000000	63.454971
1577.000000	63.419601
1576.000000	63.380992
1575.000000	63.365044
1574.000000	63.336747
1573.000000	63.303081
1572.000000	63.266937
1571.000000	63.238346
1570.000000	63.213700
1569.000000	63.189312
1568.000000	63.171573
1567.000000	63.144357
1566.000000	63.107957
1565.000000	63.096571
1564.000000	63.083570
1563.000000	63.062358
1562.000000	63.056918
1561.000000	63.045253
1560.000000	63.028092
1559.000000	62.993666
1558.000000	62.983625
1557.000000	62.974995
1556.000000	62.967493
1555.000000	62.954567
1554.000000	62.917087
1553.000000	62.914954
1552.000000	62.912770
1551.000000	62.875752
1550.000000	62.852474
1549.000000	62.827067
1548.000000	62.807432
1547.000000	62.762584
1546.000000	62.722411
1545.000000	62.685970
1544.000000	62.623945
1543.000000	62.597371
1542.000000	62.546257
1541.000000	62.476134
1540.000000	62.425525
1539.000000	62.363398
1538.000000	62.292148
1537.000000	62.232895
1536.000000	62.173783
1535.000000	62.100678
1534.000000	62.017636
1533.000000	61.978655
1532.000000	61.895536
1531.000000	61.826877
1530.000000	61.777205
1529.000000	61.710874
1528.000000	61.662905
1527.000000	61.616162
1526.000000	61.554148
1525.000000	61.500773
1524.000000	61.433853
1523.000000	61.389154
1522.000000	61.356866
1521.000000	61.307988
1520.000000	61.286174
1519.000000	61.232215
1518.000000	61.181796
1517.000000	61.150334
1516.000000	61.098984
1515.000000	61.080137
1514.000000	61.063285
1513.000000	61.019602
1512.000000	61.018461
1511.000000	60.969276
1510.000000	60.970350
1509.000000	60.970241
1508.000000	60.936468
1507.000000	60.905291
1506.000000	60.906494
1505.000000	60.893379
1504.000000	60.907833
1503.000000	60.902156
1502.000000	60.878643
1501.000000	60.881047
1500.000000	60.889474
1499.000000	60.886093
1498.000000	60.913863
1497.000000	60.908660
1496.000000	60.929284
1495.000000	60.940014
1494.000000	60.954532
1493.000000	61.003765
1492.000000	61.025409
1491.000000	61.074182
1490.000000	61.106127
1489.000000	61.161304
1488.000000	61.226787
1487.000000	61.270306
1486.000000	61.319405
1485.000000	61.371144
1484.000000	61.426276
1483.000000	61.509020
1482.000000	61.547572
1481.000000	61.616064
1480.000000	61.693032
1479.000000	61.739996
1478.000000	61.789635
1477.000000	61.872442
1476.000000	61.918294
1475.000000	61.986389
1474.000000	62.043140
1473.000000	62.101153
1472.000000	62.155051
1471.000000	62.209663
1470.000000	62.312922
1469.000000	62.319738
1468.000000	62.379922
1467.000000	62.445804
1466.000000	62.452381
1465.000000	62.521315
1464.000000	62.566786
1463.000000	62.607090
1462.000000	62.652533
1461.000000	62.686415
1460.000000	62.722732
1459.000000	62.798716
1458.000000	62.818479
1457.000000	62.855842
1456.000000	62.909244
1455.000000	62.967740
1454.000000	62.980489
1453.000000	63.048646
1452.000000	63.087899
1451.000000	63.156558
1450.000000	63.199173
1449.000000	63.242437
1448.000000	63.270188
1447.000000	63.338612
1446.000000	63.398221
1445.000000	63.442176
1444.000000	63.498642
1443.000000	63.586713
1442.000000	63.633300
1441.000000	63.681851
1440.000000	63.752630
1439.000000	63.793203
1438.000000	63.864614
1437.000000	63.944632
1436.000000	64.014793
1435.000000	64.074854
1434.000000	64.132544
1433.000000	64.209177
1432.000000	64.301262
1431.000000	64.371554
1430.000000	64.446428
1429.000000	64.529305
1428.000000	64.604330
1427.000000	64.691688
1426.000000	64.798223
1425.000000	64.885551
1424.000000	64.962976
1423.000000	65.075749
1422.000000	65.173968
1421.000000	65.257030
1420.000000	65.358344
1419.000000	65.457704
1418.000000	65.576865
1417.000000	65.675426
1416.000000	65.759485
1415.000000	65.868745
1414.000000	65.984338
1413.000000	66.076912
1412.000000	66.189600
1411.000000	66.297690
1410.000000	66.411787
1409.000000	66.490485
1408.000000	66.595070
1407.000000	66.706891
1406.000000	66.808554
1405.000000	66.926824
1404.000000	67.012310
1403.000000	67.096116
1402.000000	67.201072
1401.000000	67.309860
1400.000000	67.393700
1399.000000	67.476626
1398.000000	67.556053
1397.000000	67.644768
1396.000000	67.723899
1395.000000	67.802834
1394.000000	67.872634
1393.000000	67.950713
1392.000000	68.036497
1391.000000	68.119978
1390.000000	68.174603
1389.000000	68.232250
1388.000000	68.312701
1387.000000	68.371347
1386.000000	68.450159
1385.000000	68.524877
1384.000000	68.564042
1383.000000	68.629877
1382.000000	68.681515
1381.000000	68.716120
1380.000000	68.759743
1379.000000	68.810493
1378.000000	68.858632
1377.000000	68.892069
1376.000000	68.936390
1375.000000	68.977154
1374.000000	69.010267
1373.000000	69.035703
1372.000000	69.073651
1371.000000	69.120811
1370.000000	69.147401
1369.000000	69.157575
1368.000000	69.174347
1367.000000	69.205706
1366.000000	69.248675
1365.000000	69.280337
1364.000000	69.317461
1363.000000	69.359164
1362.000000	69.381797
1361.000000	69.410624
1360.000000	69.435852
1359.000000	69.460716
1358.000000	69.501368
1357.000000	69.546139
1356.000000	69.585243
1355.000000	69.617611
1354.000000	69.676266
1353.000000	69.699056
1352.000000	69.735283
1351.000000	69.771830
1350.000000	69.799180
1349.000000	69.845351
1348.000000	69.875481
1347.000000	69.906804
1346.000000	69.949206
1345.000000	69.967713
1344.000000	69.990938
1343.000000	70.014445
1342.000000	70.052768
1341.000000	70.079439
1340.000000	70.129483
1339.000000	70.151935
1338.000000	70.175621
1337.000000	70.188334
1336.000000	70.201739
1335.000000	70.225867
1334.000000	70.241272
1333.000000	70.258391
1332.000000	70.288049
1331.000000	70.291877
1330.000000	70.316219
1329.000000	70.368175
1328.000000	70.419927
1327.000000	70.469157
1326.000000	70.452707
1325.000000	70.442653
1324.000000	70.418266
1323.000000	70.453398
1322.000000	70.477466
1321.000000	70.485369
1320.000000	70.483455
1319.000000	70.473527
1318.000000	70.507031
1317.000000	70.524755
1316.000000	70.560970
1315.000000	70.542640
1314.000000	70.541089
1313.000000	70.536970
1312.000000	70.544316
1311.000000	70.599140
1310.000000	70.616718
1309.000000	70.599759
1308.000000	70.593114
1307.000000	70.591373
1306.000000	70.602711
1305.000000	70.611706
1304.000000	70.636495
1303.000000	70.632709
1302.000000	70.620510
1301.000000	70.629246
1300.000000	70.630825
1299.000000	70.653329
1298.000000	70.656089
1297.000000	70.645770
1296.000000	70.667119
1295.000000	70.669741
1294.000000	70.665776
1293.000000	70.656266
1292.000000	70.666060
1291.000000	70.650438
1290.000000	70.666469
1289.000000	70.677322
1288.000000	70.625593
1287.000000	70.633040
1286.000000	70.649300
1285.000000	70.630932
1284.000000	70.644093
1283.000000	70.649958
1282.000000	70.630554
1281.000000	70.650759
1280.000000	70.647734
1279.000000	70.630340
1278.000000	70.623793
1277.000000	70.637153
1276.000000	70.612973
1275.000000	70.613009
1274.000000	70.639841
1273.000000	70.626345
1272.000000	70.618049
1271.000000	70.627681
1270.000000	70.645538
1269.000000	70.641581
1268.000000	70.621419
1267.000000	70.639746
1266.000000	70.623465
1265.000000	70.651182
1264.000000	70.687219
1263.000000	70.660515
1262.000000	70.657111
1261.000000	70.682132
1260.000000	70.678242
1259.000000	70.688227
1258.000000	70.718064
1257.000000	70.713585
1256.000000	70.705255
1255.000000	70.694399
1254.000000	70.730903
1253.000000	70.716534
1252.000000	70.729931
1251.000000	70.732994
1250.000000	70.732635
1249.000000	70.730733
1248.000000	70.711215
1247.000000	70.710089
1246.000000	70.712729
1245.000000	70.716562
1244.000000	70.699262
1243.000000	70.689737
1242.000000	70.694260
1241.000000	70.677412
1240.000000	70.692148
1239.000000	70.676017
1238.000000	70.648570
1237.000000	70.631809
1236.000000	70.629047
1235.000000	70.612230
1234.000000	70.583884
1233.000000	70.586575
1232.000000	70.583885
1231.000000	70.579985
1230.000000	70.569501
1229.000000	70.553823
1228.000000	70.536983
1227.000000	70.522760
1226.000000	70.520883
1225.000000	70.508018
1224.000000	70.492155
1223.000000	70.464182
1222.000000	70.468970
1221.000000	70.450128
1220.000000	70.430934
1219.000000	70.398900
1218.000000	70.403883
1217.000000	70.392037
1216.000000	70.376705
1215.000000	70.351728
1214.000000	70.322476
1213.000000	70.326935
1212.000000	70.302267
1211.000000	70.310773
1210.000000	70.287958
1209.000000	70.284758
1208.000000	70.268588
1207.000000	70.237840
1206.000000	70.224779
1205.000000	70.197219
1204.000000	70.203011
1203.000000	70.182183
1202.000000	70.152235
1201.000000	70.156993
1200.000000	70.153837
1199.000000	70.119069
1198.000000	70.091834
1197.000000	70.083088
1196.000000	70.070216
1195.000000	70.090512
1194.000000	70.063191
1193.000000	70.033878
1192.000000	70.029382
1191.000000	70.025764
1190.000000	70.021627
1189.000000	69.988522
1188.000000	69.979834
1187.000000	69.986804
1186.000000	69.981235
1185.000000	70.000362
1184.000000	69.993001
1183.000000	69.998562
1182.000000	70.018349
1181.000000	70.030450
1180.000000	70.040690
1179.000000	70.060955
1178.000000	70.081286
1177.000000	70.097337
1176.000000	70.116710
1175.000000	70.158619
1174.000000	70.189853
1173.000000	70.217725
1172.000000	70.244946
1171.000000	70.263787
1170.000000	70.304248
1169.000000	70.336135
1168.000000	70.360266
1167.000000	70.418164
1166.000000	70.464053
1165.000000	70.479131
1164.000000	70.524454
1163.000000	70.571791
1162.000000	70.599612
1161.000000	70.618583
1160.000000	70.637231
1159.000000	70.683536
1158.000000	70.734516
1157.000000	70.767126
1156.000000	70.797727
1155.000000	70.831507
1154.000000	70.872070
1153.000000	70.903364
1152.000000	70.914485
1151.000000	70.942683
1150.000000	70.981384
1149.000000	71.009284
1148.000000	71.034814
1147.000000	71.056676
1146.000000	71.070281
1145.000000	71.089994
1144.000000	71.128491
1143.000000	71.166313
1142.000000	71.167161
1141.000000	71.169421
1140.000000	71.181880
1139.000000	71.200544
1138.000000	71.229542
1137.000000	71.250103
1136.000000	71.272254
1135.000000	71.312038
1134.000000	71.338446
1133.000000	71.331499
1132.000000	71.337611
1131.000000	71.361709
1130.000000	71.377061
1129.000000	71.385050
1128.000000	71.398112
1127.000000	71.403299
1126.000000	71.402415
1125.000000	71.416079
1124.000000	71.437208
1123.000000	71.444316
1122.000000	71.460744
1121.000000	71.463064
1120.000000	71.467012
1119.000000	71.481265
1118.000000	71.489749
1117.000000	71.490157
1116.000000	71.487750
1115.000000	71.488438
1114.000000	71.497202
1113.000000	71.514542
1112.000000	71.516300
1111.000000	71.516336
1110.000000	71.488742
1109.000000	71.483593
1108.000000	71.513034
1107.000000	71.517465
1106.000000	71.513700
1105.000000	71.522449
1104.000000	71.523954
1103.000000	71.526123
1102.000000	71.520037
1101.000000	71.527230
1100.000000	71.511919
1099.000000	71.512988
1098.000000	71.526921
1097.000000	71.539796
1096.000000	71.544949
1095.000000	71.550301
1094.000000	71.540259
1093.000000	71.523295
1092.000000	71.522076
1091.000000	71.512038
1090.000000	71.530275
1089.000000	71.534674
1088.000000	71.530745
1087.000000	71.525017
1086.000000	71.505421
1085.000000	71.514312
1084.000000	71.528730
1083.000000	71.513509
1082.000000	71.523239
1081.000000	71.508971
1080.000000	71.490641
1079.000000	71.499966
1078.000000	71.500886
1077.000000	71.489693
1076.000000	71.503637
1075.000000	71.504917
1074.000000	71.481703
1073.000000	71.474298
1072.000000	71.488326
1071.000000	71.507986
1070.000000	71.461125
1069.000000	71.449195
1068.000000	71.462695
1067.000000	71.476323
1066.000000	71.455888
1065.000000	71.472525
1064.000000	71.472950
1063.000000	71.448704
1062.000000	71.435130
1061.000000	71.425886
1060.000000	71.447083
1059.000000	71.452929
1058.000000	71.449353
1057.000000	71.442060
1056.000000	71.433936
1055.000000	71.429334
1054.000000	71.425453
1053.000000	71.435612
1052.000000	71.427104
1051.000000	71.413552
1050.000000	71.424596
1049.000000	71.404145
1048.000000	71.409263
1047.000000	71.429050
1046.000000	71.384584
1045.000000	71.408276
1044.000000	71.419194
1043.000000	71.384907
1042.000000	71.368281
1041.000000	71.373631
1040.000000	71.375965
1039.000000	71.364656
1038.000000	71.360003
1037.000000	71.352667
1036.000000	71.364419
1035.000000	71.381553
1034.000000	71.371581
1033.000000	71.359756
1032.000000	71.373164
1031.000000	71.372304
1030.000000	71.368225
1029.000000	71.335650
1028.000000	71.329589
1027.000000	71.368050
1026.000000	71.351997
1025.000000	71.330762
1024.000000	71.341252
1023.000000	71.333391
1022.000000	71.337543
1021.000000	71.324677
1020.000000	71.339273
1019.000000	71.333205
1018.000000	71.326900
1017.000000	71.339695
1016.000000	71.322685
1015.000000	71.337346
1014.000000	71.329176
1013.000000	71.310821
1012.000000	71.335794
1011.000000	71.342577
1010.000000	71.331358
1009.000000	71.339325
1008.000000	71.331912
1007.000000	71.333314
1006.000000	71.307243
1005.000000	71.321764
1004.000000	71.342522
1003.000000	71.345669
1002.000000	71.347446
1001.000000	71.321070
1000.000000	71.330607
999.000000	71.323929
998.000000	71.325314
997.000000	71.351430
996.000000	71.355783
995.000000	71.331220
994.000000	71.336334
993.000000	71.363880
992.000000	71.360410
991.000000	71.366586
990.000000	71.386432
989.000000	71.398745
988.000000	71.382197
987.000000	71.379649
986.000000	71.380548
985.000000	71.373526
984.000000	71.387708
983.000000	71.395723
982.000000	71.391314
981.000000	71.412154
980.000000	71.419119
979.000000	71.426258
978.000000	71.449938
977.000000	71.456275
976.000000	71.426990
975.000000	71.430400
974.000000	71.450502
973.000000	71.453366
972.000000	71.451759
971.000000	71.445477
970.000000	71.470820
969.000000	71.469310
968.000000	71.477632
967.000000	71.475493
966.000000	71.463225
965.000000	71.492171
964.000000	71.502134
963.000000	71.506494
962.000000	71.490527
961.000000	71.485770
960.000000	71.518690
959.000000	71.518622
958.000000	71.519461
957.000000	71.528665
956.000000	71.531185
955.000000	71.553175
954.000000	71.561120
953.000000	71.544590
952.000000	71.538030
951.000000	71.556606
950.000000	71.564717
949.000000	71.537546
948.000000	71.527071
947.000000	71.552417
946.000000	71.555801
945.000000	71.564957
944.000000	71.606322
943.000000	71.603584
942.000000	71.572364
941.000000	71.545622
940.000000	71.566729
939.000000	71.607349
938.000000	71.606174
937.000000	71.592289
936.000000	71.583352
935.000000	71.591173
934.000000	71.614276
933.000000	71.616558
932.000000	71.569809
931.000000	71.563897
930.000000	71.591839
929.000000	71.612277
928.000000	71.625581
927.000000	71.588927
926.000000	71.584362
925.000000	71.587333
924.000000	71.538509
923.000000	71.543319
922.000000	71.543762
921.000000	71.589190
920.000000	71.593019
919.000000	71.546857
918.000000	71.564079
917.000000	71.565879
916.000000	71.579078
915.000000	71.569330
914.000000	71.586721
913.000000	71.579769
912.000000	71.551200
911.000000	71.587263
910.000000	71.624918
909.000000	71.594703
908.000000	71.588400
907.000000	71.596090
906.000000	71.619087
905.000000	71.615527
904.000000	71.583268
903.000000	71.646488
902.000000	71.628559
901.000000	71.632870
900.000000	71.655094
899.000000	71.659015
898.000000	71.665482
897.000000	71.659881
896.000000	71.661588
895.000000	71.667352
894.000000	71.636833
893.000000	71.649289
892.000000	71.717245
891.000000	71.671709
890.000000	71.673677
889.000000	71.722506
888.000000	71.770632
887.000000	71.657042
886.000000	71.702523
885.000000	71.680470
884.000000	71.731531
883.000000	71.752497
882.000000	71.708557
881.000000	71.659807
880.000000	71.726150
879.000000	71.696441
878.000000	71.736477
877.000000	71.775261
876.000000	71.765103
875.000000	71.697752
874.000000	71.784006
873.000000	71.776568
872.000000	71.770254
871.000000	71.774933
870.000000	71.801664
869.000000	71.817262
868.000000	71.688955
867.000000	71.602806
866.000000	71.811177
865.000000	71.723651
864.000000	71.653551
863.000000	71.765520
862.000000	71.661426
861.000000	71.690752
860.000000	71.770022
859.000000	71.098634
858.000000	71.555201
857.000000	71.215774
856.000000	71.187971
855.000000	71.242104
854.000000	72.003189
853.000000	71.361405
852.000000	71.313318
851.000000	71.758536
850.000000	71.697725
849.000000	71.897529
848.000000	71.808679
847.000000	71.341149
846.000000	71.273554
845.000000	71.709500
844.000000	71.486513
843.000000	71.732316
842.000000	71.490503
841.000000	71.527904
840.000000	71.578610
839.000000	71.664322
838.000000	71.752327
837.000000	71.556336
836.000000	71.472615
835.000000	71.441871
834.000000	71.400244
833.000000	71.535131
832.000000	71.526912
831.000000	71.306975
830.000000	71.686621
829.000000	71.444462
828.000000	71.341942
827.000000	71.430600
826.000000	71.491582
825.000000	71.433062
824.000000	71.502902
823.000000	71.506817
822.000000	71.402890
821.000000	71.441759
820.000000	71.581355
819.000000	71.707978
818.000000	71.528434
817.000000	71.538579
816.000000	71.581410
815.000000	71.471232
814.000000	71.504432
813.000000	71.517471
812.000000	71.490815
811.000000	71.349126
810.000000	71.512132
809.000000	71.520189
808.000000	71.582276
807.000000	71.488389
806.000000	71.570975
805.000000	71.564585
804.000000	71.453851
803.000000	71.626074
802.000000	71.530616
801.000000	71.488553
800.000000	71.553275
799.000000	71.404567
798.000000	71.452957
797.000000	71.311012
796.000000	71.503788
795.000000	71.601904
794.000000	71.468107
793.000000	71.628903
792.000000	71.589196
791.000000	71.440646
790.000000	71.485189
789.000000	71.634532
788.000000	71.594701
787.000000	71.642416
786.000000	71.598207
785.000000	71.627996
784.000000	71.503171
783.000000	71.540671
782.000000	71.621697
781.000000	71.681374
780.000000	71.617869
779.000000	71.513635
778.000000	71.584524
777.000000	71.732201
776.000000	71.564243
775.000000	71.540680
774.000000	71.585344
773.000000	71.581711
772.000000	71.493085
771.000000	71.517161
770.000000	71.562675
769.000000	71.597999
768.000000	71.607926
767.000000	71.682024
766.000000	71.589264
765.000000	71.639581
764.000000	71.621247
763.000000	71.534542
762.000000	71.547107
761.000000	71.577934
760.000000	71.553920
759.000000	71.654020
758.000000	71.518537
757.000000	71.480131
756.000000	71.495834
755.000000	71.436100
754.000000	71.544185
753.000000	71.524070
752.000000	71.506488
751.000000	71.553454
750.000000	71.485638
749.000000	71.535592
748.000000	71.572498
747.000000	71.588413
746.000000	71.566945
745.000000	71.528566
744.000000	71.526822
743.000000	71.535627
742.000000	71.509101
741.000000	71.499131
740.000000	71.584801
739.000000	71.617030
738.000000	71.563390
737.000000	71.550649
736.000000	71.563116
735.000000	71.569311
734.000000	71.567736
733.000000	71.578783
732.000000	71.530395
731.000000	71.602944
730.000000	71.563636
729.000000	71.474810
728.000000	71.478439
727.000000	71.487320
726.000000	71.477493
725.000000	71.476584
724.000000	71.498429
723.000000	71.492831
722.000000	71.507232
721.000000	71.513768
720.000000	71.560035
719.000000	71.522814
718.000000	71.519194
717.000000	71.541296
716.000000	71.492371
715.000000	71.545887
714.000000	71.571192
713.000000	71.558502
712.000000	71.591411
711.000000	71.617678
710.000000	71.637123
709.000000	71.566286
708.000000	71.501427
707.000000	71.541470
706.000000	71.554367
705.000000	71.540804
704.000000	71.535037
703.000000	71.562257
702.000000	71.550962
701.000000	71.508919
700.000000	71.554990
699.000000	71.541734
698.000000	71.538550
697.000000	71.552451
696.000000	71.573087
695.000000	71.599536
694.000000	71.552897
693.000000	71.545926
692.000000	71.598097
691.000000	71.643572
690.000000	71.600581
689.000000	71.534359
688.000000	71.484932
687.000000	71.481821
686.000000	71.519303
685.000000	71.500785
684.000000	71.479030
683.000000	71.552756
682.000000	71.570092
681.000000	71.515028
680.000000	71.454428
679.000000	71.479517
678.000000	71.530124
677.000000	71.551003
676.000000	71.580626
675.000000	71.520810
674.000000	71.484847
673.000000	71.512581
672.000000	71.521845
671.000000	71.514523
670.000000	71.426896
669.000000	71.409804
668.000000	71.420225
667.000000	71.473959
666.000000	71.498287
665.000000	71.503254
664.000000	71.502644
663.000000	71.512454
662.000000	71.450035
661.000000	71.455383
660.000000	71.497711
659.000000	71.468508
658.000000	71.457821
657.000000	71.474915
656.000000	71.471900
655.000000	71.509997
654.000000	71.533005
653.000000	71.495771
652.000000	71.517426
651.000000	71.532549
650.000000	71.519747
649.000000	71.495495
648.000000	71.496771
647.000000	71.584890
646.000000	71.541138
645.000000	71.544288
644.000000	71.531037
643.000000	71.475096
642.000000	71.452907
641.000000	71.499438
640.000000	71.484190
639.000000	71.521615
638.000000	71.546621
637.000000	71.451132
636.000000	71.532147
635.000000	71.428914
634.000000	71.465408
633.000000	71.491809
632.000000	71.469403
631.000000	71.547955
630.000000	71.514313
629.000000	71.529028
628.000000	71.485135
627.000000	71.507755
626.000000	71.515971
625.000000	71.548305
624.000000	71.511030
623.000000	71.462817
622.000000	71.420843
621.000000	71.508155
620.000000	71.513122
619.000000	71.433385
618.000000	71.496508
617.000000	71.459225
616.000000	71.449791
615.000000	71.435886
614.000000	71.446825
613.000000	71.511273
612.000000	71.515797
611.000000	71.521398
610.000000	71.454893
609.000000	71.470276
608.000000	71.396919
607.000000	71.502579
606.000000	71.464671
605.000000	71.423089
604.000000	71.406255
603.000000	71.469590
602.000000	71.468300
601.000000	71.427448
600.000000	71.435578
599.000000	71.410241
598.000000	71.405684
597.000000	71.424630
596.000000	71.377626
595.000000	71.420992
594.000000	71.460655
593.000000	71.411597
592.000000	71.355158
591.000000	71.412879
590.000000	71.403050
589.000000	71.342266
588.000000	71.351910
587.000000	71.394604
586.000000	71.384770
585.000000	71.327759
584.000000	71.329068
583.000000	71.264717
582.000000	71.336292
581.000000	71.380425
580.000000	71.270526
579.000000	71.281340
578.000000	71.329196
577.000000	71.249590
576.000000	71.363652
575.000000	71.268426
574.000000	71.230937
573.000000	71.267018
572.000000	71.272422
571.000000	71.224573
570.000000	71.252313
569.000000	71.272598
568.000000	71.174820
567.000000	71.218294
566.000000	71.192576
565.000000	71.249193
564.000000	71.201478
563.000000	71.139489
562.000000	71.157029
561.000000	71.151629
560.000000	71.119103
559.000000	71.142754
558.000000	71.113259
557.000000	71.126251
556.000000	71.135174
555.000000	71.157889
554.000000	71.096098
553.000000	71.085883
552.000000	71.095478
551.000000	71.156313
550.000000	71.065634
549.000000	71.009477
548.000000	71.055438
547.000000	71.081009
546.000000	71.022841
545.000000	71.054157
544.000000	70.982735
543.000000	70.980246
542.000000	70.920529
541.000000	70.965722
540.000000	70.938055
539.000000	70.933746
538.000000	70.927088
537.000000	70.868849
536.000000	70.867105
535.000000	70.848975
534.000000	70.849520
533.000000	70.815986
532.000000	70.868737
531.000000	70.767133
530.000000	70.753206
529.000000	70.750567
528.000000	70.723881
527.000000	70.737157
526.000000	70.760903
525.000000	70.738495
524.000000	70.663943
523.000000	70.620756
522.000000	70.647839
521.000000	70.628720
520.000000	70.601909
519.000000	70.662874
518.000000	70.567887
517.000000	70.569453
516.000000	70.495880
515.000000	70.517472
514.000000	70.501823
513.000000	70.483171
512.000000	70.444133
511.000000	70.413786
510.000000	70.378031
509.000000	70.424263
508.000000	70.395266
507.000000	70.330864
506.000000	70.318275
505.000000	70.308426
504.000000	70.220010
503.000000	70.233659
502.000000	70.243118
501.000000	70.230751
500.000000	70.158224
499.000000	70.212542
498.000000	70.143791
497.000000	70.104676
496.000000	70.071286
495.000000	70.067108
494.000000	70.051063
493.000000	69.980404
492.000000	69.986361
491.000000	69.923961
490.000000	69.806073
489.000000	69.804479
488.000000	69.864170
487.000000	69.827459
486.000000	69.709638
485.000000	69.685819
484.000000	69.780179
483.000000	69.812398
482.000000	69.790201
481.000000	69.791305
480.000000	69.707155
479.000000	69.659580
478.000000	69.627055
477.000000	69.619648
476.000000	69.586991
475.000000	69.509803
474.000000	69.420706
473.000000	69.407560
472.000000	69.410264
471.000000	69.367559
470.000000	69.315858
469.000000	69.330853
468.000000	69.241168
467.000000	69.179120
466.000000	69.155961
465.000000	69.062626
464.000000	69.028365
463.000000	69.037740
462.000000	68.988100
461.000000	68.947404
460.000000	68.874763
459.000000	68.798717
458.000000	68.820664
457.000000	68.765263
456.000000	68.623520
455.000000	68.596960
454.000000	68.573283
453.000000	68.513673
452.000000	68.475186
451.000000	68.380402
450.000000	68.287135
449.000000	68.210633
448.000000	68.227604
447.000000	68.225985
446.000000	68.074959
445.000000	67.975507
444.000000	67.929801
443.000000	67.871203
442.000000	67.875981
441.000000	67.802523
440.000000	67.669794
439.000000	67.614695
438.000000	67.542813
437.000000	67.397892
436.000000	67.308858
435.000000	67.206613
434.000000	67.125160
433.000000	67.060961
432.000000	67.010645
431.000000	66.933776
430.000000	66.815339
429.000000	66.668383
428.000000	66.590353
427.000000	66.485408
426.000000	66.368995
425.000000	66.270197
424.000000	66.193507
423.000000	66.087943
422.000000	65.920595
421.000000	65.795650
420.000000	65.746258
419.000000	65.561097
418.000000	65.388899
417.000000	65.300731
416.000000	65.166970
415.000000	64.959064
414.000000	64.908210
413.000000	64.820998
412.000000	64.626401
411.000000	64.466042
410.000000	64.352294
409.000000	64.149970
408.000000	63.908777
407.000000	63.829157
406.000000	63.683580
405.000000	63.520852
404.000000	63.342071
403.000000	63.215149
402.000000	63.077937
401.000000	62.922519
400.000000	62.819561
399.000000	62.597439
398.000000	62.408301
397.000000	62.258023
396.000000	62.118302
395.000000	61.932756
394.000000	61.731713
393.000000	61.599937
392.000000	61.440660
391.000000	61.233695
390.000000	61.091130
389.000000	60.872738
388.000000	60.619834
387.000000	60.466764
386.000000	60.241637
385.000000	60.079847
384.000000	59.827601
383.000000	59.645668
382.000000	59.435366
381.000000	59.114145
380.000000	58.957384
379.000000	58.695077
378.000000	58.375408
377.000000	58.112838
376.000000	58.174966
375.000000	57.893912
374.000000	57.642396
373.000000	57.376627
372.000000	57.137291
371.000000	56.979969
370.000000	56.691352
369.000000	56.338684
368.000000	55.962588
367.000000	55.906521
366.000000	55.419572
365.000000	55.263621
364.000000	55.035091
363.000000	54.741724
362.000000	54.430432
361.000000	54.182074
360.000000	53.958205
359.000000	53.740132
358.000000	53.434556
357.000000	53.236150
356.000000	53.027090
355.000000	52.494128
354.000000	52.458973
353.000000	52.166289
352.000000	51.951345
351.000000	51.542719
350.000000	51.383121
349.000000	51.148630
348.000000	50.762555
347.000000	50.497859
346.000000	50.205720
345.000000	49.897562
344.000000	49.684609
343.000000	49.287566
342.000000	49.080166
341.000000	48.774848
340.000000	48.477944
339.000000	47.837580
338.000000	47.367644
337.000000	46.938616
336.000000	46.602187
335.000000	46.258997
334.000000	45.737037
333.000000	45.200741
332.000000	44.745106
331.000000	44.217652
330.000000	43.783015
329.000000	43.356516
328.000000	42.808529
327.000000	42.429292
326.000000	41.884172
325.000000	41.628862
324.000000	41.325453
323.000000	41.024550
322.000000	40.640663
321.000000	40.630427
320.000000	39.914266
319.000000	39.897717
318.000000	39.473777
317.000000	39.343303
316.000000	39.076291
315.000000	38.932522
314.000000	38.869421
313.000000	38.571388
312.000000	38.295842
311.000000	38.121435
310.000000	37.835450
309.000000	37.657767
308.000000	37.560531
307.000000	37.507644
306.000000	37.210354
305.000000	37.033342
304.000000	36.955960
303.000000	36.658394
302.000000	36.581161
301.000000	36.277028
300.000000	36.083953
299.000000	35.908432
298.000000	35.585160
297.000000	35.306323
296.000000	34.906674
295.000000	34.322911
294.000000	33.768317
293.000000	33.069858
292.000000	32.258544
291.000000	31.190780
290.000000	30.273262
289.000000	29.483316
288.000000	28.648876
287.000000	28.036184
286.000000	27.423590
285.000000	27.265964
284.000000	27.001367
283.000000	26.990761
282.000000	26.876389
281.000000	26.695390
280.000000	26.766528
279.000000	26.729277
278.000000	26.836556
277.000000	27.014948
276.000000	27.165633
275.000000	27.550405
274.000000	27.815352
273.000000	27.961761
272.000000	28.186607
271.000000	28.365735
270.000000	28.376984
269.000000	28.502257
268.000000	28.648252
267.000000	28.999782
266.000000	29.186378
265.000000	29.475935
264.000000	29.864110
263.000000	30.150293
262.000000	30.328333
261.000000	30.432714
260.000000	30.661935
259.000000	31.056187
258.000000	31.380840
257.000000	31.734624
256.000000	31.931055
255.000000	32.188548
254.000000	32.165466
253.000000	32.056988
252.000000	32.010516
251.000000	31.864620
250.000000	31.397045
249.000000	30.825178
248.000000	30.043640
247.000000	29.143607
246.000000	28.028040
245.000000	26.846354
244.000000	25.619570
243.000000	24.282896
242.000000	23.037139
241.000000	21.874328
240.000000	20.829589
239.000000	19.930443
238.000000	19.260567
237.000000	18.623032
236.000000	18.170079
235.000000	17.895434
234.000000	17.681426
233.000000	17.439067
232.000000	17.262183
231.000000	17.119907
230.000000	17.018375
229.000000	16.937024
228.000000	16.910585
227.000000	16.918532
226.000000	17.036875
225.000000	17.152617
224.000000	17.273488
223.000000	17.401145
222.000000	17.503941
221.000000	17.757641
220.000000	18.117027
219.000000	18.314731
218.000000	18.490799
217.000000	18.730954
216.000000	19.118042
215.000000	19.362786
214.000000	19.526152
213.000000	19.954330
212.000000	20.293687
211.000000	20.571772
210.000000	20.967029
209.000000	21.202133
208.000000	21.743130
207.000000	22.214069
206.000000	22.518146
205.000000	23.061078
204.000000	23.473537
203.000000	23.771718
202.000000	24.307479
201.000000	24.603846
200.000000	25.077318
