PE UV       SUBTECH     SPECTRUM    ASCII       PEDS        4.00        
   -1
RDAgneauUK 62.Sample.asc
18/03/02
17:37:20.00
18/03/02
17:37:20.00
Administrator

200.000000
1
Lambda 750
750N8071901
PerkinElmer UV WinLab 6.0.4.0738 / 1.61.00 Lambda 900

0
0
3350/servo 860.8/2
0
0
UV/VIS
1
1
1
CommonBeamDepol,150mm sphere / downward view
0
0
0
0
Program
Program
3350/servo 860.8/2
3350/0.2 860.8/0.2
3350/0.2 860.8/0.2
0
1
 
 
 
0
 
860.8
319.2
860.8
Front
100
on
 
 
0
0
0
 
0
 
 
 
0
 
 
0
0
0
0
0
 
 
 
 
0
0


0
0
#HDR
-1
-1
#GR
nm
%R
1.0
0.0
2350.000000
-1.000000
2151
8
70.589434
16.627636
#DATA
2350.000000	43.519334
2349.000000	43.262063
2348.000000	43.147975
2347.000000	44.009803
2346.000000	43.283781
2345.000000	43.368944
2344.000000	43.514602
2343.000000	43.185674
2342.000000	43.117781
2341.000000	43.677722
2340.000000	43.705216
2339.000000	43.898655
2338.000000	43.693822
2337.000000	43.694252
2336.000000	43.872841
2335.000000	44.327998
2334.000000	44.338663
2333.000000	43.991112
2332.000000	44.317524
2331.000000	44.272300
2330.000000	44.222284
2329.000000	44.096586
2328.000000	43.975940
2327.000000	44.062780
2326.000000	44.008727
2325.000000	43.692104
2324.000000	44.075276
2323.000000	43.920083
2322.000000	43.569758
2321.000000	43.496559
2320.000000	43.610563
2319.000000	43.435138
2318.000000	43.575236
2317.000000	43.381729
2316.000000	43.232455
2315.000000	43.212824
2314.000000	43.103107
2313.000000	42.865267
2312.000000	43.015742
2311.000000	42.947254
2310.000000	43.003094
2309.000000	42.892529
2308.000000	42.799876
2307.000000	42.943029
2306.000000	42.739732
2305.000000	42.738737
2304.000000	42.493965
2303.000000	42.372389
2302.000000	42.304821
2301.000000	42.151596
2300.000000	42.216900
2299.000000	42.049617
2298.000000	41.998302
2297.000000	41.899135
2296.000000	41.685931
2295.000000	41.493306
2294.000000	41.586756
2293.000000	41.529828
2292.000000	41.306796
2291.000000	41.456199
2290.000000	41.322039
2289.000000	41.181327
2288.000000	41.266818
2287.000000	41.238826
2286.000000	41.141393
2285.000000	40.911421
2284.000000	40.923386
2283.000000	40.863920
2282.000000	40.836478
2281.000000	41.036092
2280.000000	40.916732
2279.000000	40.834522
2278.000000	40.942706
2277.000000	40.911290
2276.000000	41.088227
2275.000000	41.091991
2274.000000	41.017262
2273.000000	41.238073
2272.000000	41.314760
2271.000000	41.172412
2270.000000	41.181896
2269.000000	41.290535
2268.000000	41.539832
2267.000000	41.475759
2266.000000	41.623819
2265.000000	41.783212
2264.000000	41.730784
2263.000000	41.851574
2262.000000	41.962832
2261.000000	41.982213
2260.000000	42.081929
2259.000000	42.252074
2258.000000	42.502407
2257.000000	42.744125
2256.000000	43.073159
2255.000000	43.296459
2254.000000	43.329759
2253.000000	43.426425
2252.000000	43.641354
2251.000000	43.864469
2250.000000	44.060000
2249.000000	44.308747
2248.000000	44.382094
2247.000000	44.601214
2246.000000	44.887514
2245.000000	45.138989
2244.000000	45.402448
2243.000000	45.473467
2242.000000	45.571352
2241.000000	45.727371
2240.000000	45.895257
2239.000000	46.122574
2238.000000	46.194363
2237.000000	46.190254
2236.000000	46.368772
2235.000000	46.431900
2234.000000	46.480088
2233.000000	46.602393
2232.000000	46.677466
2231.000000	46.890752
2230.000000	46.873681
2229.000000	46.820583
2228.000000	46.990403
2227.000000	47.071186
2226.000000	47.034332
2225.000000	46.952387
2224.000000	46.897671
2223.000000	46.825740
2222.000000	46.967993
2221.000000	46.985292
2220.000000	46.975124
2219.000000	46.918737
2218.000000	46.755944
2217.000000	46.688718
2216.000000	46.796972
2215.000000	46.741745
2214.000000	46.699751
2213.000000	46.798194
2212.000000	46.690630
2211.000000	46.551330
2210.000000	46.478772
2209.000000	46.400258
2208.000000	46.325091
2207.000000	46.184229
2206.000000	46.233521
2205.000000	46.137283
2204.000000	46.065867
2203.000000	46.005940
2202.000000	46.020226
2201.000000	45.910104
2200.000000	45.846170
2199.000000	45.751298
2198.000000	45.754186
2197.000000	45.801531
2196.000000	45.570177
2195.000000	45.459099
2194.000000	45.434736
2193.000000	45.222554
2192.000000	45.217978
2191.000000	45.290576
2190.000000	45.198662
2189.000000	45.200841
2188.000000	45.005534
2187.000000	44.936189
2186.000000	45.031738
2185.000000	44.958280
2184.000000	44.880016
2183.000000	44.940282
2182.000000	44.822158
2181.000000	44.680341
2180.000000	44.827524
2179.000000	44.696143
2178.000000	44.604332
2177.000000	44.613936
2176.000000	44.610295
2175.000000	44.665457
2174.000000	44.900074
2173.000000	44.873781
2172.000000	44.849360
2171.000000	45.016479
2170.000000	44.937771
2169.000000	45.150649
2168.000000	45.133337
2167.000000	45.177905
2166.000000	45.279202
2165.000000	45.372422
2164.000000	45.435736
2163.000000	45.586882
2162.000000	45.766311
2161.000000	45.817665
2160.000000	45.967346
2159.000000	46.106748
2158.000000	46.224558
2157.000000	46.478696
2156.000000	46.624593
2155.000000	46.702820
2154.000000	46.807867
2153.000000	47.166250
2152.000000	46.999802
2151.000000	47.176352
2150.000000	47.332034
2149.000000	47.651911
2148.000000	47.833529
2147.000000	47.913710
2146.000000	48.047586
2145.000000	48.139369
2144.000000	48.324407
2143.000000	48.480550
2142.000000	48.487052
2141.000000	48.771167
2140.000000	48.781649
2139.000000	48.970495
2138.000000	49.394852
2137.000000	49.371053
2136.000000	49.334038
2135.000000	49.708323
2134.000000	49.700676
2133.000000	49.600227
2132.000000	49.869811
2131.000000	49.902691
2130.000000	50.058495
2129.000000	50.134939
2128.000000	50.098392
2127.000000	50.254587
2126.000000	50.226063
2125.000000	50.031807
2124.000000	50.389000
2123.000000	50.358067
2122.000000	50.521122
2121.000000	50.449964
2120.000000	50.526885
2119.000000	50.621465
2118.000000	50.431808
2117.000000	50.600988
2116.000000	50.593662
2115.000000	50.828365
2114.000000	50.728808
2113.000000	50.617280
2112.000000	50.766366
2111.000000	50.743917
2110.000000	50.654891
2109.000000	50.867448
2108.000000	50.798615
2107.000000	50.842474
2106.000000	50.924273
2105.000000	50.753889
2104.000000	50.922537
2103.000000	51.079272
2102.000000	51.023555
2101.000000	50.953294
2100.000000	50.907795
2099.000000	50.966821
2098.000000	50.923589
2097.000000	51.021417
2096.000000	51.081785
2095.000000	51.020982
2094.000000	51.042762
2093.000000	50.938159
2092.000000	50.852471
2091.000000	50.908886
2090.000000	50.868752
2089.000000	50.840628
2088.000000	50.769127
2087.000000	50.818479
2086.000000	50.914424
2085.000000	50.882511
2084.000000	50.624591
2083.000000	50.617186
2082.000000	50.635705
2081.000000	50.522127
2080.000000	50.428425
2079.000000	50.426879
2078.000000	50.259525
2077.000000	50.207181
2076.000000	50.130867
2075.000000	50.048214
2074.000000	49.928582
2073.000000	49.873046
2072.000000	49.829096
2071.000000	49.724457
2070.000000	49.625925
2069.000000	49.541011
2068.000000	49.326588
2067.000000	49.184126
2066.000000	49.000146
2065.000000	48.895503
2064.000000	48.805511
2063.000000	48.637740
2062.000000	48.496340
2061.000000	48.299006
2060.000000	48.120983
2059.000000	48.026794
2058.000000	47.879207
2057.000000	47.760274
2056.000000	47.717697
2055.000000	47.467923
2054.000000	47.289921
2053.000000	47.155926
2052.000000	47.055561
2051.000000	46.889631
2050.000000	46.740545
2049.000000	46.682552
2048.000000	46.608192
2047.000000	46.556632
2046.000000	46.441299
2045.000000	46.375837
2044.000000	46.403421
2043.000000	46.405713
2042.000000	46.360057
2041.000000	46.325191
2040.000000	46.324746
2039.000000	46.359758
2038.000000	46.413204
2037.000000	46.420027
2036.000000	46.474772
2035.000000	46.591072
2034.000000	46.678928
2033.000000	46.782691
2032.000000	46.889754
2031.000000	46.991361
2030.000000	47.088398
2029.000000	47.228983
2028.000000	47.350556
2027.000000	47.518594
2026.000000	47.666261
2025.000000	47.744365
2024.000000	47.801405
2023.000000	47.895023
2022.000000	47.987313
2021.000000	48.031436
2020.000000	48.120693
2019.000000	48.236063
2018.000000	48.283048
2017.000000	48.346191
2016.000000	48.377956
2015.000000	48.362381
2014.000000	48.362296
2013.000000	48.341361
2012.000000	48.351473
2011.000000	48.386039
2010.000000	48.362375
2009.000000	48.274927
2008.000000	48.242041
2007.000000	48.197223
2006.000000	48.106386
2005.000000	48.091687
2004.000000	48.006262
2003.000000	47.929134
2002.000000	47.891220
2001.000000	47.817505
2000.000000	47.749178
1999.000000	47.678027
1998.000000	47.539825
1997.000000	47.444915
1996.000000	47.365868
1995.000000	47.292204
1994.000000	47.225862
1993.000000	47.143197
1992.000000	47.025024
1991.000000	46.890787
1990.000000	46.853040
1989.000000	46.706453
1988.000000	46.602500
1987.000000	46.556060
1986.000000	46.419478
1985.000000	46.326934
1984.000000	46.252544
1983.000000	46.177096
1982.000000	46.084581
1981.000000	45.989508
1980.000000	45.890714
1979.000000	45.759339
1978.000000	45.675590
1977.000000	45.578015
1976.000000	45.450843
1975.000000	45.400328
1974.000000	45.274590
1973.000000	45.174259
1972.000000	45.050591
1971.000000	44.933601
1970.000000	44.890403
1969.000000	44.791092
1968.000000	44.726461
1967.000000	44.610983
1966.000000	44.500440
1965.000000	44.417541
1964.000000	44.333959
1963.000000	44.233548
1962.000000	44.113250
1961.000000	44.018098
1960.000000	43.956378
1959.000000	43.827291
1958.000000	43.742677
1957.000000	43.690655
1956.000000	43.600883
1955.000000	43.498458
1954.000000	43.465138
1953.000000	43.393809
1952.000000	43.348494
1951.000000	43.291000
1950.000000	43.200362
1949.000000	43.108520
1948.000000	43.072433
1947.000000	43.026875
1946.000000	43.017568
1945.000000	43.020263
1944.000000	42.980929
1943.000000	43.026708
1942.000000	43.057132
1941.000000	43.116163
1940.000000	43.162469
1939.000000	43.155930
1938.000000	43.206645
1937.000000	43.310231
1936.000000	43.382527
1935.000000	43.425012
1934.000000	43.550048
1933.000000	43.663750
1932.000000	43.771999
1931.000000	43.937669
1930.000000	44.137722
1929.000000	44.312364
1928.000000	44.432377
1927.000000	44.703600
1926.000000	44.792164
1925.000000	45.092770
1924.000000	45.295701
1923.000000	45.561158
1922.000000	45.831855
1921.000000	46.125388
1920.000000	46.332247
1919.000000	46.632744
1918.000000	46.870091
1917.000000	47.155429
1916.000000	47.499790
1915.000000	47.777626
1914.000000	48.165508
1913.000000	48.573622
1912.000000	48.866149
1911.000000	49.178350
1910.000000	49.524790
1909.000000	49.890708
1908.000000	50.242367
1907.000000	50.676383
1906.000000	51.061903
1905.000000	51.398584
1904.000000	51.862605
1903.000000	52.254292
1902.000000	52.674822
1901.000000	53.098880
1900.000000	53.477668
1899.000000	53.848155
1898.000000	54.363541
1897.000000	54.652377
1896.000000	55.035980
1895.000000	55.448698
1894.000000	55.845377
1893.000000	56.213683
1892.000000	56.595289
1891.000000	56.994811
1890.000000	57.334871
1889.000000	57.620500
1888.000000	58.024369
1887.000000	58.316331
1886.000000	58.555889
1885.000000	58.871657
1884.000000	59.149217
1883.000000	59.467641
1882.000000	59.664183
1881.000000	59.870249
1880.000000	60.107681
1879.000000	60.321682
1878.000000	60.552872
1877.000000	60.766699
1876.000000	60.929885
1875.000000	61.117723
1874.000000	61.316513
1873.000000	61.457424
1872.000000	61.573543
1871.000000	61.710225
1870.000000	61.830610
1869.000000	61.978173
1868.000000	62.074380
1867.000000	62.104154
1866.000000	62.155438
1865.000000	62.232434
1864.000000	62.309480
1863.000000	62.371049
1862.000000	62.408858
1861.000000	62.492090
1860.000000	62.557049
1859.000000	62.560355
1858.000000	62.555623
1857.000000	62.550284
1856.000000	62.611729
1855.000000	62.651950
1854.000000	62.675085
1853.000000	62.645021
1852.000000	62.654803
1851.000000	62.699015
1850.000000	62.697663
1849.000000	62.696560
1848.000000	62.688060
1847.000000	62.672942
1846.000000	62.685144
1845.000000	62.665234
1844.000000	62.610855
1843.000000	62.557259
1842.000000	62.564718
1841.000000	62.593373
1840.000000	62.569672
1839.000000	62.556387
1838.000000	62.531716
1837.000000	62.468910
1836.000000	62.440957
1835.000000	62.418249
1834.000000	62.385269
1833.000000	62.370088
1832.000000	62.344197
1831.000000	62.316763
1830.000000	62.270456
1829.000000	62.252176
1828.000000	62.234412
1827.000000	62.203026
1826.000000	62.181574
1825.000000	62.151810
1824.000000	62.156024
1823.000000	62.138396
1822.000000	62.079520
1821.000000	62.051211
1820.000000	62.010453
1819.000000	61.974652
1818.000000	61.968659
1817.000000	61.982583
1816.000000	61.943325
1815.000000	61.908931
1814.000000	61.874004
1813.000000	61.854692
1812.000000	61.858009
1811.000000	61.836991
1810.000000	61.799845
1809.000000	61.794850
1808.000000	61.772155
1807.000000	61.728340
1806.000000	61.714570
1805.000000	61.661297
1804.000000	61.626853
1803.000000	61.635450
1802.000000	61.617296
1801.000000	61.577104
1800.000000	61.543258
1799.000000	61.538345
1798.000000	61.541659
1797.000000	61.521498
1796.000000	61.505642
1795.000000	61.493445
1794.000000	61.494662
1793.000000	61.468232
1792.000000	61.428554
1791.000000	61.403884
1790.000000	61.403238
1789.000000	61.383524
1788.000000	61.351449
1787.000000	61.324867
1786.000000	61.305550
1785.000000	61.292747
1784.000000	61.252650
1783.000000	61.219246
1782.000000	61.208058
1781.000000	61.203995
1780.000000	61.167582
1779.000000	61.124448
1778.000000	61.090094
1777.000000	61.013138
1776.000000	60.977361
1775.000000	60.964870
1774.000000	60.918075
1773.000000	60.885611
1772.000000	60.866024
1771.000000	60.804646
1770.000000	60.729395
1769.000000	60.694513
1768.000000	60.654837
1767.000000	60.630225
1766.000000	60.565598
1765.000000	60.507835
1764.000000	60.517490
1763.000000	60.435923
1762.000000	60.390258
1761.000000	60.390571
1760.000000	60.321429
1759.000000	60.256575
1758.000000	60.229146
1757.000000	60.181694
1756.000000	60.159766
1755.000000	60.123524
1754.000000	60.032328
1753.000000	60.003549
1752.000000	59.994605
1751.000000	59.978461
1750.000000	59.928940
1749.000000	59.898225
1748.000000	59.813806
1747.000000	59.728193
1746.000000	59.732665
1745.000000	59.670841
1744.000000	59.621525
1743.000000	59.573165
1742.000000	59.509871
1741.000000	59.484287
1740.000000	59.437303
1739.000000	59.384382
1738.000000	59.326600
1737.000000	59.322517
1736.000000	59.293928
1735.000000	59.280169
1734.000000	59.290262
1733.000000	59.253615
1732.000000	59.253083
1731.000000	59.305180
1730.000000	59.282918
1729.000000	59.296786
1728.000000	59.352734
1727.000000	59.405304
1726.000000	59.439776
1725.000000	59.495486
1724.000000	59.534069
1723.000000	59.605250
1722.000000	59.689517
1721.000000	59.780039
1720.000000	59.847597
1719.000000	59.942917
1718.000000	59.956075
1717.000000	60.044960
1716.000000	60.116218
1715.000000	60.179477
1714.000000	60.232180
1713.000000	60.352442
1712.000000	60.413122
1711.000000	60.430296
1710.000000	60.473861
1709.000000	60.522678
1708.000000	60.540976
1707.000000	60.636190
1706.000000	60.670537
1705.000000	60.670760
1704.000000	60.740114
1703.000000	60.703741
1702.000000	60.706161
1701.000000	60.719258
1700.000000	60.761763
1699.000000	60.747415
1698.000000	60.789273
1697.000000	60.797442
1696.000000	60.869252
1695.000000	60.834436
1694.000000	60.865818
1693.000000	60.885565
1692.000000	60.901031
1691.000000	61.021445
1690.000000	61.027875
1689.000000	61.090470
1688.000000	61.166161
1687.000000	61.248397
1686.000000	61.332299
1685.000000	61.428428
1684.000000	61.549940
1683.000000	61.643888
1682.000000	61.739406
1681.000000	61.892200
1680.000000	61.996269
1679.000000	62.098960
1678.000000	62.200791
1677.000000	62.385369
1676.000000	62.474875
1675.000000	62.610998
1674.000000	62.730658
1673.000000	62.851193
1672.000000	62.961743
1671.000000	63.071152
1670.000000	63.201100
1669.000000	63.326000
1668.000000	63.414723
1667.000000	63.526901
1666.000000	63.606453
1665.000000	63.685289
1664.000000	63.749886
1663.000000	63.815210
1662.000000	63.856050
1661.000000	63.915313
1660.000000	63.989176
1659.000000	64.027820
1658.000000	64.062536
1657.000000	64.084837
1656.000000	64.118395
1655.000000	64.145624
1654.000000	64.178023
1653.000000	64.190369
1652.000000	64.218346
1651.000000	64.185965
1650.000000	64.191020
1649.000000	64.215279
1648.000000	64.198819
1647.000000	64.228198
1646.000000	64.201780
1645.000000	64.184339
1644.000000	64.176406
1643.000000	64.168916
1642.000000	64.164954
1641.000000	64.127369
1640.000000	64.114028
1639.000000	64.114530
1638.000000	64.099424
1637.000000	64.090309
1636.000000	64.052211
1635.000000	64.022612
1634.000000	63.998326
1633.000000	63.935946
1632.000000	63.939706
1631.000000	63.937853
1630.000000	63.893592
1629.000000	63.855042
1628.000000	63.857425
1627.000000	63.814502
1626.000000	63.788394
1625.000000	63.754480
1624.000000	63.720934
1623.000000	63.689902
1622.000000	63.668788
1621.000000	63.633629
1620.000000	63.620062
1619.000000	63.573915
1618.000000	63.534522
1617.000000	63.517544
1616.000000	63.472567
1615.000000	63.428235
1614.000000	63.397557
1613.000000	63.356206
1612.000000	63.320854
1611.000000	63.270726
1610.000000	63.244813
1609.000000	63.204350
1608.000000	63.158225
1607.000000	63.114136
1606.000000	63.077978
1605.000000	63.046999
1604.000000	63.008011
1603.000000	62.960476
1602.000000	62.915763
1601.000000	62.875663
1600.000000	62.838116
1599.000000	62.796613
1598.000000	62.739438
1597.000000	62.695476
1596.000000	62.674512
1595.000000	62.635861
1594.000000	62.592427
1593.000000	62.581145
1592.000000	62.536425
1591.000000	62.476206
1590.000000	62.437700
1589.000000	62.383351
1588.000000	62.358559
1587.000000	62.342231
1586.000000	62.296419
1585.000000	62.261181
1584.000000	62.238495
1583.000000	62.212605
1582.000000	62.168690
1581.000000	62.128564
1580.000000	62.105251
1579.000000	62.087019
1578.000000	62.052747
1577.000000	62.023445
1576.000000	62.008855
1575.000000	61.977003
1574.000000	61.933556
1573.000000	61.905630
1572.000000	61.878376
1571.000000	61.840721
1570.000000	61.803516
1569.000000	61.787014
1568.000000	61.754191
1567.000000	61.723868
1566.000000	61.710052
1565.000000	61.699331
1564.000000	61.678587
1563.000000	61.648996
1562.000000	61.649136
1561.000000	61.636649
1560.000000	61.616234
1559.000000	61.611366
1558.000000	61.581218
1557.000000	61.572074
1556.000000	61.559445
1555.000000	61.540331
1554.000000	61.527067
1553.000000	61.511289
1552.000000	61.505211
1551.000000	61.477433
1550.000000	61.462369
1549.000000	61.410578
1548.000000	61.392641
1547.000000	61.347793
1546.000000	61.311049
1545.000000	61.291048
1544.000000	61.215924
1543.000000	61.171767
1542.000000	61.138217
1541.000000	61.068243
1540.000000	61.022037
1539.000000	60.970698
1538.000000	60.907093
1537.000000	60.829858
1536.000000	60.751706
1535.000000	60.686285
1534.000000	60.630285
1533.000000	60.595253
1532.000000	60.518111
1531.000000	60.427948
1530.000000	60.401364
1529.000000	60.332404
1528.000000	60.290346
1527.000000	60.211781
1526.000000	60.164556
1525.000000	60.102303
1524.000000	60.049849
1523.000000	60.007715
1522.000000	59.967114
1521.000000	59.922851
1520.000000	59.904543
1519.000000	59.856214
1518.000000	59.815935
1517.000000	59.789037
1516.000000	59.736619
1515.000000	59.712552
1514.000000	59.694917
1513.000000	59.667875
1512.000000	59.624238
1511.000000	59.593535
1510.000000	59.588634
1509.000000	59.603950
1508.000000	59.566308
1507.000000	59.551091
1506.000000	59.519193
1505.000000	59.506668
1504.000000	59.535278
1503.000000	59.518937
1502.000000	59.497979
1501.000000	59.489489
1500.000000	59.514860
1499.000000	59.497807
1498.000000	59.509174
1497.000000	59.508198
1496.000000	59.546649
1495.000000	59.548511
1494.000000	59.579287
1493.000000	59.606244
1492.000000	59.618233
1491.000000	59.669082
1490.000000	59.708408
1489.000000	59.749006
1488.000000	59.811879
1487.000000	59.841452
1486.000000	59.866389
1485.000000	59.940393
1484.000000	59.995606
1483.000000	60.040916
1482.000000	60.081647
1481.000000	60.164139
1480.000000	60.237741
1479.000000	60.277601
1478.000000	60.334925
1477.000000	60.388994
1476.000000	60.445883
1475.000000	60.494649
1474.000000	60.574385
1473.000000	60.604638
1472.000000	60.670418
1471.000000	60.712504
1470.000000	60.793820
1469.000000	60.829267
1468.000000	60.876593
1467.000000	60.909282
1466.000000	60.976345
1465.000000	61.024860
1464.000000	61.070721
1463.000000	61.098702
1462.000000	61.130267
1461.000000	61.173440
1460.000000	61.208034
1459.000000	61.270690
1458.000000	61.298361
1457.000000	61.335074
1456.000000	61.378889
1455.000000	61.424889
1454.000000	61.476542
1453.000000	61.512047
1452.000000	61.556121
1451.000000	61.596686
1450.000000	61.655681
1449.000000	61.711639
1448.000000	61.751036
1447.000000	61.807529
1446.000000	61.865194
1445.000000	61.901972
1444.000000	61.965087
1443.000000	62.038318
1442.000000	62.094420
1441.000000	62.130182
1440.000000	62.197053
1439.000000	62.270660
1438.000000	62.332478
1437.000000	62.421900
1436.000000	62.470354
1435.000000	62.545708
1434.000000	62.622817
1433.000000	62.695384
1432.000000	62.775159
1431.000000	62.833767
1430.000000	62.903673
1429.000000	62.990660
1428.000000	63.074727
1427.000000	63.161383
1426.000000	63.237038
1425.000000	63.357103
1424.000000	63.442887
1423.000000	63.546408
1422.000000	63.630902
1421.000000	63.732252
1420.000000	63.833894
1419.000000	63.929699
1418.000000	64.047375
1417.000000	64.137918
1416.000000	64.246448
1415.000000	64.364265
1414.000000	64.470143
1413.000000	64.585230
1412.000000	64.704040
1411.000000	64.813533
1410.000000	64.930396
1409.000000	65.025650
1408.000000	65.123456
1407.000000	65.232271
1406.000000	65.339430
1405.000000	65.449075
1404.000000	65.536824
1403.000000	65.633551
1402.000000	65.743512
1401.000000	65.832268
1400.000000	65.924091
1399.000000	66.016842
1398.000000	66.093923
1397.000000	66.183468
1396.000000	66.275413
1395.000000	66.358246
1394.000000	66.442218
1393.000000	66.524380
1392.000000	66.606048
1391.000000	66.681829
1390.000000	66.742163
1389.000000	66.805641
1388.000000	66.874202
1387.000000	66.929034
1386.000000	67.016016
1385.000000	67.077107
1384.000000	67.112374
1383.000000	67.179050
1382.000000	67.227436
1381.000000	67.278629
1380.000000	67.336473
1379.000000	67.376301
1378.000000	67.422342
1377.000000	67.462987
1376.000000	67.512085
1375.000000	67.550782
1374.000000	67.581639
1373.000000	67.613495
1372.000000	67.648135
1371.000000	67.683985
1370.000000	67.721006
1369.000000	67.743399
1368.000000	67.768062
1367.000000	67.790394
1366.000000	67.817157
1365.000000	67.855065
1364.000000	67.884597
1363.000000	67.923423
1362.000000	67.945164
1361.000000	67.979248
1360.000000	68.012780
1359.000000	68.031546
1358.000000	68.058641
1357.000000	68.105562
1356.000000	68.145276
1355.000000	68.168303
1354.000000	68.217980
1353.000000	68.250910
1352.000000	68.284597
1351.000000	68.323432
1350.000000	68.362353
1349.000000	68.400571
1348.000000	68.429202
1347.000000	68.466892
1346.000000	68.500147
1345.000000	68.519050
1344.000000	68.557519
1343.000000	68.590723
1342.000000	68.633897
1341.000000	68.645208
1340.000000	68.697743
1339.000000	68.714929
1338.000000	68.728343
1337.000000	68.751963
1336.000000	68.763617
1335.000000	68.792746
1334.000000	68.808669
1333.000000	68.825701
1332.000000	68.863059
1331.000000	68.865364
1330.000000	68.887361
1329.000000	68.929730
1328.000000	68.961025
1327.000000	69.014103
1326.000000	69.024420
1325.000000	69.017293
1324.000000	68.989685
1323.000000	69.004755
1322.000000	69.043896
1321.000000	69.042170
1320.000000	69.065628
1319.000000	69.061277
1318.000000	69.067589
1317.000000	69.087517
1316.000000	69.110861
1315.000000	69.104009
1314.000000	69.102345
1313.000000	69.108646
1312.000000	69.086789
1311.000000	69.160312
1310.000000	69.177659
1309.000000	69.159186
1308.000000	69.144070
1307.000000	69.165820
1306.000000	69.182713
1305.000000	69.187924
1304.000000	69.197765
1303.000000	69.226105
1302.000000	69.215545
1301.000000	69.213175
1300.000000	69.218754
1299.000000	69.214643
1298.000000	69.216377
1297.000000	69.208695
1296.000000	69.206789
1295.000000	69.237866
1294.000000	69.237143
1293.000000	69.237468
1292.000000	69.229168
1291.000000	69.238322
1290.000000	69.245688
1289.000000	69.243964
1288.000000	69.238843
1287.000000	69.235455
1286.000000	69.225175
1285.000000	69.206709
1284.000000	69.244312
1283.000000	69.213283
1282.000000	69.203627
1281.000000	69.199119
1280.000000	69.196996
1279.000000	69.196863
1278.000000	69.182850
1277.000000	69.184595
1276.000000	69.180200
1275.000000	69.193545
1274.000000	69.219240
1273.000000	69.187508
1272.000000	69.199862
1271.000000	69.203068
1270.000000	69.205504
1269.000000	69.196216
1268.000000	69.193140
1267.000000	69.210947
1266.000000	69.211882
1265.000000	69.211353
1264.000000	69.263618
1263.000000	69.251503
1262.000000	69.237713
1261.000000	69.243936
1260.000000	69.250195
1259.000000	69.261335
1258.000000	69.298362
1257.000000	69.280181
1256.000000	69.296945
1255.000000	69.276531
1254.000000	69.299766
1253.000000	69.284434
1252.000000	69.293814
1251.000000	69.297470
1250.000000	69.284250
1249.000000	69.283227
1248.000000	69.299053
1247.000000	69.279926
1246.000000	69.299213
1245.000000	69.310567
1244.000000	69.292146
1243.000000	69.285313
1242.000000	69.274596
1241.000000	69.273554
1240.000000	69.252349
1239.000000	69.223448
1238.000000	69.248175
1237.000000	69.229156
1236.000000	69.206365
1235.000000	69.188699
1234.000000	69.180107
1233.000000	69.176601
1232.000000	69.160651
1231.000000	69.161763
1230.000000	69.143028
1229.000000	69.134761
1228.000000	69.136928
1227.000000	69.122474
1226.000000	69.081003
1225.000000	69.068405
1224.000000	69.059157
1223.000000	69.042341
1222.000000	69.046919
1221.000000	69.034526
1220.000000	69.020957
1219.000000	68.996281
1218.000000	68.990514
1217.000000	68.968196
1216.000000	68.949270
1215.000000	68.934593
1214.000000	68.909715
1213.000000	68.946009
1212.000000	68.915305
1211.000000	68.889930
1210.000000	68.876988
1209.000000	68.899350
1208.000000	68.851168
1207.000000	68.818382
1206.000000	68.829190
1205.000000	68.789302
1204.000000	68.770559
1203.000000	68.774246
1202.000000	68.779436
1201.000000	68.747699
1200.000000	68.727217
1199.000000	68.705067
1198.000000	68.690140
1197.000000	68.668616
1196.000000	68.667208
1195.000000	68.672032
1194.000000	68.655856
1193.000000	68.633195
1192.000000	68.615469
1191.000000	68.617369
1190.000000	68.612469
1189.000000	68.579916
1188.000000	68.579446
1187.000000	68.590972
1186.000000	68.579813
1185.000000	68.602724
1184.000000	68.602654
1183.000000	68.608443
1182.000000	68.623624
1181.000000	68.621644
1180.000000	68.636754
1179.000000	68.666644
1178.000000	68.680312
1177.000000	68.693009
1176.000000	68.716574
1175.000000	68.748687
1174.000000	68.778341
1173.000000	68.803095
1172.000000	68.834463
1171.000000	68.850379
1170.000000	68.885554
1169.000000	68.921796
1168.000000	68.943902
1167.000000	68.987366
1166.000000	69.039519
1165.000000	69.069197
1164.000000	69.104775
1163.000000	69.146505
1162.000000	69.177814
1161.000000	69.201505
1160.000000	69.234829
1159.000000	69.273388
1158.000000	69.331917
1157.000000	69.369543
1156.000000	69.386404
1155.000000	69.421374
1154.000000	69.450278
1153.000000	69.473717
1152.000000	69.498122
1151.000000	69.529987
1150.000000	69.547789
1149.000000	69.566132
1148.000000	69.591871
1147.000000	69.609605
1146.000000	69.636247
1145.000000	69.648480
1144.000000	69.670135
1143.000000	69.708159
1142.000000	69.735248
1141.000000	69.749459
1140.000000	69.765987
1139.000000	69.801960
1138.000000	69.823221
1137.000000	69.838280
1136.000000	69.859695
1135.000000	69.878000
1134.000000	69.893086
1133.000000	69.895953
1132.000000	69.895840
1131.000000	69.921794
1130.000000	69.938164
1129.000000	69.961597
1128.000000	69.971761
1127.000000	69.987426
1126.000000	70.004318
1125.000000	70.011163
1124.000000	70.024573
1123.000000	70.030706
1122.000000	70.043243
1121.000000	70.034254
1120.000000	70.028497
1119.000000	70.038504
1118.000000	70.046520
1117.000000	70.062643
1116.000000	70.072077
1115.000000	70.066433
1114.000000	70.083915
1113.000000	70.091062
1112.000000	70.092888
1111.000000	70.077699
1110.000000	70.072527
1109.000000	70.083444
1108.000000	70.107971
1107.000000	70.108660
1106.000000	70.109675
1105.000000	70.087104
1104.000000	70.092689
1103.000000	70.091623
1102.000000	70.102677
1101.000000	70.101160
1100.000000	70.110828
1099.000000	70.112197
1098.000000	70.121043
1097.000000	70.120894
1096.000000	70.111252
1095.000000	70.103173
1094.000000	70.115017
1093.000000	70.114138
1092.000000	70.115382
1091.000000	70.103013
1090.000000	70.095278
1089.000000	70.110621
1088.000000	70.092256
1087.000000	70.100909
1086.000000	70.092001
1085.000000	70.109579
1084.000000	70.101862
1083.000000	70.084525
1082.000000	70.100226
1081.000000	70.099497
1080.000000	70.104555
1079.000000	70.106238
1078.000000	70.077295
1077.000000	70.082375
1076.000000	70.067788
1075.000000	70.086721
1074.000000	70.082807
1073.000000	70.083964
1072.000000	70.093860
1071.000000	70.076979
1070.000000	70.058174
1069.000000	70.052217
1068.000000	70.068916
1067.000000	70.064970
1066.000000	70.039531
1065.000000	70.053276
1064.000000	70.036619
1063.000000	70.037557
1062.000000	70.035343
1061.000000	70.034618
1060.000000	70.023661
1059.000000	70.031935
1058.000000	70.045382
1057.000000	70.040812
1056.000000	70.013291
1055.000000	70.011431
1054.000000	70.016616
1053.000000	70.040534
1052.000000	70.039219
1051.000000	70.027661
1050.000000	70.017103
1049.000000	69.998855
1048.000000	70.017600
1047.000000	70.011855
1046.000000	69.999014
1045.000000	70.021217
1044.000000	69.998719
1043.000000	69.996571
1042.000000	69.975328
1041.000000	69.971673
1040.000000	69.962437
1039.000000	69.966430
1038.000000	69.969074
1037.000000	69.949690
1036.000000	69.962655
1035.000000	69.976242
1034.000000	69.961404
1033.000000	69.963081
1032.000000	69.955349
1031.000000	69.957323
1030.000000	69.955244
1029.000000	69.946125
1028.000000	69.938631
1027.000000	69.961795
1026.000000	69.957059
1025.000000	69.943886
1024.000000	69.928438
1023.000000	69.919637
1022.000000	69.916819
1021.000000	69.935176
1020.000000	69.918188
1019.000000	69.938479
1018.000000	69.904582
1017.000000	69.929974
1016.000000	69.948416
1015.000000	69.931959
1014.000000	69.926408
1013.000000	69.941140
1012.000000	69.927362
1011.000000	69.924530
1010.000000	69.931921
1009.000000	69.951280
1008.000000	69.937827
1007.000000	69.935981
1006.000000	69.930131
1005.000000	69.917619
1004.000000	69.927829
1003.000000	69.932587
1002.000000	69.950178
1001.000000	69.922911
1000.000000	69.921394
999.000000	69.919852
998.000000	69.943912
997.000000	69.950623
996.000000	69.954106
995.000000	69.954226
994.000000	69.952114
993.000000	69.966185
992.000000	69.942093
991.000000	69.957162
990.000000	69.952800
989.000000	69.952048
988.000000	69.965961
987.000000	69.956711
986.000000	69.972378
985.000000	69.967083
984.000000	69.974700
983.000000	70.016765
982.000000	70.016834
981.000000	70.028166
980.000000	70.029379
979.000000	70.026028
978.000000	70.019938
977.000000	70.030972
976.000000	70.026659
975.000000	70.021149
974.000000	70.031819
973.000000	70.024885
972.000000	70.034741
971.000000	70.018807
970.000000	70.037150
969.000000	70.063216
968.000000	70.070459
967.000000	70.083135
966.000000	70.087714
965.000000	70.092192
964.000000	70.098641
963.000000	70.085053
962.000000	70.068386
961.000000	70.077096
960.000000	70.101849
959.000000	70.094815
958.000000	70.085915
957.000000	70.093866
956.000000	70.112803
955.000000	70.141146
954.000000	70.156355
953.000000	70.134974
952.000000	70.127559
951.000000	70.142607
950.000000	70.138895
949.000000	70.138197
948.000000	70.135736
947.000000	70.156529
946.000000	70.189081
945.000000	70.186202
944.000000	70.179623
943.000000	70.164755
942.000000	70.162479
941.000000	70.169294
940.000000	70.192231
939.000000	70.234126
938.000000	70.217860
937.000000	70.186580
936.000000	70.190419
935.000000	70.203622
934.000000	70.200489
933.000000	70.189437
932.000000	70.162009
931.000000	70.166923
930.000000	70.181944
929.000000	70.170802
928.000000	70.197884
927.000000	70.187266
926.000000	70.151702
925.000000	70.154650
924.000000	70.187153
923.000000	70.178743
922.000000	70.171805
921.000000	70.172242
920.000000	70.153801
919.000000	70.143202
918.000000	70.135437
917.000000	70.147698
916.000000	70.172398
915.000000	70.163134
914.000000	70.118468
913.000000	70.132096
912.000000	70.176795
911.000000	70.186954
910.000000	70.162942
909.000000	70.204658
908.000000	70.240895
907.000000	70.241355
906.000000	70.223686
905.000000	70.211909
904.000000	70.161641
903.000000	70.177808
902.000000	70.201854
901.000000	70.240646
900.000000	70.258210
899.000000	70.232830
898.000000	70.204971
897.000000	70.245075
896.000000	70.254989
895.000000	70.305344
894.000000	70.245677
893.000000	70.221488
892.000000	70.251617
891.000000	70.262565
890.000000	70.298780
889.000000	70.309475
888.000000	70.323032
887.000000	70.263199
886.000000	70.290194
885.000000	70.347863
884.000000	70.358664
883.000000	70.321139
882.000000	70.318912
881.000000	70.310004
880.000000	70.333044
879.000000	70.334816
878.000000	70.355001
877.000000	70.386148
876.000000	70.345559
875.000000	70.427051
874.000000	70.403570
873.000000	70.339106
872.000000	70.342129
871.000000	70.367882
870.000000	70.415261
869.000000	70.321477
868.000000	70.437703
867.000000	70.209085
866.000000	70.352636
865.000000	70.428630
864.000000	70.577001
863.000000	70.589434
862.000000	70.511838
861.000000	70.387890
860.000000	70.394215
859.000000	69.891152
858.000000	70.418960
857.000000	70.025407
856.000000	70.375258
855.000000	70.070813
854.000000	70.400115
853.000000	70.264002
852.000000	70.392279
851.000000	70.384678
850.000000	70.225423
849.000000	70.434148
848.000000	70.360339
847.000000	70.489065
846.000000	70.196455
845.000000	70.274463
844.000000	70.293765
843.000000	70.338295
842.000000	70.289854
841.000000	70.204903
840.000000	70.432585
839.000000	70.264198
838.000000	70.308574
837.000000	70.272991
836.000000	70.300150
835.000000	70.352967
834.000000	70.388228
833.000000	70.232543
832.000000	70.280679
831.000000	69.913544
830.000000	70.298435
829.000000	70.405666
828.000000	70.179478
827.000000	70.113722
826.000000	70.184051
825.000000	70.119501
824.000000	70.409114
823.000000	70.401999
822.000000	70.210243
821.000000	70.083676
820.000000	70.442055
819.000000	70.430586
818.000000	70.450860
817.000000	70.209725
816.000000	70.279899
815.000000	70.334310
814.000000	70.270318
813.000000	70.266656
812.000000	70.361109
811.000000	70.412932
810.000000	70.180383
809.000000	70.376235
808.000000	70.235053
807.000000	70.357743
806.000000	70.236549
805.000000	70.310697
804.000000	70.270368
803.000000	70.457434
802.000000	70.459407
801.000000	70.319850
800.000000	70.289399
799.000000	70.310495
798.000000	70.191251
797.000000	70.156624
796.000000	70.175221
795.000000	70.287714
794.000000	70.127080
793.000000	70.416162
792.000000	70.405008
791.000000	70.281223
790.000000	70.223085
789.000000	70.317481
788.000000	70.353765
787.000000	70.407465
786.000000	70.334335
785.000000	70.373607
784.000000	70.243863
783.000000	70.362736
782.000000	70.256261
781.000000	70.384735
780.000000	70.376145
779.000000	70.399240
778.000000	70.421966
777.000000	70.531240
776.000000	70.405801
775.000000	70.224656
774.000000	70.358581
773.000000	70.339732
772.000000	70.289448
771.000000	70.238899
770.000000	70.329893
769.000000	70.395690
768.000000	70.406324
767.000000	70.437337
766.000000	70.382978
765.000000	70.374661
764.000000	70.385074
763.000000	70.421228
762.000000	70.331667
761.000000	70.313653
760.000000	70.280812
759.000000	70.441251
758.000000	70.289718
757.000000	70.233217
756.000000	70.288863
755.000000	70.358619
754.000000	70.254800
753.000000	70.318117
752.000000	70.378047
751.000000	70.291425
750.000000	70.306646
749.000000	70.314885
748.000000	70.304331
747.000000	70.412361
746.000000	70.289856
745.000000	70.297442
744.000000	70.256571
743.000000	70.295026
742.000000	70.306507
741.000000	70.275621
740.000000	70.190912
739.000000	70.293940
738.000000	70.352421
737.000000	70.287608
736.000000	70.332707
735.000000	70.348397
734.000000	70.266397
733.000000	70.301412
732.000000	70.260153
731.000000	70.231278
730.000000	70.250345
729.000000	70.240582
728.000000	70.257398
727.000000	70.229152
726.000000	70.201646
725.000000	70.240336
724.000000	70.286082
723.000000	70.281648
722.000000	70.295828
721.000000	70.287431
720.000000	70.326832
719.000000	70.356198
718.000000	70.342082
717.000000	70.327269
716.000000	70.298787
715.000000	70.309116
714.000000	70.323443
713.000000	70.324211
712.000000	70.295419
711.000000	70.301313
710.000000	70.324989
709.000000	70.293946
708.000000	70.252371
707.000000	70.220798
706.000000	70.261901
705.000000	70.271894
704.000000	70.268447
703.000000	70.321912
702.000000	70.277266
701.000000	70.300546
700.000000	70.380075
699.000000	70.351746
698.000000	70.313108
697.000000	70.306427
696.000000	70.312776
695.000000	70.281945
694.000000	70.288569
693.000000	70.305250
692.000000	70.343728
691.000000	70.342090
690.000000	70.314730
689.000000	70.232219
688.000000	70.224842
687.000000	70.242536
686.000000	70.204070
685.000000	70.192105
684.000000	70.192003
683.000000	70.263552
682.000000	70.244320
681.000000	70.227929
680.000000	70.194884
679.000000	70.248233
678.000000	70.281297
677.000000	70.297955
676.000000	70.264995
675.000000	70.266965
674.000000	70.240188
673.000000	70.273288
672.000000	70.302282
671.000000	70.269477
670.000000	70.174898
669.000000	70.241874
668.000000	70.263225
667.000000	70.258676
666.000000	70.299191
665.000000	70.299997
664.000000	70.236803
663.000000	70.232466
662.000000	70.247898
661.000000	70.267608
660.000000	70.291121
659.000000	70.292614
658.000000	70.279039
657.000000	70.249993
656.000000	70.291438
655.000000	70.324986
654.000000	70.248339
653.000000	70.195924
652.000000	70.248084
651.000000	70.288017
650.000000	70.274765
649.000000	70.273177
648.000000	70.334336
647.000000	70.279052
646.000000	70.218006
645.000000	70.314067
644.000000	70.290753
643.000000	70.286570
642.000000	70.285860
641.000000	70.285099
640.000000	70.245101
639.000000	70.280571
638.000000	70.234248
637.000000	70.256582
636.000000	70.280623
635.000000	70.248755
634.000000	70.279190
633.000000	70.279332
632.000000	70.254100
631.000000	70.292121
630.000000	70.267167
629.000000	70.267007
628.000000	70.264547
627.000000	70.280502
626.000000	70.302444
625.000000	70.295813
624.000000	70.291321
623.000000	70.282048
622.000000	70.251832
621.000000	70.276179
620.000000	70.259975
619.000000	70.252453
618.000000	70.321707
617.000000	70.248331
616.000000	70.207353
615.000000	70.257297
614.000000	70.227379
613.000000	70.258775
612.000000	70.280212
611.000000	70.336909
610.000000	70.230109
609.000000	70.267408
608.000000	70.246100
607.000000	70.282687
606.000000	70.224572
605.000000	70.207087
604.000000	70.193188
603.000000	70.244631
602.000000	70.190194
601.000000	70.220339
600.000000	70.261651
599.000000	70.244337
598.000000	70.155564
597.000000	70.211964
596.000000	70.134982
595.000000	70.239425
594.000000	70.256650
593.000000	70.250794
592.000000	70.186984
591.000000	70.199575
590.000000	70.134454
589.000000	70.150650
588.000000	70.184713
587.000000	70.184438
586.000000	70.240272
585.000000	70.160386
584.000000	70.096752
583.000000	70.116068
582.000000	70.091896
581.000000	70.160386
580.000000	70.122418
579.000000	70.098475
578.000000	70.121089
577.000000	70.125426
576.000000	70.164471
575.000000	70.117569
574.000000	70.048320
573.000000	70.109248
572.000000	70.104445
571.000000	70.061000
570.000000	70.075318
569.000000	70.030216
568.000000	70.017715
567.000000	70.021619
566.000000	69.974222
565.000000	70.007178
564.000000	70.013849
563.000000	70.068887
562.000000	70.004249
561.000000	69.941746
560.000000	69.943247
559.000000	69.981355
558.000000	69.953367
557.000000	69.993007
556.000000	69.971630
555.000000	69.942911
554.000000	69.933137
553.000000	69.884709
552.000000	69.923945
551.000000	69.951341
550.000000	69.905880
549.000000	69.835048
548.000000	69.879718
547.000000	69.924951
546.000000	69.862934
545.000000	69.907163
544.000000	69.834308
543.000000	69.805191
542.000000	69.819878
541.000000	69.783939
540.000000	69.712023
539.000000	69.712087
538.000000	69.761667
537.000000	69.691399
536.000000	69.684115
535.000000	69.663910
534.000000	69.672918
533.000000	69.670127
532.000000	69.711585
531.000000	69.632022
530.000000	69.634826
529.000000	69.626887
528.000000	69.566154
527.000000	69.568311
526.000000	69.585909
525.000000	69.567901
524.000000	69.549796
523.000000	69.544708
522.000000	69.513075
521.000000	69.520417
520.000000	69.423845
519.000000	69.469794
518.000000	69.431946
517.000000	69.448033
516.000000	69.371035
515.000000	69.396312
514.000000	69.392167
513.000000	69.363034
512.000000	69.341845
511.000000	69.315875
510.000000	69.276860
509.000000	69.376333
508.000000	69.331361
507.000000	69.240385
506.000000	69.250068
505.000000	69.244934
504.000000	69.150333
503.000000	69.175935
502.000000	69.166181
501.000000	69.166218
500.000000	69.091951
499.000000	69.118873
498.000000	69.090796
497.000000	69.054847
496.000000	69.005439
495.000000	69.027884
494.000000	68.993590
493.000000	68.934279
492.000000	68.928620
491.000000	68.846392
490.000000	68.801815
489.000000	68.846130
488.000000	68.817571
487.000000	68.769387
486.000000	68.660272
485.000000	68.629134
484.000000	68.726582
483.000000	68.794911
482.000000	68.725084
481.000000	68.687329
480.000000	68.650772
479.000000	68.605681
478.000000	68.561472
477.000000	68.566315
476.000000	68.513863
475.000000	68.500098
474.000000	68.437809
473.000000	68.382756
472.000000	68.383270
471.000000	68.353849
470.000000	68.295950
469.000000	68.272201
468.000000	68.210054
467.000000	68.176478
466.000000	68.159652
465.000000	68.068511
464.000000	68.008783
463.000000	68.010773
462.000000	67.968994
461.000000	67.926631
460.000000	67.867089
459.000000	67.790793
458.000000	67.775783
457.000000	67.713895
456.000000	67.652187
455.000000	67.620378
454.000000	67.576622
453.000000	67.575559
452.000000	67.521902
451.000000	67.405863
450.000000	67.324662
449.000000	67.218330
448.000000	67.227128
447.000000	67.212043
446.000000	67.098945
445.000000	66.990350
444.000000	66.965095
443.000000	66.969273
442.000000	66.897008
441.000000	66.831003
440.000000	66.782855
439.000000	66.715849
438.000000	66.615954
437.000000	66.539708
436.000000	66.425124
435.000000	66.292093
434.000000	66.197324
433.000000	66.147409
432.000000	66.081005
431.000000	65.915945
430.000000	65.858626
429.000000	65.811638
428.000000	65.719178
427.000000	65.559641
426.000000	65.499195
425.000000	65.457085
424.000000	65.322909
423.000000	65.189168
422.000000	65.033761
421.000000	64.853701
420.000000	64.828848
419.000000	64.651448
418.000000	64.508765
417.000000	64.381172
416.000000	64.309058
415.000000	64.135183
414.000000	64.058045
413.000000	63.940336
412.000000	63.795847
411.000000	63.642108
410.000000	63.479467
409.000000	63.339940
408.000000	63.149400
407.000000	63.010493
406.000000	62.878054
405.000000	62.673357
404.000000	62.525310
403.000000	62.401052
402.000000	62.258598
401.000000	62.104330
400.000000	61.936389
399.000000	61.846567
398.000000	61.609382
397.000000	61.512437
396.000000	61.292845
395.000000	61.102156
394.000000	60.932597
393.000000	60.754768
392.000000	60.652442
391.000000	60.471462
390.000000	60.302117
389.000000	60.156070
388.000000	59.841030
387.000000	59.680408
386.000000	59.516594
385.000000	59.285783
384.000000	59.086901
383.000000	58.918445
382.000000	58.676003
381.000000	58.354355
380.000000	58.274264
379.000000	57.994946
378.000000	57.582947
377.000000	57.510366
376.000000	57.366389
375.000000	57.319340
374.000000	56.984087
373.000000	56.747564
372.000000	56.409577
371.000000	56.196940
370.000000	56.061500
369.000000	55.519142
368.000000	55.351136
367.000000	55.199208
366.000000	54.830814
365.000000	54.646074
364.000000	54.278203
363.000000	54.157919
362.000000	53.808797
361.000000	53.554366
360.000000	53.337943
359.000000	53.100131
358.000000	52.788741
357.000000	52.583360
356.000000	52.400131
355.000000	51.845247
354.000000	51.826001
353.000000	51.359597
352.000000	51.294848
351.000000	50.875595
350.000000	50.662627
349.000000	50.481792
348.000000	50.266946
347.000000	49.873933
346.000000	49.482567
345.000000	49.208729
344.000000	49.165786
343.000000	48.717862
342.000000	48.316060
341.000000	48.197926
340.000000	47.882925
339.000000	47.262987
338.000000	47.012149
337.000000	46.279117
336.000000	46.136712
335.000000	45.706492
334.000000	45.139728
333.000000	44.737141
332.000000	44.349154
331.000000	43.746391
330.000000	43.352338
329.000000	42.899861
328.000000	42.178029
327.000000	41.877617
326.000000	41.354039
325.000000	40.880251
324.000000	40.542515
323.000000	40.365435
322.000000	39.864322
321.000000	39.786348
320.000000	39.447939
319.000000	39.512007
318.000000	38.994702
317.000000	38.634237
316.000000	38.437370
315.000000	38.296025
314.000000	38.225794
313.000000	38.029341
312.000000	37.798900
311.000000	37.468415
310.000000	37.234386
309.000000	37.076074
308.000000	36.899342
307.000000	36.859004
306.000000	36.553403
305.000000	36.466176
304.000000	36.292767
303.000000	35.972161
302.000000	35.863358
301.000000	35.604221
300.000000	35.347285
299.000000	35.170761
298.000000	34.768437
297.000000	34.511480
296.000000	34.069551
295.000000	33.408547
294.000000	32.889811
293.000000	32.115784
292.000000	31.336712
291.000000	30.305133
290.000000	29.395392
289.000000	28.521907
288.000000	27.707518
287.000000	27.081724
286.000000	26.577995
285.000000	26.340718
284.000000	26.044701
283.000000	26.064847
282.000000	25.961041
281.000000	25.849498
280.000000	25.847168
279.000000	25.931642
278.000000	26.041562
277.000000	26.117966
276.000000	26.285043
275.000000	26.567063
274.000000	26.843242
273.000000	27.086307
272.000000	27.267607
271.000000	27.404946
270.000000	27.353501
269.000000	27.565095
268.000000	27.765349
267.000000	28.134209
266.000000	28.292861
265.000000	28.523346
264.000000	28.830735
263.000000	29.237159
262.000000	29.490130
261.000000	29.613624
260.000000	29.853153
259.000000	30.121873
258.000000	30.395369
257.000000	30.820109
256.000000	31.161010
255.000000	31.335717
254.000000	31.278881
253.000000	31.224413
252.000000	31.212715
251.000000	30.988462
250.000000	30.616350
249.000000	30.083187
248.000000	29.329443
247.000000	28.399976
246.000000	27.340069
245.000000	26.083560
244.000000	24.894212
243.000000	23.599535
242.000000	22.378798
241.000000	21.271124
240.000000	20.211008
239.000000	19.372221
238.000000	18.709143
237.000000	18.132447
236.000000	17.714144
235.000000	17.448450
234.000000	17.193044
233.000000	17.067130
232.000000	16.925226
231.000000	16.817404
230.000000	16.799511
229.000000	16.655451
228.000000	16.627636
227.000000	16.723646
226.000000	16.790780
225.000000	16.846728
224.000000	16.946511
223.000000	17.103720
222.000000	17.332518
221.000000	17.516365
220.000000	17.786332
219.000000	18.050936
218.000000	18.272040
217.000000	18.505322
216.000000	18.681189
215.000000	18.891127
214.000000	19.225104
213.000000	19.671140
212.000000	20.051018
211.000000	20.258885
210.000000	20.591082
209.000000	20.943205
208.000000	21.283753
207.000000	21.710286
206.000000	22.232960
205.000000	22.699052
204.000000	23.112948
203.000000	23.350673
202.000000	23.740441
201.000000	24.265804
200.000000	24.654042
