PE UV       SUBTECH     SPECTRUM    ASCII       PEDS        4.00        
   -1
RDAgneauUK 52.Sample.asc
18/03/02
17:27:13.00
18/03/02
17:27:13.00
Administrator

200.000000
1
Lambda 750
750N8071901
PerkinElmer UV WinLab 6.0.4.0738 / 1.61.00 Lambda 900

0
0
3350/servo 860.8/2
0
0
UV/VIS
1
1
1
CommonBeamDepol,150mm sphere / downward view
0
0
0
0
Program
Program
3350/servo 860.8/2
3350/0.2 860.8/0.2
3350/0.2 860.8/0.2
0
1
 
 
 
0
 
860.8
319.2
860.8
Front
100
on
 
 
0
0
0
 
0
 
 
 
0
 
 
0
0
0
0
0
 
 
 
 
0
0


0
0
#HDR
-1
-1
#GR
nm
%R
1.0
0.0
2350.000000
-1.000000
2151
8
72.401143
15.794956
#DATA
2350.000000	42.268969
2349.000000	42.204670
2348.000000	42.190247
2347.000000	42.992249
2346.000000	42.788052
2345.000000	42.703127
2344.000000	42.657641
2343.000000	42.294515
2342.000000	42.324469
2341.000000	42.554046
2340.000000	42.636551
2339.000000	43.095661
2338.000000	42.855903
2337.000000	42.447607
2336.000000	42.764796
2335.000000	43.050212
2334.000000	43.186403
2333.000000	43.009288
2332.000000	43.063838
2331.000000	42.915626
2330.000000	43.062783
2329.000000	42.892539
2328.000000	42.675174
2327.000000	43.074329
2326.000000	43.139470
2325.000000	42.872675
2324.000000	42.855426
2323.000000	42.506551
2322.000000	42.602749
2321.000000	42.660376
2320.000000	42.660972
2319.000000	42.234171
2318.000000	42.398566
2317.000000	42.252650
2316.000000	42.239063
2315.000000	42.143196
2314.000000	42.148972
2313.000000	42.068433
2312.000000	42.134939
2311.000000	42.174214
2310.000000	42.033780
2309.000000	42.078262
2308.000000	41.821877
2307.000000	41.689797
2306.000000	41.617740
2305.000000	41.556296
2304.000000	41.428746
2303.000000	41.484327
2302.000000	41.451536
2301.000000	41.211213
2300.000000	41.276867
2299.000000	41.045270
2298.000000	40.786347
2297.000000	40.512919
2296.000000	40.755071
2295.000000	40.722939
2294.000000	40.323815
2293.000000	40.345248
2292.000000	40.444460
2291.000000	40.127124
2290.000000	40.253356
2289.000000	40.064202
2288.000000	40.178481
2287.000000	40.297023
2286.000000	40.098883
2285.000000	40.001332
2284.000000	40.000323
2283.000000	39.900200
2282.000000	39.800674
2281.000000	39.911831
2280.000000	39.729957
2279.000000	39.832171
2278.000000	39.912035
2277.000000	39.744125
2276.000000	39.843248
2275.000000	39.880047
2274.000000	39.825516
2273.000000	40.040286
2272.000000	40.145364
2271.000000	40.001778
2270.000000	40.114324
2269.000000	40.271410
2268.000000	40.294911
2267.000000	40.394125
2266.000000	40.473464
2265.000000	40.643526
2264.000000	40.693829
2263.000000	40.827389
2262.000000	40.837276
2261.000000	40.855825
2260.000000	41.192695
2259.000000	41.447704
2258.000000	41.674253
2257.000000	41.908798
2256.000000	41.996934
2255.000000	42.072122
2254.000000	42.249459
2253.000000	42.507763
2252.000000	42.739268
2251.000000	43.059039
2250.000000	43.322887
2249.000000	43.372550
2248.000000	43.548860
2247.000000	43.750367
2246.000000	43.998329
2245.000000	44.177187
2244.000000	44.376054
2243.000000	44.638410
2242.000000	44.826582
2241.000000	44.892132
2240.000000	45.030361
2239.000000	45.265641
2238.000000	45.394980
2237.000000	45.565289
2236.000000	45.733460
2235.000000	45.731886
2234.000000	45.678157
2233.000000	45.773174
2232.000000	45.921486
2231.000000	46.004142
2230.000000	46.084376
2229.000000	46.192531
2228.000000	46.280795
2227.000000	46.292305
2226.000000	46.259396
2225.000000	46.280859
2224.000000	46.185242
2223.000000	46.073660
2222.000000	46.198766
2221.000000	46.179985
2220.000000	46.184799
2219.000000	46.056966
2218.000000	45.944437
2217.000000	45.882505
2216.000000	45.831650
2215.000000	45.826037
2214.000000	45.878489
2213.000000	45.916966
2212.000000	45.839027
2211.000000	45.719698
2210.000000	45.644008
2209.000000	45.524210
2208.000000	45.429306
2207.000000	45.455252
2206.000000	45.520016
2205.000000	45.421876
2204.000000	45.278818
2203.000000	45.155863
2202.000000	45.075773
2201.000000	45.067378
2200.000000	44.991292
2199.000000	44.889937
2198.000000	44.969028
2197.000000	44.929609
2196.000000	44.848939
2195.000000	44.652117
2194.000000	44.425400
2193.000000	44.355844
2192.000000	44.431913
2191.000000	44.383795
2190.000000	44.421194
2189.000000	44.175650
2188.000000	43.974889
2187.000000	44.086916
2186.000000	44.059076
2185.000000	44.087650
2184.000000	43.933061
2183.000000	43.967733
2182.000000	43.907934
2181.000000	43.882540
2180.000000	43.746011
2179.000000	43.731887
2178.000000	43.755665
2177.000000	43.778848
2176.000000	43.760359
2175.000000	43.788011
2174.000000	43.994342
2173.000000	43.977150
2172.000000	43.916733
2171.000000	43.994691
2170.000000	43.928726
2169.000000	44.163276
2168.000000	44.215313
2167.000000	44.253505
2166.000000	44.333399
2165.000000	44.448225
2164.000000	44.464167
2163.000000	44.623293
2162.000000	44.717499
2161.000000	44.825182
2160.000000	45.020600
2159.000000	45.248255
2158.000000	45.294427
2157.000000	45.414395
2156.000000	45.770028
2155.000000	45.870664
2154.000000	46.011354
2153.000000	46.343571
2152.000000	46.405800
2151.000000	46.548462
2150.000000	46.527617
2149.000000	46.635552
2148.000000	46.745165
2147.000000	47.090386
2146.000000	47.158729
2145.000000	47.321015
2144.000000	47.584092
2143.000000	47.594397
2142.000000	47.697055
2141.000000	47.999300
2140.000000	48.163082
2139.000000	48.175207
2138.000000	48.619594
2137.000000	48.421054
2136.000000	48.751121
2135.000000	48.834248
2134.000000	48.879242
2133.000000	48.928981
2132.000000	49.322223
2131.000000	49.482173
2130.000000	49.504625
2129.000000	49.446513
2128.000000	49.462970
2127.000000	49.609479
2126.000000	49.522744
2125.000000	49.532037
2124.000000	49.636467
2123.000000	49.773979
2122.000000	49.736949
2121.000000	49.820367
2120.000000	49.805159
2119.000000	49.902102
2118.000000	49.984961
2117.000000	50.039697
2116.000000	50.022423
2115.000000	50.139764
2114.000000	50.085379
2113.000000	50.162797
2112.000000	50.329163
2111.000000	50.160255
2110.000000	50.141435
2109.000000	50.088645
2108.000000	50.217511
2107.000000	50.424789
2106.000000	50.275795
2105.000000	50.250759
2104.000000	50.272751
2103.000000	50.461767
2102.000000	50.557885
2101.000000	50.365319
2100.000000	50.617881
2099.000000	50.458562
2098.000000	50.255369
2097.000000	50.331390
2096.000000	50.380926
2095.000000	50.481310
2094.000000	50.429177
2093.000000	50.449009
2092.000000	50.447277
2091.000000	50.375736
2090.000000	50.345485
2089.000000	50.387466
2088.000000	50.302852
2087.000000	50.220976
2086.000000	50.222905
2085.000000	50.181564
2084.000000	50.070585
2083.000000	50.091915
2082.000000	50.033559
2081.000000	49.967531
2080.000000	49.890511
2079.000000	49.864705
2078.000000	49.760446
2077.000000	49.700346
2076.000000	49.577949
2075.000000	49.480743
2074.000000	49.337888
2073.000000	49.270504
2072.000000	49.184019
2071.000000	49.092454
2070.000000	49.031969
2069.000000	48.889888
2068.000000	48.726295
2067.000000	48.544848
2066.000000	48.417340
2065.000000	48.287653
2064.000000	48.094654
2063.000000	47.915825
2062.000000	47.751800
2061.000000	47.622583
2060.000000	47.413331
2059.000000	47.325257
2058.000000	47.194497
2057.000000	46.995401
2056.000000	46.861359
2055.000000	46.713969
2054.000000	46.612288
2053.000000	46.448985
2052.000000	46.298147
2051.000000	46.178139
2050.000000	46.102212
2049.000000	45.997931
2048.000000	45.909567
2047.000000	45.839754
2046.000000	45.701581
2045.000000	45.625428
2044.000000	45.626877
2043.000000	45.611518
2042.000000	45.567717
2041.000000	45.553563
2040.000000	45.599002
2039.000000	45.643141
2038.000000	45.683827
2037.000000	45.697505
2036.000000	45.743224
2035.000000	45.856071
2034.000000	45.952757
2033.000000	46.056098
2032.000000	46.177679
2031.000000	46.281650
2030.000000	46.414511
2029.000000	46.565362
2028.000000	46.684532
2027.000000	46.798473
2026.000000	46.980765
2025.000000	47.087687
2024.000000	47.141477
2023.000000	47.283614
2022.000000	47.401723
2021.000000	47.470073
2020.000000	47.569586
2019.000000	47.640210
2018.000000	47.699283
2017.000000	47.742598
2016.000000	47.715905
2015.000000	47.758197
2014.000000	47.800772
2013.000000	47.781435
2012.000000	47.772501
2011.000000	47.797793
2010.000000	47.770776
2009.000000	47.731195
2008.000000	47.709127
2007.000000	47.637594
2006.000000	47.532736
2005.000000	47.489210
2004.000000	47.463339
2003.000000	47.401899
2002.000000	47.331141
2001.000000	47.258185
2000.000000	47.192765
1999.000000	47.106243
1998.000000	47.006023
1997.000000	46.878896
1996.000000	46.790723
1995.000000	46.676138
1994.000000	46.575512
1993.000000	46.481025
1992.000000	46.389548
1991.000000	46.265672
1990.000000	46.206366
1989.000000	46.107120
1988.000000	46.040742
1987.000000	45.921697
1986.000000	45.800071
1985.000000	45.723619
1984.000000	45.606245
1983.000000	45.494282
1982.000000	45.410816
1981.000000	45.366819
1980.000000	45.219626
1979.000000	45.130556
1978.000000	45.060519
1977.000000	44.913630
1976.000000	44.792237
1975.000000	44.724382
1974.000000	44.590433
1973.000000	44.466543
1972.000000	44.381182
1971.000000	44.252333
1970.000000	44.167561
1969.000000	44.073610
1968.000000	44.022714
1967.000000	43.923549
1966.000000	43.814546
1965.000000	43.755686
1964.000000	43.649539
1963.000000	43.571572
1962.000000	43.434725
1961.000000	43.323572
1960.000000	43.244648
1959.000000	43.129764
1958.000000	43.004990
1957.000000	42.947574
1956.000000	42.867812
1955.000000	42.786225
1954.000000	42.724345
1953.000000	42.615901
1952.000000	42.568543
1951.000000	42.479972
1950.000000	42.493853
1949.000000	42.403529
1948.000000	42.319525
1947.000000	42.325523
1946.000000	42.346070
1945.000000	42.248134
1944.000000	42.235352
1943.000000	42.238002
1942.000000	42.240652
1941.000000	42.261307
1940.000000	42.319521
1939.000000	42.390746
1938.000000	42.416660
1937.000000	42.533265
1936.000000	42.634306
1935.000000	42.674325
1934.000000	42.788529
1933.000000	42.923633
1932.000000	43.109095
1931.000000	43.299795
1930.000000	43.403977
1929.000000	43.610136
1928.000000	43.855269
1927.000000	44.012394
1926.000000	44.216772
1925.000000	44.434604
1924.000000	44.667693
1923.000000	44.947654
1922.000000	45.283116
1921.000000	45.492351
1920.000000	45.713711
1919.000000	45.989469
1918.000000	46.301753
1917.000000	46.682824
1916.000000	46.936719
1915.000000	47.399083
1914.000000	47.777899
1913.000000	48.056383
1912.000000	48.446047
1911.000000	48.811644
1910.000000	49.120373
1909.000000	49.543603
1908.000000	49.953346
1907.000000	50.342111
1906.000000	50.773218
1905.000000	51.245580
1904.000000	51.664321
1903.000000	52.058658
1902.000000	52.509872
1901.000000	53.054766
1900.000000	53.329204
1899.000000	53.844612
1898.000000	54.324765
1897.000000	54.744718
1896.000000	55.096520
1895.000000	55.529103
1894.000000	55.972218
1893.000000	56.348500
1892.000000	56.757337
1891.000000	57.128187
1890.000000	57.519869
1889.000000	57.918492
1888.000000	58.206544
1887.000000	58.586644
1886.000000	58.905016
1885.000000	59.206231
1884.000000	59.510986
1883.000000	59.809102
1882.000000	60.057115
1881.000000	60.335307
1880.000000	60.595448
1879.000000	60.839360
1878.000000	61.065928
1877.000000	61.339529
1876.000000	61.477655
1875.000000	61.656601
1874.000000	61.867039
1873.000000	62.080827
1872.000000	62.241066
1871.000000	62.326258
1870.000000	62.467182
1869.000000	62.611897
1868.000000	62.761617
1867.000000	62.775850
1866.000000	62.845396
1865.000000	62.921555
1864.000000	63.035678
1863.000000	63.045921
1862.000000	63.080787
1861.000000	63.165535
1860.000000	63.204388
1859.000000	63.264898
1858.000000	63.229767
1857.000000	63.291253
1856.000000	63.332127
1855.000000	63.347332
1854.000000	63.399837
1853.000000	63.395080
1852.000000	63.379439
1851.000000	63.404659
1850.000000	63.402361
1849.000000	63.418232
1848.000000	63.402609
1847.000000	63.431230
1846.000000	63.433253
1845.000000	63.356291
1844.000000	63.344061
1843.000000	63.288967
1842.000000	63.300066
1841.000000	63.313884
1840.000000	63.247996
1839.000000	63.217164
1838.000000	63.247511
1837.000000	63.203654
1836.000000	63.149168
1835.000000	63.153967
1834.000000	63.099600
1833.000000	63.068750
1832.000000	63.074406
1831.000000	63.002264
1830.000000	62.963780
1829.000000	62.931792
1828.000000	62.904237
1827.000000	62.871388
1826.000000	62.858022
1825.000000	62.833437
1824.000000	62.822383
1823.000000	62.797644
1822.000000	62.777387
1821.000000	62.747211
1820.000000	62.690272
1819.000000	62.677158
1818.000000	62.676202
1817.000000	62.656766
1816.000000	62.598949
1815.000000	62.579661
1814.000000	62.554287
1813.000000	62.500950
1812.000000	62.472671
1811.000000	62.465649
1810.000000	62.455118
1809.000000	62.421729
1808.000000	62.382900
1807.000000	62.359436
1806.000000	62.353306
1805.000000	62.313506
1804.000000	62.278730
1803.000000	62.281182
1802.000000	62.253436
1801.000000	62.214423
1800.000000	62.215456
1799.000000	62.182118
1798.000000	62.125776
1797.000000	62.110277
1796.000000	62.109022
1795.000000	62.089820
1794.000000	62.087078
1793.000000	62.052308
1792.000000	62.010033
1791.000000	62.004465
1790.000000	61.979300
1789.000000	61.953096
1788.000000	61.933447
1787.000000	61.889769
1786.000000	61.858512
1785.000000	61.846428
1784.000000	61.832162
1783.000000	61.804496
1782.000000	61.754814
1781.000000	61.725901
1780.000000	61.674957
1779.000000	61.634592
1778.000000	61.619218
1777.000000	61.561896
1776.000000	61.547310
1775.000000	61.514873
1774.000000	61.440997
1773.000000	61.394216
1772.000000	61.349459
1771.000000	61.290663
1770.000000	61.263808
1769.000000	61.200057
1768.000000	61.133906
1767.000000	61.093178
1766.000000	61.015043
1765.000000	60.982041
1764.000000	60.960110
1763.000000	60.887893
1762.000000	60.872322
1761.000000	60.823896
1760.000000	60.761688
1759.000000	60.702322
1758.000000	60.655282
1757.000000	60.614425
1756.000000	60.564659
1755.000000	60.502170
1754.000000	60.420402
1753.000000	60.420649
1752.000000	60.372982
1751.000000	60.319701
1750.000000	60.260717
1749.000000	60.243798
1748.000000	60.186883
1747.000000	60.082578
1746.000000	60.055143
1745.000000	59.986002
1744.000000	59.940133
1743.000000	59.888667
1742.000000	59.829057
1741.000000	59.790392
1740.000000	59.751197
1739.000000	59.703172
1738.000000	59.655199
1737.000000	59.631569
1736.000000	59.607738
1735.000000	59.587845
1734.000000	59.596454
1733.000000	59.616588
1732.000000	59.577909
1731.000000	59.605710
1730.000000	59.573210
1729.000000	59.638549
1728.000000	59.681966
1727.000000	59.755793
1726.000000	59.760151
1725.000000	59.793494
1724.000000	59.864937
1723.000000	59.937808
1722.000000	60.016485
1721.000000	60.158369
1720.000000	60.233929
1719.000000	60.280344
1718.000000	60.354663
1717.000000	60.400162
1716.000000	60.526460
1715.000000	60.568212
1714.000000	60.659228
1713.000000	60.760494
1712.000000	60.810304
1711.000000	60.872210
1710.000000	60.933752
1709.000000	60.940050
1708.000000	61.016047
1707.000000	61.064278
1706.000000	61.103829
1705.000000	61.111032
1704.000000	61.123452
1703.000000	61.166696
1702.000000	61.137323
1701.000000	61.192165
1700.000000	61.193637
1699.000000	61.207631
1698.000000	61.209488
1697.000000	61.281867
1696.000000	61.321033
1695.000000	61.268731
1694.000000	61.335056
1693.000000	61.369424
1692.000000	61.378944
1691.000000	61.472243
1690.000000	61.531380
1689.000000	61.571705
1688.000000	61.695662
1687.000000	61.743600
1686.000000	61.836752
1685.000000	61.954299
1684.000000	62.111831
1683.000000	62.208328
1682.000000	62.319722
1681.000000	62.480623
1680.000000	62.576770
1679.000000	62.737035
1678.000000	62.879035
1677.000000	63.009235
1676.000000	63.160882
1675.000000	63.304457
1674.000000	63.440843
1673.000000	63.597910
1672.000000	63.715371
1671.000000	63.837587
1670.000000	63.973858
1669.000000	64.146718
1668.000000	64.227844
1667.000000	64.356984
1666.000000	64.437565
1665.000000	64.518760
1664.000000	64.582620
1663.000000	64.678075
1662.000000	64.745426
1661.000000	64.805368
1660.000000	64.839056
1659.000000	64.909225
1658.000000	64.959157
1657.000000	64.999098
1656.000000	65.042476
1655.000000	65.057519
1654.000000	65.084108
1653.000000	65.131923
1652.000000	65.165965
1651.000000	65.129082
1650.000000	65.119818
1649.000000	65.153548
1648.000000	65.156279
1647.000000	65.158382
1646.000000	65.149380
1645.000000	65.143887
1644.000000	65.107202
1643.000000	65.090046
1642.000000	65.105464
1641.000000	65.072071
1640.000000	65.051296
1639.000000	65.042061
1638.000000	65.010580
1637.000000	64.982920
1636.000000	64.957207
1635.000000	64.931059
1634.000000	64.904928
1633.000000	64.865623
1632.000000	64.850505
1631.000000	64.833441
1630.000000	64.794816
1629.000000	64.773136
1628.000000	64.735222
1627.000000	64.704506
1626.000000	64.685047
1625.000000	64.641467
1624.000000	64.603296
1623.000000	64.581696
1622.000000	64.546130
1621.000000	64.491909
1620.000000	64.471041
1619.000000	64.434587
1618.000000	64.372896
1617.000000	64.330505
1616.000000	64.297922
1615.000000	64.265556
1614.000000	64.233372
1613.000000	64.180960
1612.000000	64.144873
1611.000000	64.115829
1610.000000	64.074336
1609.000000	64.017716
1608.000000	63.972821
1607.000000	63.915478
1606.000000	63.860887
1605.000000	63.805584
1604.000000	63.760905
1603.000000	63.715915
1602.000000	63.670813
1601.000000	63.626280
1600.000000	63.594223
1599.000000	63.540950
1598.000000	63.474160
1597.000000	63.443398
1596.000000	63.402289
1595.000000	63.350933
1594.000000	63.307633
1593.000000	63.270213
1592.000000	63.229728
1591.000000	63.184229
1590.000000	63.133433
1589.000000	63.083598
1588.000000	63.074652
1587.000000	63.033893
1586.000000	62.975572
1585.000000	62.938174
1584.000000	62.897626
1583.000000	62.867887
1582.000000	62.827588
1581.000000	62.783235
1580.000000	62.757466
1579.000000	62.735231
1578.000000	62.720791
1577.000000	62.678077
1576.000000	62.627324
1575.000000	62.594608
1574.000000	62.553212
1573.000000	62.521408
1572.000000	62.507431
1571.000000	62.456441
1570.000000	62.424605
1569.000000	62.407546
1568.000000	62.381100
1567.000000	62.329553
1566.000000	62.298073
1565.000000	62.290713
1564.000000	62.271118
1563.000000	62.249877
1562.000000	62.228269
1561.000000	62.207119
1560.000000	62.188897
1559.000000	62.176134
1558.000000	62.164905
1557.000000	62.159004
1556.000000	62.141659
1555.000000	62.131013
1554.000000	62.098303
1553.000000	62.068442
1552.000000	62.068194
1551.000000	62.030848
1550.000000	62.004299
1549.000000	61.979320
1548.000000	61.958254
1547.000000	61.911685
1546.000000	61.871240
1545.000000	61.827027
1544.000000	61.763583
1543.000000	61.725567
1542.000000	61.693556
1541.000000	61.609249
1540.000000	61.550104
1539.000000	61.469827
1538.000000	61.409976
1537.000000	61.325709
1536.000000	61.255354
1535.000000	61.179916
1534.000000	61.124921
1533.000000	61.060436
1532.000000	60.971921
1531.000000	60.892335
1530.000000	60.832308
1529.000000	60.756666
1528.000000	60.692688
1527.000000	60.652030
1526.000000	60.583945
1525.000000	60.518138
1524.000000	60.458034
1523.000000	60.387167
1522.000000	60.351559
1521.000000	60.299787
1520.000000	60.270230
1519.000000	60.206415
1518.000000	60.174812
1517.000000	60.146548
1516.000000	60.104040
1515.000000	60.052930
1514.000000	60.033718
1513.000000	59.974243
1512.000000	59.968693
1511.000000	59.945367
1510.000000	59.916168
1509.000000	59.923541
1508.000000	59.875987
1507.000000	59.864175
1506.000000	59.853008
1505.000000	59.830339
1504.000000	59.851655
1503.000000	59.836007
1502.000000	59.816235
1501.000000	59.817557
1500.000000	59.812161
1499.000000	59.811513
1498.000000	59.827662
1497.000000	59.833204
1496.000000	59.862385
1495.000000	59.886363
1494.000000	59.902040
1493.000000	59.914701
1492.000000	59.964281
1491.000000	60.013244
1490.000000	60.038373
1489.000000	60.102738
1488.000000	60.153457
1487.000000	60.207246
1486.000000	60.231288
1485.000000	60.313848
1484.000000	60.386810
1483.000000	60.460909
1482.000000	60.502334
1481.000000	60.602368
1480.000000	60.679419
1479.000000	60.728900
1478.000000	60.800768
1477.000000	60.856082
1476.000000	60.931863
1475.000000	60.977256
1474.000000	61.062519
1473.000000	61.119938
1472.000000	61.188638
1471.000000	61.242860
1470.000000	61.322393
1469.000000	61.372646
1468.000000	61.418188
1467.000000	61.484542
1466.000000	61.521762
1465.000000	61.569522
1464.000000	61.634972
1463.000000	61.672849
1462.000000	61.714843
1461.000000	61.738655
1460.000000	61.798815
1459.000000	61.854101
1458.000000	61.898048
1457.000000	61.946397
1456.000000	61.993824
1455.000000	62.072806
1454.000000	62.111882
1453.000000	62.141442
1452.000000	62.203679
1451.000000	62.259695
1450.000000	62.311048
1449.000000	62.370414
1448.000000	62.404414
1447.000000	62.480939
1446.000000	62.537240
1445.000000	62.569677
1444.000000	62.653143
1443.000000	62.746523
1442.000000	62.799596
1441.000000	62.855879
1440.000000	62.933708
1439.000000	62.998032
1438.000000	63.081698
1437.000000	63.157106
1436.000000	63.228509
1435.000000	63.302439
1434.000000	63.374544
1433.000000	63.450105
1432.000000	63.541600
1431.000000	63.627855
1430.000000	63.718152
1429.000000	63.797369
1428.000000	63.891938
1427.000000	63.998826
1426.000000	64.101755
1425.000000	64.212232
1424.000000	64.304443
1423.000000	64.431214
1422.000000	64.531942
1421.000000	64.635146
1420.000000	64.741102
1419.000000	64.852852
1418.000000	64.999590
1417.000000	65.114669
1416.000000	65.219865
1415.000000	65.334405
1414.000000	65.461348
1413.000000	65.585916
1412.000000	65.708457
1411.000000	65.833784
1410.000000	65.966784
1409.000000	66.085163
1408.000000	66.203663
1407.000000	66.326699
1406.000000	66.453364
1405.000000	66.571017
1404.000000	66.684906
1403.000000	66.796336
1402.000000	66.902898
1401.000000	67.003522
1400.000000	67.099415
1399.000000	67.223505
1398.000000	67.331033
1397.000000	67.423701
1396.000000	67.516569
1395.000000	67.612677
1394.000000	67.712948
1393.000000	67.798003
1392.000000	67.897103
1391.000000	67.991685
1390.000000	68.064687
1389.000000	68.135657
1388.000000	68.211067
1387.000000	68.287454
1386.000000	68.374513
1385.000000	68.454979
1384.000000	68.506165
1383.000000	68.564430
1382.000000	68.637746
1381.000000	68.691415
1380.000000	68.734434
1379.000000	68.780140
1378.000000	68.839573
1377.000000	68.896808
1376.000000	68.957772
1375.000000	68.991273
1374.000000	69.017124
1373.000000	69.066560
1372.000000	69.095634
1371.000000	69.135131
1370.000000	69.189861
1369.000000	69.210415
1368.000000	69.228086
1367.000000	69.264479
1366.000000	69.307448
1365.000000	69.338102
1364.000000	69.374925
1363.000000	69.426006
1362.000000	69.463352
1361.000000	69.496216
1360.000000	69.529312
1359.000000	69.562346
1358.000000	69.590908
1357.000000	69.651149
1356.000000	69.703895
1355.000000	69.729903
1354.000000	69.778411
1353.000000	69.810289
1352.000000	69.858344
1351.000000	69.901878
1350.000000	69.935308
1349.000000	69.973316
1348.000000	70.009504
1347.000000	70.053158
1346.000000	70.094274
1345.000000	70.125005
1344.000000	70.148433
1343.000000	70.187789
1342.000000	70.234623
1341.000000	70.258036
1340.000000	70.317923
1339.000000	70.343596
1338.000000	70.366962
1337.000000	70.391568
1336.000000	70.416781
1335.000000	70.440411
1334.000000	70.460950
1333.000000	70.486030
1332.000000	70.526641
1331.000000	70.523351
1330.000000	70.541419
1329.000000	70.591354
1328.000000	70.624734
1327.000000	70.691512
1326.000000	70.686832
1325.000000	70.668433
1324.000000	70.664407
1323.000000	70.703355
1322.000000	70.705754
1321.000000	70.714944
1320.000000	70.707944
1319.000000	70.690423
1318.000000	70.727971
1317.000000	70.747881
1316.000000	70.773224
1315.000000	70.765631
1314.000000	70.771757
1313.000000	70.775528
1312.000000	70.766166
1311.000000	70.824717
1310.000000	70.840023
1309.000000	70.810101
1308.000000	70.816067
1307.000000	70.800968
1306.000000	70.820419
1305.000000	70.836157
1304.000000	70.858398
1303.000000	70.863808
1302.000000	70.860143
1301.000000	70.861503
1300.000000	70.864520
1299.000000	70.863575
1298.000000	70.865110
1297.000000	70.866275
1296.000000	70.869258
1295.000000	70.862935
1294.000000	70.882916
1293.000000	70.887529
1292.000000	70.883989
1291.000000	70.867927
1290.000000	70.870217
1289.000000	70.892998
1288.000000	70.873992
1287.000000	70.849926
1286.000000	70.853323
1285.000000	70.856352
1284.000000	70.862474
1283.000000	70.856885
1282.000000	70.873425
1281.000000	70.855324
1280.000000	70.855804
1279.000000	70.855472
1278.000000	70.858095
1277.000000	70.856586
1276.000000	70.842870
1275.000000	70.836550
1274.000000	70.851593
1273.000000	70.865411
1272.000000	70.850832
1271.000000	70.841994
1270.000000	70.869954
1269.000000	70.871124
1268.000000	70.853245
1267.000000	70.887044
1266.000000	70.857502
1265.000000	70.881703
1264.000000	70.902455
1263.000000	70.889398
1262.000000	70.884045
1261.000000	70.900701
1260.000000	70.912720
1259.000000	70.917720
1258.000000	70.937210
1257.000000	70.926325
1256.000000	70.944261
1255.000000	70.913782
1254.000000	70.945583
1253.000000	70.937618
1252.000000	70.956792
1251.000000	70.953805
1250.000000	70.955642
1249.000000	70.951929
1248.000000	70.941180
1247.000000	70.927135
1246.000000	70.943793
1245.000000	70.942776
1244.000000	70.929495
1243.000000	70.918160
1242.000000	70.935207
1241.000000	70.922986
1240.000000	70.894938
1239.000000	70.869989
1238.000000	70.880894
1237.000000	70.871566
1236.000000	70.872915
1235.000000	70.843354
1234.000000	70.817192
1233.000000	70.820496
1232.000000	70.812323
1231.000000	70.804280
1230.000000	70.787935
1229.000000	70.757726
1228.000000	70.762737
1227.000000	70.756578
1226.000000	70.727443
1225.000000	70.718669
1224.000000	70.712260
1223.000000	70.713437
1222.000000	70.695994
1221.000000	70.664033
1220.000000	70.650850
1219.000000	70.627118
1218.000000	70.620256
1217.000000	70.583009
1216.000000	70.585886
1215.000000	70.560586
1214.000000	70.523752
1213.000000	70.543959
1212.000000	70.503839
1211.000000	70.489409
1210.000000	70.482397
1209.000000	70.476522
1208.000000	70.425497
1207.000000	70.413437
1206.000000	70.406445
1205.000000	70.358425
1204.000000	70.351144
1203.000000	70.342409
1202.000000	70.307215
1201.000000	70.286546
1200.000000	70.289830
1199.000000	70.264121
1198.000000	70.219462
1197.000000	70.198438
1196.000000	70.192002
1195.000000	70.203162
1194.000000	70.167084
1193.000000	70.151331
1192.000000	70.143010
1191.000000	70.136485
1190.000000	70.133583
1189.000000	70.103508
1188.000000	70.099424
1187.000000	70.096234
1186.000000	70.079081
1185.000000	70.093082
1184.000000	70.108344
1183.000000	70.120732
1182.000000	70.136486
1181.000000	70.143545
1180.000000	70.156788
1179.000000	70.177458
1178.000000	70.198989
1177.000000	70.216232
1176.000000	70.244735
1175.000000	70.289050
1174.000000	70.315550
1173.000000	70.336975
1172.000000	70.371427
1171.000000	70.406926
1170.000000	70.447172
1169.000000	70.486779
1168.000000	70.509172
1167.000000	70.561956
1166.000000	70.619099
1165.000000	70.653716
1164.000000	70.705854
1163.000000	70.749663
1162.000000	70.780975
1161.000000	70.811160
1160.000000	70.845314
1159.000000	70.901423
1158.000000	70.964354
1157.000000	71.003768
1156.000000	71.027715
1155.000000	71.071811
1154.000000	71.120986
1153.000000	71.157767
1152.000000	71.180473
1151.000000	71.208842
1150.000000	71.244206
1149.000000	71.275985
1148.000000	71.312418
1147.000000	71.334728
1146.000000	71.352079
1145.000000	71.379138
1144.000000	71.405782
1143.000000	71.445625
1142.000000	71.474994
1141.000000	71.485213
1140.000000	71.504142
1139.000000	71.534999
1138.000000	71.552168
1137.000000	71.572182
1136.000000	71.604904
1135.000000	71.640953
1134.000000	71.660538
1133.000000	71.679456
1132.000000	71.690978
1131.000000	71.707637
1130.000000	71.725136
1129.000000	71.745588
1128.000000	71.750276
1127.000000	71.765612
1126.000000	71.767805
1125.000000	71.788045
1124.000000	71.813252
1123.000000	71.830918
1122.000000	71.838425
1121.000000	71.844766
1120.000000	71.842472
1119.000000	71.845726
1118.000000	71.851680
1117.000000	71.860043
1116.000000	71.873343
1115.000000	71.872663
1114.000000	71.874304
1113.000000	71.899333
1112.000000	71.902044
1111.000000	71.881732
1110.000000	71.867038
1109.000000	71.880016
1108.000000	71.908822
1107.000000	71.910291
1106.000000	71.904249
1105.000000	71.913544
1104.000000	71.917163
1103.000000	71.927763
1102.000000	71.920099
1101.000000	71.920969
1100.000000	71.912529
1099.000000	71.907764
1098.000000	71.923292
1097.000000	71.941682
1096.000000	71.936736
1095.000000	71.933142
1094.000000	71.941867
1093.000000	71.941583
1092.000000	71.923335
1091.000000	71.933621
1090.000000	71.931008
1089.000000	71.940252
1088.000000	71.933900
1087.000000	71.941719
1086.000000	71.931724
1085.000000	71.935274
1084.000000	71.942937
1083.000000	71.931315
1082.000000	71.940218
1081.000000	71.945818
1080.000000	71.915196
1079.000000	71.924360
1078.000000	71.916943
1077.000000	71.918737
1076.000000	71.939680
1075.000000	71.926515
1074.000000	71.903921
1073.000000	71.921740
1072.000000	71.925547
1071.000000	71.917228
1070.000000	71.905284
1069.000000	71.920436
1068.000000	71.894759
1067.000000	71.914213
1066.000000	71.887044
1065.000000	71.914283
1064.000000	71.894474
1063.000000	71.882766
1062.000000	71.895030
1061.000000	71.887927
1060.000000	71.873022
1059.000000	71.865144
1058.000000	71.871820
1057.000000	71.877472
1056.000000	71.843943
1055.000000	71.859714
1054.000000	71.860620
1053.000000	71.864950
1052.000000	71.866792
1051.000000	71.848895
1050.000000	71.832968
1049.000000	71.859485
1048.000000	71.847993
1047.000000	71.852858
1046.000000	71.826491
1045.000000	71.824226
1044.000000	71.827142
1043.000000	71.809291
1042.000000	71.800852
1041.000000	71.778101
1040.000000	71.786734
1039.000000	71.797204
1038.000000	71.788716
1037.000000	71.786917
1036.000000	71.778675
1035.000000	71.796922
1034.000000	71.770024
1033.000000	71.781717
1032.000000	71.778604
1031.000000	71.780121
1030.000000	71.769732
1029.000000	71.773503
1028.000000	71.776756
1027.000000	71.783166
1026.000000	71.779443
1025.000000	71.767304
1024.000000	71.774389
1023.000000	71.787234
1022.000000	71.765836
1021.000000	71.763168
1020.000000	71.757337
1019.000000	71.759754
1018.000000	71.743003
1017.000000	71.754515
1016.000000	71.760211
1015.000000	71.732281
1014.000000	71.747398
1013.000000	71.732127
1012.000000	71.748384
1011.000000	71.742714
1010.000000	71.758351
1009.000000	71.755612
1008.000000	71.757381
1007.000000	71.755010
1006.000000	71.762968
1005.000000	71.756408
1004.000000	71.762227
1003.000000	71.764533
1002.000000	71.779508
1001.000000	71.771468
1000.000000	71.769856
999.000000	71.769219
998.000000	71.775937
997.000000	71.783344
996.000000	71.792400
995.000000	71.778769
994.000000	71.762927
993.000000	71.772611
992.000000	71.786864
991.000000	71.812304
990.000000	71.824830
989.000000	71.822707
988.000000	71.830086
987.000000	71.827333
986.000000	71.840463
985.000000	71.815474
984.000000	71.822421
983.000000	71.851642
982.000000	71.826823
981.000000	71.854088
980.000000	71.869153
979.000000	71.878187
978.000000	71.873955
977.000000	71.886901
976.000000	71.866007
975.000000	71.874363
974.000000	71.891719
973.000000	71.892122
972.000000	71.911221
971.000000	71.905281
970.000000	71.911647
969.000000	71.930426
968.000000	71.946081
967.000000	71.949043
966.000000	71.957765
965.000000	71.960843
964.000000	71.950337
963.000000	71.952811
962.000000	71.940379
961.000000	71.941023
960.000000	71.963388
959.000000	71.961806
958.000000	71.967409
957.000000	72.002862
956.000000	72.002899
955.000000	72.005871
954.000000	72.018898
953.000000	72.005768
952.000000	71.996899
951.000000	72.004773
950.000000	71.990487
949.000000	72.006180
948.000000	72.031338
947.000000	72.039465
946.000000	72.044809
945.000000	72.044247
944.000000	72.047615
943.000000	72.053674
942.000000	72.040844
941.000000	72.033719
940.000000	72.054391
939.000000	72.076355
938.000000	72.058536
937.000000	72.069436
936.000000	72.096211
935.000000	72.071675
934.000000	72.064523
933.000000	72.076846
932.000000	72.047561
931.000000	72.031432
930.000000	72.046980
929.000000	72.064454
928.000000	72.073933
927.000000	72.078273
926.000000	72.066685
925.000000	72.033715
924.000000	72.012459
923.000000	72.045867
922.000000	72.064063
921.000000	72.061569
920.000000	72.049077
919.000000	72.002619
918.000000	72.005127
917.000000	72.038420
916.000000	72.056884
915.000000	72.046315
914.000000	72.039731
913.000000	72.060321
912.000000	72.047780
911.000000	72.031357
910.000000	72.073208
909.000000	72.050423
908.000000	72.073657
907.000000	72.117156
906.000000	72.124956
905.000000	72.073894
904.000000	72.037236
903.000000	72.066702
902.000000	72.104525
901.000000	72.114913
900.000000	72.104174
899.000000	72.114281
898.000000	72.126547
897.000000	72.142196
896.000000	72.157712
895.000000	72.180954
894.000000	72.129062
893.000000	72.132383
892.000000	72.151697
891.000000	72.170699
890.000000	72.140418
889.000000	72.195845
888.000000	72.162663
887.000000	72.144033
886.000000	72.160405
885.000000	72.237771
884.000000	72.200045
883.000000	72.220124
882.000000	72.198643
881.000000	72.240761
880.000000	72.234238
879.000000	72.218802
878.000000	72.271024
877.000000	72.261665
876.000000	72.279021
875.000000	72.234630
874.000000	72.269130
873.000000	72.215606
872.000000	72.162623
871.000000	72.275596
870.000000	72.245110
869.000000	72.313156
868.000000	72.254877
867.000000	72.177161
866.000000	72.231772
865.000000	72.311934
864.000000	72.121196
863.000000	72.179160
862.000000	72.205344
861.000000	72.150342
860.000000	72.116469
859.000000	71.796711
858.000000	72.401143
857.000000	71.766036
856.000000	71.613402
855.000000	71.780946
854.000000	72.133004
853.000000	71.878185
852.000000	71.805815
851.000000	71.777197
850.000000	71.940121
849.000000	72.007076
848.000000	71.823176
847.000000	71.976415
846.000000	71.753401
845.000000	71.916082
844.000000	71.768599
843.000000	71.854965
842.000000	71.871471
841.000000	71.848207
840.000000	71.898842
839.000000	71.932686
838.000000	72.010382
837.000000	71.864201
836.000000	71.928377
835.000000	71.718093
834.000000	71.782155
833.000000	71.912219
832.000000	71.926065
831.000000	71.503999
830.000000	71.794343
829.000000	71.927615
828.000000	71.779103
827.000000	71.903505
826.000000	71.767580
825.000000	71.747290
824.000000	72.021904
823.000000	71.917934
822.000000	71.685408
821.000000	71.530746
820.000000	71.740015
819.000000	71.936002
818.000000	71.773808
817.000000	71.801075
816.000000	71.820239
815.000000	71.771175
814.000000	71.714824
813.000000	71.798148
812.000000	71.952313
811.000000	71.863142
810.000000	71.863475
809.000000	71.831897
808.000000	71.736671
807.000000	71.739186
806.000000	71.897689
805.000000	71.987057
804.000000	71.699799
803.000000	71.883203
802.000000	71.808025
801.000000	71.801519
800.000000	71.787933
799.000000	71.822920
798.000000	71.718589
797.000000	71.609799
796.000000	71.684896
795.000000	71.875154
794.000000	71.733493
793.000000	71.856860
792.000000	71.794881
791.000000	71.828768
790.000000	71.712553
789.000000	71.801474
788.000000	71.857362
787.000000	72.006115
786.000000	71.920168
785.000000	71.800212
784.000000	71.669952
783.000000	71.853914
782.000000	71.890354
781.000000	71.889795
780.000000	71.814655
779.000000	71.916957
778.000000	71.932839
777.000000	71.967893
776.000000	71.878824
775.000000	71.853287
774.000000	71.871016
773.000000	71.799575
772.000000	71.798423
771.000000	71.848855
770.000000	71.827612
769.000000	71.883061
768.000000	71.948960
767.000000	71.945069
766.000000	71.838130
765.000000	71.880399
764.000000	71.822244
763.000000	71.851738
762.000000	71.866296
761.000000	71.845641
760.000000	71.910333
759.000000	72.007924
758.000000	71.853695
757.000000	71.819026
756.000000	71.776709
755.000000	71.776230
754.000000	71.801004
753.000000	71.813218
752.000000	71.873449
751.000000	71.897014
750.000000	71.844680
749.000000	71.883287
748.000000	71.886235
747.000000	71.987542
746.000000	71.880997
745.000000	71.856086
744.000000	71.843867
743.000000	71.839651
742.000000	71.867933
741.000000	71.881111
740.000000	71.811478
739.000000	71.907358
738.000000	71.929128
737.000000	71.887105
736.000000	71.934598
735.000000	71.865813
734.000000	71.799995
733.000000	71.844389
732.000000	71.784262
731.000000	71.856460
730.000000	71.879419
729.000000	71.852881
728.000000	71.855126
727.000000	71.789186
726.000000	71.775187
725.000000	71.902198
724.000000	71.869987
723.000000	71.798303
722.000000	71.862668
721.000000	71.860337
720.000000	71.790438
719.000000	71.805839
718.000000	71.892995
717.000000	71.895774
716.000000	71.792676
715.000000	71.811319
714.000000	71.887474
713.000000	71.891743
712.000000	71.861223
711.000000	71.888129
710.000000	71.922916
709.000000	71.938842
708.000000	71.922242
707.000000	71.891566
706.000000	71.887803
705.000000	71.867306
704.000000	71.823499
703.000000	71.832417
702.000000	71.867379
701.000000	71.869852
700.000000	71.915392
699.000000	71.905068
698.000000	71.888416
697.000000	71.918439
696.000000	71.905297
695.000000	71.928774
694.000000	71.907552
693.000000	71.861169
692.000000	71.890628
691.000000	71.912526
690.000000	71.892221
689.000000	71.844789
688.000000	71.813187
687.000000	71.754089
686.000000	71.785660
685.000000	71.837327
684.000000	71.827851
683.000000	71.882974
682.000000	71.860090
681.000000	71.804264
680.000000	71.801866
679.000000	71.790930
678.000000	71.868615
677.000000	71.923481
676.000000	71.894368
675.000000	71.883058
674.000000	71.859344
673.000000	71.853595
672.000000	71.829234
671.000000	71.854831
670.000000	71.780120
669.000000	71.785119
668.000000	71.801398
667.000000	71.783880
666.000000	71.790467
665.000000	71.861624
664.000000	71.857219
663.000000	71.776216
662.000000	71.751808
661.000000	71.774914
660.000000	71.849235
659.000000	71.846421
658.000000	71.786296
657.000000	71.883590
656.000000	71.881476
655.000000	71.920264
654.000000	71.899948
653.000000	71.778655
652.000000	71.860233
651.000000	71.888234
650.000000	71.907653
649.000000	71.867821
648.000000	71.829671
647.000000	71.855225
646.000000	71.888125
645.000000	71.855896
644.000000	71.831921
643.000000	71.826461
642.000000	71.800517
641.000000	71.795035
640.000000	71.799580
639.000000	71.850957
638.000000	71.796545
637.000000	71.764580
636.000000	71.800876
635.000000	71.843798
634.000000	71.844681
633.000000	71.810115
632.000000	71.857134
631.000000	71.871601
630.000000	71.876900
629.000000	71.846631
628.000000	71.833835
627.000000	71.869434
626.000000	71.855108
625.000000	71.867454
624.000000	71.853147
623.000000	71.811731
622.000000	71.833131
621.000000	71.816795
620.000000	71.820544
619.000000	71.805427
618.000000	71.862444
617.000000	71.880069
616.000000	71.834808
615.000000	71.809526
614.000000	71.745150
613.000000	71.813718
612.000000	71.837408
611.000000	71.929456
610.000000	71.812862
609.000000	71.854150
608.000000	71.769248
607.000000	71.858030
606.000000	71.799138
605.000000	71.803268
604.000000	71.760760
603.000000	71.779115
602.000000	71.746125
601.000000	71.742112
600.000000	71.790487
599.000000	71.823483
598.000000	71.807922
597.000000	71.775590
596.000000	71.738591
595.000000	71.821946
594.000000	71.743373
593.000000	71.818813
592.000000	71.729033
591.000000	71.762700
590.000000	71.750993
589.000000	71.720928
588.000000	71.758205
587.000000	71.742602
586.000000	71.777948
585.000000	71.727197
584.000000	71.655896
583.000000	71.702332
582.000000	71.654871
581.000000	71.735613
580.000000	71.656811
579.000000	71.674610
578.000000	71.670476
577.000000	71.673329
576.000000	71.668153
575.000000	71.650469
574.000000	71.626656
573.000000	71.673532
572.000000	71.636337
571.000000	71.625555
570.000000	71.635532
569.000000	71.649763
568.000000	71.581874
567.000000	71.587323
566.000000	71.520059
565.000000	71.624775
564.000000	71.632448
563.000000	71.557488
562.000000	71.527744
561.000000	71.506293
560.000000	71.482375
559.000000	71.570023
558.000000	71.546943
557.000000	71.499455
556.000000	71.537711
555.000000	71.500758
554.000000	71.450079
553.000000	71.487697
552.000000	71.454408
551.000000	71.475170
550.000000	71.441948
549.000000	71.408898
548.000000	71.405861
547.000000	71.431968
546.000000	71.376764
545.000000	71.447106
544.000000	71.342523
543.000000	71.312462
542.000000	71.258512
541.000000	71.343860
540.000000	71.253079
539.000000	71.294357
538.000000	71.306923
537.000000	71.277303
536.000000	71.237254
535.000000	71.245266
534.000000	71.206049
533.000000	71.201777
532.000000	71.218002
531.000000	71.157020
530.000000	71.153410
529.000000	71.210601
528.000000	71.118337
527.000000	71.087754
526.000000	71.053304
525.000000	71.053219
524.000000	71.046045
523.000000	70.982877
522.000000	71.043292
521.000000	71.039860
520.000000	70.958116
519.000000	70.962608
518.000000	70.901818
517.000000	70.937307
516.000000	70.876282
515.000000	70.835785
514.000000	70.846946
513.000000	70.840093
512.000000	70.764533
511.000000	70.757592
510.000000	70.745459
509.000000	70.787874
508.000000	70.737215
507.000000	70.680033
506.000000	70.694135
505.000000	70.701184
504.000000	70.646709
503.000000	70.621340
502.000000	70.620367
501.000000	70.572192
500.000000	70.507817
499.000000	70.559284
498.000000	70.543691
497.000000	70.543462
496.000000	70.449201
495.000000	70.378875
494.000000	70.376897
493.000000	70.337890
492.000000	70.344461
491.000000	70.291925
490.000000	70.178534
489.000000	70.236675
488.000000	70.279832
487.000000	70.175313
486.000000	70.075843
485.000000	70.067441
484.000000	70.121265
483.000000	70.174482
482.000000	70.149899
481.000000	70.139130
480.000000	70.052418
479.000000	70.012806
478.000000	69.973207
477.000000	69.936188
476.000000	69.893919
475.000000	69.836576
474.000000	69.785050
473.000000	69.737191
472.000000	69.707903
471.000000	69.694730
470.000000	69.636755
469.000000	69.587391
468.000000	69.538319
467.000000	69.514422
466.000000	69.462051
465.000000	69.365787
464.000000	69.276401
463.000000	69.288482
462.000000	69.271818
461.000000	69.236507
460.000000	69.164631
459.000000	69.071144
458.000000	69.059140
457.000000	69.008727
456.000000	68.905604
455.000000	68.800267
454.000000	68.734770
453.000000	68.758715
452.000000	68.726335
451.000000	68.634150
450.000000	68.577260
449.000000	68.533433
448.000000	68.519982
447.000000	68.463245
446.000000	68.357452
445.000000	68.233239
444.000000	68.155631
443.000000	68.140380
442.000000	68.064611
441.000000	67.957255
440.000000	67.917419
439.000000	67.831477
438.000000	67.760821
437.000000	67.675037
436.000000	67.556449
435.000000	67.423109
434.000000	67.339815
433.000000	67.241013
432.000000	67.153652
431.000000	67.093649
430.000000	66.992061
429.000000	66.882967
428.000000	66.805524
427.000000	66.607027
426.000000	66.535710
425.000000	66.511695
424.000000	66.430977
423.000000	66.239379
422.000000	66.119647
421.000000	66.010415
420.000000	65.903065
419.000000	65.717827
418.000000	65.574274
417.000000	65.424813
416.000000	65.340783
415.000000	65.122940
414.000000	65.045279
413.000000	64.915160
412.000000	64.729552
411.000000	64.626928
410.000000	64.515808
409.000000	64.311582
408.000000	64.087421
407.000000	63.986946
406.000000	63.830687
405.000000	63.644669
404.000000	63.508162
403.000000	63.326222
402.000000	63.193752
401.000000	63.000746
400.000000	62.859833
399.000000	62.699233
398.000000	62.482449
397.000000	62.316727
396.000000	62.150223
395.000000	61.891194
394.000000	61.746255
393.000000	61.509554
392.000000	61.448926
391.000000	61.220362
390.000000	61.189945
389.000000	60.877717
388.000000	60.634847
387.000000	60.469580
386.000000	60.106852
385.000000	59.884121
384.000000	59.760060
383.000000	59.586465
382.000000	59.365565
381.000000	59.111801
380.000000	58.944433
379.000000	58.616284
378.000000	58.288157
377.000000	58.119765
376.000000	57.958495
375.000000	57.757471
374.000000	57.410471
373.000000	57.118985
372.000000	56.895344
371.000000	56.618838
370.000000	56.489822
369.000000	56.078321
368.000000	55.660881
367.000000	55.623839
366.000000	55.219731
365.000000	54.875957
364.000000	54.699652
363.000000	54.369744
362.000000	54.019532
361.000000	53.754197
360.000000	53.654764
359.000000	53.323627
358.000000	53.104868
357.000000	52.923466
356.000000	52.652019
355.000000	52.158628
354.000000	52.200839
353.000000	51.655820
352.000000	51.457335
351.000000	50.960889
350.000000	50.796966
349.000000	50.538859
348.000000	50.344352
347.000000	49.798153
346.000000	49.687351
345.000000	49.436940
344.000000	49.244353
343.000000	48.660284
342.000000	48.345869
341.000000	48.160796
340.000000	47.933962
339.000000	47.163366
338.000000	47.027841
337.000000	46.279304
336.000000	46.059258
335.000000	45.636681
334.000000	44.895858
333.000000	44.573046
332.000000	44.087609
331.000000	43.555000
330.000000	43.064103
329.000000	42.641752
328.000000	42.175799
327.000000	41.726177
326.000000	41.348837
325.000000	40.842672
324.000000	40.437095
323.000000	39.841898
322.000000	39.815486
321.000000	39.552570
320.000000	39.059535
319.000000	38.971920
318.000000	38.465905
317.000000	38.236665
316.000000	37.952681
315.000000	37.759473
314.000000	37.554399
313.000000	37.387317
312.000000	37.104496
311.000000	36.894039
310.000000	36.573179
309.000000	36.468029
308.000000	36.093461
307.000000	36.131859
306.000000	35.752255
305.000000	35.729889
304.000000	35.404361
303.000000	35.078918
302.000000	34.873741
301.000000	34.723473
300.000000	34.322338
299.000000	34.090081
298.000000	33.660704
297.000000	33.203027
296.000000	32.869556
295.000000	32.224306
294.000000	31.670279
293.000000	30.906422
292.000000	29.880801
291.000000	28.823836
290.000000	27.783448
289.000000	26.832937
288.000000	26.130669
287.000000	25.416549
286.000000	24.894961
285.000000	24.646186
284.000000	24.420317
283.000000	24.384537
282.000000	24.286408
281.000000	24.093703
280.000000	24.134697
279.000000	24.134438
278.000000	24.263481
277.000000	24.438037
276.000000	24.620224
275.000000	24.877661
274.000000	25.159915
273.000000	25.432020
272.000000	25.501387
271.000000	25.725562
270.000000	25.827440
269.000000	25.965939
268.000000	26.110780
267.000000	26.387259
266.000000	26.615837
265.000000	26.818468
264.000000	27.023568
263.000000	27.419282
262.000000	27.695018
261.000000	27.781829
260.000000	27.958823
259.000000	28.311374
258.000000	28.605055
257.000000	28.970385
256.000000	29.291327
255.000000	29.400124
254.000000	29.370551
253.000000	29.227141
252.000000	29.125132
251.000000	28.969512
250.000000	28.547135
249.000000	27.936520
248.000000	27.187159
247.000000	26.241423
246.000000	25.120671
245.000000	24.052412
244.000000	22.925664
243.000000	21.651716
242.000000	20.511352
241.000000	19.440834
240.000000	18.509783
239.000000	17.839883
238.000000	17.267834
237.000000	16.806615
236.000000	16.524118
235.000000	16.380432
234.000000	16.184360
233.000000	16.006554
232.000000	15.949204
231.000000	15.944820
230.000000	15.866387
229.000000	15.794956
228.000000	15.824375
227.000000	15.841209
226.000000	15.861168
225.000000	16.011339
224.000000	16.152661
223.000000	16.197660
222.000000	16.374236
221.000000	16.580056
220.000000	16.829053
219.000000	17.069072
218.000000	17.247213
217.000000	17.387454
216.000000	17.597268
215.000000	17.788517
214.000000	18.049822
213.000000	18.568554
212.000000	18.978856
211.000000	19.173334
210.000000	19.472183
209.000000	19.855687
208.000000	20.304641
207.000000	20.736299
206.000000	21.134411
205.000000	21.443476
204.000000	21.976338
203.000000	22.452841
202.000000	22.718542
201.000000	23.364071
200.000000	24.270317
