PE UV       SUBTECH     SPECTRUM    ASCII       PEDS        4.00        
   -1
RDAgneauUK 32.Sample.asc
18/03/02
17:07:01.00
18/03/02
17:07:01.00
Administrator

200.000000
1
Lambda 750
750N8071901
PerkinElmer UV WinLab 6.0.4.0738 / 1.61.00 Lambda 900

0
0
3350/servo 860.8/2
0
0
UV/VIS
1
1
1
CommonBeamDepol,150mm sphere / downward view
0
0
0
0
Program
Program
3350/servo 860.8/2
3350/0.2 860.8/0.2
3350/0.2 860.8/0.2
0
1
 
 
 
0
 
860.8
319.2
860.8
Front
100
on
 
 
0
0
0
 
0
 
 
 
0
 
 
0
0
0
0
0
 
 
 
 
0
0


0
0
#HDR
-1
-1
#GR
nm
%R
1.0
0.0
2350.000000
-1.000000
2151
8
72.747920
16.826957
#DATA
2350.000000	40.620650
2349.000000	40.754949
2348.000000	40.725993
2347.000000	41.443779
2346.000000	41.130652
2345.000000	41.288833
2344.000000	41.449732
2343.000000	40.923925
2342.000000	41.051443
2341.000000	41.233895
2340.000000	41.535151
2339.000000	41.682518
2338.000000	41.778998
2337.000000	41.474378
2336.000000	41.788815
2335.000000	41.897846
2334.000000	42.002827
2333.000000	41.783116
2332.000000	41.860999
2331.000000	41.999937
2330.000000	41.326905
2329.000000	41.567683
2328.000000	41.362426
2327.000000	41.337747
2326.000000	41.462599
2325.000000	41.317002
2324.000000	41.470041
2323.000000	41.447134
2322.000000	41.132748
2321.000000	41.455268
2320.000000	41.071031
2319.000000	41.265908
2318.000000	41.006562
2317.000000	41.025320
2316.000000	41.091559
2315.000000	40.931908
2314.000000	40.900502
2313.000000	40.942928
2312.000000	40.619189
2311.000000	40.777769
2310.000000	40.724014
2309.000000	40.610882
2308.000000	40.375573
2307.000000	40.499413
2306.000000	40.240923
2305.000000	40.033162
2304.000000	40.008621
2303.000000	40.319073
2302.000000	40.085046
2301.000000	39.677589
2300.000000	39.618604
2299.000000	39.538395
2298.000000	39.406350
2297.000000	39.395192
2296.000000	39.268037
2295.000000	39.266609
2294.000000	39.119860
2293.000000	38.961284
2292.000000	38.882195
2291.000000	38.971766
2290.000000	38.846360
2289.000000	38.740042
2288.000000	38.659157
2287.000000	38.780174
2286.000000	38.637533
2285.000000	38.429562
2284.000000	38.456161
2283.000000	38.451738
2282.000000	38.208651
2281.000000	38.493840
2280.000000	38.411396
2279.000000	38.359800
2278.000000	38.400727
2277.000000	38.373038
2276.000000	38.306591
2275.000000	38.474268
2274.000000	38.542160
2273.000000	38.602902
2272.000000	38.632414
2271.000000	38.466791
2270.000000	38.419363
2269.000000	38.685812
2268.000000	38.825214
2267.000000	38.841753
2266.000000	38.916780
2265.000000	39.108980
2264.000000	39.217358
2263.000000	39.287020
2262.000000	39.517830
2261.000000	39.789959
2260.000000	39.876972
2259.000000	39.894668
2258.000000	40.217692
2257.000000	40.460751
2256.000000	40.448843
2255.000000	40.642919
2254.000000	40.851910
2253.000000	41.115325
2252.000000	41.288547
2251.000000	41.479323
2250.000000	41.723048
2249.000000	41.912270
2248.000000	42.282927
2247.000000	42.612497
2246.000000	42.780415
2245.000000	42.949566
2244.000000	43.167058
2243.000000	43.430735
2242.000000	43.588601
2241.000000	43.506366
2240.000000	43.600590
2239.000000	43.895033
2238.000000	44.021967
2237.000000	44.115565
2236.000000	44.405301
2235.000000	44.552527
2234.000000	44.486269
2233.000000	44.533740
2232.000000	44.689645
2231.000000	44.778231
2230.000000	44.858206
2229.000000	44.855789
2228.000000	44.854609
2227.000000	45.041850
2226.000000	45.013995
2225.000000	44.842447
2224.000000	44.770082
2223.000000	44.876011
2222.000000	44.971324
2221.000000	44.935310
2220.000000	44.886098
2219.000000	44.874572
2218.000000	44.811867
2217.000000	44.753403
2216.000000	44.670135
2215.000000	44.603206
2214.000000	44.564187
2213.000000	44.646068
2212.000000	44.603291
2211.000000	44.357990
2210.000000	44.361448
2209.000000	44.253951
2208.000000	44.155339
2207.000000	44.138045
2206.000000	44.034862
2205.000000	43.962391
2204.000000	43.996515
2203.000000	43.886204
2202.000000	43.793317
2201.000000	43.760193
2200.000000	43.544947
2199.000000	43.439271
2198.000000	43.402044
2197.000000	43.506734
2196.000000	43.267979
2195.000000	43.203165
2194.000000	43.162545
2193.000000	42.928411
2192.000000	42.843324
2191.000000	42.919554
2190.000000	42.955794
2189.000000	42.784614
2188.000000	42.685044
2187.000000	42.600690
2186.000000	42.715626
2185.000000	42.674883
2184.000000	42.560976
2183.000000	42.579128
2182.000000	42.428839
2181.000000	42.369189
2180.000000	42.440754
2179.000000	42.432673
2178.000000	42.320306
2177.000000	42.243052
2176.000000	42.355266
2175.000000	42.488362
2174.000000	42.656276
2173.000000	42.540323
2172.000000	42.666016
2171.000000	42.647143
2170.000000	42.714632
2169.000000	42.583481
2168.000000	42.721737
2167.000000	42.862176
2166.000000	42.933991
2165.000000	43.014567
2164.000000	43.115245
2163.000000	43.173430
2162.000000	43.286780
2161.000000	43.678435
2160.000000	43.801400
2159.000000	43.761490
2158.000000	43.807366
2157.000000	43.966098
2156.000000	44.468135
2155.000000	44.452046
2154.000000	44.778534
2153.000000	44.792484
2152.000000	45.048827
2151.000000	45.304343
2150.000000	45.360055
2149.000000	45.425629
2148.000000	45.497297
2147.000000	45.927970
2146.000000	45.921879
2145.000000	46.204666
2144.000000	46.212511
2143.000000	46.254669
2142.000000	46.410258
2141.000000	46.804249
2140.000000	46.894908
2139.000000	47.082702
2138.000000	47.067770
2137.000000	47.400535
2136.000000	47.510989
2135.000000	47.477786
2134.000000	47.553477
2133.000000	47.600556
2132.000000	47.856226
2131.000000	48.093892
2130.000000	48.106368
2129.000000	48.114622
2128.000000	48.125124
2127.000000	48.386375
2126.000000	48.223975
2125.000000	48.378937
2124.000000	48.481496
2123.000000	48.528953
2122.000000	48.532517
2121.000000	48.611576
2120.000000	48.585014
2119.000000	48.727626
2118.000000	48.750650
2117.000000	48.788214
2116.000000	48.875824
2115.000000	48.957636
2114.000000	48.733895
2113.000000	48.811824
2112.000000	49.024209
2111.000000	48.903170
2110.000000	49.025168
2109.000000	49.155230
2108.000000	49.104837
2107.000000	49.060083
2106.000000	49.037214
2105.000000	49.063420
2104.000000	49.163610
2103.000000	49.114328
2102.000000	49.130727
2101.000000	49.158538
2100.000000	49.320426
2099.000000	49.244769
2098.000000	49.195304
2097.000000	49.239941
2096.000000	49.165310
2095.000000	49.143419
2094.000000	49.170211
2093.000000	49.193155
2092.000000	49.323231
2091.000000	49.266881
2090.000000	49.080756
2089.000000	49.161691
2088.000000	49.115539
2087.000000	48.998450
2086.000000	49.099602
2085.000000	49.047102
2084.000000	48.886148
2083.000000	48.808939
2082.000000	48.772241
2081.000000	48.717874
2080.000000	48.666210
2079.000000	48.716637
2078.000000	48.575587
2077.000000	48.512519
2076.000000	48.322637
2075.000000	48.209531
2074.000000	48.115574
2073.000000	48.026886
2072.000000	47.909605
2071.000000	47.828951
2070.000000	47.836281
2069.000000	47.608154
2068.000000	47.362707
2067.000000	47.214323
2066.000000	47.076027
2065.000000	46.936876
2064.000000	46.863708
2063.000000	46.681473
2062.000000	46.451880
2061.000000	46.295766
2060.000000	46.061371
2059.000000	45.940651
2058.000000	45.825785
2057.000000	45.611465
2056.000000	45.512485
2055.000000	45.362444
2054.000000	45.210465
2053.000000	45.088941
2052.000000	44.903239
2051.000000	44.759799
2050.000000	44.663717
2049.000000	44.594652
2048.000000	44.481506
2047.000000	44.387203
2046.000000	44.312272
2045.000000	44.229460
2044.000000	44.174406
2043.000000	44.198010
2042.000000	44.214718
2041.000000	44.167420
2040.000000	44.190056
2039.000000	44.236186
2038.000000	44.234068
2037.000000	44.245288
2036.000000	44.334365
2035.000000	44.535674
2034.000000	44.637041
2033.000000	44.697222
2032.000000	44.822391
2031.000000	44.942096
2030.000000	45.075935
2029.000000	45.233571
2028.000000	45.336417
2027.000000	45.467907
2026.000000	45.603604
2025.000000	45.707977
2024.000000	45.850952
2023.000000	45.993310
2022.000000	46.085967
2021.000000	46.192087
2020.000000	46.288222
2019.000000	46.336213
2018.000000	46.383359
2017.000000	46.443447
2016.000000	46.463533
2015.000000	46.466202
2014.000000	46.529884
2013.000000	46.515431
2012.000000	46.530720
2011.000000	46.583567
2010.000000	46.532324
2009.000000	46.484721
2008.000000	46.421530
2007.000000	46.375114
2006.000000	46.275927
2005.000000	46.255101
2004.000000	46.186832
2003.000000	46.119303
2002.000000	46.058177
2001.000000	45.913304
2000.000000	45.861042
1999.000000	45.811172
1998.000000	45.700984
1997.000000	45.612468
1996.000000	45.505229
1995.000000	45.385274
1994.000000	45.307618
1993.000000	45.248758
1992.000000	45.098031
1991.000000	44.964388
1990.000000	44.914133
1989.000000	44.789458
1988.000000	44.713052
1987.000000	44.644760
1986.000000	44.520813
1985.000000	44.421792
1984.000000	44.329256
1983.000000	44.218529
1982.000000	44.142122
1981.000000	44.034295
1980.000000	43.898432
1979.000000	43.797472
1978.000000	43.733152
1977.000000	43.628849
1976.000000	43.459928
1975.000000	43.369755
1974.000000	43.243501
1973.000000	43.189514
1972.000000	43.096087
1971.000000	42.982402
1970.000000	42.927968
1969.000000	42.798897
1968.000000	42.728611
1967.000000	42.611985
1966.000000	42.462613
1965.000000	42.410295
1964.000000	42.291334
1963.000000	42.160869
1962.000000	42.072912
1961.000000	41.945362
1960.000000	41.830310
1959.000000	41.773421
1958.000000	41.622992
1957.000000	41.591340
1956.000000	41.489023
1955.000000	41.394166
1954.000000	41.438034
1953.000000	41.313683
1952.000000	41.190997
1951.000000	41.139934
1950.000000	41.150981
1949.000000	41.145398
1948.000000	41.054657
1947.000000	40.969196
1946.000000	40.939388
1945.000000	40.923558
1944.000000	40.930189
1943.000000	40.949159
1942.000000	40.970256
1941.000000	40.995973
1940.000000	41.055047
1939.000000	41.086068
1938.000000	41.113099
1937.000000	41.245270
1936.000000	41.298979
1935.000000	41.439998
1934.000000	41.555207
1933.000000	41.636570
1932.000000	41.829510
1931.000000	41.921510
1930.000000	42.194015
1929.000000	42.318504
1928.000000	42.504065
1927.000000	42.740716
1926.000000	42.886863
1925.000000	43.163666
1924.000000	43.494246
1923.000000	43.671127
1922.000000	43.959169
1921.000000	44.265506
1920.000000	44.543951
1919.000000	44.744293
1918.000000	45.105703
1917.000000	45.519001
1916.000000	45.759727
1915.000000	46.123522
1914.000000	46.587770
1913.000000	46.962119
1912.000000	47.353943
1911.000000	47.688063
1910.000000	48.101942
1909.000000	48.475673
1908.000000	48.781898
1907.000000	49.278609
1906.000000	49.790392
1905.000000	50.257738
1904.000000	50.643968
1903.000000	51.052974
1902.000000	51.617016
1901.000000	52.074031
1900.000000	52.477890
1899.000000	52.959893
1898.000000	53.445375
1897.000000	53.892886
1896.000000	54.334199
1895.000000	54.803332
1894.000000	55.195480
1893.000000	55.626338
1892.000000	56.101148
1891.000000	56.480851
1890.000000	56.921334
1889.000000	57.240824
1888.000000	57.592411
1887.000000	58.063932
1886.000000	58.397618
1885.000000	58.732850
1884.000000	59.092868
1883.000000	59.395020
1882.000000	59.594129
1881.000000	59.900579
1880.000000	60.163371
1879.000000	60.447792
1878.000000	60.689498
1877.000000	60.936243
1876.000000	61.163301
1875.000000	61.358167
1874.000000	61.550893
1873.000000	61.705512
1872.000000	61.889876
1871.000000	62.041826
1870.000000	62.174342
1869.000000	62.328625
1868.000000	62.449475
1867.000000	62.484142
1866.000000	62.546683
1865.000000	62.635154
1864.000000	62.709824
1863.000000	62.765280
1862.000000	62.819313
1861.000000	62.866720
1860.000000	62.944401
1859.000000	63.026512
1858.000000	62.987868
1857.000000	63.045038
1856.000000	63.064302
1855.000000	63.063317
1854.000000	63.135978
1853.000000	63.122350
1852.000000	63.139275
1851.000000	63.162571
1850.000000	63.148092
1849.000000	63.137425
1848.000000	63.152704
1847.000000	63.179715
1846.000000	63.119553
1845.000000	63.072065
1844.000000	63.075603
1843.000000	63.045334
1842.000000	63.046296
1841.000000	63.055086
1840.000000	63.025290
1839.000000	62.995558
1838.000000	62.952540
1837.000000	62.864440
1836.000000	62.841518
1835.000000	62.829948
1834.000000	62.794022
1833.000000	62.795295
1832.000000	62.784528
1831.000000	62.702813
1830.000000	62.646407
1829.000000	62.611663
1828.000000	62.559865
1827.000000	62.534981
1826.000000	62.538318
1825.000000	62.535440
1824.000000	62.529554
1823.000000	62.506659
1822.000000	62.443545
1821.000000	62.398148
1820.000000	62.374920
1819.000000	62.341296
1818.000000	62.321570
1817.000000	62.300775
1816.000000	62.262373
1815.000000	62.240293
1814.000000	62.177557
1813.000000	62.140837
1812.000000	62.142089
1811.000000	62.134195
1810.000000	62.101943
1809.000000	62.080062
1808.000000	62.056034
1807.000000	61.998824
1806.000000	61.973816
1805.000000	61.945030
1804.000000	61.899381
1803.000000	61.868741
1802.000000	61.863720
1801.000000	61.846837
1800.000000	61.822073
1799.000000	61.794130
1798.000000	61.784289
1797.000000	61.768791
1796.000000	61.721200
1795.000000	61.701431
1794.000000	61.708565
1793.000000	61.698759
1792.000000	61.662241
1791.000000	61.628354
1790.000000	61.603643
1789.000000	61.577539
1788.000000	61.557182
1787.000000	61.522871
1786.000000	61.493352
1785.000000	61.481297
1784.000000	61.448323
1783.000000	61.406182
1782.000000	61.389093
1781.000000	61.359573
1780.000000	61.312706
1779.000000	61.299398
1778.000000	61.243750
1777.000000	61.182198
1776.000000	61.146449
1775.000000	61.100900
1774.000000	61.014323
1773.000000	60.956400
1772.000000	60.926276
1771.000000	60.885480
1770.000000	60.838123
1769.000000	60.745636
1768.000000	60.691243
1767.000000	60.658316
1766.000000	60.604032
1765.000000	60.542518
1764.000000	60.501968
1763.000000	60.446878
1762.000000	60.412581
1761.000000	60.364293
1760.000000	60.318893
1759.000000	60.237812
1758.000000	60.175283
1757.000000	60.114441
1756.000000	60.089460
1755.000000	59.999574
1754.000000	59.937616
1753.000000	59.912179
1752.000000	59.888322
1751.000000	59.815700
1750.000000	59.758589
1749.000000	59.708753
1748.000000	59.665509
1747.000000	59.567073
1746.000000	59.513047
1745.000000	59.489068
1744.000000	59.432653
1743.000000	59.376420
1742.000000	59.304382
1741.000000	59.262569
1740.000000	59.211239
1739.000000	59.171551
1738.000000	59.109629
1737.000000	59.090195
1736.000000	59.076309
1735.000000	59.057547
1734.000000	59.028984
1733.000000	59.036035
1732.000000	59.047582
1731.000000	59.090356
1730.000000	59.081346
1729.000000	59.126766
1728.000000	59.163065
1727.000000	59.182394
1726.000000	59.234409
1725.000000	59.347141
1724.000000	59.362452
1723.000000	59.429237
1722.000000	59.531356
1721.000000	59.676306
1720.000000	59.765442
1719.000000	59.822162
1718.000000	59.875871
1717.000000	59.950254
1716.000000	60.038854
1715.000000	60.117543
1714.000000	60.193551
1713.000000	60.293019
1712.000000	60.334436
1711.000000	60.407384
1710.000000	60.462101
1709.000000	60.511225
1708.000000	60.556788
1707.000000	60.556393
1706.000000	60.620152
1705.000000	60.654134
1704.000000	60.725413
1703.000000	60.712866
1702.000000	60.716806
1701.000000	60.729904
1700.000000	60.713214
1699.000000	60.728662
1698.000000	60.790895
1697.000000	60.786089
1696.000000	60.836707
1695.000000	60.830787
1694.000000	60.878796
1693.000000	60.921147
1692.000000	60.957995
1691.000000	61.021952
1690.000000	61.109596
1689.000000	61.163765
1688.000000	61.260019
1687.000000	61.353114
1686.000000	61.438441
1685.000000	61.541955
1684.000000	61.711523
1683.000000	61.863359
1682.000000	61.971330
1681.000000	62.129840
1680.000000	62.261175
1679.000000	62.421039
1678.000000	62.576760
1677.000000	62.709366
1676.000000	62.874438
1675.000000	63.051341
1674.000000	63.224695
1673.000000	63.360563
1672.000000	63.489232
1671.000000	63.617650
1670.000000	63.799803
1669.000000	63.926617
1668.000000	64.028262
1667.000000	64.157367
1666.000000	64.264290
1665.000000	64.314877
1664.000000	64.377552
1663.000000	64.499118
1662.000000	64.579770
1661.000000	64.642858
1660.000000	64.698439
1659.000000	64.763135
1658.000000	64.825900
1657.000000	64.860804
1656.000000	64.890708
1655.000000	64.902818
1654.000000	64.956130
1653.000000	64.946327
1652.000000	65.000091
1651.000000	64.981977
1650.000000	64.994398
1649.000000	65.003891
1648.000000	64.977249
1647.000000	64.991477
1646.000000	64.963548
1645.000000	64.955929
1644.000000	64.950786
1643.000000	64.926224
1642.000000	64.914586
1641.000000	64.916360
1640.000000	64.890813
1639.000000	64.864052
1638.000000	64.831692
1637.000000	64.821944
1636.000000	64.791769
1635.000000	64.740697
1634.000000	64.716496
1633.000000	64.675089
1632.000000	64.658539
1631.000000	64.667982
1630.000000	64.623892
1629.000000	64.576286
1628.000000	64.532794
1627.000000	64.486690
1626.000000	64.463467
1625.000000	64.421645
1624.000000	64.388252
1623.000000	64.355709
1622.000000	64.317298
1621.000000	64.268451
1620.000000	64.244417
1619.000000	64.201285
1618.000000	64.133346
1617.000000	64.093353
1616.000000	64.064104
1615.000000	64.025381
1614.000000	63.980733
1613.000000	63.927922
1612.000000	63.891539
1611.000000	63.846486
1610.000000	63.792426
1609.000000	63.730318
1608.000000	63.694773
1607.000000	63.646170
1606.000000	63.578108
1605.000000	63.535471
1604.000000	63.482660
1603.000000	63.423382
1602.000000	63.372501
1601.000000	63.331605
1600.000000	63.282521
1599.000000	63.222470
1598.000000	63.164329
1597.000000	63.129400
1596.000000	63.083830
1595.000000	63.038469
1594.000000	62.994547
1593.000000	62.936973
1592.000000	62.891736
1591.000000	62.847490
1590.000000	62.800863
1589.000000	62.737728
1588.000000	62.703791
1587.000000	62.693077
1586.000000	62.641617
1585.000000	62.587827
1584.000000	62.554590
1583.000000	62.534068
1582.000000	62.494696
1581.000000	62.445520
1580.000000	62.400424
1579.000000	62.357099
1578.000000	62.330761
1577.000000	62.283211
1576.000000	62.251402
1575.000000	62.227063
1574.000000	62.183829
1573.000000	62.131888
1572.000000	62.094205
1571.000000	62.063717
1570.000000	62.026816
1569.000000	61.999394
1568.000000	61.974369
1567.000000	61.943114
1566.000000	61.916016
1565.000000	61.887176
1564.000000	61.868335
1563.000000	61.861709
1562.000000	61.835362
1561.000000	61.796660
1560.000000	61.788894
1559.000000	61.757799
1558.000000	61.748405
1557.000000	61.731566
1556.000000	61.709200
1555.000000	61.686027
1554.000000	61.658081
1553.000000	61.656880
1552.000000	61.631578
1551.000000	61.616040
1550.000000	61.591752
1549.000000	61.553016
1548.000000	61.526072
1547.000000	61.461381
1546.000000	61.422216
1545.000000	61.368600
1544.000000	61.314321
1543.000000	61.253673
1542.000000	61.204331
1541.000000	61.117039
1540.000000	61.049169
1539.000000	60.976672
1538.000000	60.902639
1537.000000	60.826721
1536.000000	60.764358
1535.000000	60.669180
1534.000000	60.593544
1533.000000	60.525906
1532.000000	60.442493
1531.000000	60.350112
1530.000000	60.282315
1529.000000	60.200499
1528.000000	60.144556
1527.000000	60.079747
1526.000000	60.020372
1525.000000	59.950934
1524.000000	59.897994
1523.000000	59.833883
1522.000000	59.773626
1521.000000	59.727853
1520.000000	59.699571
1519.000000	59.634085
1518.000000	59.618729
1517.000000	59.556973
1516.000000	59.512865
1515.000000	59.469975
1514.000000	59.452005
1513.000000	59.403421
1512.000000	59.377895
1511.000000	59.349631
1510.000000	59.312433
1509.000000	59.319407
1508.000000	59.289238
1507.000000	59.268991
1506.000000	59.246026
1505.000000	59.239187
1504.000000	59.236015
1503.000000	59.239032
1502.000000	59.223466
1501.000000	59.227236
1500.000000	59.246823
1499.000000	59.227441
1498.000000	59.235649
1497.000000	59.254572
1496.000000	59.273545
1495.000000	59.273025
1494.000000	59.298750
1493.000000	59.357414
1492.000000	59.367758
1491.000000	59.423744
1490.000000	59.475842
1489.000000	59.534478
1488.000000	59.612439
1487.000000	59.645039
1486.000000	59.699477
1485.000000	59.766674
1484.000000	59.852347
1483.000000	59.902842
1482.000000	59.974046
1481.000000	60.043499
1480.000000	60.143920
1479.000000	60.188333
1478.000000	60.272280
1477.000000	60.351343
1476.000000	60.422505
1475.000000	60.483922
1474.000000	60.570742
1473.000000	60.620728
1472.000000	60.682055
1471.000000	60.765023
1470.000000	60.852641
1469.000000	60.895861
1468.000000	60.949467
1467.000000	60.999964
1466.000000	61.067737
1465.000000	61.127579
1464.000000	61.180149
1463.000000	61.218531
1462.000000	61.273679
1461.000000	61.301158
1460.000000	61.375311
1459.000000	61.427906
1458.000000	61.470524
1457.000000	61.529774
1456.000000	61.569766
1455.000000	61.645485
1454.000000	61.691797
1453.000000	61.754130
1452.000000	61.797438
1451.000000	61.864237
1450.000000	61.929122
1449.000000	61.988245
1448.000000	62.031533
1447.000000	62.092274
1446.000000	62.160384
1445.000000	62.218674
1444.000000	62.290194
1443.000000	62.384273
1442.000000	62.453283
1441.000000	62.507399
1440.000000	62.590172
1439.000000	62.651447
1438.000000	62.744225
1437.000000	62.840760
1436.000000	62.916060
1435.000000	62.997582
1434.000000	63.083021
1433.000000	63.163556
1432.000000	63.262913
1431.000000	63.344136
1430.000000	63.447603
1429.000000	63.554031
1428.000000	63.644660
1427.000000	63.761465
1426.000000	63.870678
1425.000000	63.995718
1424.000000	64.106579
1423.000000	64.231207
1422.000000	64.347871
1421.000000	64.464457
1420.000000	64.580245
1419.000000	64.712306
1418.000000	64.839017
1417.000000	64.970410
1416.000000	65.090494
1415.000000	65.221210
1414.000000	65.348867
1413.000000	65.484463
1412.000000	65.612875
1411.000000	65.746801
1410.000000	65.894250
1409.000000	66.015371
1408.000000	66.141963
1407.000000	66.274694
1406.000000	66.404699
1405.000000	66.538708
1404.000000	66.649672
1403.000000	66.763027
1402.000000	66.886445
1401.000000	67.015129
1400.000000	67.124242
1399.000000	67.238745
1398.000000	67.342233
1397.000000	67.448522
1396.000000	67.556017
1395.000000	67.648388
1394.000000	67.756930
1393.000000	67.864272
1392.000000	67.962362
1391.000000	68.058958
1390.000000	68.131545
1389.000000	68.198574
1388.000000	68.286687
1387.000000	68.379414
1386.000000	68.473054
1385.000000	68.552109
1384.000000	68.606089
1383.000000	68.679290
1382.000000	68.752717
1381.000000	68.803240
1380.000000	68.849687
1379.000000	68.917690
1378.000000	68.985995
1377.000000	69.033545
1376.000000	69.090803
1375.000000	69.125408
1374.000000	69.156992
1373.000000	69.207026
1372.000000	69.243358
1371.000000	69.288223
1370.000000	69.338320
1369.000000	69.366717
1368.000000	69.392428
1367.000000	69.421546
1366.000000	69.467838
1365.000000	69.523495
1364.000000	69.566773
1363.000000	69.609695
1362.000000	69.636643
1361.000000	69.674357
1360.000000	69.708873
1359.000000	69.741711
1358.000000	69.774425
1357.000000	69.828787
1356.000000	69.880965
1355.000000	69.928458
1354.000000	69.993399
1353.000000	70.027001
1352.000000	70.077713
1351.000000	70.130270
1350.000000	70.167273
1349.000000	70.207430
1348.000000	70.250786
1347.000000	70.296881
1346.000000	70.337332
1345.000000	70.381097
1344.000000	70.424025
1343.000000	70.448007
1342.000000	70.492756
1341.000000	70.520780
1340.000000	70.573757
1339.000000	70.601536
1338.000000	70.629828
1337.000000	70.657125
1336.000000	70.671417
1335.000000	70.701217
1334.000000	70.724159
1333.000000	70.744775
1332.000000	70.786851
1331.000000	70.794313
1330.000000	70.828928
1329.000000	70.887647
1328.000000	70.915182
1327.000000	70.971349
1326.000000	70.973783
1325.000000	70.951869
1324.000000	70.949315
1323.000000	70.984116
1322.000000	70.993337
1321.000000	71.006432
1320.000000	71.009081
1319.000000	71.009911
1318.000000	71.031006
1317.000000	71.044540
1316.000000	71.076096
1315.000000	71.058407
1314.000000	71.062617
1313.000000	71.094583
1312.000000	71.096063
1311.000000	71.129393
1310.000000	71.135171
1309.000000	71.134202
1308.000000	71.144789
1307.000000	71.129856
1306.000000	71.160770
1305.000000	71.166471
1304.000000	71.204893
1303.000000	71.197977
1302.000000	71.173828
1301.000000	71.202160
1300.000000	71.187025
1299.000000	71.212538
1298.000000	71.213950
1297.000000	71.187993
1296.000000	71.206763
1295.000000	71.223152
1294.000000	71.210797
1293.000000	71.213358
1292.000000	71.207396
1291.000000	71.193606
1290.000000	71.205587
1289.000000	71.199489
1288.000000	71.194113
1287.000000	71.183487
1286.000000	71.175418
1285.000000	71.176504
1284.000000	71.197319
1283.000000	71.196007
1282.000000	71.191630
1281.000000	71.164897
1280.000000	71.165841
1279.000000	71.185397
1278.000000	71.169522
1277.000000	71.171807
1276.000000	71.163193
1275.000000	71.163940
1274.000000	71.188702
1273.000000	71.162604
1272.000000	71.165951
1271.000000	71.165077
1270.000000	71.169242
1269.000000	71.190769
1268.000000	71.180605
1267.000000	71.181965
1266.000000	71.196552
1265.000000	71.208873
1264.000000	71.227780
1263.000000	71.204126
1262.000000	71.182488
1261.000000	71.229109
1260.000000	71.233929
1259.000000	71.234270
1258.000000	71.270569
1257.000000	71.236913
1256.000000	71.265895
1255.000000	71.253094
1254.000000	71.281728
1253.000000	71.265813
1252.000000	71.271312
1251.000000	71.287292
1250.000000	71.279713
1249.000000	71.285791
1248.000000	71.259398
1247.000000	71.273884
1246.000000	71.265831
1245.000000	71.264901
1244.000000	71.236775
1243.000000	71.231296
1242.000000	71.250587
1241.000000	71.234720
1240.000000	71.236283
1239.000000	71.202483
1238.000000	71.199028
1237.000000	71.181799
1236.000000	71.179288
1235.000000	71.148663
1234.000000	71.119232
1233.000000	71.130005
1232.000000	71.126515
1231.000000	71.113317
1230.000000	71.088686
1229.000000	71.060357
1228.000000	71.049739
1227.000000	71.042176
1226.000000	71.020918
1225.000000	71.014305
1224.000000	71.017446
1223.000000	71.005275
1222.000000	70.986948
1221.000000	70.962696
1220.000000	70.934074
1219.000000	70.910278
1218.000000	70.914825
1217.000000	70.886673
1216.000000	70.862780
1215.000000	70.842283
1214.000000	70.814352
1213.000000	70.805555
1212.000000	70.765862
1211.000000	70.761186
1210.000000	70.749764
1209.000000	70.726338
1208.000000	70.702504
1207.000000	70.665367
1206.000000	70.645548
1205.000000	70.614163
1204.000000	70.622871
1203.000000	70.602009
1202.000000	70.558241
1201.000000	70.534890
1200.000000	70.542403
1199.000000	70.522337
1198.000000	70.477936
1197.000000	70.452269
1196.000000	70.442916
1195.000000	70.456322
1194.000000	70.417715
1193.000000	70.381912
1192.000000	70.374892
1191.000000	70.360742
1190.000000	70.360412
1189.000000	70.350381
1188.000000	70.339611
1187.000000	70.338126
1186.000000	70.329580
1185.000000	70.347911
1184.000000	70.349286
1183.000000	70.356122
1182.000000	70.368538
1181.000000	70.373554
1180.000000	70.394011
1179.000000	70.430567
1178.000000	70.446356
1177.000000	70.472515
1176.000000	70.496162
1175.000000	70.534138
1174.000000	70.569659
1173.000000	70.601195
1172.000000	70.647898
1171.000000	70.679241
1170.000000	70.716850
1169.000000	70.758037
1168.000000	70.787304
1167.000000	70.846429
1166.000000	70.913325
1165.000000	70.956103
1164.000000	71.003603
1163.000000	71.051002
1162.000000	71.101648
1161.000000	71.132689
1160.000000	71.167572
1159.000000	71.218222
1158.000000	71.281772
1157.000000	71.334505
1156.000000	71.374954
1155.000000	71.418026
1154.000000	71.451738
1153.000000	71.492491
1152.000000	71.525966
1151.000000	71.562016
1150.000000	71.595438
1149.000000	71.625472
1148.000000	71.661078
1147.000000	71.678310
1146.000000	71.699393
1145.000000	71.721364
1144.000000	71.757778
1143.000000	71.803454
1142.000000	71.826188
1141.000000	71.849665
1140.000000	71.871355
1139.000000	71.889375
1138.000000	71.924944
1137.000000	71.952811
1136.000000	71.979585
1135.000000	72.014497
1134.000000	72.041465
1133.000000	72.049322
1132.000000	72.072550
1131.000000	72.097668
1130.000000	72.106108
1129.000000	72.115324
1128.000000	72.128730
1127.000000	72.149115
1126.000000	72.154084
1125.000000	72.178999
1124.000000	72.192493
1123.000000	72.198735
1122.000000	72.206014
1121.000000	72.222272
1120.000000	72.236611
1119.000000	72.243746
1118.000000	72.247367
1117.000000	72.252097
1116.000000	72.260734
1115.000000	72.265774
1114.000000	72.267577
1113.000000	72.282228
1112.000000	72.284594
1111.000000	72.282650
1110.000000	72.260697
1109.000000	72.263770
1108.000000	72.293835
1107.000000	72.299724
1106.000000	72.296694
1105.000000	72.303243
1104.000000	72.311269
1103.000000	72.321029
1102.000000	72.312487
1101.000000	72.306237
1100.000000	72.288432
1099.000000	72.288793
1098.000000	72.294361
1097.000000	72.308808
1096.000000	72.320955
1095.000000	72.306424
1094.000000	72.308034
1093.000000	72.304026
1092.000000	72.313049
1091.000000	72.312021
1090.000000	72.320896
1089.000000	72.327428
1088.000000	72.322735
1087.000000	72.312486
1086.000000	72.303148
1085.000000	72.296994
1084.000000	72.300201
1083.000000	72.303415
1082.000000	72.323119
1081.000000	72.312043
1080.000000	72.282449
1079.000000	72.292949
1078.000000	72.300737
1077.000000	72.279598
1076.000000	72.283534
1075.000000	72.288680
1074.000000	72.265129
1073.000000	72.277432
1072.000000	72.281551
1071.000000	72.272426
1070.000000	72.255874
1069.000000	72.251573
1068.000000	72.247464
1067.000000	72.269677
1066.000000	72.244921
1065.000000	72.263450
1064.000000	72.250761
1063.000000	72.219644
1062.000000	72.240846
1061.000000	72.227977
1060.000000	72.213100
1059.000000	72.213667
1058.000000	72.223579
1057.000000	72.226078
1056.000000	72.207503
1055.000000	72.191588
1054.000000	72.194429
1053.000000	72.193152
1052.000000	72.206062
1051.000000	72.185028
1050.000000	72.185384
1049.000000	72.196525
1048.000000	72.194971
1047.000000	72.192831
1046.000000	72.174239
1045.000000	72.178558
1044.000000	72.176840
1043.000000	72.155340
1042.000000	72.147243
1041.000000	72.130092
1040.000000	72.119248
1039.000000	72.129660
1038.000000	72.134087
1037.000000	72.133334
1036.000000	72.112597
1035.000000	72.145127
1034.000000	72.127187
1033.000000	72.125260
1032.000000	72.131584
1031.000000	72.114173
1030.000000	72.112029
1029.000000	72.100738
1028.000000	72.096652
1027.000000	72.093694
1026.000000	72.102626
1025.000000	72.085912
1024.000000	72.106078
1023.000000	72.091168
1022.000000	72.090215
1021.000000	72.076809
1020.000000	72.093472
1019.000000	72.086883
1018.000000	72.079484
1017.000000	72.095211
1016.000000	72.107689
1015.000000	72.103174
1014.000000	72.075157
1013.000000	72.079601
1012.000000	72.084920
1011.000000	72.083318
1010.000000	72.120944
1009.000000	72.106842
1008.000000	72.089937
1007.000000	72.086947
1006.000000	72.084645
1005.000000	72.097657
1004.000000	72.125758
1003.000000	72.118777
1002.000000	72.136754
1001.000000	72.113836
1000.000000	72.123666
999.000000	72.124635
998.000000	72.131074
997.000000	72.136896
996.000000	72.151265
995.000000	72.136576
994.000000	72.128523
993.000000	72.143921
992.000000	72.131632
991.000000	72.126952
990.000000	72.161546
989.000000	72.178815
988.000000	72.164093
987.000000	72.159638
986.000000	72.166571
985.000000	72.191801
984.000000	72.199172
983.000000	72.195053
982.000000	72.204419
981.000000	72.223557
980.000000	72.221290
979.000000	72.225714
978.000000	72.238032
977.000000	72.260495
976.000000	72.238594
975.000000	72.243177
974.000000	72.257908
973.000000	72.268857
972.000000	72.260935
971.000000	72.257121
970.000000	72.272873
969.000000	72.277798
968.000000	72.298810
967.000000	72.298691
966.000000	72.309981
965.000000	72.326909
964.000000	72.322419
963.000000	72.314535
962.000000	72.314108
961.000000	72.316752
960.000000	72.342347
959.000000	72.343971
958.000000	72.349128
957.000000	72.360393
956.000000	72.374491
955.000000	72.391091
954.000000	72.379043
953.000000	72.348820
952.000000	72.352561
951.000000	72.374791
950.000000	72.383096
949.000000	72.368267
948.000000	72.367073
947.000000	72.397803
946.000000	72.420524
945.000000	72.432682
944.000000	72.431439
943.000000	72.413026
942.000000	72.410429
941.000000	72.418547
940.000000	72.430619
939.000000	72.461530
938.000000	72.461181
937.000000	72.443557
936.000000	72.449484
935.000000	72.449071
934.000000	72.464430
933.000000	72.451583
932.000000	72.420764
931.000000	72.428274
930.000000	72.445263
929.000000	72.462067
928.000000	72.468407
927.000000	72.439080
926.000000	72.410681
925.000000	72.392259
924.000000	72.392946
923.000000	72.405536
922.000000	72.380682
921.000000	72.378879
920.000000	72.392936
919.000000	72.413270
918.000000	72.407880
917.000000	72.434976
916.000000	72.448077
915.000000	72.397470
914.000000	72.388522
913.000000	72.408332
912.000000	72.392677
911.000000	72.386541
910.000000	72.399774
909.000000	72.432773
908.000000	72.457289
907.000000	72.483487
906.000000	72.484029
905.000000	72.442759
904.000000	72.394641
903.000000	72.460106
902.000000	72.449665
901.000000	72.514263
900.000000	72.518999
899.000000	72.519502
898.000000	72.482055
897.000000	72.476311
896.000000	72.512739
895.000000	72.500987
894.000000	72.527745
893.000000	72.574885
892.000000	72.563059
891.000000	72.546804
890.000000	72.543529
889.000000	72.582009
888.000000	72.628915
887.000000	72.576199
886.000000	72.564961
885.000000	72.590339
884.000000	72.659262
883.000000	72.629985
882.000000	72.630723
881.000000	72.582641
880.000000	72.579706
879.000000	72.615965
878.000000	72.528289
877.000000	72.556681
876.000000	72.621363
875.000000	72.570626
874.000000	72.645515
873.000000	72.623463
872.000000	72.484317
871.000000	72.660797
870.000000	72.747920
869.000000	72.627519
868.000000	72.549175
867.000000	72.469931
866.000000	72.687439
865.000000	72.681052
864.000000	72.551355
863.000000	72.640631
862.000000	72.559934
861.000000	72.644482
860.000000	72.352791
859.000000	71.910109
858.000000	72.304079
857.000000	72.106750
856.000000	72.404416
855.000000	72.375331
854.000000	72.500830
853.000000	72.427731
852.000000	72.421524
851.000000	72.037835
850.000000	72.346925
849.000000	72.541342
848.000000	72.299268
847.000000	71.960966
846.000000	72.452355
845.000000	72.265947
844.000000	72.274464
843.000000	72.385769
842.000000	72.152620
841.000000	72.195694
840.000000	72.241997
839.000000	72.465803
838.000000	72.562263
837.000000	72.455443
836.000000	72.352975
835.000000	72.185695
834.000000	72.353309
833.000000	72.298268
832.000000	72.130466
831.000000	72.045379
830.000000	72.211799
829.000000	72.121332
828.000000	72.205232
827.000000	72.191753
826.000000	72.119631
825.000000	72.217538
824.000000	72.310043
823.000000	72.320459
822.000000	72.237052
821.000000	72.079982
820.000000	72.246078
819.000000	72.299279
818.000000	72.241937
817.000000	72.199766
816.000000	72.304822
815.000000	72.170776
814.000000	72.314604
813.000000	72.153093
812.000000	72.310281
811.000000	72.122606
810.000000	72.157781
809.000000	72.226206
808.000000	72.320527
807.000000	72.229981
806.000000	72.107274
805.000000	72.294381
804.000000	72.203897
803.000000	72.380319
802.000000	72.214597
801.000000	72.156244
800.000000	72.102890
799.000000	72.211083
798.000000	72.215923
797.000000	72.070149
796.000000	72.141099
795.000000	72.344753
794.000000	72.273517
793.000000	72.266547
792.000000	72.432963
791.000000	72.388054
790.000000	72.291506
789.000000	72.313174
788.000000	72.279972
787.000000	72.417323
786.000000	72.370471
785.000000	72.340501
784.000000	72.205598
783.000000	72.295872
782.000000	72.267998
781.000000	72.274441
780.000000	72.355969
779.000000	72.336697
778.000000	72.333831
777.000000	72.457420
776.000000	72.385442
775.000000	72.341797
774.000000	72.397610
773.000000	72.282542
772.000000	72.266757
771.000000	72.261649
770.000000	72.229871
769.000000	72.305617
768.000000	72.246729
767.000000	72.301868
766.000000	72.337735
765.000000	72.357747
764.000000	72.284625
763.000000	72.278836
762.000000	72.275763
761.000000	72.204580
760.000000	72.249310
759.000000	72.315238
758.000000	72.207472
757.000000	72.167411
756.000000	72.219068
755.000000	72.191107
754.000000	72.282168
753.000000	72.341798
752.000000	72.376674
751.000000	72.451078
750.000000	72.299928
749.000000	72.240240
748.000000	72.152313
747.000000	72.250027
746.000000	72.314134
745.000000	72.268681
744.000000	72.226284
743.000000	72.247090
742.000000	72.299233
741.000000	72.275268
740.000000	72.293246
739.000000	72.335990
738.000000	72.320054
737.000000	72.239269
736.000000	72.301018
735.000000	72.303017
734.000000	72.312611
733.000000	72.381934
732.000000	72.288380
731.000000	72.287826
730.000000	72.307646
729.000000	72.270506
728.000000	72.298894
727.000000	72.323201
726.000000	72.268295
725.000000	72.198053
724.000000	72.245625
723.000000	72.286133
722.000000	72.354126
721.000000	72.357771
720.000000	72.339608
719.000000	72.301405
718.000000	72.278337
717.000000	72.331278
716.000000	72.338462
715.000000	72.347729
714.000000	72.341606
713.000000	72.306632
712.000000	72.258659
711.000000	72.302322
710.000000	72.353611
709.000000	72.328342
708.000000	72.314639
707.000000	72.294317
706.000000	72.289221
705.000000	72.322149
704.000000	72.282669
703.000000	72.321477
702.000000	72.364722
701.000000	72.364755
700.000000	72.372425
699.000000	72.316888
698.000000	72.328669
697.000000	72.366997
696.000000	72.353359
695.000000	72.357460
694.000000	72.336612
693.000000	72.341713
692.000000	72.373513
691.000000	72.348854
690.000000	72.282477
689.000000	72.211710
688.000000	72.230566
687.000000	72.277596
686.000000	72.291400
685.000000	72.268860
684.000000	72.285114
683.000000	72.293275
682.000000	72.228264
681.000000	72.194824
680.000000	72.215187
679.000000	72.204011
678.000000	72.244105
677.000000	72.276167
676.000000	72.246229
675.000000	72.247689
674.000000	72.245574
673.000000	72.292146
672.000000	72.294488
671.000000	72.314903
670.000000	72.230102
669.000000	72.186378
668.000000	72.223934
667.000000	72.197993
666.000000	72.235345
665.000000	72.260843
664.000000	72.215007
663.000000	72.219948
662.000000	72.203183
661.000000	72.223360
660.000000	72.257249
659.000000	72.223232
658.000000	72.259812
657.000000	72.295389
656.000000	72.290132
655.000000	72.315267
654.000000	72.283344
653.000000	72.209273
652.000000	72.291408
651.000000	72.290565
650.000000	72.313414
649.000000	72.252291
648.000000	72.296578
647.000000	72.276513
646.000000	72.268070
645.000000	72.278496
644.000000	72.280530
643.000000	72.288594
642.000000	72.249417
641.000000	72.220565
640.000000	72.189650
639.000000	72.286944
638.000000	72.260635
637.000000	72.298051
636.000000	72.235708
635.000000	72.194648
634.000000	72.251057
633.000000	72.184468
632.000000	72.258330
631.000000	72.297285
630.000000	72.272138
629.000000	72.291535
628.000000	72.276745
627.000000	72.272366
626.000000	72.281684
625.000000	72.311454
624.000000	72.248359
623.000000	72.234212
622.000000	72.251235
621.000000	72.218591
620.000000	72.250603
619.000000	72.266555
618.000000	72.331070
617.000000	72.229325
616.000000	72.199134
615.000000	72.219208
614.000000	72.228253
613.000000	72.312923
612.000000	72.297724
611.000000	72.276458
610.000000	72.182571
609.000000	72.240429
608.000000	72.156645
607.000000	72.204232
606.000000	72.229339
605.000000	72.238010
604.000000	72.181949
603.000000	72.211339
602.000000	72.201951
601.000000	72.248814
600.000000	72.232942
599.000000	72.176687
598.000000	72.200626
597.000000	72.170708
596.000000	72.101037
595.000000	72.229754
594.000000	72.182910
593.000000	72.156478
592.000000	72.120306
591.000000	72.163183
590.000000	72.069670
589.000000	72.085522
588.000000	72.157646
587.000000	72.116813
586.000000	72.158799
585.000000	72.083837
584.000000	72.041886
583.000000	72.022954
582.000000	72.052099
581.000000	72.064114
580.000000	72.047729
579.000000	72.053330
578.000000	72.045959
577.000000	72.096790
576.000000	72.090597
575.000000	72.006568
574.000000	71.957781
573.000000	72.054818
572.000000	72.025756
571.000000	71.971505
570.000000	72.000771
569.000000	71.962862
568.000000	71.934604
567.000000	71.964420
566.000000	71.883229
565.000000	71.964838
564.000000	71.973997
563.000000	71.944690
562.000000	71.907273
561.000000	71.891100
560.000000	71.877356
559.000000	71.847293
558.000000	71.873690
557.000000	71.961136
556.000000	71.903974
555.000000	71.887970
554.000000	71.863335
553.000000	71.865657
552.000000	71.822617
551.000000	71.850372
550.000000	71.804806
549.000000	71.714097
548.000000	71.756099
547.000000	71.762588
546.000000	71.739136
545.000000	71.775416
544.000000	71.690987
543.000000	71.690626
542.000000	71.645508
541.000000	71.695525
540.000000	71.620453
539.000000	71.626000
538.000000	71.642355
537.000000	71.589934
536.000000	71.540897
535.000000	71.550169
534.000000	71.517617
533.000000	71.551070
532.000000	71.562899
531.000000	71.504927
530.000000	71.466921
529.000000	71.500865
528.000000	71.451292
527.000000	71.439932
526.000000	71.396065
525.000000	71.409583
524.000000	71.368847
523.000000	71.333845
522.000000	71.316780
521.000000	71.351724
520.000000	71.280411
519.000000	71.290047
518.000000	71.199585
517.000000	71.198106
516.000000	71.140295
515.000000	71.196026
514.000000	71.169942
513.000000	71.100045
512.000000	71.093955
511.000000	71.071918
510.000000	71.029936
509.000000	71.055441
508.000000	71.033665
507.000000	70.992927
506.000000	70.961210
505.000000	70.925910
504.000000	70.868570
503.000000	70.882305
502.000000	70.844539
501.000000	70.875839
500.000000	70.833124
499.000000	70.857515
498.000000	70.791952
497.000000	70.724560
496.000000	70.680341
495.000000	70.660498
494.000000	70.657208
493.000000	70.586976
492.000000	70.543840
491.000000	70.512276
490.000000	70.412960
489.000000	70.433238
488.000000	70.427910
487.000000	70.354821
486.000000	70.276461
485.000000	70.211002
484.000000	70.306186
483.000000	70.403790
482.000000	70.365998
481.000000	70.327911
480.000000	70.223792
479.000000	70.179353
478.000000	70.119107
477.000000	70.086345
476.000000	70.050368
475.000000	70.007565
474.000000	69.939478
473.000000	69.900420
472.000000	69.867546
471.000000	69.818843
470.000000	69.760895
469.000000	69.761841
468.000000	69.725590
467.000000	69.643765
466.000000	69.619437
465.000000	69.534584
464.000000	69.460889
463.000000	69.471052
462.000000	69.423060
461.000000	69.368129
460.000000	69.281231
459.000000	69.201195
458.000000	69.183281
457.000000	69.113603
456.000000	69.017056
455.000000	68.983411
454.000000	68.938754
453.000000	68.900675
452.000000	68.830646
451.000000	68.734678
450.000000	68.664970
449.000000	68.573211
448.000000	68.545959
447.000000	68.528615
446.000000	68.426533
445.000000	68.278732
444.000000	68.230098
443.000000	68.157483
442.000000	68.108566
441.000000	68.032282
440.000000	67.910777
439.000000	67.886491
438.000000	67.852140
437.000000	67.701414
436.000000	67.603966
435.000000	67.439942
434.000000	67.329246
433.000000	67.290331
432.000000	67.162637
431.000000	67.073899
430.000000	66.994120
429.000000	66.869954
428.000000	66.758218
427.000000	66.639983
426.000000	66.549377
425.000000	66.469072
424.000000	66.344854
423.000000	66.198147
422.000000	66.089564
421.000000	65.931272
420.000000	65.864730
419.000000	65.625831
418.000000	65.470674
417.000000	65.350682
416.000000	65.245814
415.000000	65.089771
414.000000	64.991557
413.000000	64.836660
412.000000	64.728052
411.000000	64.534484
410.000000	64.402952
409.000000	64.246487
408.000000	64.073831
407.000000	63.918411
406.000000	63.787343
405.000000	63.613152
404.000000	63.424131
403.000000	63.231942
402.000000	63.152268
401.000000	62.944468
400.000000	62.835426
399.000000	62.682894
398.000000	62.422849
397.000000	62.321141
396.000000	62.166841
395.000000	61.864361
394.000000	61.708729
393.000000	61.568214
392.000000	61.423375
391.000000	61.171537
390.000000	61.026882
389.000000	60.786419
388.000000	60.572637
387.000000	60.387641
386.000000	60.158815
385.000000	59.941798
384.000000	59.832573
383.000000	59.598193
382.000000	59.373446
381.000000	58.994903
380.000000	58.907645
379.000000	58.626790
378.000000	58.402154
377.000000	58.056588
376.000000	58.161929
375.000000	57.768075
374.000000	57.500300
373.000000	57.227140
372.000000	57.011119
371.000000	56.908793
370.000000	56.640453
369.000000	56.118736
368.000000	55.824913
367.000000	55.715568
366.000000	55.342725
365.000000	55.111645
364.000000	54.804453
363.000000	54.553113
362.000000	54.236440
361.000000	53.941977
360.000000	53.740940
359.000000	53.490827
358.000000	53.292767
357.000000	52.867031
356.000000	52.665768
355.000000	52.375606
354.000000	52.244299
353.000000	51.824730
352.000000	51.645828
351.000000	51.266658
350.000000	51.166982
349.000000	50.760296
348.000000	50.528837
347.000000	50.304011
346.000000	50.005613
345.000000	49.557252
344.000000	49.257915
343.000000	49.075107
342.000000	48.586585
341.000000	48.317661
340.000000	48.069185
339.000000	47.529296
338.000000	47.303849
337.000000	46.624054
336.000000	46.122698
335.000000	45.780788
334.000000	45.199459
333.000000	44.702590
332.000000	44.329487
331.000000	43.771630
330.000000	43.243412
329.000000	42.694045
328.000000	42.176449
327.000000	41.874073
326.000000	41.299038
325.000000	40.832347
324.000000	40.634456
323.000000	40.099671
322.000000	39.980913
321.000000	39.383456
320.000000	39.044285
319.000000	39.003300
318.000000	38.455534
317.000000	38.177214
316.000000	37.913222
315.000000	37.769838
314.000000	37.448424
313.000000	37.253612
312.000000	36.927750
311.000000	36.797261
310.000000	36.481669
309.000000	36.209036
308.000000	35.870785
307.000000	35.910356
306.000000	35.592118
305.000000	35.414086
304.000000	35.232735
303.000000	34.889808
302.000000	34.790327
301.000000	34.508562
300.000000	34.062294
299.000000	33.874076
298.000000	33.481657
297.000000	33.073835
296.000000	32.631547
295.000000	32.025709
294.000000	31.481742
293.000000	30.617734
292.000000	29.708446
291.000000	28.603767
290.000000	27.699335
289.000000	26.651880
288.000000	25.971147
287.000000	25.323972
286.000000	24.836475
285.000000	24.580622
284.000000	24.257563
283.000000	24.176671
282.000000	24.187298
281.000000	24.067653
280.000000	24.053390
279.000000	24.124150
278.000000	24.278936
277.000000	24.411758
276.000000	24.598602
275.000000	24.974719
274.000000	25.240452
273.000000	25.463563
272.000000	25.573830
271.000000	25.695692
270.000000	25.823526
269.000000	25.986737
268.000000	26.208870
267.000000	26.506851
266.000000	26.701026
265.000000	26.879488
264.000000	27.274982
263.000000	27.631394
262.000000	27.847587
261.000000	27.941869
260.000000	28.146447
259.000000	28.392339
258.000000	28.763067
257.000000	29.164789
256.000000	29.512451
255.000000	29.566464
254.000000	29.556194
253.000000	29.560876
252.000000	29.402606
251.000000	29.323090
250.000000	28.872944
249.000000	28.351120
248.000000	27.577863
247.000000	26.634394
246.000000	25.505827
245.000000	24.396980
244.000000	23.181569
243.000000	21.997446
242.000000	20.838755
241.000000	19.837151
240.000000	18.998338
239.000000	18.269149
238.000000	17.737907
237.000000	17.410055
236.000000	17.103003
235.000000	16.956407
234.000000	16.925840
233.000000	16.910270
232.000000	16.861700
231.000000	16.826957
230.000000	16.844966
229.000000	16.827017
228.000000	16.833035
227.000000	16.935492
226.000000	17.107733
225.000000	17.275985
224.000000	17.377583
223.000000	17.474724
222.000000	17.652430
221.000000	17.915234
220.000000	18.272027
219.000000	18.589015
218.000000	18.868362
217.000000	19.218039
216.000000	19.433207
215.000000	19.676944
214.000000	20.013865
213.000000	20.361382
212.000000	20.797391
211.000000	21.112319
210.000000	21.500340
209.000000	21.963567
208.000000	22.427707
207.000000	22.875874
206.000000	23.393034
205.000000	23.921052
204.000000	24.472826
203.000000	24.860482
202.000000	25.313291
201.000000	26.059120
200.000000	26.789547
