PE UV       SUBTECH     SPECTRUM    ASCII       PEDS        4.00        
   -1
RDAgneauUK 22.Sample.asc
18/03/02
16:56:46.00
18/03/02
16:56:46.00
Administrator

200.000000
1
Lambda 750
750N8071901
PerkinElmer UV WinLab 6.0.4.0738 / 1.61.00 Lambda 900

0
0
3350/servo 860.8/2
0
0
UV/VIS
1
1
1
CommonBeamDepol,150mm sphere / downward view
0
0
0
0
Program
Program
3350/servo 860.8/2
3350/0.2 860.8/0.2
3350/0.2 860.8/0.2
0
1
 
 
 
0
 
860.8
319.2
860.8
Front
100
on
 
 
0
0
0
 
0
 
 
 
0
 
 
0
0
0
0
0
 
 
 
 
0
0


0
0
#HDR
-1
-1
#GR
nm
%R
1.0
0.0
2350.000000
-1.000000
2151
8
69.927952
17.429360
#DATA
2350.000000	41.286323
2349.000000	41.126744
2348.000000	41.084490
2347.000000	41.998800
2346.000000	41.631722
2345.000000	41.095993
2344.000000	41.310020
2343.000000	41.196938
2342.000000	41.100099
2341.000000	41.287452
2340.000000	41.425728
2339.000000	41.718076
2338.000000	41.669138
2337.000000	41.653876
2336.000000	42.188227
2335.000000	42.205849
2334.000000	42.216994
2333.000000	41.871851
2332.000000	41.996153
2331.000000	42.016999
2330.000000	41.749998
2329.000000	41.960487
2328.000000	41.642435
2327.000000	41.631403
2326.000000	41.711997
2325.000000	41.414825
2324.000000	41.584673
2323.000000	41.483931
2322.000000	41.238051
2321.000000	41.128298
2320.000000	41.438514
2319.000000	41.212865
2318.000000	41.417049
2317.000000	41.216879
2316.000000	41.073065
2315.000000	41.106508
2314.000000	41.010739
2313.000000	40.752734
2312.000000	40.733532
2311.000000	40.811213
2310.000000	40.755240
2309.000000	40.992101
2308.000000	40.673879
2307.000000	40.805573
2306.000000	40.425938
2305.000000	40.387672
2304.000000	40.320724
2303.000000	40.068309
2302.000000	40.105954
2301.000000	40.074698
2300.000000	39.929654
2299.000000	39.817386
2298.000000	39.744857
2297.000000	39.791052
2296.000000	39.575260
2295.000000	39.533979
2294.000000	39.372570
2293.000000	39.460300
2292.000000	39.326089
2291.000000	39.133573
2290.000000	39.093857
2289.000000	39.201907
2288.000000	39.264036
2287.000000	39.009586
2286.000000	38.778290
2285.000000	38.696837
2284.000000	38.858441
2283.000000	38.837691
2282.000000	38.831810
2281.000000	38.916386
2280.000000	38.869155
2279.000000	38.655001
2278.000000	38.769841
2277.000000	38.755529
2276.000000	38.755506
2275.000000	38.653976
2274.000000	38.798528
2273.000000	38.924082
2272.000000	39.080347
2271.000000	39.097109
2270.000000	38.988559
2269.000000	39.105309
2268.000000	39.284684
2267.000000	39.200849
2266.000000	39.219708
2265.000000	39.423858
2264.000000	39.575943
2263.000000	39.575618
2262.000000	39.765674
2261.000000	39.892312
2260.000000	39.974025
2259.000000	40.236861
2258.000000	40.459426
2257.000000	40.586585
2256.000000	40.730608
2255.000000	40.964287
2254.000000	41.113268
2253.000000	41.288470
2252.000000	41.542588
2251.000000	41.742946
2250.000000	41.926982
2249.000000	42.078105
2248.000000	42.270385
2247.000000	42.641037
2246.000000	42.866795
2245.000000	43.069438
2244.000000	43.298123
2243.000000	43.387896
2242.000000	43.501278
2241.000000	43.516469
2240.000000	43.659604
2239.000000	44.019156
2238.000000	44.270567
2237.000000	44.347816
2236.000000	44.434726
2235.000000	44.479543
2234.000000	44.556766
2233.000000	44.680851
2232.000000	44.702479
2231.000000	44.825837
2230.000000	44.798422
2229.000000	44.733671
2228.000000	44.899357
2227.000000	44.874247
2226.000000	44.747556
2225.000000	44.873288
2224.000000	44.962131
2223.000000	44.945843
2222.000000	44.992179
2221.000000	44.984939
2220.000000	44.876997
2219.000000	44.883368
2218.000000	44.757160
2217.000000	44.655102
2216.000000	44.708808
2215.000000	44.666024
2214.000000	44.545806
2213.000000	44.584611
2212.000000	44.582052
2211.000000	44.464672
2210.000000	44.371451
2209.000000	44.270608
2208.000000	44.240244
2207.000000	44.204582
2206.000000	44.248732
2205.000000	44.048802
2204.000000	43.956693
2203.000000	43.834868
2202.000000	43.869640
2201.000000	43.788654
2200.000000	43.755112
2199.000000	43.637286
2198.000000	43.648245
2197.000000	43.711850
2196.000000	43.496228
2195.000000	43.424123
2194.000000	43.329204
2193.000000	43.304009
2192.000000	43.240042
2191.000000	43.148092
2190.000000	43.101657
2189.000000	42.964307
2188.000000	42.862116
2187.000000	42.737259
2186.000000	42.628880
2185.000000	42.641378
2184.000000	42.733673
2183.000000	42.829408
2182.000000	42.733714
2181.000000	42.633275
2180.000000	42.641610
2179.000000	42.515027
2178.000000	42.408133
2177.000000	42.458220
2176.000000	42.529491
2175.000000	42.505689
2174.000000	42.762215
2173.000000	42.719045
2172.000000	42.708495
2171.000000	42.579172
2170.000000	42.726001
2169.000000	43.005821
2168.000000	42.960762
2167.000000	43.028052
2166.000000	43.162306
2165.000000	43.109292
2164.000000	43.302210
2163.000000	43.425427
2162.000000	43.445983
2161.000000	43.782520
2160.000000	43.876310
2159.000000	43.930934
2158.000000	44.027339
2157.000000	44.250555
2156.000000	44.432968
2155.000000	44.660814
2154.000000	44.646033
2153.000000	45.040083
2152.000000	44.990462
2151.000000	45.296501
2150.000000	45.418347
2149.000000	45.448342
2148.000000	45.563572
2147.000000	45.924749
2146.000000	45.936677
2145.000000	46.094137
2144.000000	46.105875
2143.000000	46.232769
2142.000000	46.464800
2141.000000	46.555909
2140.000000	46.851815
2139.000000	46.994080
2138.000000	47.254992
2137.000000	47.154421
2136.000000	47.367421
2135.000000	47.576639
2134.000000	47.664668
2133.000000	47.605178
2132.000000	47.766988
2131.000000	47.874128
2130.000000	48.087658
2129.000000	48.067245
2128.000000	48.158525
2127.000000	48.364005
2126.000000	48.320967
2125.000000	48.204073
2124.000000	48.300812
2123.000000	48.525528
2122.000000	48.479897
2121.000000	48.607351
2120.000000	48.524962
2119.000000	48.590618
2118.000000	48.661824
2117.000000	48.620974
2116.000000	48.665066
2115.000000	48.832216
2114.000000	48.705754
2113.000000	48.790292
2112.000000	48.802683
2111.000000	48.715593
2110.000000	48.684879
2109.000000	48.992857
2108.000000	48.985489
2107.000000	48.873964
2106.000000	48.981258
2105.000000	48.993890
2104.000000	48.996252
2103.000000	49.142965
2102.000000	49.053284
2101.000000	49.113503
2100.000000	49.108737
2099.000000	49.068662
2098.000000	49.020692
2097.000000	49.063852
2096.000000	48.990196
2095.000000	48.988997
2094.000000	49.108439
2093.000000	49.006773
2092.000000	49.113822
2091.000000	48.995617
2090.000000	49.009099
2089.000000	48.937329
2088.000000	48.890417
2087.000000	48.915382
2086.000000	49.034214
2085.000000	48.968042
2084.000000	48.766627
2083.000000	48.838082
2082.000000	48.783949
2081.000000	48.670380
2080.000000	48.556166
2079.000000	48.584924
2078.000000	48.431855
2077.000000	48.315977
2076.000000	48.293488
2075.000000	48.153752
2074.000000	48.023442
2073.000000	48.038184
2072.000000	47.878027
2071.000000	47.733505
2070.000000	47.643513
2069.000000	47.483770
2068.000000	47.364828
2067.000000	47.218259
2066.000000	47.091972
2065.000000	46.941722
2064.000000	46.773324
2063.000000	46.616056
2062.000000	46.482549
2061.000000	46.317758
2060.000000	46.093042
2059.000000	45.937725
2058.000000	45.828913
2057.000000	45.699253
2056.000000	45.629510
2055.000000	45.533972
2054.000000	45.371037
2053.000000	45.166715
2052.000000	45.016089
2051.000000	44.911288
2050.000000	44.756897
2049.000000	44.692628
2048.000000	44.613433
2047.000000	44.574456
2046.000000	44.515869
2045.000000	44.399461
2044.000000	44.352808
2043.000000	44.330056
2042.000000	44.331720
2041.000000	44.389098
2040.000000	44.398422
2039.000000	44.339080
2038.000000	44.371433
2037.000000	44.416143
2036.000000	44.488492
2035.000000	44.580526
2034.000000	44.687265
2033.000000	44.837628
2032.000000	44.961934
2031.000000	45.061695
2030.000000	45.174385
2029.000000	45.343332
2028.000000	45.471017
2027.000000	45.621959
2026.000000	45.806714
2025.000000	45.908763
2024.000000	45.986377
2023.000000	46.073644
2022.000000	46.160835
2021.000000	46.233760
2020.000000	46.322313
2019.000000	46.387098
2018.000000	46.444760
2017.000000	46.512346
2016.000000	46.516545
2015.000000	46.493201
2014.000000	46.508143
2013.000000	46.532221
2012.000000	46.547710
2011.000000	46.518521
2010.000000	46.497208
2009.000000	46.473182
2008.000000	46.430943
2007.000000	46.388475
2006.000000	46.343231
2005.000000	46.316554
2004.000000	46.245052
2003.000000	46.147046
2002.000000	46.089366
2001.000000	46.044247
2000.000000	45.994447
1999.000000	45.868289
1998.000000	45.767102
1997.000000	45.712425
1996.000000	45.611771
1995.000000	45.478940
1994.000000	45.379406
1993.000000	45.323818
1992.000000	45.212707
1991.000000	45.096381
1990.000000	45.030595
1989.000000	44.934502
1988.000000	44.810731
1987.000000	44.778363
1986.000000	44.634234
1985.000000	44.538987
1984.000000	44.472563
1983.000000	44.392601
1982.000000	44.275882
1981.000000	44.150220
1980.000000	44.099322
1979.000000	43.998990
1978.000000	43.872448
1977.000000	43.771861
1976.000000	43.629620
1975.000000	43.557845
1974.000000	43.477970
1973.000000	43.390228
1972.000000	43.311689
1971.000000	43.153023
1970.000000	43.093531
1969.000000	43.008885
1968.000000	42.903509
1967.000000	42.750850
1966.000000	42.746655
1965.000000	42.633987
1964.000000	42.506678
1963.000000	42.443111
1962.000000	42.376449
1961.000000	42.229496
1960.000000	42.171733
1959.000000	42.053323
1958.000000	41.920841
1957.000000	41.843797
1956.000000	41.787663
1955.000000	41.707597
1954.000000	41.673216
1953.000000	41.584801
1952.000000	41.477644
1951.000000	41.405654
1950.000000	41.379230
1949.000000	41.306967
1948.000000	41.248427
1947.000000	41.281696
1946.000000	41.136727
1945.000000	41.222914
1944.000000	41.196625
1943.000000	41.202516
1942.000000	41.286741
1941.000000	41.294014
1940.000000	41.341024
1939.000000	41.344839
1938.000000	41.381417
1937.000000	41.497850
1936.000000	41.606135
1935.000000	41.715843
1934.000000	41.750038
1933.000000	41.895884
1932.000000	42.052231
1931.000000	42.169358
1930.000000	42.346347
1929.000000	42.547284
1928.000000	42.724311
1927.000000	42.985647
1926.000000	43.053758
1925.000000	43.422484
1924.000000	43.656857
1923.000000	43.797850
1922.000000	44.049817
1921.000000	44.364794
1920.000000	44.683021
1919.000000	45.013176
1918.000000	45.201791
1917.000000	45.581260
1916.000000	45.833220
1915.000000	46.171244
1914.000000	46.588478
1913.000000	46.942494
1912.000000	47.267008
1911.000000	47.574289
1910.000000	47.881517
1909.000000	48.348773
1908.000000	48.655332
1907.000000	49.186065
1906.000000	49.537324
1905.000000	49.932909
1904.000000	50.368697
1903.000000	50.735549
1902.000000	51.237125
1901.000000	51.603343
1900.000000	52.061847
1899.000000	52.424831
1898.000000	52.971055
1897.000000	53.343189
1896.000000	53.706422
1895.000000	54.180042
1894.000000	54.528982
1893.000000	54.905390
1892.000000	55.307203
1891.000000	55.722723
1890.000000	56.111169
1889.000000	56.412945
1888.000000	56.728495
1887.000000	57.099470
1886.000000	57.357827
1885.000000	57.680973
1884.000000	57.984497
1883.000000	58.259684
1882.000000	58.509952
1881.000000	58.773622
1880.000000	58.960932
1879.000000	59.208416
1878.000000	59.383868
1877.000000	59.712432
1876.000000	59.900025
1875.000000	60.062192
1874.000000	60.262660
1873.000000	60.350981
1872.000000	60.534321
1871.000000	60.628557
1870.000000	60.774065
1869.000000	60.878627
1868.000000	60.976278
1867.000000	61.016513
1866.000000	61.031402
1865.000000	61.153023
1864.000000	61.227815
1863.000000	61.243027
1862.000000	61.346082
1861.000000	61.420663
1860.000000	61.451398
1859.000000	61.470633
1858.000000	61.471068
1857.000000	61.520447
1856.000000	61.505055
1855.000000	61.575322
1854.000000	61.586186
1853.000000	61.576540
1852.000000	61.598324
1851.000000	61.599662
1850.000000	61.610044
1849.000000	61.599703
1848.000000	61.606082
1847.000000	61.640191
1846.000000	61.609283
1845.000000	61.613133
1844.000000	61.580082
1843.000000	61.495556
1842.000000	61.487002
1841.000000	61.507454
1840.000000	61.489889
1839.000000	61.473617
1838.000000	61.484559
1837.000000	61.389795
1836.000000	61.322479
1835.000000	61.335355
1834.000000	61.307603
1833.000000	61.259372
1832.000000	61.262998
1831.000000	61.204544
1830.000000	61.163546
1829.000000	61.121909
1828.000000	61.088899
1827.000000	61.050035
1826.000000	61.051429
1825.000000	61.054568
1824.000000	61.057812
1823.000000	61.055991
1822.000000	60.994839
1821.000000	60.974137
1820.000000	60.939635
1819.000000	60.881910
1818.000000	60.878933
1817.000000	60.859789
1816.000000	60.834206
1815.000000	60.822225
1814.000000	60.768644
1813.000000	60.721968
1812.000000	60.707404
1811.000000	60.692456
1810.000000	60.665327
1809.000000	60.640825
1808.000000	60.651036
1807.000000	60.605345
1806.000000	60.580256
1805.000000	60.552624
1804.000000	60.511305
1803.000000	60.504784
1802.000000	60.478672
1801.000000	60.454368
1800.000000	60.437426
1799.000000	60.410271
1798.000000	60.400294
1797.000000	60.383178
1796.000000	60.378677
1795.000000	60.384049
1794.000000	60.359223
1793.000000	60.324117
1792.000000	60.294300
1791.000000	60.291374
1790.000000	60.276773
1789.000000	60.242960
1788.000000	60.236248
1787.000000	60.200236
1786.000000	60.169407
1785.000000	60.178995
1784.000000	60.125377
1783.000000	60.104026
1782.000000	60.091015
1781.000000	60.084016
1780.000000	60.020181
1779.000000	59.973428
1778.000000	59.936813
1777.000000	59.887936
1776.000000	59.851260
1775.000000	59.814447
1774.000000	59.739066
1773.000000	59.708163
1772.000000	59.671130
1771.000000	59.625812
1770.000000	59.585817
1769.000000	59.519105
1768.000000	59.484645
1767.000000	59.441657
1766.000000	59.386719
1765.000000	59.349599
1764.000000	59.323134
1763.000000	59.265326
1762.000000	59.208384
1761.000000	59.198952
1760.000000	59.119341
1759.000000	59.054125
1758.000000	59.006832
1757.000000	58.962725
1756.000000	58.957463
1755.000000	58.894269
1754.000000	58.822169
1753.000000	58.788656
1752.000000	58.738079
1751.000000	58.689354
1750.000000	58.631844
1749.000000	58.617668
1748.000000	58.533701
1747.000000	58.468632
1746.000000	58.453202
1745.000000	58.406139
1744.000000	58.347500
1743.000000	58.314098
1742.000000	58.273492
1741.000000	58.210979
1740.000000	58.174628
1739.000000	58.093100
1738.000000	58.064722
1737.000000	58.037753
1736.000000	58.025005
1735.000000	58.007291
1734.000000	58.035378
1733.000000	58.022551
1732.000000	58.002745
1731.000000	58.032161
1730.000000	58.032014
1729.000000	58.069036
1728.000000	58.092098
1727.000000	58.140966
1726.000000	58.200267
1725.000000	58.253669
1724.000000	58.271929
1723.000000	58.382186
1722.000000	58.434465
1721.000000	58.543446
1720.000000	58.616996
1719.000000	58.703018
1718.000000	58.748144
1717.000000	58.824317
1716.000000	58.914492
1715.000000	58.972727
1714.000000	59.042994
1713.000000	59.132038
1712.000000	59.168037
1711.000000	59.211611
1710.000000	59.254888
1709.000000	59.266001
1708.000000	59.340981
1707.000000	59.381027
1706.000000	59.427029
1705.000000	59.458920
1704.000000	59.472593
1703.000000	59.488863
1702.000000	59.502090
1701.000000	59.524720
1700.000000	59.517530
1699.000000	59.547103
1698.000000	59.559449
1697.000000	59.586429
1696.000000	59.621887
1695.000000	59.592563
1694.000000	59.641623
1693.000000	59.688335
1692.000000	59.724442
1691.000000	59.758783
1690.000000	59.835423
1689.000000	59.913891
1688.000000	59.975795
1687.000000	60.053727
1686.000000	60.167881
1685.000000	60.254441
1684.000000	60.371519
1683.000000	60.483179
1682.000000	60.630775
1681.000000	60.768275
1680.000000	60.871663
1679.000000	60.992617
1678.000000	61.131272
1677.000000	61.227659
1676.000000	61.359709
1675.000000	61.502944
1674.000000	61.670805
1673.000000	61.838233
1672.000000	61.911833
1671.000000	62.010691
1670.000000	62.169642
1669.000000	62.300888
1668.000000	62.402121
1667.000000	62.539860
1666.000000	62.580076
1665.000000	62.690292
1664.000000	62.718467
1663.000000	62.789602
1662.000000	62.862924
1661.000000	62.915836
1660.000000	62.972036
1659.000000	63.017750
1658.000000	63.085253
1657.000000	63.107760
1656.000000	63.156119
1655.000000	63.167066
1654.000000	63.208101
1653.000000	63.211332
1652.000000	63.229688
1651.000000	63.213771
1650.000000	63.230917
1649.000000	63.248437
1648.000000	63.252404
1647.000000	63.255857
1646.000000	63.227938
1645.000000	63.232491
1644.000000	63.193741
1643.000000	63.198649
1642.000000	63.189996
1641.000000	63.171219
1640.000000	63.178787
1639.000000	63.160150
1638.000000	63.101153
1637.000000	63.072787
1636.000000	63.056239
1635.000000	63.049125
1634.000000	63.006728
1633.000000	62.967270
1632.000000	62.945333
1631.000000	62.954621
1630.000000	62.909895
1629.000000	62.870588
1628.000000	62.855820
1627.000000	62.823798
1626.000000	62.795490
1625.000000	62.757379
1624.000000	62.732822
1623.000000	62.694687
1622.000000	62.653074
1621.000000	62.625531
1620.000000	62.614186
1619.000000	62.561288
1618.000000	62.513117
1617.000000	62.496708
1616.000000	62.449460
1615.000000	62.398348
1614.000000	62.371300
1613.000000	62.328658
1612.000000	62.295970
1611.000000	62.253322
1610.000000	62.206517
1609.000000	62.176829
1608.000000	62.125951
1607.000000	62.080857
1606.000000	62.031634
1605.000000	61.964826
1604.000000	61.915590
1603.000000	61.895486
1602.000000	61.868682
1601.000000	61.810212
1600.000000	61.755112
1599.000000	61.727515
1598.000000	61.675235
1597.000000	61.626770
1596.000000	61.593330
1595.000000	61.565076
1594.000000	61.532228
1593.000000	61.496442
1592.000000	61.435142
1591.000000	61.384135
1590.000000	61.360874
1589.000000	61.311003
1588.000000	61.288522
1587.000000	61.268315
1586.000000	61.214940
1585.000000	61.166081
1584.000000	61.126641
1583.000000	61.110171
1582.000000	61.085145
1581.000000	61.052434
1580.000000	61.022784
1579.000000	60.997990
1578.000000	60.974315
1577.000000	60.928070
1576.000000	60.898507
1575.000000	60.869609
1574.000000	60.836952
1573.000000	60.814042
1572.000000	60.780288
1571.000000	60.718651
1570.000000	60.687116
1569.000000	60.670827
1568.000000	60.640339
1567.000000	60.611234
1566.000000	60.590310
1565.000000	60.564263
1564.000000	60.537166
1563.000000	60.523167
1562.000000	60.516693
1561.000000	60.492166
1560.000000	60.475264
1559.000000	60.455399
1558.000000	60.451415
1557.000000	60.439529
1556.000000	60.408279
1555.000000	60.390555
1554.000000	60.372346
1553.000000	60.373798
1552.000000	60.356158
1551.000000	60.334155
1550.000000	60.296811
1549.000000	60.279066
1548.000000	60.241066
1547.000000	60.197534
1546.000000	60.161811
1545.000000	60.115518
1544.000000	60.045594
1543.000000	60.021241
1542.000000	59.973473
1541.000000	59.917999
1540.000000	59.847857
1539.000000	59.785041
1538.000000	59.709607
1537.000000	59.637753
1536.000000	59.571130
1535.000000	59.508536
1534.000000	59.418136
1533.000000	59.374943
1532.000000	59.299920
1531.000000	59.204935
1530.000000	59.137687
1529.000000	59.071463
1528.000000	59.028548
1527.000000	58.986315
1526.000000	58.914389
1525.000000	58.866644
1524.000000	58.811929
1523.000000	58.765077
1522.000000	58.722554
1521.000000	58.664878
1520.000000	58.623675
1519.000000	58.573357
1518.000000	58.556472
1517.000000	58.514916
1516.000000	58.468109
1515.000000	58.442667
1514.000000	58.407047
1513.000000	58.392486
1512.000000	58.371463
1511.000000	58.342935
1510.000000	58.316670
1509.000000	58.323153
1508.000000	58.281720
1507.000000	58.273137
1506.000000	58.258654
1505.000000	58.236892
1504.000000	58.241006
1503.000000	58.244682
1502.000000	58.216649
1501.000000	58.218222
1500.000000	58.218318
1499.000000	58.209871
1498.000000	58.230057
1497.000000	58.253533
1496.000000	58.274492
1495.000000	58.296421
1494.000000	58.313887
1493.000000	58.350146
1492.000000	58.385904
1491.000000	58.412826
1490.000000	58.476733
1489.000000	58.516611
1488.000000	58.566038
1487.000000	58.607291
1486.000000	58.663590
1485.000000	58.730739
1484.000000	58.787975
1483.000000	58.855845
1482.000000	58.882448
1481.000000	58.990736
1480.000000	59.054602
1479.000000	59.102746
1478.000000	59.175934
1477.000000	59.237720
1476.000000	59.299954
1475.000000	59.347079
1474.000000	59.436384
1473.000000	59.483263
1472.000000	59.532782
1471.000000	59.596238
1470.000000	59.674514
1469.000000	59.718018
1468.000000	59.770427
1467.000000	59.814326
1466.000000	59.868003
1465.000000	59.927743
1464.000000	59.982103
1463.000000	60.018926
1462.000000	60.060907
1461.000000	60.090475
1460.000000	60.124835
1459.000000	60.203379
1458.000000	60.244936
1457.000000	60.258251
1456.000000	60.318236
1455.000000	60.394905
1454.000000	60.403610
1453.000000	60.467912
1452.000000	60.507179
1451.000000	60.563112
1450.000000	60.629217
1449.000000	60.686283
1448.000000	60.727914
1447.000000	60.772675
1446.000000	60.834608
1445.000000	60.883163
1444.000000	60.957086
1443.000000	61.029807
1442.000000	61.090595
1441.000000	61.140089
1440.000000	61.200849
1439.000000	61.271687
1438.000000	61.355780
1437.000000	61.447461
1436.000000	61.494455
1435.000000	61.573563
1434.000000	61.649893
1433.000000	61.719578
1432.000000	61.798537
1431.000000	61.863619
1430.000000	61.954426
1429.000000	62.045031
1428.000000	62.114754
1427.000000	62.219929
1426.000000	62.316676
1425.000000	62.419313
1424.000000	62.513555
1423.000000	62.626901
1422.000000	62.719242
1421.000000	62.817729
1420.000000	62.926786
1419.000000	63.039104
1418.000000	63.162301
1417.000000	63.261551
1416.000000	63.365814
1415.000000	63.499032
1414.000000	63.610419
1413.000000	63.716817
1412.000000	63.830163
1411.000000	63.936334
1410.000000	64.058270
1409.000000	64.165817
1408.000000	64.280860
1407.000000	64.404028
1406.000000	64.505368
1405.000000	64.617109
1404.000000	64.708774
1403.000000	64.809004
1402.000000	64.907333
1401.000000	65.003790
1400.000000	65.105018
1399.000000	65.216909
1398.000000	65.293738
1397.000000	65.376792
1396.000000	65.474746
1395.000000	65.558073
1394.000000	65.652665
1393.000000	65.732387
1392.000000	65.811847
1391.000000	65.889682
1390.000000	65.942900
1389.000000	66.010212
1388.000000	66.097734
1387.000000	66.169157
1386.000000	66.259255
1385.000000	66.328914
1384.000000	66.366021
1383.000000	66.424039
1382.000000	66.482949
1381.000000	66.527415
1380.000000	66.567513
1379.000000	66.622396
1378.000000	66.669356
1377.000000	66.720514
1376.000000	66.782989
1375.000000	66.811526
1374.000000	66.844283
1373.000000	66.880408
1372.000000	66.916874
1371.000000	66.963707
1370.000000	66.996261
1369.000000	67.019370
1368.000000	67.044755
1367.000000	67.077950
1366.000000	67.112386
1365.000000	67.134062
1364.000000	67.169122
1363.000000	67.207216
1362.000000	67.234761
1361.000000	67.276263
1360.000000	67.301697
1359.000000	67.323867
1358.000000	67.360368
1357.000000	67.413367
1356.000000	67.461816
1355.000000	67.487588
1354.000000	67.537789
1353.000000	67.565950
1352.000000	67.593477
1351.000000	67.650171
1350.000000	67.685950
1349.000000	67.717318
1348.000000	67.748582
1347.000000	67.781884
1346.000000	67.827038
1345.000000	67.853109
1344.000000	67.873188
1343.000000	67.914116
1342.000000	67.951841
1341.000000	67.977894
1340.000000	68.029766
1339.000000	68.051539
1338.000000	68.071481
1337.000000	68.089738
1336.000000	68.113947
1335.000000	68.130629
1334.000000	68.149534
1333.000000	68.169245
1332.000000	68.198798
1331.000000	68.208108
1330.000000	68.252862
1329.000000	68.279279
1328.000000	68.318224
1327.000000	68.385731
1326.000000	68.382342
1325.000000	68.361462
1324.000000	68.352124
1323.000000	68.378295
1322.000000	68.424790
1321.000000	68.420712
1320.000000	68.428313
1319.000000	68.438054
1318.000000	68.432740
1317.000000	68.447432
1316.000000	68.485113
1315.000000	68.491391
1314.000000	68.488309
1313.000000	68.488716
1312.000000	68.481624
1311.000000	68.542978
1310.000000	68.548362
1309.000000	68.534019
1308.000000	68.532893
1307.000000	68.549457
1306.000000	68.561716
1305.000000	68.559521
1304.000000	68.591676
1303.000000	68.603037
1302.000000	68.599491
1301.000000	68.599043
1300.000000	68.605772
1299.000000	68.600878
1298.000000	68.606689
1297.000000	68.599097
1296.000000	68.600271
1295.000000	68.618474
1294.000000	68.636145
1293.000000	68.620868
1292.000000	68.631760
1291.000000	68.611613
1290.000000	68.626364
1289.000000	68.636436
1288.000000	68.618502
1287.000000	68.625912
1286.000000	68.615933
1285.000000	68.610640
1284.000000	68.634926
1283.000000	68.574929
1282.000000	68.591049
1281.000000	68.592494
1280.000000	68.599033
1279.000000	68.598193
1278.000000	68.588160
1277.000000	68.583022
1276.000000	68.575483
1275.000000	68.587812
1274.000000	68.593974
1273.000000	68.573949
1272.000000	68.579714
1271.000000	68.581219
1270.000000	68.595828
1269.000000	68.582150
1268.000000	68.584624
1267.000000	68.602035
1266.000000	68.572316
1265.000000	68.597468
1264.000000	68.645662
1263.000000	68.646156
1262.000000	68.651315
1261.000000	68.637551
1260.000000	68.641661
1259.000000	68.653960
1258.000000	68.691979
1257.000000	68.690781
1256.000000	68.684548
1255.000000	68.675372
1254.000000	68.682660
1253.000000	68.670403
1252.000000	68.692818
1251.000000	68.699595
1250.000000	68.689060
1249.000000	68.692564
1248.000000	68.696102
1247.000000	68.687689
1246.000000	68.674300
1245.000000	68.682151
1244.000000	68.673249
1243.000000	68.689093
1242.000000	68.694566
1241.000000	68.678427
1240.000000	68.638735
1239.000000	68.633771
1238.000000	68.636409
1237.000000	68.625729
1236.000000	68.578094
1235.000000	68.568203
1234.000000	68.565949
1233.000000	68.569879
1232.000000	68.538515
1231.000000	68.545806
1230.000000	68.539613
1229.000000	68.523556
1228.000000	68.505301
1227.000000	68.484185
1226.000000	68.447826
1225.000000	68.438367
1224.000000	68.447576
1223.000000	68.430076
1222.000000	68.440043
1221.000000	68.418578
1220.000000	68.385063
1219.000000	68.363749
1218.000000	68.367661
1217.000000	68.336417
1216.000000	68.324848
1215.000000	68.306208
1214.000000	68.283956
1213.000000	68.313751
1212.000000	68.268042
1211.000000	68.246599
1210.000000	68.242167
1209.000000	68.254637
1208.000000	68.214174
1207.000000	68.182673
1206.000000	68.189939
1205.000000	68.138241
1204.000000	68.122617
1203.000000	68.131331
1202.000000	68.125823
1201.000000	68.098827
1200.000000	68.077528
1199.000000	68.068832
1198.000000	68.057633
1197.000000	68.020061
1196.000000	68.005881
1195.000000	68.013031
1194.000000	67.996090
1193.000000	67.968903
1192.000000	67.958740
1191.000000	67.959380
1190.000000	67.960046
1189.000000	67.931346
1188.000000	67.904448
1187.000000	67.923130
1186.000000	67.911683
1185.000000	67.913157
1184.000000	67.925682
1183.000000	67.932035
1182.000000	67.951297
1181.000000	67.958558
1180.000000	67.971927
1179.000000	67.995171
1178.000000	68.026061
1177.000000	68.035819
1176.000000	68.052532
1175.000000	68.086077
1174.000000	68.109561
1173.000000	68.138527
1172.000000	68.171818
1171.000000	68.202789
1170.000000	68.237525
1169.000000	68.275034
1168.000000	68.314440
1167.000000	68.359478
1166.000000	68.396942
1165.000000	68.425671
1164.000000	68.474342
1163.000000	68.523651
1162.000000	68.556041
1161.000000	68.586846
1160.000000	68.631850
1159.000000	68.660455
1158.000000	68.700090
1157.000000	68.745987
1156.000000	68.775877
1155.000000	68.807675
1154.000000	68.839219
1153.000000	68.869148
1152.000000	68.894561
1151.000000	68.913561
1150.000000	68.935840
1149.000000	68.965279
1148.000000	68.990862
1147.000000	69.011619
1146.000000	69.037489
1145.000000	69.055569
1144.000000	69.078601
1143.000000	69.122594
1142.000000	69.155232
1141.000000	69.168839
1140.000000	69.193643
1139.000000	69.212334
1138.000000	69.243936
1137.000000	69.269087
1136.000000	69.290068
1135.000000	69.290616
1134.000000	69.306738
1133.000000	69.331399
1132.000000	69.331534
1131.000000	69.353048
1130.000000	69.370705
1129.000000	69.391895
1128.000000	69.396582
1127.000000	69.421217
1126.000000	69.427149
1125.000000	69.441521
1124.000000	69.456661
1123.000000	69.469639
1122.000000	69.480420
1121.000000	69.475337
1120.000000	69.483834
1119.000000	69.477779
1118.000000	69.491739
1117.000000	69.498528
1116.000000	69.501874
1115.000000	69.502823
1114.000000	69.512871
1113.000000	69.528698
1112.000000	69.529592
1111.000000	69.521622
1110.000000	69.515558
1109.000000	69.523525
1108.000000	69.545567
1107.000000	69.543064
1106.000000	69.543198
1105.000000	69.526488
1104.000000	69.524710
1103.000000	69.537361
1102.000000	69.535872
1101.000000	69.547474
1100.000000	69.550013
1099.000000	69.550266
1098.000000	69.560704
1097.000000	69.543414
1096.000000	69.553847
1095.000000	69.547581
1094.000000	69.551232
1093.000000	69.551710
1092.000000	69.559670
1091.000000	69.558049
1090.000000	69.539744
1089.000000	69.543488
1088.000000	69.525512
1087.000000	69.524625
1086.000000	69.544309
1085.000000	69.530272
1084.000000	69.521197
1083.000000	69.518376
1082.000000	69.527861
1081.000000	69.521603
1080.000000	69.524776
1079.000000	69.533395
1078.000000	69.495549
1077.000000	69.486994
1076.000000	69.483783
1075.000000	69.506564
1074.000000	69.521403
1073.000000	69.506782
1072.000000	69.500553
1071.000000	69.502435
1070.000000	69.493881
1069.000000	69.478623
1068.000000	69.480117
1067.000000	69.484816
1066.000000	69.463303
1065.000000	69.463969
1064.000000	69.464917
1063.000000	69.462569
1062.000000	69.447902
1061.000000	69.451774
1060.000000	69.451028
1059.000000	69.443579
1058.000000	69.460830
1057.000000	69.431592
1056.000000	69.436970
1055.000000	69.428897
1054.000000	69.451936
1053.000000	69.457416
1052.000000	69.450336
1051.000000	69.440490
1050.000000	69.426256
1049.000000	69.440805
1048.000000	69.442921
1047.000000	69.439809
1046.000000	69.416115
1045.000000	69.414692
1044.000000	69.426074
1043.000000	69.418771
1042.000000	69.393347
1041.000000	69.390371
1040.000000	69.378028
1039.000000	69.388912
1038.000000	69.380861
1037.000000	69.372624
1036.000000	69.361379
1035.000000	69.388885
1034.000000	69.356663
1033.000000	69.373869
1032.000000	69.361188
1031.000000	69.366421
1030.000000	69.358630
1029.000000	69.365365
1028.000000	69.353889
1027.000000	69.378807
1026.000000	69.371111
1025.000000	69.347157
1024.000000	69.361215
1023.000000	69.355958
1022.000000	69.327414
1021.000000	69.340501
1020.000000	69.341943
1019.000000	69.339704
1018.000000	69.326695
1017.000000	69.351358
1016.000000	69.351719
1015.000000	69.340485
1014.000000	69.349338
1013.000000	69.341410
1012.000000	69.338352
1011.000000	69.359556
1010.000000	69.369688
1009.000000	69.356209
1008.000000	69.341449
1007.000000	69.333796
1006.000000	69.347372
1005.000000	69.358415
1004.000000	69.355858
1003.000000	69.342343
1002.000000	69.350487
1001.000000	69.346690
1000.000000	69.339552
999.000000	69.355636
998.000000	69.370603
997.000000	69.374900
996.000000	69.394308
995.000000	69.376380
994.000000	69.381998
993.000000	69.393127
992.000000	69.374165
991.000000	69.378145
990.000000	69.385215
989.000000	69.391799
988.000000	69.396738
987.000000	69.385235
986.000000	69.392964
985.000000	69.400370
984.000000	69.424740
983.000000	69.441676
982.000000	69.438278
981.000000	69.448151
980.000000	69.446824
979.000000	69.434221
978.000000	69.444431
977.000000	69.463934
976.000000	69.464023
975.000000	69.445653
974.000000	69.471041
973.000000	69.476320
972.000000	69.475621
971.000000	69.472556
970.000000	69.484461
969.000000	69.513698
968.000000	69.525342
967.000000	69.538236
966.000000	69.534040
965.000000	69.535572
964.000000	69.519549
963.000000	69.516343
962.000000	69.508749
961.000000	69.538879
960.000000	69.557204
959.000000	69.546110
958.000000	69.542538
957.000000	69.570352
956.000000	69.569479
955.000000	69.567318
954.000000	69.588467
953.000000	69.592697
952.000000	69.597728
951.000000	69.591193
950.000000	69.566515
949.000000	69.578400
948.000000	69.588673
947.000000	69.597491
946.000000	69.597493
945.000000	69.592371
944.000000	69.591579
943.000000	69.602640
942.000000	69.626019
941.000000	69.623468
940.000000	69.624773
939.000000	69.650039
938.000000	69.657573
937.000000	69.660417
936.000000	69.651654
935.000000	69.653913
934.000000	69.671296
933.000000	69.658544
932.000000	69.629587
931.000000	69.625408
930.000000	69.626880
929.000000	69.642121
928.000000	69.647212
927.000000	69.625834
926.000000	69.602881
925.000000	69.578941
924.000000	69.583043
923.000000	69.614788
922.000000	69.655421
921.000000	69.646001
920.000000	69.601559
919.000000	69.579266
918.000000	69.582385
917.000000	69.616171
916.000000	69.635830
915.000000	69.608629
914.000000	69.633590
913.000000	69.623222
912.000000	69.634525
911.000000	69.627700
910.000000	69.634672
909.000000	69.649360
908.000000	69.711649
907.000000	69.763327
906.000000	69.709160
905.000000	69.686483
904.000000	69.696187
903.000000	69.699938
902.000000	69.732953
901.000000	69.739533
900.000000	69.688685
899.000000	69.701899
898.000000	69.680115
897.000000	69.697927
896.000000	69.739425
895.000000	69.759283
894.000000	69.754359
893.000000	69.764060
892.000000	69.801801
891.000000	69.746954
890.000000	69.754249
889.000000	69.838767
888.000000	69.802135
887.000000	69.761372
886.000000	69.781065
885.000000	69.772321
884.000000	69.802333
883.000000	69.760960
882.000000	69.833419
881.000000	69.717537
880.000000	69.807966
879.000000	69.810118
878.000000	69.821530
877.000000	69.820857
876.000000	69.766954
875.000000	69.831653
874.000000	69.823477
873.000000	69.719503
872.000000	69.843481
871.000000	69.844376
870.000000	69.853445
869.000000	69.842142
868.000000	69.835594
867.000000	69.758922
866.000000	69.817059
865.000000	69.851794
864.000000	69.927952
863.000000	69.894393
862.000000	69.860517
861.000000	69.738579
860.000000	69.862137
859.000000	68.971521
858.000000	69.585586
857.000000	69.456483
856.000000	69.256634
855.000000	69.134739
854.000000	69.580827
853.000000	69.378727
852.000000	69.394176
851.000000	69.509014
850.000000	69.607011
849.000000	69.605806
848.000000	69.229953
847.000000	69.397565
846.000000	69.192569
845.000000	69.578441
844.000000	69.343790
843.000000	69.507172
842.000000	69.359176
841.000000	69.382723
840.000000	69.420842
839.000000	69.513096
838.000000	69.525950
837.000000	69.622555
836.000000	69.427096
835.000000	69.483636
834.000000	69.414693
833.000000	69.527568
832.000000	69.320344
831.000000	69.126496
830.000000	69.501625
829.000000	69.373094
828.000000	69.400504
827.000000	69.253272
826.000000	69.569495
825.000000	69.366456
824.000000	69.463561
823.000000	69.412389
822.000000	69.347549
821.000000	69.354453
820.000000	69.317052
819.000000	69.459070
818.000000	69.289127
817.000000	69.343849
816.000000	69.513542
815.000000	69.569992
814.000000	69.431643
813.000000	69.472238
812.000000	69.515585
811.000000	69.332358
810.000000	69.361257
809.000000	69.439356
808.000000	69.378767
807.000000	69.316635
806.000000	69.467310
805.000000	69.367382
804.000000	69.404984
803.000000	69.436040
802.000000	69.542597
801.000000	69.499280
800.000000	69.464669
799.000000	69.545964
798.000000	69.288614
797.000000	69.225295
796.000000	69.312097
795.000000	69.402955
794.000000	69.287220
793.000000	69.417352
792.000000	69.579265
791.000000	69.360195
790.000000	69.414297
789.000000	69.588968
788.000000	69.536412
787.000000	69.558686
786.000000	69.497768
785.000000	69.445588
784.000000	69.297414
783.000000	69.493081
782.000000	69.354949
781.000000	69.489858
780.000000	69.508125
779.000000	69.563933
778.000000	69.488330
777.000000	69.476142
776.000000	69.468544
775.000000	69.494825
774.000000	69.482881
773.000000	69.411784
772.000000	69.595538
771.000000	69.412154
770.000000	69.378168
769.000000	69.392221
768.000000	69.560117
767.000000	69.535966
766.000000	69.428949
765.000000	69.439795
764.000000	69.479517
763.000000	69.478574
762.000000	69.472511
761.000000	69.462995
760.000000	69.429211
759.000000	69.486786
758.000000	69.440903
757.000000	69.341221
756.000000	69.390263
755.000000	69.467023
754.000000	69.448643
753.000000	69.435954
752.000000	69.406875
751.000000	69.461362
750.000000	69.442860
749.000000	69.460570
748.000000	69.434608
747.000000	69.436503
746.000000	69.446445
745.000000	69.477562
744.000000	69.423124
743.000000	69.399977
742.000000	69.443636
741.000000	69.473327
740.000000	69.469207
739.000000	69.488223
738.000000	69.476763
737.000000	69.494449
736.000000	69.485529
735.000000	69.477608
734.000000	69.448473
733.000000	69.470307
732.000000	69.447813
731.000000	69.467834
730.000000	69.468763
729.000000	69.413298
728.000000	69.425175
727.000000	69.392909
726.000000	69.377686
725.000000	69.446828
724.000000	69.436859
723.000000	69.378296
722.000000	69.425341
721.000000	69.473020
720.000000	69.469520
719.000000	69.470518
718.000000	69.498419
717.000000	69.504913
716.000000	69.429056
715.000000	69.443894
714.000000	69.488335
713.000000	69.482963
712.000000	69.441559
711.000000	69.485405
710.000000	69.537509
709.000000	69.504199
708.000000	69.444624
707.000000	69.462120
706.000000	69.498068
705.000000	69.468308
704.000000	69.439335
703.000000	69.471392
702.000000	69.496899
701.000000	69.502934
700.000000	69.479527
699.000000	69.449667
698.000000	69.500620
697.000000	69.516817
696.000000	69.537621
695.000000	69.542760
694.000000	69.492605
693.000000	69.467314
692.000000	69.446835
691.000000	69.459274
690.000000	69.493143
689.000000	69.419489
688.000000	69.363391
687.000000	69.393916
686.000000	69.433345
685.000000	69.379323
684.000000	69.402286
683.000000	69.470498
682.000000	69.435474
681.000000	69.393996
680.000000	69.359275
679.000000	69.359202
678.000000	69.443221
677.000000	69.431588
676.000000	69.423644
675.000000	69.467031
674.000000	69.426944
673.000000	69.457238
672.000000	69.460149
671.000000	69.466713
670.000000	69.373342
669.000000	69.361983
668.000000	69.394215
667.000000	69.421278
666.000000	69.464036
665.000000	69.466493
664.000000	69.438251
663.000000	69.402360
662.000000	69.408018
661.000000	69.406801
660.000000	69.477940
659.000000	69.443205
658.000000	69.460055
657.000000	69.433562
656.000000	69.463460
655.000000	69.463812
654.000000	69.470792
653.000000	69.411954
652.000000	69.399435
651.000000	69.440941
650.000000	69.487724
649.000000	69.434317
648.000000	69.436601
647.000000	69.465469
646.000000	69.440716
645.000000	69.435983
644.000000	69.458095
643.000000	69.454289
642.000000	69.458686
641.000000	69.444537
640.000000	69.396451
639.000000	69.437631
638.000000	69.449091
637.000000	69.446241
636.000000	69.396496
635.000000	69.418987
634.000000	69.413888
633.000000	69.425629
632.000000	69.420903
631.000000	69.491402
630.000000	69.487481
629.000000	69.465387
628.000000	69.482256
627.000000	69.455350
626.000000	69.482532
625.000000	69.488245
624.000000	69.478643
623.000000	69.464870
622.000000	69.434549
621.000000	69.417655
620.000000	69.403181
619.000000	69.391957
618.000000	69.494540
617.000000	69.439713
616.000000	69.449050
615.000000	69.423145
614.000000	69.415278
613.000000	69.471364
612.000000	69.498932
611.000000	69.478886
610.000000	69.384742
609.000000	69.424272
608.000000	69.373880
607.000000	69.426940
606.000000	69.459719
605.000000	69.430637
604.000000	69.316221
603.000000	69.446714
602.000000	69.351168
601.000000	69.387774
600.000000	69.453830
599.000000	69.385012
598.000000	69.379595
597.000000	69.418765
596.000000	69.363443
595.000000	69.382418
594.000000	69.387018
593.000000	69.426637
592.000000	69.327441
591.000000	69.395923
590.000000	69.357533
589.000000	69.397583
588.000000	69.419181
587.000000	69.358950
586.000000	69.336482
585.000000	69.330386
584.000000	69.302459
583.000000	69.308589
582.000000	69.340423
581.000000	69.405993
580.000000	69.268217
579.000000	69.278484
578.000000	69.312749
577.000000	69.325298
576.000000	69.327186
575.000000	69.289916
574.000000	69.255492
573.000000	69.312266
572.000000	69.281741
571.000000	69.232537
570.000000	69.219819
569.000000	69.309263
568.000000	69.255243
567.000000	69.237932
566.000000	69.209043
565.000000	69.229771
564.000000	69.257192
563.000000	69.218510
562.000000	69.192961
561.000000	69.178995
560.000000	69.125933
559.000000	69.175147
558.000000	69.162978
557.000000	69.152557
556.000000	69.190306
555.000000	69.185556
554.000000	69.131949
553.000000	69.147910
552.000000	69.165906
551.000000	69.139207
550.000000	69.141465
549.000000	69.060503
548.000000	69.082542
547.000000	69.128675
546.000000	69.044694
545.000000	69.068233
544.000000	69.016337
543.000000	69.007557
542.000000	68.946190
541.000000	68.970725
540.000000	68.961033
539.000000	68.955304
538.000000	68.999118
537.000000	68.927973
536.000000	68.926262
535.000000	68.896032
534.000000	68.911184
533.000000	68.864181
532.000000	68.884929
531.000000	68.842961
530.000000	68.871399
529.000000	68.841259
528.000000	68.799818
527.000000	68.766042
526.000000	68.771887
525.000000	68.766127
524.000000	68.746183
523.000000	68.735419
522.000000	68.707018
521.000000	68.690422
520.000000	68.646118
519.000000	68.673230
518.000000	68.646669
517.000000	68.677819
516.000000	68.629753
515.000000	68.600622
514.000000	68.534100
513.000000	68.525256
512.000000	68.512525
511.000000	68.514063
510.000000	68.461002
509.000000	68.503088
508.000000	68.495515
507.000000	68.406621
506.000000	68.405757
505.000000	68.391552
504.000000	68.332842
503.000000	68.382247
502.000000	68.380230
501.000000	68.342684
500.000000	68.272078
499.000000	68.299505
498.000000	68.283456
497.000000	68.241022
496.000000	68.232215
495.000000	68.201250
494.000000	68.170998
493.000000	68.079830
492.000000	68.063373
491.000000	68.064329
490.000000	67.950557
489.000000	68.023134
488.000000	68.035855
487.000000	67.910168
486.000000	67.811432
485.000000	67.782263
484.000000	67.874473
483.000000	67.918959
482.000000	67.878489
481.000000	67.884564
480.000000	67.813288
479.000000	67.760735
478.000000	67.743779
477.000000	67.713875
476.000000	67.680773
475.000000	67.651589
474.000000	67.592182
473.000000	67.557093
472.000000	67.525248
471.000000	67.501859
470.000000	67.456558
469.000000	67.451597
468.000000	67.390858
467.000000	67.291047
466.000000	67.269107
465.000000	67.181049
464.000000	67.143081
463.000000	67.177115
462.000000	67.099541
461.000000	67.046349
460.000000	67.002527
459.000000	66.953160
458.000000	66.939392
457.000000	66.839591
456.000000	66.756836
455.000000	66.748811
454.000000	66.716604
453.000000	66.668567
452.000000	66.623297
451.000000	66.538485
450.000000	66.451860
449.000000	66.367118
448.000000	66.348779
447.000000	66.351287
446.000000	66.248379
445.000000	66.151949
444.000000	66.124656
443.000000	66.091644
442.000000	66.053827
441.000000	65.974644
440.000000	65.893015
439.000000	65.840393
438.000000	65.774146
437.000000	65.682086
436.000000	65.541483
435.000000	65.424613
434.000000	65.346185
433.000000	65.275970
432.000000	65.186929
431.000000	65.068751
430.000000	64.962007
429.000000	64.899187
428.000000	64.865614
427.000000	64.726001
426.000000	64.574540
425.000000	64.539899
424.000000	64.473864
423.000000	64.312884
422.000000	64.218339
421.000000	64.074910
420.000000	63.983609
419.000000	63.828360
418.000000	63.703100
417.000000	63.602566
416.000000	63.453022
415.000000	63.318048
414.000000	63.234226
413.000000	63.116416
412.000000	62.965293
411.000000	62.825300
410.000000	62.730566
409.000000	62.621549
408.000000	62.421140
407.000000	62.250519
406.000000	62.097952
405.000000	61.941425
404.000000	61.803270
403.000000	61.693243
402.000000	61.560235
401.000000	61.404606
400.000000	61.239370
399.000000	61.098324
398.000000	60.922060
397.000000	60.830627
396.000000	60.622303
395.000000	60.388927
394.000000	60.221479
393.000000	60.106226
392.000000	59.968870
391.000000	59.784625
390.000000	59.704064
389.000000	59.451707
388.000000	59.203256
387.000000	59.138462
386.000000	58.899604
385.000000	58.654714
384.000000	58.472465
383.000000	58.367610
382.000000	58.079415
381.000000	57.808301
380.000000	57.701039
379.000000	57.458216
378.000000	57.212434
377.000000	57.106128
376.000000	56.942264
375.000000	56.675703
374.000000	56.365682
373.000000	56.100133
372.000000	55.857586
371.000000	55.791454
370.000000	55.527904
369.000000	55.165971
368.000000	54.860722
367.000000	54.735411
366.000000	54.466420
365.000000	54.222265
364.000000	53.867879
363.000000	53.659667
362.000000	53.317083
361.000000	53.190016
360.000000	52.840068
359.000000	52.634251
358.000000	52.206620
357.000000	52.143301
356.000000	51.843884
355.000000	51.505641
354.000000	51.512231
353.000000	51.130303
352.000000	50.892886
351.000000	50.658857
350.000000	50.291675
349.000000	50.184110
348.000000	49.762913
347.000000	49.569876
346.000000	49.295744
345.000000	48.960450
344.000000	48.648553
343.000000	48.338745
342.000000	47.881443
341.000000	47.768117
340.000000	47.471637
339.000000	46.942577
338.000000	46.523273
337.000000	46.081212
336.000000	45.693568
335.000000	45.180807
334.000000	44.879246
333.000000	44.389953
332.000000	43.706198
331.000000	43.353363
330.000000	42.862263
329.000000	42.319140
328.000000	41.651791
327.000000	41.624066
326.000000	40.795291
325.000000	40.438042
324.000000	40.220955
323.000000	40.031093
322.000000	39.538594
321.000000	39.154243
320.000000	38.827347
319.000000	38.825387
318.000000	38.410349
317.000000	38.248499
316.000000	37.766937
315.000000	37.684608
314.000000	37.524967
313.000000	37.247682
312.000000	37.024770
311.000000	36.765341
310.000000	36.549307
309.000000	36.301038
308.000000	36.127463
307.000000	36.117197
306.000000	35.771623
305.000000	35.632255
304.000000	35.475501
303.000000	35.217667
302.000000	35.052936
301.000000	34.783150
300.000000	34.522665
299.000000	34.107919
298.000000	33.816987
297.000000	33.498190
296.000000	33.048621
295.000000	32.446694
294.000000	31.918992
293.000000	31.231207
292.000000	30.312155
291.000000	29.330661
290.000000	28.237235
289.000000	27.492429
288.000000	26.729504
287.000000	26.110271
286.000000	25.622564
285.000000	25.362742
284.000000	25.127378
283.000000	25.083156
282.000000	25.064584
281.000000	24.927129
280.000000	24.920628
279.000000	25.049361
278.000000	25.077022
277.000000	25.211786
276.000000	25.414137
275.000000	25.792769
274.000000	26.096011
273.000000	26.262100
272.000000	26.402465
271.000000	26.573530
270.000000	26.681774
269.000000	26.854987
268.000000	27.036010
267.000000	27.320482
266.000000	27.618303
265.000000	27.893291
264.000000	28.231717
263.000000	28.526771
262.000000	28.885235
261.000000	28.976793
260.000000	29.184133
259.000000	29.469801
258.000000	29.748539
257.000000	30.199389
256.000000	30.517777
255.000000	30.660243
254.000000	30.696205
253.000000	30.631991
252.000000	30.512299
251.000000	30.369267
250.000000	30.082260
249.000000	29.528950
248.000000	28.700261
247.000000	27.796382
246.000000	26.763266
245.000000	25.609184
244.000000	24.397351
243.000000	23.171266
242.000000	22.018239
241.000000	20.951597
240.000000	20.047361
239.000000	19.263168
238.000000	18.667483
237.000000	18.233623
236.000000	17.941699
235.000000	17.728704
234.000000	17.621395
233.000000	17.516622
232.000000	17.462116
231.000000	17.478288
230.000000	17.473445
229.000000	17.430111
228.000000	17.429360
227.000000	17.555922
226.000000	17.672122
225.000000	17.780398
224.000000	18.059371
223.000000	18.268549
222.000000	18.410029
221.000000	18.623261
220.000000	18.950975
219.000000	19.298588
218.000000	19.473908
217.000000	19.714262
216.000000	20.106276
215.000000	20.420276
214.000000	20.696579
213.000000	21.058187
212.000000	21.474445
211.000000	21.773647
210.000000	22.129687
209.000000	22.705919
208.000000	23.228624
207.000000	23.721340
206.000000	24.183847
205.000000	24.840645
204.000000	25.506906
203.000000	25.926623
202.000000	26.353544
201.000000	26.983417
200.000000	27.671217
