PE UV       SUBTECH     SPECTRUM    ASCII       PEDS        4.00        
   -1
RDAgneauUK 42.Sample.asc
18/03/02
17:17:16.00
18/03/02
17:17:16.00
Administrator

200.000000
1
Lambda 750
750N8071901
PerkinElmer UV WinLab 6.0.4.0738 / 1.61.00 Lambda 900

0
0
3350/servo 860.8/2
0
0
UV/VIS
1
1
1
CommonBeamDepol,150mm sphere / downward view
0
0
0
0
Program
Program
3350/servo 860.8/2
3350/0.2 860.8/0.2
3350/0.2 860.8/0.2
0
1
 
 
 
0
 
860.8
319.2
860.8
Front
100
on
 
 
0
0
0
 
0
 
 
 
0
 
 
0
0
0
0
0
 
 
 
 
0
0


0
0
#HDR
-1
-1
#GR
nm
%R
1.0
0.0
2350.000000
-1.000000
2151
8
69.562506
16.358629
#DATA
2350.000000	41.117714
2349.000000	40.679929
2348.000000	40.514824
2347.000000	41.601521
2346.000000	41.453747
2345.000000	41.478850
2344.000000	41.272239
2343.000000	40.856023
2342.000000	41.334517
2341.000000	41.207571
2340.000000	41.420272
2339.000000	41.839702
2338.000000	41.831254
2337.000000	41.783553
2336.000000	41.683930
2335.000000	41.964185
2334.000000	41.875236
2333.000000	41.765188
2332.000000	41.776288
2331.000000	41.667079
2330.000000	41.590167
2329.000000	41.500063
2328.000000	41.350243
2327.000000	41.567763
2326.000000	41.571736
2325.000000	41.693352
2324.000000	41.561141
2323.000000	41.649010
2322.000000	41.398277
2321.000000	41.425919
2320.000000	41.340068
2319.000000	41.055547
2318.000000	41.389098
2317.000000	41.156456
2316.000000	41.235666
2315.000000	40.952419
2314.000000	40.740655
2313.000000	40.636275
2312.000000	40.787774
2311.000000	40.710781
2310.000000	40.558285
2309.000000	40.685688
2308.000000	40.560411
2307.000000	40.321983
2306.000000	40.386292
2305.000000	40.277839
2304.000000	40.104699
2303.000000	40.017874
2302.000000	40.170193
2301.000000	39.865241
2300.000000	39.829276
2299.000000	39.850982
2298.000000	39.754355
2297.000000	39.611116
2296.000000	39.510523
2295.000000	39.415204
2294.000000	39.313180
2293.000000	39.243433
2292.000000	39.200041
2291.000000	38.938658
2290.000000	39.015971
2289.000000	39.109756
2288.000000	39.125024
2287.000000	39.007362
2286.000000	38.774759
2285.000000	38.772712
2284.000000	38.823386
2283.000000	38.722724
2282.000000	38.620792
2281.000000	38.774930
2280.000000	38.635623
2279.000000	38.536537
2278.000000	38.613871
2277.000000	38.670890
2276.000000	38.662112
2275.000000	38.713508
2274.000000	38.688858
2273.000000	38.836341
2272.000000	38.927870
2271.000000	38.758414
2270.000000	38.702345
2269.000000	38.786390
2268.000000	39.011532
2267.000000	39.151702
2266.000000	39.269437
2265.000000	39.360862
2264.000000	39.533002
2263.000000	39.530970
2262.000000	39.503886
2261.000000	39.707107
2260.000000	39.917368
2259.000000	40.076007
2258.000000	40.383928
2257.000000	40.478612
2256.000000	40.606401
2255.000000	40.965299
2254.000000	41.019883
2253.000000	40.983900
2252.000000	41.338506
2251.000000	41.725755
2250.000000	42.009546
2249.000000	42.141064
2248.000000	42.318328
2247.000000	42.637697
2246.000000	42.780820
2245.000000	42.815646
2244.000000	42.961617
2243.000000	43.211286
2242.000000	43.435584
2241.000000	43.579412
2240.000000	43.711746
2239.000000	43.912216
2238.000000	44.026314
2237.000000	44.119003
2236.000000	44.324611
2235.000000	44.425463
2234.000000	44.415469
2233.000000	44.438360
2232.000000	44.506132
2231.000000	44.463693
2230.000000	44.553229
2229.000000	44.661308
2228.000000	44.793799
2227.000000	44.794792
2226.000000	44.757975
2225.000000	44.690870
2224.000000	44.661076
2223.000000	44.644889
2222.000000	44.769247
2221.000000	44.816606
2220.000000	44.800037
2219.000000	44.810669
2218.000000	44.607600
2217.000000	44.591655
2216.000000	44.576834
2215.000000	44.562506
2214.000000	44.615086
2213.000000	44.633029
2212.000000	44.567791
2211.000000	44.365365
2210.000000	44.218077
2209.000000	44.264046
2208.000000	44.180377
2207.000000	44.094832
2206.000000	44.091085
2205.000000	43.979451
2204.000000	43.962049
2203.000000	43.784542
2202.000000	43.684485
2201.000000	43.697519
2200.000000	43.638029
2199.000000	43.497576
2198.000000	43.376292
2197.000000	43.444158
2196.000000	43.356023
2195.000000	43.170143
2194.000000	43.173541
2193.000000	43.149250
2192.000000	43.127459
2191.000000	43.104263
2190.000000	42.964778
2189.000000	42.848783
2188.000000	42.786343
2187.000000	42.698931
2186.000000	42.654198
2185.000000	42.706975
2184.000000	42.777478
2183.000000	42.608103
2182.000000	42.371252
2181.000000	42.407290
2180.000000	42.383785
2179.000000	42.452531
2178.000000	42.402997
2177.000000	42.446132
2176.000000	42.567321
2175.000000	42.433559
2174.000000	42.675244
2173.000000	42.570967
2172.000000	42.533847
2171.000000	42.539698
2170.000000	42.507974
2169.000000	42.740877
2168.000000	42.883404
2167.000000	42.856237
2166.000000	42.960188
2165.000000	43.052215
2164.000000	43.170318
2163.000000	43.280350
2162.000000	43.453732
2161.000000	43.499486
2160.000000	43.675342
2159.000000	43.724562
2158.000000	43.866260
2157.000000	44.066743
2156.000000	44.203175
2155.000000	44.234625
2154.000000	44.579883
2153.000000	44.682317
2152.000000	44.708378
2151.000000	44.976071
2150.000000	45.193433
2149.000000	45.276285
2148.000000	45.520729
2147.000000	45.623502
2146.000000	45.829370
2145.000000	46.092930
2144.000000	46.074488
2143.000000	46.135825
2142.000000	46.280082
2141.000000	46.510262
2140.000000	46.570657
2139.000000	46.758558
2138.000000	46.945674
2137.000000	47.008963
2136.000000	47.116680
2135.000000	47.192702
2134.000000	47.356204
2133.000000	47.439200
2132.000000	47.623283
2131.000000	47.664624
2130.000000	47.927914
2129.000000	47.807929
2128.000000	47.927335
2127.000000	48.026840
2126.000000	48.046810
2125.000000	48.092622
2124.000000	48.141367
2123.000000	48.423496
2122.000000	48.324853
2121.000000	48.414085
2120.000000	48.243112
2119.000000	48.299793
2118.000000	48.472905
2117.000000	48.458463
2116.000000	48.484775
2115.000000	48.526216
2114.000000	48.682437
2113.000000	48.455039
2112.000000	48.625321
2111.000000	48.604999
2110.000000	48.619702
2109.000000	48.615500
2108.000000	48.732870
2107.000000	48.725935
2106.000000	48.713076
2105.000000	48.746003
2104.000000	48.757255
2103.000000	48.908023
2102.000000	48.783845
2101.000000	48.916436
2100.000000	48.896140
2099.000000	48.890540
2098.000000	48.804972
2097.000000	48.967483
2096.000000	48.893515
2095.000000	48.787603
2094.000000	48.851256
2093.000000	48.768149
2092.000000	48.957597
2091.000000	48.834775
2090.000000	48.713501
2089.000000	48.758343
2088.000000	48.749476
2087.000000	48.678578
2086.000000	48.717869
2085.000000	48.630225
2084.000000	48.498384
2083.000000	48.568740
2082.000000	48.611056
2081.000000	48.521849
2080.000000	48.445719
2079.000000	48.397398
2078.000000	48.299722
2077.000000	48.174797
2076.000000	48.140785
2075.000000	48.030090
2074.000000	47.915283
2073.000000	47.838447
2072.000000	47.764225
2071.000000	47.651074
2070.000000	47.579493
2069.000000	47.477404
2068.000000	47.302718
2067.000000	47.036415
2066.000000	46.892153
2065.000000	46.743749
2064.000000	46.598412
2063.000000	46.402540
2062.000000	46.298633
2061.000000	46.126786
2060.000000	45.951330
2059.000000	45.823073
2058.000000	45.733938
2057.000000	45.577257
2056.000000	45.443622
2055.000000	45.365170
2054.000000	45.228037
2053.000000	45.061871
2052.000000	44.927183
2051.000000	44.740510
2050.000000	44.619802
2049.000000	44.532432
2048.000000	44.418775
2047.000000	44.391245
2046.000000	44.364207
2045.000000	44.300673
2044.000000	44.229967
2043.000000	44.216903
2042.000000	44.164098
2041.000000	44.131148
2040.000000	44.193592
2039.000000	44.193230
2038.000000	44.228306
2037.000000	44.283278
2036.000000	44.338910
2035.000000	44.423444
2034.000000	44.496678
2033.000000	44.616557
2032.000000	44.829065
2031.000000	44.910351
2030.000000	44.973846
2029.000000	45.165855
2028.000000	45.274372
2027.000000	45.373394
2026.000000	45.589039
2025.000000	45.694928
2024.000000	45.763367
2023.000000	45.865727
2022.000000	45.944223
2021.000000	46.043200
2020.000000	46.148119
2019.000000	46.189526
2018.000000	46.228895
2017.000000	46.275603
2016.000000	46.271716
2015.000000	46.309266
2014.000000	46.402471
2013.000000	46.396386
2012.000000	46.349292
2011.000000	46.352315
2010.000000	46.324161
2009.000000	46.293828
2008.000000	46.283164
2007.000000	46.242520
2006.000000	46.166824
2005.000000	46.128147
2004.000000	46.051961
2003.000000	45.956890
2002.000000	45.885019
2001.000000	45.814666
2000.000000	45.774131
1999.000000	45.665339
1998.000000	45.590518
1997.000000	45.527196
1996.000000	45.419246
1995.000000	45.307507
1994.000000	45.229855
1993.000000	45.142296
1992.000000	45.040592
1991.000000	44.938659
1990.000000	44.886868
1989.000000	44.746380
1988.000000	44.648810
1987.000000	44.581100
1986.000000	44.473681
1985.000000	44.411451
1984.000000	44.294798
1983.000000	44.202722
1982.000000	44.119930
1981.000000	44.007645
1980.000000	43.900053
1979.000000	43.806595
1978.000000	43.713383
1977.000000	43.622159
1976.000000	43.513318
1975.000000	43.413231
1974.000000	43.314834
1973.000000	43.267935
1972.000000	43.165623
1971.000000	42.974296
1970.000000	42.925435
1969.000000	42.835465
1968.000000	42.749181
1967.000000	42.628900
1966.000000	42.561785
1965.000000	42.476856
1964.000000	42.372164
1963.000000	42.267178
1962.000000	42.181861
1961.000000	42.059056
1960.000000	41.997424
1959.000000	41.868985
1958.000000	41.807110
1957.000000	41.762313
1956.000000	41.663728
1955.000000	41.552046
1954.000000	41.473079
1953.000000	41.445951
1952.000000	41.378923
1951.000000	41.334188
1950.000000	41.251897
1949.000000	41.168479
1948.000000	41.180193
1947.000000	41.111066
1946.000000	41.068584
1945.000000	41.101329
1944.000000	40.978356
1943.000000	41.058232
1942.000000	41.101712
1941.000000	41.062160
1940.000000	41.198188
1939.000000	41.173573
1938.000000	41.224654
1937.000000	41.340089
1936.000000	41.453417
1935.000000	41.503600
1934.000000	41.571089
1933.000000	41.628681
1932.000000	41.841850
1931.000000	42.000789
1930.000000	42.132718
1929.000000	42.340562
1928.000000	42.594469
1927.000000	42.764582
1926.000000	42.881202
1925.000000	43.178123
1924.000000	43.307582
1923.000000	43.594325
1922.000000	43.878323
1921.000000	44.197966
1920.000000	44.359806
1919.000000	44.664175
1918.000000	45.012749
1917.000000	45.292907
1916.000000	45.641351
1915.000000	45.963976
1914.000000	46.246577
1913.000000	46.662276
1912.000000	46.976853
1911.000000	47.245002
1910.000000	47.606542
1909.000000	48.050343
1908.000000	48.294031
1907.000000	48.813864
1906.000000	49.195415
1905.000000	49.605045
1904.000000	49.969094
1903.000000	50.427229
1902.000000	50.827280
1901.000000	51.262773
1900.000000	51.711484
1899.000000	52.058273
1898.000000	52.524070
1897.000000	52.918133
1896.000000	53.300762
1895.000000	53.755638
1894.000000	54.133678
1893.000000	54.454178
1892.000000	54.810633
1891.000000	55.181319
1890.000000	55.622802
1889.000000	55.987720
1888.000000	56.246034
1887.000000	56.623716
1886.000000	56.917218
1885.000000	57.157816
1884.000000	57.506186
1883.000000	57.770048
1882.000000	57.981865
1881.000000	58.242344
1880.000000	58.462552
1879.000000	58.699934
1878.000000	58.925381
1877.000000	59.200970
1876.000000	59.307088
1875.000000	59.500482
1874.000000	59.739220
1873.000000	59.808523
1872.000000	60.028451
1871.000000	60.135751
1870.000000	60.221306
1869.000000	60.387347
1868.000000	60.507005
1867.000000	60.527336
1866.000000	60.581262
1865.000000	60.689768
1864.000000	60.748130
1863.000000	60.829695
1862.000000	60.885394
1861.000000	60.867108
1860.000000	60.936579
1859.000000	60.975967
1858.000000	60.988887
1857.000000	61.042370
1856.000000	61.080477
1855.000000	61.055605
1854.000000	61.097997
1853.000000	61.111240
1852.000000	61.107281
1851.000000	61.124482
1850.000000	61.111712
1849.000000	61.091138
1848.000000	61.097682
1847.000000	61.125129
1846.000000	61.123821
1845.000000	61.117153
1844.000000	61.100274
1843.000000	61.031724
1842.000000	61.022901
1841.000000	61.026743
1840.000000	61.018407
1839.000000	61.007061
1838.000000	60.966591
1837.000000	60.935219
1836.000000	60.888251
1835.000000	60.885328
1834.000000	60.847769
1833.000000	60.809885
1832.000000	60.764084
1831.000000	60.719857
1830.000000	60.732356
1829.000000	60.684615
1828.000000	60.647407
1827.000000	60.604460
1826.000000	60.597124
1825.000000	60.600184
1824.000000	60.618365
1823.000000	60.567708
1822.000000	60.506232
1821.000000	60.487616
1820.000000	60.456784
1819.000000	60.427174
1818.000000	60.416928
1817.000000	60.402868
1816.000000	60.360851
1815.000000	60.354061
1814.000000	60.332926
1813.000000	60.267217
1812.000000	60.256260
1811.000000	60.237277
1810.000000	60.215270
1809.000000	60.219291
1808.000000	60.200479
1807.000000	60.156025
1806.000000	60.126247
1805.000000	60.095652
1804.000000	60.065978
1803.000000	60.067706
1802.000000	60.052347
1801.000000	60.040237
1800.000000	59.995985
1799.000000	59.936413
1798.000000	59.931155
1797.000000	59.929553
1796.000000	59.891187
1795.000000	59.886647
1794.000000	59.879184
1793.000000	59.855660
1792.000000	59.857962
1791.000000	59.835842
1790.000000	59.800001
1789.000000	59.763956
1788.000000	59.775073
1787.000000	59.737481
1786.000000	59.712780
1785.000000	59.709396
1784.000000	59.667387
1783.000000	59.647897
1782.000000	59.614441
1781.000000	59.594463
1780.000000	59.571626
1779.000000	59.538233
1778.000000	59.494914
1777.000000	59.453879
1776.000000	59.412058
1775.000000	59.360811
1774.000000	59.290891
1773.000000	59.253614
1772.000000	59.206258
1771.000000	59.173467
1770.000000	59.129603
1769.000000	59.080913
1768.000000	59.003547
1767.000000	58.974749
1766.000000	58.953703
1765.000000	58.907034
1764.000000	58.899586
1763.000000	58.798447
1762.000000	58.768833
1761.000000	58.717739
1760.000000	58.675024
1759.000000	58.615276
1758.000000	58.583434
1757.000000	58.554644
1756.000000	58.535323
1755.000000	58.473631
1754.000000	58.382988
1753.000000	58.343567
1752.000000	58.304430
1751.000000	58.261105
1750.000000	58.215803
1749.000000	58.206368
1748.000000	58.135772
1747.000000	58.066488
1746.000000	58.034051
1745.000000	57.985586
1744.000000	57.905649
1743.000000	57.878623
1742.000000	57.865254
1741.000000	57.816430
1740.000000	57.748362
1739.000000	57.694004
1738.000000	57.664543
1737.000000	57.610512
1736.000000	57.601626
1735.000000	57.605538
1734.000000	57.592413
1733.000000	57.556669
1732.000000	57.579174
1731.000000	57.634970
1730.000000	57.590441
1729.000000	57.608351
1728.000000	57.668944
1727.000000	57.677907
1726.000000	57.776651
1725.000000	57.822728
1724.000000	57.827225
1723.000000	57.925730
1722.000000	57.974783
1721.000000	58.053980
1720.000000	58.147901
1719.000000	58.221416
1718.000000	58.284055
1717.000000	58.386982
1716.000000	58.470385
1715.000000	58.514557
1714.000000	58.579547
1713.000000	58.689914
1712.000000	58.720764
1711.000000	58.796562
1710.000000	58.824502
1709.000000	58.871332
1708.000000	58.904021
1707.000000	58.958211
1706.000000	58.997185
1705.000000	59.005367
1704.000000	59.013114
1703.000000	59.062814
1702.000000	59.054911
1701.000000	59.050798
1700.000000	59.087279
1699.000000	59.098240
1698.000000	59.123622
1697.000000	59.193131
1696.000000	59.198799
1695.000000	59.164450
1694.000000	59.231497
1693.000000	59.254757
1692.000000	59.257476
1691.000000	59.344689
1690.000000	59.395795
1689.000000	59.437724
1688.000000	59.494541
1687.000000	59.600695
1686.000000	59.675897
1685.000000	59.789692
1684.000000	59.907551
1683.000000	60.016361
1682.000000	60.132160
1681.000000	60.280221
1680.000000	60.381796
1679.000000	60.484102
1678.000000	60.600719
1677.000000	60.747646
1676.000000	60.913926
1675.000000	61.013741
1674.000000	61.160141
1673.000000	61.296824
1672.000000	61.409482
1671.000000	61.551053
1670.000000	61.696742
1669.000000	61.830893
1668.000000	61.906306
1667.000000	62.018221
1666.000000	62.111727
1665.000000	62.198114
1664.000000	62.253721
1663.000000	62.312924
1662.000000	62.376492
1661.000000	62.458803
1660.000000	62.489603
1659.000000	62.548781
1658.000000	62.594179
1657.000000	62.626516
1656.000000	62.691495
1655.000000	62.710460
1654.000000	62.737123
1653.000000	62.735794
1652.000000	62.760337
1651.000000	62.751077
1650.000000	62.762263
1649.000000	62.763191
1648.000000	62.773876
1647.000000	62.783418
1646.000000	62.753935
1645.000000	62.724650
1644.000000	62.708183
1643.000000	62.722684
1642.000000	62.722121
1641.000000	62.690511
1640.000000	62.702808
1639.000000	62.676882
1638.000000	62.633875
1637.000000	62.627241
1636.000000	62.584745
1635.000000	62.572158
1634.000000	62.559354
1633.000000	62.521778
1632.000000	62.518348
1631.000000	62.512957
1630.000000	62.465311
1629.000000	62.423598
1628.000000	62.394125
1627.000000	62.387661
1626.000000	62.365603
1625.000000	62.286332
1624.000000	62.256340
1623.000000	62.232482
1622.000000	62.189231
1621.000000	62.160481
1620.000000	62.148275
1619.000000	62.107957
1618.000000	62.049514
1617.000000	62.032940
1616.000000	62.015964
1615.000000	61.956491
1614.000000	61.908467
1613.000000	61.874952
1612.000000	61.838024
1611.000000	61.808638
1610.000000	61.781271
1609.000000	61.744466
1608.000000	61.694343
1607.000000	61.638762
1606.000000	61.579917
1605.000000	61.541578
1604.000000	61.499285
1603.000000	61.435720
1602.000000	61.394725
1601.000000	61.364097
1600.000000	61.323775
1599.000000	61.284944
1598.000000	61.240722
1597.000000	61.201354
1596.000000	61.154942
1595.000000	61.114358
1594.000000	61.091011
1593.000000	61.054620
1592.000000	61.003967
1591.000000	60.959260
1590.000000	60.915961
1589.000000	60.880464
1588.000000	60.865491
1587.000000	60.845840
1586.000000	60.805017
1585.000000	60.759115
1584.000000	60.710480
1583.000000	60.678111
1582.000000	60.641458
1581.000000	60.604646
1580.000000	60.585444
1579.000000	60.558489
1578.000000	60.544989
1577.000000	60.496544
1576.000000	60.444099
1575.000000	60.416888
1574.000000	60.393327
1573.000000	60.366388
1572.000000	60.331816
1571.000000	60.302128
1570.000000	60.262897
1569.000000	60.236951
1568.000000	60.225404
1567.000000	60.206871
1566.000000	60.166837
1565.000000	60.152220
1564.000000	60.139243
1563.000000	60.122343
1562.000000	60.096141
1561.000000	60.068947
1560.000000	60.054907
1559.000000	60.027241
1558.000000	60.004840
1557.000000	59.992142
1556.000000	59.983414
1555.000000	59.981310
1554.000000	59.966548
1553.000000	59.958186
1552.000000	59.951539
1551.000000	59.919043
1550.000000	59.879911
1549.000000	59.856610
1548.000000	59.821944
1547.000000	59.787219
1546.000000	59.753589
1545.000000	59.714900
1544.000000	59.668408
1543.000000	59.619306
1542.000000	59.557248
1541.000000	59.504551
1540.000000	59.456463
1539.000000	59.363667
1538.000000	59.305620
1537.000000	59.238866
1536.000000	59.187321
1535.000000	59.114299
1534.000000	59.022184
1533.000000	58.982852
1532.000000	58.899558
1531.000000	58.833264
1530.000000	58.773962
1529.000000	58.702879
1528.000000	58.648479
1527.000000	58.598211
1526.000000	58.544918
1525.000000	58.490195
1524.000000	58.417309
1523.000000	58.371248
1522.000000	58.335983
1521.000000	58.283082
1520.000000	58.258697
1519.000000	58.204526
1518.000000	58.178967
1517.000000	58.137458
1516.000000	58.095220
1515.000000	58.070094
1514.000000	58.035136
1513.000000	57.985682
1512.000000	57.980129
1511.000000	57.962551
1510.000000	57.945094
1509.000000	57.952002
1508.000000	57.908952
1507.000000	57.893021
1506.000000	57.867229
1505.000000	57.856222
1504.000000	57.866498
1503.000000	57.858142
1502.000000	57.847865
1501.000000	57.829299
1500.000000	57.841122
1499.000000	57.868926
1498.000000	57.867315
1497.000000	57.876789
1496.000000	57.891214
1495.000000	57.904403
1494.000000	57.930086
1493.000000	57.959691
1492.000000	57.995511
1491.000000	58.028770
1490.000000	58.075996
1489.000000	58.118941
1488.000000	58.180826
1487.000000	58.222260
1486.000000	58.259721
1485.000000	58.316891
1484.000000	58.386444
1483.000000	58.455591
1482.000000	58.518953
1481.000000	58.556252
1480.000000	58.668488
1479.000000	58.718348
1478.000000	58.767778
1477.000000	58.833484
1476.000000	58.868422
1475.000000	58.930554
1474.000000	59.009886
1473.000000	59.047909
1472.000000	59.116465
1471.000000	59.160093
1470.000000	59.251130
1469.000000	59.287282
1468.000000	59.335916
1467.000000	59.382881
1466.000000	59.434220
1465.000000	59.495514
1464.000000	59.543781
1463.000000	59.569668
1462.000000	59.613670
1461.000000	59.649739
1460.000000	59.711349
1459.000000	59.752280
1458.000000	59.793829
1457.000000	59.827158
1456.000000	59.883146
1455.000000	59.944704
1454.000000	59.953265
1453.000000	60.014412
1452.000000	60.069876
1451.000000	60.113618
1450.000000	60.178475
1449.000000	60.216265
1448.000000	60.265480
1447.000000	60.320869
1446.000000	60.380641
1445.000000	60.428043
1444.000000	60.496392
1443.000000	60.572212
1442.000000	60.628607
1441.000000	60.670896
1440.000000	60.755820
1439.000000	60.818648
1438.000000	60.879676
1437.000000	60.950577
1436.000000	61.014752
1435.000000	61.097306
1434.000000	61.165101
1433.000000	61.235925
1432.000000	61.317563
1431.000000	61.396556
1430.000000	61.474338
1429.000000	61.569283
1428.000000	61.661174
1427.000000	61.754210
1426.000000	61.842989
1425.000000	61.949558
1424.000000	62.035385
1423.000000	62.154350
1422.000000	62.244500
1421.000000	62.344693
1420.000000	62.445126
1419.000000	62.545172
1418.000000	62.668650
1417.000000	62.774793
1416.000000	62.870464
1415.000000	62.988443
1414.000000	63.103598
1413.000000	63.217535
1412.000000	63.335684
1411.000000	63.457577
1410.000000	63.569928
1409.000000	63.679997
1408.000000	63.799276
1407.000000	63.904375
1406.000000	64.017309
1405.000000	64.128531
1404.000000	64.221051
1403.000000	64.312599
1402.000000	64.421816
1401.000000	64.518594
1400.000000	64.626654
1399.000000	64.735192
1398.000000	64.815846
1397.000000	64.906508
1396.000000	64.997231
1395.000000	65.085656
1394.000000	65.179861
1393.000000	65.271231
1392.000000	65.351707
1391.000000	65.421596
1390.000000	65.479739
1389.000000	65.540960
1388.000000	65.626367
1387.000000	65.697259
1386.000000	65.771592
1385.000000	65.847501
1384.000000	65.900786
1383.000000	65.965607
1382.000000	66.008340
1381.000000	66.052688
1380.000000	66.117693
1379.000000	66.169308
1378.000000	66.216677
1377.000000	66.260288
1376.000000	66.329535
1375.000000	66.371905
1374.000000	66.401284
1373.000000	66.427750
1372.000000	66.455046
1371.000000	66.509070
1370.000000	66.556129
1369.000000	66.579003
1368.000000	66.598107
1367.000000	66.625300
1366.000000	66.656418
1365.000000	66.692004
1364.000000	66.723122
1363.000000	66.759990
1362.000000	66.795635
1361.000000	66.833986
1360.000000	66.861619
1359.000000	66.884378
1358.000000	66.914885
1357.000000	66.969725
1356.000000	67.010818
1355.000000	67.042757
1354.000000	67.086213
1353.000000	67.117183
1352.000000	67.163117
1351.000000	67.208129
1350.000000	67.247470
1349.000000	67.288883
1348.000000	67.319142
1347.000000	67.354840
1346.000000	67.408504
1345.000000	67.428006
1344.000000	67.450304
1343.000000	67.481969
1342.000000	67.526402
1341.000000	67.551806
1340.000000	67.594687
1339.000000	67.623762
1338.000000	67.643642
1337.000000	67.668928
1336.000000	67.698913
1335.000000	67.709622
1334.000000	67.719269
1333.000000	67.748406
1332.000000	67.781715
1331.000000	67.779195
1330.000000	67.804583
1329.000000	67.844635
1328.000000	67.901741
1327.000000	67.969208
1326.000000	67.972269
1325.000000	67.959784
1324.000000	67.951515
1323.000000	67.971395
1322.000000	67.982658
1321.000000	67.986611
1320.000000	67.998017
1319.000000	68.033746
1318.000000	68.035795
1317.000000	68.038755
1316.000000	68.049595
1315.000000	68.052984
1314.000000	68.053130
1313.000000	68.066340
1312.000000	68.065592
1311.000000	68.105360
1310.000000	68.131356
1309.000000	68.146977
1308.000000	68.149620
1307.000000	68.145620
1306.000000	68.158527
1305.000000	68.193448
1304.000000	68.200618
1303.000000	68.204398
1302.000000	68.191347
1301.000000	68.187466
1300.000000	68.214563
1299.000000	68.199177
1298.000000	68.209357
1297.000000	68.216267
1296.000000	68.222965
1295.000000	68.230066
1294.000000	68.238847
1293.000000	68.229671
1292.000000	68.243086
1291.000000	68.222193
1290.000000	68.221999
1289.000000	68.211752
1288.000000	68.214437
1287.000000	68.220830
1286.000000	68.220511
1285.000000	68.217166
1284.000000	68.231395
1283.000000	68.210660
1282.000000	68.205284
1281.000000	68.205578
1280.000000	68.196824
1279.000000	68.197902
1278.000000	68.198700
1277.000000	68.152634
1276.000000	68.156258
1275.000000	68.180190
1274.000000	68.183286
1273.000000	68.171704
1272.000000	68.170655
1271.000000	68.166316
1270.000000	68.192001
1269.000000	68.187537
1268.000000	68.201880
1267.000000	68.214995
1266.000000	68.212989
1265.000000	68.213097
1264.000000	68.235675
1263.000000	68.218348
1262.000000	68.233353
1261.000000	68.220586
1260.000000	68.248343
1259.000000	68.256205
1258.000000	68.273665
1257.000000	68.265703
1256.000000	68.282405
1255.000000	68.266261
1254.000000	68.295771
1253.000000	68.285928
1252.000000	68.323122
1251.000000	68.324549
1250.000000	68.311834
1249.000000	68.317550
1248.000000	68.308289
1247.000000	68.319255
1246.000000	68.308188
1245.000000	68.308792
1244.000000	68.281863
1243.000000	68.279848
1242.000000	68.289222
1241.000000	68.281978
1240.000000	68.271979
1239.000000	68.251373
1238.000000	68.236599
1237.000000	68.235241
1236.000000	68.227061
1235.000000	68.183770
1234.000000	68.171493
1233.000000	68.175812
1232.000000	68.173839
1231.000000	68.156765
1230.000000	68.118462
1229.000000	68.123003
1228.000000	68.115345
1227.000000	68.106208
1226.000000	68.089593
1225.000000	68.069627
1224.000000	68.066168
1223.000000	68.038677
1222.000000	67.995558
1221.000000	67.991472
1220.000000	67.967575
1219.000000	67.929449
1218.000000	67.941356
1217.000000	67.919156
1216.000000	67.924699
1215.000000	67.937286
1214.000000	67.901520
1213.000000	67.894291
1212.000000	67.857254
1211.000000	67.837425
1210.000000	67.837093
1209.000000	67.831972
1208.000000	67.801682
1207.000000	67.789139
1206.000000	67.765649
1205.000000	67.731756
1204.000000	67.735944
1203.000000	67.740975
1202.000000	67.691757
1201.000000	67.695180
1200.000000	67.703145
1199.000000	67.680955
1198.000000	67.642063
1197.000000	67.619403
1196.000000	67.615783
1195.000000	67.624189
1194.000000	67.612701
1193.000000	67.588690
1192.000000	67.578036
1191.000000	67.572411
1190.000000	67.557688
1189.000000	67.524821
1188.000000	67.522844
1187.000000	67.528157
1186.000000	67.506521
1185.000000	67.515728
1184.000000	67.522133
1183.000000	67.528423
1182.000000	67.542592
1181.000000	67.548804
1180.000000	67.567242
1179.000000	67.590578
1178.000000	67.623600
1177.000000	67.640038
1176.000000	67.657906
1175.000000	67.698600
1174.000000	67.719808
1173.000000	67.743805
1172.000000	67.780318
1171.000000	67.807625
1170.000000	67.844509
1169.000000	67.875930
1168.000000	67.907283
1167.000000	67.961035
1166.000000	68.007118
1165.000000	68.039455
1164.000000	68.069079
1163.000000	68.092221
1162.000000	68.129481
1161.000000	68.175199
1160.000000	68.221503
1159.000000	68.261296
1158.000000	68.311343
1157.000000	68.343325
1156.000000	68.365750
1155.000000	68.415726
1154.000000	68.454512
1153.000000	68.480976
1152.000000	68.517887
1151.000000	68.557580
1150.000000	68.579997
1149.000000	68.601259
1148.000000	68.634185
1147.000000	68.654711
1146.000000	68.675550
1145.000000	68.698621
1144.000000	68.720796
1143.000000	68.734921
1142.000000	68.750964
1141.000000	68.782860
1140.000000	68.812314
1139.000000	68.845845
1138.000000	68.874563
1137.000000	68.883253
1136.000000	68.900876
1135.000000	68.940587
1134.000000	68.964934
1133.000000	68.979341
1132.000000	68.985769
1131.000000	69.001520
1130.000000	69.012131
1129.000000	69.009161
1128.000000	69.013130
1127.000000	69.026920
1126.000000	69.044768
1125.000000	69.070155
1124.000000	69.096307
1123.000000	69.108717
1122.000000	69.113330
1121.000000	69.123204
1120.000000	69.123756
1119.000000	69.138588
1118.000000	69.144688
1117.000000	69.140426
1116.000000	69.144336
1115.000000	69.142056
1114.000000	69.149542
1113.000000	69.166365
1112.000000	69.154426
1111.000000	69.133376
1110.000000	69.134568
1109.000000	69.143262
1108.000000	69.172427
1107.000000	69.177870
1106.000000	69.167608
1105.000000	69.171590
1104.000000	69.183144
1103.000000	69.196231
1102.000000	69.183750
1101.000000	69.174962
1100.000000	69.162853
1099.000000	69.172027
1098.000000	69.188042
1097.000000	69.192722
1096.000000	69.188750
1095.000000	69.184654
1094.000000	69.175906
1093.000000	69.168960
1092.000000	69.164482
1091.000000	69.179649
1090.000000	69.188556
1089.000000	69.184366
1088.000000	69.183815
1087.000000	69.168871
1086.000000	69.173482
1085.000000	69.167061
1084.000000	69.173971
1083.000000	69.170519
1082.000000	69.175958
1081.000000	69.157564
1080.000000	69.146301
1079.000000	69.152493
1078.000000	69.142530
1077.000000	69.152731
1076.000000	69.155014
1075.000000	69.134080
1074.000000	69.124383
1073.000000	69.129566
1072.000000	69.140681
1071.000000	69.146245
1070.000000	69.123467
1069.000000	69.088432
1068.000000	69.101058
1067.000000	69.123507
1066.000000	69.114834
1065.000000	69.112722
1064.000000	69.085268
1063.000000	69.071161
1062.000000	69.083287
1061.000000	69.081350
1060.000000	69.067327
1059.000000	69.084276
1058.000000	69.087315
1057.000000	69.091389
1056.000000	69.071235
1055.000000	69.062244
1054.000000	69.079006
1053.000000	69.079831
1052.000000	69.077495
1051.000000	69.068820
1050.000000	69.058444
1049.000000	69.057293
1048.000000	69.056874
1047.000000	69.075869
1046.000000	69.072310
1045.000000	69.065093
1044.000000	69.055283
1043.000000	69.059321
1042.000000	69.041637
1041.000000	69.014356
1040.000000	69.005353
1039.000000	69.017088
1038.000000	69.023191
1037.000000	69.004765
1036.000000	69.008381
1035.000000	69.022979
1034.000000	69.000974
1033.000000	68.997603
1032.000000	69.010762
1031.000000	69.012332
1030.000000	68.999739
1029.000000	68.994255
1028.000000	69.001219
1027.000000	69.016671
1026.000000	69.021837
1025.000000	68.999727
1024.000000	68.998650
1023.000000	68.986083
1022.000000	68.973261
1021.000000	68.979858
1020.000000	68.981925
1019.000000	68.964431
1018.000000	68.973976
1017.000000	68.984846
1016.000000	68.986936
1015.000000	68.986695
1014.000000	68.973710
1013.000000	68.986612
1012.000000	68.995372
1011.000000	68.976986
1010.000000	68.978212
1009.000000	68.981473
1008.000000	68.980521
1007.000000	68.973791
1006.000000	68.979421
1005.000000	68.981523
1004.000000	68.981521
1003.000000	68.986834
1002.000000	68.995965
1001.000000	68.990125
1000.000000	68.987200
999.000000	68.989824
998.000000	68.999924
997.000000	69.020474
996.000000	69.046898
995.000000	69.018961
994.000000	69.006317
993.000000	69.019781
992.000000	69.005172
991.000000	69.016416
990.000000	69.033780
989.000000	69.036271
988.000000	69.024416
987.000000	69.035714
986.000000	69.055545
985.000000	69.059028
984.000000	69.070015
983.000000	69.088124
982.000000	69.081627
981.000000	69.081095
980.000000	69.075011
979.000000	69.077343
978.000000	69.089027
977.000000	69.086968
976.000000	69.089414
975.000000	69.087519
974.000000	69.107929
973.000000	69.108142
972.000000	69.115817
971.000000	69.142615
970.000000	69.142054
969.000000	69.154424
968.000000	69.179042
967.000000	69.172861
966.000000	69.169748
965.000000	69.171902
964.000000	69.172554
963.000000	69.171844
962.000000	69.159597
961.000000	69.176339
960.000000	69.194489
959.000000	69.190875
958.000000	69.176947
957.000000	69.190880
956.000000	69.219628
955.000000	69.227749
954.000000	69.226131
953.000000	69.213855
952.000000	69.230177
951.000000	69.234770
950.000000	69.226355
949.000000	69.232172
948.000000	69.224470
947.000000	69.240670
946.000000	69.255054
945.000000	69.256517
944.000000	69.257366
943.000000	69.255020
942.000000	69.246224
941.000000	69.244971
940.000000	69.277347
939.000000	69.306025
938.000000	69.289268
937.000000	69.293554
936.000000	69.310910
935.000000	69.312204
934.000000	69.305640
933.000000	69.273090
932.000000	69.267093
931.000000	69.293909
930.000000	69.306471
929.000000	69.288854
928.000000	69.283565
927.000000	69.289742
926.000000	69.265713
925.000000	69.254971
924.000000	69.280428
923.000000	69.291236
922.000000	69.277622
921.000000	69.289271
920.000000	69.273063
919.000000	69.249629
918.000000	69.258454
917.000000	69.260116
916.000000	69.287525
915.000000	69.266469
914.000000	69.246447
913.000000	69.262067
912.000000	69.312104
911.000000	69.292295
910.000000	69.322421
909.000000	69.340656
908.000000	69.351349
907.000000	69.386950
906.000000	69.351100
905.000000	69.328105
904.000000	69.301388
903.000000	69.299097
902.000000	69.324143
901.000000	69.385014
900.000000	69.337700
899.000000	69.305096
898.000000	69.307973
897.000000	69.334684
896.000000	69.364046
895.000000	69.370229
894.000000	69.375442
893.000000	69.371523
892.000000	69.394531
891.000000	69.365218
890.000000	69.436008
889.000000	69.486349
888.000000	69.458496
887.000000	69.366117
886.000000	69.428479
885.000000	69.435286
884.000000	69.387972
883.000000	69.397330
882.000000	69.430613
881.000000	69.489887
880.000000	69.449194
879.000000	69.478385
878.000000	69.483746
877.000000	69.450002
876.000000	69.413681
875.000000	69.360811
874.000000	69.500121
873.000000	69.514905
872.000000	69.448346
871.000000	69.463904
870.000000	69.499401
869.000000	69.484777
868.000000	69.552944
867.000000	69.437922
866.000000	69.434288
865.000000	69.510093
864.000000	69.470144
863.000000	69.562506
862.000000	69.485136
861.000000	69.470213
860.000000	69.380220
859.000000	69.399343
858.000000	69.328889
857.000000	69.192105
856.000000	69.174108
855.000000	69.272533
854.000000	69.321018
853.000000	69.299878
852.000000	69.226851
851.000000	69.329566
850.000000	69.367453
849.000000	69.386180
848.000000	69.298459
847.000000	69.139080
846.000000	69.252550
845.000000	69.303616
844.000000	69.302621
843.000000	69.448184
842.000000	69.434085
841.000000	69.356155
840.000000	69.527262
839.000000	69.270010
838.000000	69.344280
837.000000	69.274786
836.000000	69.362302
835.000000	69.308329
834.000000	69.062389
833.000000	69.176574
832.000000	69.227442
831.000000	69.078727
830.000000	69.291184
829.000000	69.311385
828.000000	69.235026
827.000000	69.407782
826.000000	69.256873
825.000000	69.157467
824.000000	69.399793
823.000000	69.435623
822.000000	69.247950
821.000000	69.295041
820.000000	69.343451
819.000000	69.400353
818.000000	69.444206
817.000000	69.298830
816.000000	69.329928
815.000000	69.249978
814.000000	69.302461
813.000000	69.478113
812.000000	69.335636
811.000000	69.273676
810.000000	69.295271
809.000000	69.326733
808.000000	69.437609
807.000000	69.287578
806.000000	69.327967
805.000000	69.347444
804.000000	69.189933
803.000000	69.314815
802.000000	69.214807
801.000000	69.331983
800.000000	69.383049
799.000000	69.408567
798.000000	69.249235
797.000000	69.162305
796.000000	69.226031
795.000000	69.332132
794.000000	69.330658
793.000000	69.367949
792.000000	69.464937
791.000000	69.392575
790.000000	69.162053
789.000000	69.406376
788.000000	69.458560
787.000000	69.446949
786.000000	69.371107
785.000000	69.380066
784.000000	69.321303
783.000000	69.426375
782.000000	69.413341
781.000000	69.360549
780.000000	69.433455
779.000000	69.327530
778.000000	69.388926
777.000000	69.401877
776.000000	69.372481
775.000000	69.425761
774.000000	69.379056
773.000000	69.349689
772.000000	69.380377
771.000000	69.252716
770.000000	69.257499
769.000000	69.381342
768.000000	69.299636
767.000000	69.356763
766.000000	69.360460
765.000000	69.452479
764.000000	69.359366
763.000000	69.365634
762.000000	69.393585
761.000000	69.250688
760.000000	69.288381
759.000000	69.382407
758.000000	69.331154
757.000000	69.302999
756.000000	69.295504
755.000000	69.359741
754.000000	69.380738
753.000000	69.281957
752.000000	69.257775
751.000000	69.337109
750.000000	69.251796
749.000000	69.226856
748.000000	69.270501
747.000000	69.387625
746.000000	69.336900
745.000000	69.320554
744.000000	69.294451
743.000000	69.346108
742.000000	69.263634
741.000000	69.302947
740.000000	69.371338
739.000000	69.414287
738.000000	69.366257
737.000000	69.282844
736.000000	69.320035
735.000000	69.328769
734.000000	69.367105
733.000000	69.436745
732.000000	69.359000
731.000000	69.367640
730.000000	69.355505
729.000000	69.302692
728.000000	69.256883
727.000000	69.194894
726.000000	69.209814
725.000000	69.227904
724.000000	69.254663
723.000000	69.284213
722.000000	69.314363
721.000000	69.323972
720.000000	69.335383
719.000000	69.316925
718.000000	69.322015
717.000000	69.365960
716.000000	69.332137
715.000000	69.315497
714.000000	69.380784
713.000000	69.399858
712.000000	69.392221
711.000000	69.428200
710.000000	69.364174
709.000000	69.266546
708.000000	69.236311
707.000000	69.265163
706.000000	69.316815
705.000000	69.310344
704.000000	69.286309
703.000000	69.350905
702.000000	69.372541
701.000000	69.341404
700.000000	69.348463
699.000000	69.298727
698.000000	69.281954
697.000000	69.329666
696.000000	69.343467
695.000000	69.356204
694.000000	69.314821
693.000000	69.336298
692.000000	69.394879
691.000000	69.381581
690.000000	69.346316
689.000000	69.261715
688.000000	69.287338
687.000000	69.289873
686.000000	69.263637
685.000000	69.317519
684.000000	69.304085
683.000000	69.331474
682.000000	69.382655
681.000000	69.319216
680.000000	69.259445
679.000000	69.275927
678.000000	69.322056
677.000000	69.359933
676.000000	69.319094
675.000000	69.295807
674.000000	69.323192
673.000000	69.376751
672.000000	69.395151
671.000000	69.380054
670.000000	69.289777
669.000000	69.288002
668.000000	69.288649
667.000000	69.296814
666.000000	69.317028
665.000000	69.354319
664.000000	69.351145
663.000000	69.274885
662.000000	69.283931
661.000000	69.307544
660.000000	69.346773
659.000000	69.389020
658.000000	69.345235
657.000000	69.324662
656.000000	69.341460
655.000000	69.373704
654.000000	69.375288
653.000000	69.308411
652.000000	69.320170
651.000000	69.367890
650.000000	69.344341
649.000000	69.302112
648.000000	69.395092
647.000000	69.405180
646.000000	69.385846
645.000000	69.408903
644.000000	69.411862
643.000000	69.399503
642.000000	69.363474
641.000000	69.326574
640.000000	69.289725
639.000000	69.394585
638.000000	69.346615
637.000000	69.349406
636.000000	69.336891
635.000000	69.369234
634.000000	69.336540
633.000000	69.276017
632.000000	69.351639
631.000000	69.450346
630.000000	69.384636
629.000000	69.365023
628.000000	69.337203
627.000000	69.406437
626.000000	69.385398
625.000000	69.444565
624.000000	69.403664
623.000000	69.394164
622.000000	69.333277
621.000000	69.292925
620.000000	69.327456
619.000000	69.310532
618.000000	69.433443
617.000000	69.402026
616.000000	69.373026
615.000000	69.363998
614.000000	69.340258
613.000000	69.346539
612.000000	69.378074
611.000000	69.404786
610.000000	69.327700
609.000000	69.383294
608.000000	69.295033
607.000000	69.337962
606.000000	69.320235
605.000000	69.342042
604.000000	69.342302
603.000000	69.342521
602.000000	69.322025
601.000000	69.373059
600.000000	69.307702
599.000000	69.293427
598.000000	69.260571
597.000000	69.318504
596.000000	69.313556
595.000000	69.374177
594.000000	69.338510
593.000000	69.358845
592.000000	69.248502
591.000000	69.289782
590.000000	69.278072
589.000000	69.311225
588.000000	69.316449
587.000000	69.319399
586.000000	69.356966
585.000000	69.262578
584.000000	69.244963
583.000000	69.273140
582.000000	69.283451
581.000000	69.304617
580.000000	69.269236
579.000000	69.298315
578.000000	69.261492
577.000000	69.270998
576.000000	69.273129
575.000000	69.195123
574.000000	69.175699
573.000000	69.284998
572.000000	69.264306
571.000000	69.213729
570.000000	69.172276
569.000000	69.229806
568.000000	69.203978
567.000000	69.196754
566.000000	69.167332
565.000000	69.206308
564.000000	69.181127
563.000000	69.182239
562.000000	69.129320
561.000000	69.083929
560.000000	69.096634
559.000000	69.149080
558.000000	69.104548
557.000000	69.068438
556.000000	69.127686
555.000000	69.085274
554.000000	69.064047
553.000000	69.102058
552.000000	69.059099
551.000000	69.107461
550.000000	69.095713
549.000000	68.973051
548.000000	69.008578
547.000000	69.036826
546.000000	69.010806
545.000000	69.045014
544.000000	68.983384
543.000000	68.985836
542.000000	68.941920
541.000000	68.971468
540.000000	68.902279
539.000000	68.958182
538.000000	68.932979
537.000000	68.894825
536.000000	68.892823
535.000000	68.850803
534.000000	68.866408
533.000000	68.877090
532.000000	68.888831
531.000000	68.821507
530.000000	68.828006
529.000000	68.836425
528.000000	68.769997
527.000000	68.785551
526.000000	68.781736
525.000000	68.758598
524.000000	68.695528
523.000000	68.692292
522.000000	68.716128
521.000000	68.679453
520.000000	68.629023
519.000000	68.667001
518.000000	68.647041
517.000000	68.635964
516.000000	68.632449
515.000000	68.611778
514.000000	68.597509
513.000000	68.553426
512.000000	68.545355
511.000000	68.528199
510.000000	68.535585
509.000000	68.567770
508.000000	68.522034
507.000000	68.483728
506.000000	68.453775
505.000000	68.463047
504.000000	68.387354
503.000000	68.349498
502.000000	68.339193
501.000000	68.357205
500.000000	68.316184
499.000000	68.326600
498.000000	68.303004
497.000000	68.284296
496.000000	68.238726
495.000000	68.227673
494.000000	68.233465
493.000000	68.154361
492.000000	68.142548
491.000000	68.112510
490.000000	68.030217
489.000000	68.068065
488.000000	68.045721
487.000000	67.976298
486.000000	67.882424
485.000000	67.847678
484.000000	67.928730
483.000000	67.967504
482.000000	67.918559
481.000000	67.915981
480.000000	67.882434
479.000000	67.854773
478.000000	67.824234
477.000000	67.791937
476.000000	67.721727
475.000000	67.661383
474.000000	67.633493
473.000000	67.650367
472.000000	67.621071
471.000000	67.576513
470.000000	67.576031
469.000000	67.607742
468.000000	67.524917
467.000000	67.418617
466.000000	67.402315
465.000000	67.321759
464.000000	67.254502
463.000000	67.277318
462.000000	67.215120
461.000000	67.155567
460.000000	67.133878
459.000000	67.088907
458.000000	67.044198
457.000000	66.978367
456.000000	66.894891
455.000000	66.878841
454.000000	66.853060
453.000000	66.816975
452.000000	66.797990
451.000000	66.681615
450.000000	66.609532
449.000000	66.536221
448.000000	66.503425
447.000000	66.491099
446.000000	66.375885
445.000000	66.269559
444.000000	66.216782
443.000000	66.180995
442.000000	66.157260
441.000000	66.112257
440.000000	66.006116
439.000000	65.927125
438.000000	65.868554
437.000000	65.716787
436.000000	65.652792
435.000000	65.609125
434.000000	65.517067
433.000000	65.432720
432.000000	65.343039
431.000000	65.290775
430.000000	65.181692
429.000000	65.094672
428.000000	65.022238
427.000000	64.861570
426.000000	64.780102
425.000000	64.731935
424.000000	64.632990
423.000000	64.529261
422.000000	64.463313
421.000000	64.273190
420.000000	64.188779
419.000000	64.067530
418.000000	63.883511
417.000000	63.757200
416.000000	63.691242
415.000000	63.550699
414.000000	63.452673
413.000000	63.296112
412.000000	63.077916
411.000000	62.932558
410.000000	62.855430
409.000000	62.699963
408.000000	62.518710
407.000000	62.405496
406.000000	62.282306
405.000000	62.133905
404.000000	61.965797
403.000000	61.799344
402.000000	61.673235
401.000000	61.505907
400.000000	61.343101
399.000000	61.137295
398.000000	60.989357
397.000000	60.953012
396.000000	60.752431
395.000000	60.522153
394.000000	60.357792
393.000000	60.199424
392.000000	60.139082
391.000000	59.946969
390.000000	59.772539
389.000000	59.561978
388.000000	59.374217
387.000000	59.203600
386.000000	58.898197
385.000000	58.724770
384.000000	58.547229
383.000000	58.336930
382.000000	58.145463
381.000000	57.932042
380.000000	57.835242
379.000000	57.539448
378.000000	57.209161
377.000000	57.154891
376.000000	56.988691
375.000000	56.846395
374.000000	56.368492
373.000000	56.251400
372.000000	56.042114
371.000000	55.842749
370.000000	55.509874
369.000000	55.092156
368.000000	54.941570
367.000000	54.793878
366.000000	54.454439
365.000000	54.278448
364.000000	53.988293
363.000000	53.798762
362.000000	53.427829
361.000000	53.107337
360.000000	52.973122
359.000000	52.593573
358.000000	52.407706
357.000000	52.187850
356.000000	51.933022
355.000000	51.591872
354.000000	51.451631
353.000000	51.102447
352.000000	50.846955
351.000000	50.501441
350.000000	50.369830
349.000000	50.137241
348.000000	49.708906
347.000000	49.388190
346.000000	49.232036
345.000000	48.631154
344.000000	48.590469
343.000000	48.188164
342.000000	47.888919
341.000000	47.606751
340.000000	47.203532
339.000000	46.632334
338.000000	46.368222
337.000000	45.637695
336.000000	45.551646
335.000000	45.189312
334.000000	44.549233
333.000000	44.176872
332.000000	43.718688
331.000000	43.030652
330.000000	42.625419
329.000000	42.299192
328.000000	41.652255
327.000000	41.269991
326.000000	40.826416
325.000000	40.127826
324.000000	39.801319
323.000000	39.493988
322.000000	39.316410
321.000000	38.783497
320.000000	38.557779
319.000000	38.306407
318.000000	38.278497
317.000000	37.615989
316.000000	37.304888
315.000000	37.341558
314.000000	37.061451
313.000000	36.877330
312.000000	36.605057
311.000000	36.408577
310.000000	36.151250
309.000000	35.828730
308.000000	35.696341
307.000000	35.580004
306.000000	35.315492
305.000000	35.095316
304.000000	34.836361
303.000000	34.484505
302.000000	34.525115
301.000000	34.194839
300.000000	33.934408
299.000000	33.573618
298.000000	33.054340
297.000000	32.644928
296.000000	32.156272
295.000000	31.670334
294.000000	31.017292
293.000000	30.071525
292.000000	29.189241
291.000000	28.039423
290.000000	26.993392
289.000000	26.058605
288.000000	25.246661
287.000000	24.515109
286.000000	24.070499
285.000000	23.790503
284.000000	23.522016
283.000000	23.476286
282.000000	23.406051
281.000000	23.329590
280.000000	23.304195
279.000000	23.357848
278.000000	23.436638
277.000000	23.600936
276.000000	23.755804
275.000000	24.078229
274.000000	24.248869
273.000000	24.515455
272.000000	24.764632
271.000000	24.923541
270.000000	24.965850
269.000000	25.081204
268.000000	25.232867
267.000000	25.557245
266.000000	25.807315
265.000000	26.040996
264.000000	26.306575
263.000000	26.518832
262.000000	26.834796
261.000000	27.038696
260.000000	27.145128
259.000000	27.388230
258.000000	27.708856
257.000000	27.955783
256.000000	28.234160
255.000000	28.441541
254.000000	28.470288
253.000000	28.232585
252.000000	28.131855
251.000000	28.001523
250.000000	27.575430
249.000000	26.976712
248.000000	26.211841
247.000000	25.322668
246.000000	24.278969
245.000000	23.120028
244.000000	22.040015
243.000000	20.899313
242.000000	19.828482
241.000000	19.003368
240.000000	18.226695
239.000000	17.547451
238.000000	17.133527
237.000000	16.779538
236.000000	16.571010
235.000000	16.583663
234.000000	16.460008
233.000000	16.362754
232.000000	16.358629
231.000000	16.372535
230.000000	16.397285
229.000000	16.472105
228.000000	16.476839
227.000000	16.557540
226.000000	16.591305
225.000000	16.645830
224.000000	16.833932
223.000000	17.009518
222.000000	17.189632
221.000000	17.355341
220.000000	17.587957
219.000000	17.860773
218.000000	17.982422
217.000000	18.174016
216.000000	18.458026
215.000000	18.742060
214.000000	19.024299
213.000000	19.290449
212.000000	19.548800
211.000000	19.838802
210.000000	20.239303
209.000000	20.606141
208.000000	20.925333
207.000000	21.171745
206.000000	21.508182
205.000000	21.854361
204.000000	22.406509
203.000000	22.745516
202.000000	23.074290
201.000000	23.406934
200.000000	23.739845
