PE UV       SUBTECH     SPECTRUM    ASCII       PEDS        4.00        
   -1
Empty Chamber.Sample.asc
18/03/21
08:59:50.00
18/03/21
08:59:50.00
Administrator

200.000000
1
Lambda 750
750N8071901
PerkinElmer UV WinLab 6.0.4.0738 / 1.61.00 Lambda 900

0
0
3350/servo 860.8/2
0
0
UV/VIS
1
1
1
CommonBeamDepol,150mm sphere / downward view
0
0
0
0
Program
Program
3350/servo 860.8/2
3350/0.2 860.8/0.2
3350/0.2 860.8/0.2
0
1
 
 
 
0
 
860.8
319.2
860.8
Front
100
on
 
 
0
0
0
 
0
 
 
 
0
 
 
0
0
0
0
0
 
 
 
 
0
0


0
0
#HDR
-1
-1
#GR
nm
%T
1.0
0.0
2350.000000
-1.000000
2151
8
100.659157
99.063367
#DATA
2350.000000	99.914633
2349.000000	100.355913
2348.000000	100.458452
2347.000000	100.044508
2346.000000	100.148712
2345.000000	100.348137
2344.000000	100.094046
2343.000000	99.979153
2342.000000	100.089926
2341.000000	100.071986
2340.000000	99.964146
2339.000000	99.826707
2338.000000	99.895368
2337.000000	99.883393
2336.000000	99.566355
2335.000000	100.017017
2334.000000	100.136841
2333.000000	100.235641
2332.000000	100.364646
2331.000000	100.051144
2330.000000	100.248834
2329.000000	100.117113
2328.000000	99.828345
2327.000000	99.965280
2326.000000	100.401913
2325.000000	100.413731
2324.000000	100.292659
2323.000000	100.005885
2322.000000	99.938745
2321.000000	100.091986
2320.000000	99.774272
2319.000000	99.923214
2318.000000	100.253285
2317.000000	100.263387
2316.000000	99.911182
2315.000000	99.755886
2314.000000	99.973441
2313.000000	100.132359
2312.000000	99.876238
2311.000000	100.211930
2310.000000	100.120794
2309.000000	100.031594
2308.000000	100.013503
2307.000000	99.967267
2306.000000	100.147138
2305.000000	100.076281
2304.000000	99.923628
2303.000000	99.849677
2302.000000	100.303255
2301.000000	99.917728
2300.000000	99.937315
2299.000000	100.081466
2298.000000	100.110366
2297.000000	100.257681
2296.000000	100.038469
2295.000000	99.764768
2294.000000	99.689243
2293.000000	99.945332
2292.000000	99.824724
2291.000000	99.910197
2290.000000	100.015508
2289.000000	100.151442
2288.000000	100.347411
2287.000000	100.176830
2286.000000	99.786411
2285.000000	100.124680
2284.000000	100.239545
2283.000000	100.090036
2282.000000	100.074632
2281.000000	99.995025
2280.000000	100.110629
2279.000000	100.140671
2278.000000	100.231363
2277.000000	99.952403
2276.000000	100.002030
2275.000000	100.054080
2274.000000	100.008619
2273.000000	100.173259
2272.000000	100.133923
2271.000000	99.996650
2270.000000	100.028020
2269.000000	100.110587
2268.000000	100.026400
2267.000000	100.022130
2266.000000	100.003248
2265.000000	100.004263
2264.000000	100.091612
2263.000000	100.142853
2262.000000	100.079872
2261.000000	100.126065
2260.000000	100.081530
2259.000000	100.078683
2258.000000	100.121166
2257.000000	100.030744
2256.000000	100.053082
2255.000000	100.133310
2254.000000	100.182020
2253.000000	100.153344
2252.000000	100.118386
2251.000000	99.977469
2250.000000	99.970868
2249.000000	100.035967
2248.000000	99.973993
2247.000000	99.977766
2246.000000	100.005786
2245.000000	100.014098
2244.000000	99.933007
2243.000000	100.030126
2242.000000	99.944636
2241.000000	99.834497
2240.000000	99.960922
2239.000000	99.880327
2238.000000	99.874975
2237.000000	100.152031
2236.000000	100.168123
2235.000000	100.084303
2234.000000	100.160517
2233.000000	100.174501
2232.000000	100.119048
2231.000000	100.023446
2230.000000	99.994421
2229.000000	100.017452
2228.000000	100.038255
2227.000000	99.975151
2226.000000	100.070812
2225.000000	100.102685
2224.000000	99.947909
2223.000000	99.966800
2222.000000	99.987104
2221.000000	99.995533
2220.000000	100.003350
2219.000000	99.883308
2218.000000	99.847929
2217.000000	99.942656
2216.000000	99.967233
2215.000000	99.936619
2214.000000	99.960952
2213.000000	100.108851
2212.000000	99.982336
2211.000000	100.003247
2210.000000	100.014015
2209.000000	100.036548
2208.000000	100.035514
2207.000000	100.087073
2206.000000	100.127362
2205.000000	99.998985
2204.000000	100.062541
2203.000000	100.108063
2202.000000	100.083351
2201.000000	100.019682
2200.000000	100.021590
2199.000000	100.099065
2198.000000	100.044731
2197.000000	99.846368
2196.000000	99.912841
2195.000000	100.005881
2194.000000	99.873570
2193.000000	99.937017
2192.000000	100.058750
2191.000000	100.032256
2190.000000	100.050098
2189.000000	99.973027
2188.000000	100.195311
2187.000000	100.037808
2186.000000	99.862834
2185.000000	100.045494
2184.000000	99.983690
2183.000000	100.223723
2182.000000	100.123829
2181.000000	100.111326
2180.000000	99.993620
2179.000000	99.885284
2178.000000	100.042500
2177.000000	99.919365
2176.000000	99.950067
2175.000000	100.096261
2174.000000	99.881870
2173.000000	99.837137
2172.000000	99.806275
2171.000000	100.057241
2170.000000	100.034491
2169.000000	99.919526
2168.000000	100.169355
2167.000000	99.999191
2166.000000	99.867131
2165.000000	99.892926
2164.000000	99.993129
2163.000000	99.968889
2162.000000	100.070345
2161.000000	100.185980
2160.000000	99.897497
2159.000000	100.004343
2158.000000	99.869300
2157.000000	99.948964
2156.000000	100.014653
2155.000000	100.039468
2154.000000	99.850442
2153.000000	100.039881
2152.000000	99.982420
2151.000000	100.157967
2150.000000	100.170276
2149.000000	100.248006
2148.000000	100.002322
2147.000000	100.006168
2146.000000	99.943520
2145.000000	99.986354
2144.000000	100.049663
2143.000000	100.075660
2142.000000	100.000908
2141.000000	99.976777
2140.000000	99.872596
2139.000000	99.961235
2138.000000	100.169259
2137.000000	99.871566
2136.000000	99.900693
2135.000000	99.936668
2134.000000	99.908955
2133.000000	99.805122
2132.000000	99.849588
2131.000000	100.045206
2130.000000	100.101500
2129.000000	99.979596
2128.000000	100.037304
2127.000000	99.886437
2126.000000	99.878746
2125.000000	99.977555
2124.000000	99.980484
2123.000000	100.023755
2122.000000	100.005865
2121.000000	99.984222
2120.000000	99.954834
2119.000000	100.017778
2118.000000	99.880960
2117.000000	100.043270
2116.000000	100.015876
2115.000000	100.032563
2114.000000	99.860174
2113.000000	99.898589
2112.000000	100.008597
2111.000000	99.995849
2110.000000	99.773674
2109.000000	100.176816
2108.000000	100.129611
2107.000000	100.094406
2106.000000	99.987442
2105.000000	99.880481
2104.000000	99.965906
2103.000000	100.052258
2102.000000	99.940141
2101.000000	99.953765
2100.000000	100.110103
2099.000000	99.892354
2098.000000	100.017024
2097.000000	99.982186
2096.000000	99.865626
2095.000000	99.928772
2094.000000	100.154229
2093.000000	100.167563
2092.000000	99.945018
2091.000000	99.999595
2090.000000	99.952813
2089.000000	99.900513
2088.000000	100.000000
2087.000000	99.998075
2086.000000	99.948637
2085.000000	100.129244
2084.000000	100.042669
2083.000000	100.006485
2082.000000	100.008612
2081.000000	100.071588
2080.000000	100.092241
2079.000000	100.099063
2078.000000	100.012872
2077.000000	99.959866
2076.000000	99.993310
2075.000000	100.048558
2074.000000	99.978421
2073.000000	99.958149
2072.000000	99.986321
2071.000000	100.010844
2070.000000	100.102314
2069.000000	100.026155
2068.000000	100.020484
2067.000000	100.056104
2066.000000	99.918419
2065.000000	99.973945
2064.000000	100.113636
2063.000000	99.990062
2062.000000	99.905618
2061.000000	100.019065
2060.000000	100.012880
2059.000000	99.970291
2058.000000	100.031637
2057.000000	100.103890
2056.000000	100.053056
2055.000000	100.005882
2054.000000	100.058544
2053.000000	100.061493
2052.000000	100.014404
2051.000000	100.036423
2050.000000	100.023948
2049.000000	100.005478
2048.000000	99.976070
2047.000000	100.059785
2046.000000	100.048530
2045.000000	99.992391
2044.000000	99.975456
2043.000000	99.980529
2042.000000	99.888269
2041.000000	99.917653
2040.000000	100.005074
2039.000000	100.003045
2038.000000	100.054736
2037.000000	100.014112
2036.000000	100.005481
2035.000000	100.059494
2034.000000	100.062955
2033.000000	100.033403
2032.000000	100.033300
2031.000000	100.026601
2030.000000	99.971264
2029.000000	99.974514
2028.000000	100.004263
2027.000000	100.037056
2026.000000	100.038789
2025.000000	99.985174
2024.000000	99.950958
2023.000000	99.981109
2022.000000	100.030483
2021.000000	100.001016
2020.000000	99.985677
2019.000000	99.997663
2018.000000	99.987397
2017.000000	100.068940
2016.000000	100.054069
2015.000000	99.991771
2014.000000	99.982628
2013.000000	99.973477
2012.000000	99.982317
2011.000000	100.013213
2010.000000	100.014230
2009.000000	100.018502
2008.000000	100.024708
2007.000000	99.960452
2006.000000	99.992984
2005.000000	100.031123
2004.000000	99.971733
2003.000000	99.958926
2002.000000	100.005900
2001.000000	100.014240
2000.000000	99.942755
1999.000000	99.927196
1998.000000	99.931977
1997.000000	99.980880
1996.000000	100.017194
1995.000000	100.003358
1994.000000	100.009361
1993.000000	100.021977
1992.000000	100.012314
1991.000000	100.038884
1990.000000	100.058726
1989.000000	100.035722
1988.000000	100.004783
1987.000000	99.995624
1986.000000	100.021782
1985.000000	100.027991
1984.000000	99.963878
1983.000000	100.021170
1982.000000	100.004377
1981.000000	100.010180
1980.000000	99.988296
1979.000000	99.983718
1978.000000	99.982806
1977.000000	99.966420
1976.000000	100.031762
1975.000000	99.990633
1974.000000	99.951655
1973.000000	100.003868
1972.000000	100.031973
1971.000000	100.023107
1970.000000	99.995318
1969.000000	100.012213
1968.000000	99.987381
1967.000000	99.990129
1966.000000	99.969676
1965.000000	100.003664
1964.000000	100.013132
1963.000000	100.019042
1962.000000	100.029126
1961.000000	100.026572
1960.000000	100.029521
1959.000000	100.003765
1958.000000	100.016285
1957.000000	100.010788
1956.000000	100.004578
1955.000000	99.942730
1954.000000	100.003968
1953.000000	99.996947
1952.000000	100.027163
1951.000000	100.045274
1950.000000	100.003765
1949.000000	99.987489
1948.000000	100.009867
1947.000000	100.001729
1946.000000	100.050653
1945.000000	100.016168
1944.000000	99.960433
1943.000000	99.949166
1942.000000	100.065006
1941.000000	100.028578
1940.000000	100.034374
1939.000000	99.964424
1938.000000	99.911224
1937.000000	99.980893
1936.000000	100.018195
1935.000000	99.979474
1934.000000	99.934561
1933.000000	100.047584
1932.000000	99.978858
1931.000000	100.023878
1930.000000	99.959172
1929.000000	99.975211
1928.000000	99.972979
1927.000000	100.029962
1926.000000	99.956153
1925.000000	99.906685
1924.000000	99.998476
1923.000000	99.895437
1922.000000	100.055767
1921.000000	99.942622
1920.000000	100.015542
1919.000000	99.941610
1918.000000	100.050293
1917.000000	99.984660
1916.000000	100.056283
1915.000000	100.009748
1914.000000	100.023062
1913.000000	99.997765
1912.000000	99.935001
1911.000000	100.115795
1910.000000	99.953674
1909.000000	99.965157
1908.000000	99.960803
1907.000000	99.986380
1906.000000	100.016664
1905.000000	99.975820
1904.000000	100.015542
1903.000000	100.016054
1902.000000	99.940057
1901.000000	99.987905
1900.000000	99.974798
1899.000000	99.904177
1898.000000	100.042200
1897.000000	99.950287
1896.000000	99.942876
1895.000000	100.005899
1894.000000	99.997560
1893.000000	99.986582
1892.000000	100.014952
1891.000000	100.051667
1890.000000	100.001627
1889.000000	100.012913
1888.000000	99.984756
1887.000000	99.962088
1886.000000	99.972268
1885.000000	100.001625
1884.000000	100.030174
1883.000000	100.015843
1882.000000	100.028239
1881.000000	99.997868
1880.000000	99.950259
1879.000000	99.897724
1878.000000	99.953328
1877.000000	99.978075
1876.000000	99.978481
1875.000000	99.993504
1874.000000	100.036437
1873.000000	100.019787
1872.000000	99.975147
1871.000000	99.966515
1870.000000	99.987926
1869.000000	100.048001
1868.000000	99.977674
1867.000000	99.963366
1866.000000	99.981731
1865.000000	99.976857
1864.000000	99.997665
1863.000000	100.012790
1862.000000	100.056581
1861.000000	99.978471
1860.000000	99.986699
1859.000000	99.990354
1858.000000	99.975536
1857.000000	100.017365
1856.000000	100.011273
1855.000000	100.004772
1854.000000	100.025485
1853.000000	99.986091
1852.000000	99.965078
1851.000000	99.964973
1850.000000	100.004874
1849.000000	100.026911
1848.000000	100.019900
1847.000000	100.038796
1846.000000	100.024172
1845.000000	100.038898
1844.000000	99.995735
1843.000000	99.974820
1842.000000	100.021931
1841.000000	100.023451
1840.000000	100.001827
1839.000000	100.011069
1838.000000	100.026203
1837.000000	100.040930
1836.000000	99.999898
1835.000000	99.991672
1834.000000	99.987202
1833.000000	100.008432
1832.000000	100.021038
1831.000000	100.005081
1830.000000	100.016564
1829.000000	100.042598
1828.000000	100.026632
1827.000000	100.010876
1826.000000	100.000712
1825.000000	100.002948
1824.000000	99.996137
1823.000000	99.965234
1822.000000	99.979360
1821.000000	99.999797
1820.000000	99.990442
1819.000000	100.000915
1818.000000	100.015968
1817.000000	100.025023
1816.000000	100.026755
1815.000000	100.013021
1814.000000	99.990846
1813.000000	99.978130
1812.000000	99.964900
1811.000000	99.972327
1810.000000	99.985245
1809.000000	99.985548
1808.000000	99.978322
1807.000000	100.003867
1806.000000	100.039094
1805.000000	100.018020
1804.000000	100.013028
1803.000000	100.029114
1802.000000	100.007534
1801.000000	100.013745
1800.000000	100.034520
1799.000000	100.019344
1798.000000	100.005803
1797.000000	100.001833
1796.000000	99.971901
1795.000000	99.966812
1794.000000	99.976891
1793.000000	99.967827
1792.000000	99.995112
1791.000000	99.991345
1790.000000	99.965280
1789.000000	99.991039
1788.000000	99.999796
1787.000000	100.004583
1786.000000	100.040131
1785.000000	100.006518
1784.000000	99.965481
1783.000000	99.983607
1782.000000	100.012015
1781.000000	100.029839
1780.000000	100.010082
1779.000000	99.947874
1778.000000	99.973733
1777.000000	100.005295
1776.000000	100.011407
1775.000000	99.985540
1774.000000	99.987273
1773.000000	99.996029
1772.000000	99.972102
1771.000000	99.987274
1770.000000	100.007331
1769.000000	99.985032
1768.000000	99.998574
1767.000000	99.966908
1766.000000	99.968743
1765.000000	99.989818
1764.000000	100.018738
1763.000000	100.030862
1762.000000	100.049709
1761.000000	100.027297
1760.000000	99.982483
1759.000000	100.004684
1758.000000	100.009675
1757.000000	100.006619
1756.000000	100.022607
1755.000000	100.028008
1754.000000	99.997760
1753.000000	99.985135
1752.000000	100.021589
1751.000000	100.015581
1750.000000	99.986968
1749.000000	99.998066
1748.000000	99.999898
1747.000000	100.005193
1746.000000	100.006415
1745.000000	99.967731
1744.000000	100.002953
1743.000000	100.013542
1742.000000	99.981166
1741.000000	100.003563
1740.000000	100.004276
1739.000000	99.993281
1738.000000	99.969358
1737.000000	99.996030
1736.000000	100.024132
1735.000000	100.018833
1734.000000	100.010890
1733.000000	99.994197
1732.000000	100.022806
1731.000000	100.028001
1730.000000	100.008247
1729.000000	99.999695
1728.000000	100.031776
1727.000000	99.980858
1726.000000	99.996131
1725.000000	100.035129
1724.000000	100.009672
1723.000000	99.992976
1722.000000	100.040730
1721.000000	100.022603
1720.000000	100.033393
1719.000000	100.008553
1718.000000	100.009978
1717.000000	100.033194
1716.000000	100.004684
1715.000000	99.985444
1714.000000	99.978930
1713.000000	99.977906
1712.000000	99.984629
1711.000000	100.067624
1710.000000	100.012523
1709.000000	99.969671
1708.000000	99.961220
1707.000000	99.984935
1706.000000	99.982189
1705.000000	99.992468
1704.000000	99.972621
1703.000000	99.962448
1702.000000	99.979740
1701.000000	99.999898
1700.000000	100.012114
1699.000000	100.012213
1698.000000	100.012316
1697.000000	100.031052
1696.000000	100.021173
1695.000000	100.020667
1694.000000	99.987787
1693.000000	100.023008
1692.000000	99.998677
1691.000000	99.981989
1690.000000	100.018119
1689.000000	99.976796
1688.000000	99.985341
1687.000000	100.008957
1686.000000	99.979243
1685.000000	99.993387
1684.000000	99.957370
1683.000000	99.971197
1682.000000	99.998066
1681.000000	100.020461
1680.000000	100.005496
1679.000000	100.018218
1678.000000	100.012113
1677.000000	100.010077
1676.000000	100.027173
1675.000000	99.997659
1674.000000	100.004071
1673.000000	99.981882
1672.000000	99.985853
1671.000000	99.988908
1670.000000	99.965708
1669.000000	100.022486
1668.000000	100.021675
1667.000000	100.011902
1666.000000	99.992778
1665.000000	100.013838
1664.000000	99.991150
1663.000000	99.971824
1662.000000	100.007121
1661.000000	100.008241
1660.000000	100.003459
1659.000000	100.009969
1658.000000	100.001221
1657.000000	99.988507
1656.000000	99.993999
1655.000000	99.968779
1654.000000	99.993084
1653.000000	99.991253
1652.000000	99.986472
1651.000000	99.991760
1650.000000	99.994100
1649.000000	99.995218
1648.000000	99.999288
1647.000000	99.997050
1646.000000	99.988708
1645.000000	99.991862
1644.000000	100.013124
1643.000000	100.000610
1642.000000	100.007020
1641.000000	99.990032
1640.000000	99.976098
1639.000000	99.996542
1638.000000	100.003763
1637.000000	99.992675
1636.000000	99.989828
1635.000000	99.992473
1634.000000	99.989623
1633.000000	99.978233
1632.000000	99.981387
1631.000000	99.986775
1630.000000	99.985250
1629.000000	99.993388
1628.000000	99.998169
1627.000000	99.997151
1626.000000	100.011293
1625.000000	99.997864
1624.000000	99.990132
1623.000000	100.014344
1622.000000	100.000610
1621.000000	99.992981
1620.000000	100.005392
1619.000000	100.002645
1618.000000	100.004374
1617.000000	100.008036
1616.000000	99.993998
1615.000000	99.979150
1614.000000	99.982607
1613.000000	99.984946
1612.000000	100.003560
1611.000000	100.008138
1610.000000	99.999491
1609.000000	99.995220
1608.000000	100.004374
1607.000000	100.016682
1606.000000	100.015461
1605.000000	100.026450
1604.000000	100.011088
1603.000000	100.009562
1602.000000	99.993388
1601.000000	99.985251
1600.000000	99.991049
1599.000000	99.981487
1598.000000	99.975895
1597.000000	99.982204
1596.000000	99.997457
1595.000000	99.997152
1594.000000	99.993796
1593.000000	99.983219
1592.000000	99.981286
1591.000000	99.996237
1590.000000	99.995728
1589.000000	99.980778
1588.000000	99.996033
1587.000000	100.003662
1586.000000	99.981896
1585.000000	99.999186
1584.000000	99.991965
1583.000000	99.971625
1582.000000	99.986067
1581.000000	99.981899
1580.000000	99.972137
1579.000000	99.990339
1578.000000	100.013426
1577.000000	100.004882
1576.000000	99.988915
1575.000000	100.003865
1574.000000	100.007730
1573.000000	99.994406
1572.000000	99.996644
1571.000000	99.991762
1570.000000	99.993999
1569.000000	99.998271
1568.000000	99.995627
1567.000000	100.011390
1566.000000	100.005186
1565.000000	99.998068
1564.000000	100.016881
1563.000000	100.013933
1562.000000	99.998780
1561.000000	99.994000
1560.000000	99.992982
1559.000000	99.980679
1558.000000	100.005491
1557.000000	100.009153
1556.000000	99.983934
1555.000000	99.995831
1554.000000	100.008949
1553.000000	100.005898
1552.000000	99.990239
1551.000000	99.980886
1550.000000	100.008541
1549.000000	100.032133
1548.000000	100.010270
1547.000000	99.996136
1546.000000	99.993493
1545.000000	100.006508
1544.000000	100.008643
1543.000000	100.004982
1542.000000	100.003762
1541.000000	99.995526
1540.000000	99.998678
1539.000000	100.007422
1538.000000	100.006813
1537.000000	99.984649
1536.000000	99.994611
1535.000000	100.024203
1534.000000	100.014438
1533.000000	99.996645
1532.000000	100.005389
1531.000000	99.998678
1530.000000	100.002746
1529.000000	99.992678
1528.000000	100.000102
1527.000000	99.984239
1526.000000	99.983120
1525.000000	100.011187
1524.000000	100.011494
1523.000000	99.995219
1522.000000	99.998881
1521.000000	99.991457
1520.000000	100.008238
1519.000000	99.996746
1518.000000	100.002441
1517.000000	100.012206
1516.000000	100.013630
1515.000000	99.998068
1514.000000	99.995321
1513.000000	100.007325
1512.000000	99.979353
1511.000000	99.982098
1510.000000	99.991965
1509.000000	100.022584
1508.000000	100.021773
1507.000000	100.023399
1506.000000	100.001831
1505.000000	100.017904
1504.000000	99.990641
1503.000000	100.019026
1502.000000	100.011598
1501.000000	100.004782
1500.000000	100.004171
1499.000000	99.995016
1498.000000	99.997762
1497.000000	99.988200
1496.000000	100.001322
1495.000000	99.986879
1494.000000	100.003560
1493.000000	100.021465
1492.000000	99.991354
1491.000000	99.988201
1490.000000	99.991659
1489.000000	99.979151
1488.000000	100.012716
1487.000000	100.011290
1486.000000	99.994508
1485.000000	100.005391
1484.000000	99.997457
1483.000000	100.010069
1482.000000	100.017086
1481.000000	99.994102
1480.000000	100.012610
1479.000000	99.965638
1478.000000	100.003050
1477.000000	99.989119
1476.000000	99.996950
1475.000000	100.002542
1474.000000	99.997356
1473.000000	100.002135
1472.000000	100.017794
1471.000000	99.999288
1470.000000	100.003152
1469.000000	100.001424
1468.000000	100.010680
1467.000000	100.024817
1466.000000	99.980070
1465.000000	100.016371
1464.000000	99.993798
1463.000000	100.001017
1462.000000	99.984443
1461.000000	100.010270
1460.000000	99.982005
1459.000000	99.972650
1458.000000	99.982508
1457.000000	99.968994
1456.000000	99.993798
1455.000000	99.973367
1454.000000	100.000712
1453.000000	100.008950
1452.000000	99.992577
1451.000000	100.011186
1450.000000	100.001424
1449.000000	100.003254
1448.000000	100.004067
1447.000000	99.978651
1446.000000	99.990444
1445.000000	100.007320
1444.000000	100.008743
1443.000000	100.021046
1442.000000	100.014843
1441.000000	99.998780
1440.000000	100.008234
1439.000000	99.997764
1438.000000	100.010675
1437.000000	100.015047
1436.000000	99.997459
1435.000000	99.997357
1434.000000	99.985870
1433.000000	99.986479
1432.000000	100.014435
1431.000000	100.015960
1430.000000	99.990751
1429.000000	99.997052
1428.000000	99.990853
1427.000000	100.004269
1426.000000	99.994207
1425.000000	99.990650
1424.000000	99.991262
1423.000000	99.988925
1422.000000	99.983644
1421.000000	99.997359
1420.000000	100.000508
1419.000000	99.991265
1418.000000	99.987711
1417.000000	100.008327
1416.000000	99.998071
1415.000000	99.999594
1414.000000	99.992893
1413.000000	99.990459
1412.000000	100.005481
1411.000000	100.003146
1410.000000	99.997463
1409.000000	100.012582
1408.000000	100.002435
1407.000000	100.004058
1406.000000	100.011157
1405.000000	100.009635
1404.000000	100.001115
1403.000000	99.996553
1402.000000	99.985806
1401.000000	99.983575
1400.000000	100.000811
1399.000000	100.013079
1398.000000	100.011963
1397.000000	100.004156
1396.000000	100.004966
1395.000000	100.013884
1394.000000	100.019154
1393.000000	100.011045
1392.000000	100.014085
1391.000000	99.994224
1390.000000	99.974368
1389.000000	99.988552
1388.000000	99.992199
1387.000000	100.003242
1386.000000	100.002026
1385.000000	99.997062
1384.000000	100.002634
1383.000000	100.002229
1382.000000	99.990071
1381.000000	99.993211
1380.000000	100.014184
1379.000000	100.037697
1378.000000	100.018443
1377.000000	99.970214
1376.000000	99.962215
1375.000000	99.991185
1374.000000	100.011553
1373.000000	100.005776
1372.000000	99.998784
1371.000000	99.999189
1370.000000	100.010638
1369.000000	100.002229
1368.000000	100.002735
1367.000000	100.018946
1366.000000	99.993922
1365.000000	99.993821
1364.000000	100.016208
1363.000000	99.999494
1362.000000	99.997873
1361.000000	100.005369
1360.000000	99.997062
1359.000000	99.998582
1358.000000	100.014693
1357.000000	100.005574
1356.000000	99.996452
1355.000000	100.026568
1354.000000	99.998580
1353.000000	99.988845
1352.000000	100.017852
1351.000000	100.017345
1350.000000	99.997058
1349.000000	100.001116
1348.000000	100.000406
1347.000000	100.002740
1346.000000	100.018066
1345.000000	99.991576
1344.000000	99.976861
1343.000000	99.984676
1342.000000	100.009742
1341.000000	100.008322
1340.000000	99.999290
1339.000000	99.999188
1338.000000	100.000609
1337.000000	99.993200
1336.000000	99.990765
1335.000000	100.005277
1334.000000	99.995028
1333.000000	99.993506
1332.000000	99.998782
1331.000000	99.997971
1330.000000	100.004262
1329.000000	99.982752
1328.000000	100.001725
1327.000000	100.018872
1326.000000	100.019790
1325.000000	99.998275
1324.000000	99.982043
1323.000000	99.990563
1322.000000	99.985797
1321.000000	99.987319
1320.000000	100.010149
1319.000000	100.007814
1318.000000	100.010351
1317.000000	99.974633
1316.000000	99.993810
1315.000000	99.999797
1314.000000	99.991577
1313.000000	100.004871
1312.000000	99.980716
1311.000000	99.994316
1310.000000	99.999797
1309.000000	99.996347
1308.000000	99.972291
1307.000000	99.985283
1306.000000	99.989243
1305.000000	99.992693
1304.000000	99.955553
1303.000000	99.978888
1302.000000	99.998883
1301.000000	100.010049
1300.000000	99.989139
1299.000000	99.996042
1298.000000	100.006293
1297.000000	99.994113
1296.000000	100.005582
1295.000000	99.979805
1294.000000	100.005582
1293.000000	99.989953
1292.000000	99.987212
1291.000000	99.998072
1290.000000	99.981328
1289.000000	99.986806
1288.000000	99.977676
1287.000000	100.005683
1286.000000	99.980116
1285.000000	99.984683
1284.000000	99.975959
1283.000000	99.977076
1282.000000	99.988335
1281.000000	99.993305
1280.000000	100.001116
1279.000000	99.986207
1278.000000	100.008520
1277.000000	99.988236
1276.000000	99.997364
1275.000000	100.001420
1274.000000	99.992091
1273.000000	99.983273
1272.000000	100.021090
1271.000000	99.980840
1270.000000	99.985402
1269.000000	99.987836
1268.000000	99.997567
1267.000000	100.010949
1266.000000	100.004662
1265.000000	99.989156
1264.000000	100.002534
1263.000000	99.999189
1262.000000	100.005372
1261.000000	100.012770
1260.000000	99.985610
1259.000000	99.989157
1258.000000	99.986422
1257.000000	100.006894
1256.000000	99.994831
1255.000000	99.986723
1254.000000	100.006891
1253.000000	99.993412
1252.000000	99.971933
1251.000000	100.010337
1250.000000	100.010439
1249.000000	99.993818
1248.000000	99.994425
1247.000000	99.985205
1246.000000	99.998885
1245.000000	100.005979
1244.000000	100.005371
1243.000000	100.001621
1242.000000	100.000101
1241.000000	99.999189
1240.000000	99.993921
1239.000000	100.009929
1238.000000	100.025330
1237.000000	100.026746
1236.000000	99.995544
1235.000000	99.997266
1234.000000	100.005063
1233.000000	99.991899
1232.000000	100.001721
1231.000000	99.995040
1230.000000	100.008404
1229.000000	99.987448
1228.000000	99.997976
1227.000000	99.970252
1226.000000	99.999899
1225.000000	99.997471
1224.000000	100.013660
1223.000000	100.003338
1222.000000	99.994740
1221.000000	100.000506
1220.000000	99.998685
1219.000000	99.985741
1218.000000	100.001618
1217.000000	99.994034
1216.000000	99.983420
1215.000000	99.979885
1214.000000	99.982210
1213.000000	99.984838
1212.000000	99.996967
1211.000000	100.012535
1210.000000	100.032353
1209.000000	99.986355
1208.000000	100.003235
1207.000000	99.991610
1206.000000	100.011829
1205.000000	100.000000
1204.000000	100.019913
1203.000000	100.037305
1202.000000	100.000202
1201.000000	100.012331
1200.000000	100.008591
1199.000000	100.002830
1198.000000	100.023858
1197.000000	100.003234
1196.000000	100.001314
1195.000000	100.004952
1194.000000	100.010006
1193.000000	99.991410
1192.000000	99.991511
1191.000000	99.997777
1190.000000	100.011421
1189.000000	100.002830
1188.000000	99.986962
1187.000000	99.999394
1186.000000	100.004750
1185.000000	100.005963
1184.000000	99.996565
1183.000000	99.993130
1182.000000	99.999293
1181.000000	99.991818
1180.000000	99.994647
1179.000000	99.985860
1178.000000	99.981620
1177.000000	99.994345
1176.000000	99.992225
1175.000000	99.986571
1174.000000	99.987884
1173.000000	99.991319
1172.000000	100.001514
1171.000000	99.991421
1170.000000	99.987081
1169.000000	99.998688
1168.000000	100.007265
1167.000000	100.007568
1166.000000	99.990617
1165.000000	99.993342
1164.000000	100.003430
1163.000000	99.990519
1162.000000	99.989815
1161.000000	99.999092
1160.000000	99.991228
1159.000000	99.973889
1158.000000	99.967844
1157.000000	99.985283
1156.000000	99.985486
1155.000000	99.980246
1154.000000	99.991434
1153.000000	100.001612
1152.000000	99.998488
1151.000000	99.990428
1150.000000	99.982169
1149.000000	99.985093
1148.000000	100.002014
1147.000000	100.007050
1146.000000	100.000805
1145.000000	99.994967
1144.000000	100.002416
1143.000000	100.005939
1142.000000	100.006743
1141.000000	100.011977
1140.000000	100.002918
1139.000000	100.003723
1138.000000	100.005935
1137.000000	100.001207
1136.000000	100.003319
1135.000000	100.005834
1134.000000	99.993262
1133.000000	99.989643
1132.000000	99.991856
1131.000000	100.006635
1130.000000	100.004221
1129.000000	100.002613
1128.000000	99.990053
1127.000000	99.986640
1126.000000	99.988247
1125.000000	99.999498
1124.000000	100.003114
1123.000000	100.008436
1122.000000	99.999699
1121.000000	100.003013
1120.000000	100.011748
1119.000000	100.004116
1118.000000	99.995483
1117.000000	99.990767
1116.000000	100.001706
1115.000000	100.022180
1114.000000	100.027996
1113.000000	100.001003
1112.000000	100.015649
1111.000000	100.020061
1110.000000	99.994685
1109.000000	99.994585
1108.000000	100.000802
1107.000000	99.998797
1106.000000	99.999298
1105.000000	99.999800
1104.000000	100.012028
1103.000000	100.008318
1102.000000	100.001302
1101.000000	99.998297
1100.000000	100.022638
1099.000000	99.991088
1098.000000	100.000200
1097.000000	99.996496
1096.000000	99.995496
1095.000000	100.005505
1094.000000	99.996798
1093.000000	100.002001
1092.000000	100.020210
1091.000000	99.998000
1090.000000	99.980402
1089.000000	99.991101
1088.000000	100.002299
1087.000000	99.973717
1086.000000	99.983013
1085.000000	99.980919
1084.000000	100.007193
1083.000000	99.996804
1082.000000	100.014681
1081.000000	100.006091
1080.000000	100.016373
1079.000000	100.021562
1078.000000	99.999401
1077.000000	100.006685
1076.000000	99.993915
1075.000000	99.988530
1074.000000	99.975471
1073.000000	99.982853
1072.000000	100.018442
1071.000000	100.005980
1070.000000	100.006078
1069.000000	100.013649
1068.000000	100.007072
1067.000000	99.996814
1066.000000	99.984866
1065.000000	100.006769
1064.000000	100.010251
1063.000000	99.991444
1062.000000	99.994131
1061.000000	99.998011
1060.000000	99.998409
1059.000000	99.988865
1058.000000	99.998310
1057.000000	100.000894
1056.000000	100.012519
1055.000000	99.999106
1054.000000	100.004470
1053.000000	100.000496
1052.000000	100.008637
1051.000000	100.004962
1050.000000	100.005060
1049.000000	99.987003
1048.000000	99.993058
1047.000000	99.996629
1046.000000	99.989593
1045.000000	100.012388
1044.000000	99.985141
1043.000000	100.014265
1042.000000	100.028722
1041.000000	100.021982
1040.000000	100.000594
1039.000000	100.006036
1038.000000	99.990701
1037.000000	99.989517
1036.000000	100.009393
1035.000000	99.996738
1034.000000	100.002668
1033.000000	100.007015
1032.000000	100.029637
1031.000000	99.993286
1030.000000	100.021029
1029.000000	99.996546
1028.000000	100.017365
1027.000000	100.019035
1026.000000	100.007099
1025.000000	100.017449
1024.000000	100.001380
1023.000000	100.006108
1022.000000	100.014379
1021.000000	100.027272
1020.000000	100.003838
1019.000000	99.963900
1018.000000	100.011509
1017.000000	100.017996
1016.000000	99.988303
1015.000000	99.994693
1014.000000	100.009038
1013.000000	100.015615
1012.000000	100.011289
1011.000000	100.002257
1010.000000	100.002550
1009.000000	99.989410
1008.000000	100.010980
1007.000000	99.995688
1006.000000	100.001861
1005.000000	100.015180
1004.000000	100.002741
1003.000000	99.990998
1002.000000	99.996870
1001.000000	100.001369
1000.000000	100.010361
999.000000	100.020031
998.000000	100.016702
997.000000	100.000488
996.000000	99.991022
995.000000	100.010828
994.000000	99.999903
993.000000	99.986258
992.000000	99.984024
991.000000	100.014998
990.000000	100.018301
989.000000	99.989104
988.000000	99.989496
987.000000	99.986876
986.000000	100.005636
985.000000	100.012241
984.000000	99.987668
983.000000	99.997185
982.000000	99.995052
981.000000	99.998739
980.000000	99.987883
979.000000	99.993023
978.000000	100.001162
977.000000	100.002711
976.000000	100.004646
975.000000	100.004257
974.000000	100.012959
973.000000	100.011502
972.000000	99.998937
971.000000	99.989862
970.000000	100.003185
969.000000	100.004438
968.000000	100.008583
967.000000	99.997012
966.000000	100.009250
965.000000	100.035344
964.000000	100.013281
963.000000	99.993844
962.000000	100.000288
961.000000	99.983281
960.000000	99.990684
959.000000	100.008064
958.000000	100.017176
957.000000	100.003836
956.000000	99.997700
955.000000	100.004215
954.000000	99.981237
953.000000	99.969293
952.000000	99.982504
951.000000	99.972195
950.000000	99.977749
949.000000	100.000764
948.000000	100.006201
947.000000	100.009631
946.000000	99.986088
945.000000	99.987050
944.000000	100.017988
943.000000	100.011222
942.000000	99.991256
941.000000	99.998955
940.000000	100.011771
939.000000	100.001233
938.000000	99.956781
937.000000	99.966561
936.000000	100.018085
935.000000	100.018072
934.000000	99.988465
933.000000	99.993764
932.000000	100.002738
931.000000	100.019349
930.000000	100.024427
929.000000	100.021863
928.000000	99.994538
927.000000	99.991720
926.000000	100.001598
925.000000	100.002912
924.000000	99.997559
923.000000	99.992682
922.000000	99.998875
921.000000	99.994659
920.000000	99.989421
919.000000	99.992330
918.000000	99.989906
917.000000	99.997198
916.000000	99.980868
915.000000	99.988809
914.000000	99.996740
913.000000	99.969100
912.000000	99.970057
911.000000	100.021935
910.000000	100.007893
909.000000	99.977729
908.000000	99.995920
907.000000	99.956945
906.000000	99.909718
905.000000	99.961728
904.000000	100.030955
903.000000	100.005077
902.000000	99.989763
901.000000	99.963150
900.000000	100.003775
899.000000	100.058337
898.000000	100.040158
897.000000	100.007804
896.000000	99.988349
895.000000	99.957111
894.000000	99.973631
893.000000	99.917707
892.000000	99.928641
891.000000	99.896118
890.000000	99.995347
889.000000	99.961092
888.000000	99.927443
887.000000	99.974166
886.000000	99.978093
885.000000	99.894241
884.000000	99.981668
883.000000	99.985856
882.000000	99.984880
881.000000	100.029681
880.000000	99.996023
879.000000	99.943323
878.000000	99.922486
877.000000	99.976567
876.000000	100.066204
875.000000	99.987676
874.000000	99.962706
873.000000	99.961680
872.000000	100.103402
871.000000	99.892859
870.000000	100.002328
869.000000	100.050741
868.000000	100.004114
867.000000	100.033234
866.000000	100.016240
865.000000	100.033505
864.000000	100.062881
863.000000	99.994041
862.000000	99.937325
861.000000	99.837964
860.000000	100.101781
859.000000	99.834418
858.000000	99.581872
857.000000	99.804639
856.000000	99.806242
855.000000	100.319949
854.000000	100.081606
853.000000	100.460329
852.000000	99.904033
851.000000	99.928670
850.000000	100.087252
849.000000	100.041520
848.000000	99.641473
847.000000	100.010032
846.000000	99.888361
845.000000	100.045377
844.000000	100.097867
843.000000	99.918177
842.000000	99.857516
841.000000	100.074037
840.000000	100.048661
839.000000	99.893705
838.000000	100.047673
837.000000	99.745212
836.000000	99.906742
835.000000	99.997177
834.000000	99.846446
833.000000	99.791453
832.000000	99.996032
831.000000	100.174575
830.000000	99.961950
829.000000	100.046084
828.000000	100.061162
827.000000	99.919927
826.000000	99.967883
825.000000	100.067067
824.000000	99.905689
823.000000	100.026192
822.000000	100.054874
821.000000	99.851606
820.000000	100.359693
819.000000	100.028772
818.000000	99.961402
817.000000	100.154219
816.000000	100.021470
815.000000	100.069986
814.000000	99.959893
813.000000	99.912159
812.000000	100.065464
811.000000	99.969969
810.000000	100.026611
809.000000	100.131452
808.000000	99.973652
807.000000	99.920744
806.000000	100.104711
805.000000	100.040726
804.000000	100.062974
803.000000	100.193089
802.000000	99.994792
801.000000	99.872844
800.000000	99.841339
799.000000	100.027584
798.000000	100.122077
797.000000	100.138672
796.000000	100.111900
795.000000	100.118293
794.000000	99.941154
793.000000	100.087351
792.000000	100.043316
791.000000	100.071895
790.000000	99.914009
789.000000	100.026189
788.000000	99.943934
787.000000	99.884388
786.000000	100.042036
785.000000	100.248848
784.000000	100.154448
783.000000	100.119606
782.000000	100.047256
781.000000	100.058386
780.000000	99.979675
779.000000	100.031896
778.000000	100.133239
777.000000	99.927190
776.000000	99.863033
775.000000	99.994731
774.000000	99.890347
773.000000	100.048470
772.000000	100.092055
771.000000	99.954437
770.000000	99.862813
769.000000	99.903988
768.000000	99.986297
767.000000	100.014172
766.000000	100.064282
765.000000	99.895632
764.000000	99.989403
763.000000	99.958308
762.000000	100.049707
761.000000	100.011413
760.000000	99.866381
759.000000	99.887758
758.000000	99.988384
757.000000	100.043701
756.000000	99.964152
755.000000	100.054480
754.000000	100.063997
753.000000	100.010740
752.000000	99.996118
751.000000	99.973266
750.000000	99.999819
749.000000	99.970070
748.000000	99.990502
747.000000	100.012218
746.000000	99.837806
745.000000	99.809492
744.000000	99.994473
743.000000	99.994471
742.000000	99.920885
741.000000	99.975603
740.000000	100.085921
739.000000	100.002905
738.000000	99.996912
737.000000	100.035792
736.000000	99.977286
735.000000	99.956648
734.000000	100.029016
733.000000	100.009281
732.000000	99.946233
731.000000	99.968052
730.000000	99.985423
729.000000	99.948905
728.000000	99.974406
727.000000	100.022425
726.000000	99.970555
725.000000	99.970268
724.000000	99.981567
723.000000	100.013146
722.000000	99.944956
721.000000	99.972874
720.000000	100.038108
719.000000	99.999726
718.000000	99.895670
717.000000	99.915467
716.000000	99.966330
715.000000	100.042272
714.000000	100.031951
713.000000	100.019233
712.000000	100.001191
711.000000	99.927057
710.000000	99.993124
709.000000	100.034568
708.000000	99.959115
707.000000	99.967900
706.000000	100.028928
705.000000	100.041417
704.000000	100.014686
703.000000	100.097997
702.000000	100.084994
701.000000	99.895044
700.000000	99.934690
699.000000	100.056101
698.000000	99.997793
697.000000	99.950444
696.000000	99.962392
695.000000	99.887510
694.000000	99.925664
693.000000	100.024677
692.000000	100.006633
691.000000	99.975683
690.000000	99.966375
689.000000	99.955891
688.000000	100.028915
687.000000	100.025518
686.000000	100.007095
685.000000	99.979822
684.000000	100.026728
683.000000	100.019540
682.000000	99.954478
681.000000	100.011163
680.000000	99.976469
679.000000	99.919285
678.000000	99.985978
677.000000	99.944922
676.000000	99.940006
675.000000	100.013024
674.000000	100.018386
673.000000	100.009332
672.000000	99.998984
671.000000	100.084132
670.000000	100.091743
669.000000	99.940647
668.000000	99.929794
667.000000	100.008606
666.000000	100.045159
665.000000	100.025261
664.000000	99.884340
663.000000	99.873492
662.000000	99.911886
661.000000	99.940744
660.000000	99.983332
659.000000	99.993978
658.000000	100.016590
657.000000	100.040615
656.000000	100.015206
655.000000	100.029853
654.000000	99.970150
653.000000	99.958555
652.000000	99.915120
651.000000	99.956849
650.000000	99.976339
649.000000	99.946368
648.000000	99.963409
647.000000	99.935209
646.000000	99.964615
645.000000	99.901166
644.000000	99.972869
643.000000	99.990522
642.000000	99.971290
641.000000	99.921952
640.000000	100.019436
639.000000	100.007908
638.000000	99.965583
637.000000	99.974795
636.000000	99.963907
635.000000	100.038632
634.000000	99.932926
633.000000	100.005866
632.000000	99.966856
631.000000	99.902543
630.000000	99.980643
629.000000	99.966596
628.000000	99.958291
627.000000	99.992637
626.000000	99.956580
625.000000	100.024138
624.000000	99.904445
623.000000	100.037946
622.000000	99.925052
621.000000	99.977706
620.000000	100.015390
619.000000	99.949461
618.000000	99.960739
617.000000	100.034428
616.000000	99.993375
615.000000	99.974906
614.000000	100.007096
613.000000	99.975915
612.000000	99.950434
611.000000	99.949996
610.000000	99.935539
609.000000	99.994676
608.000000	99.974233
607.000000	99.967597
606.000000	100.033896
605.000000	100.013265
604.000000	99.998318
603.000000	100.093668
602.000000	99.936367
601.000000	100.042337
600.000000	100.028778
599.000000	99.887070
598.000000	99.969807
597.000000	99.933046
596.000000	100.033949
595.000000	100.049279
594.000000	99.996449
593.000000	99.972894
592.000000	100.010099
591.000000	100.011882
590.000000	99.971845
589.000000	99.890642
588.000000	99.982602
587.000000	100.151723
586.000000	99.975115
585.000000	99.960805
584.000000	99.953960
583.000000	99.985026
582.000000	100.018351
581.000000	99.964049
580.000000	99.921877
579.000000	99.953547
578.000000	100.055647
577.000000	99.902396
576.000000	99.949548
575.000000	99.972746
574.000000	99.978272
573.000000	100.046105
572.000000	99.984272
571.000000	100.052835
570.000000	100.016024
569.000000	100.020138
568.000000	100.000281
567.000000	99.962517
566.000000	99.984822
565.000000	99.969178
564.000000	99.950534
563.000000	99.940234
562.000000	99.927837
561.000000	100.020256
560.000000	100.024748
559.000000	100.028038
558.000000	100.013598
557.000000	99.965504
556.000000	100.013967
555.000000	100.016600
554.000000	99.963916
553.000000	99.964910
552.000000	100.006190
551.000000	100.008256
550.000000	100.022324
549.000000	99.962200
548.000000	100.009759
547.000000	100.001595
546.000000	99.954041
545.000000	99.962098
544.000000	99.983018
543.000000	99.940622
542.000000	99.960499
541.000000	100.019897
540.000000	99.948297
539.000000	99.921069
538.000000	99.954574
537.000000	100.030046
536.000000	99.964886
535.000000	100.000563
534.000000	99.962449
533.000000	100.046682
532.000000	99.946198
531.000000	100.023202
530.000000	99.993424
529.000000	99.975288
528.000000	99.996054
527.000000	99.952763
526.000000	99.991358
525.000000	100.011275
524.000000	99.980267
523.000000	99.981489
522.000000	99.977921
521.000000	99.929538
520.000000	99.970870
519.000000	100.061291
518.000000	99.999718
517.000000	99.965034
516.000000	99.985147
515.000000	100.009777
514.000000	100.040234
513.000000	100.031587
512.000000	99.977817
511.000000	99.949053
510.000000	99.941448
509.000000	99.972453
508.000000	100.027827
507.000000	100.014384
506.000000	99.970480
505.000000	99.954777
504.000000	100.001881
503.000000	100.008182
502.000000	100.005455
501.000000	99.986176
500.000000	99.963504
499.000000	100.030680
498.000000	100.001035
497.000000	99.974793
496.000000	100.009125
495.000000	100.057035
494.000000	99.973753
493.000000	99.984762
492.000000	99.910796
491.000000	99.951747
490.000000	99.960213
489.000000	99.928636
488.000000	99.951851
487.000000	100.021921
486.000000	100.020978
485.000000	99.993042
484.000000	99.955817
483.000000	99.966978
482.000000	99.963182
481.000000	99.975522
480.000000	99.984271
479.000000	100.000188
478.000000	99.994626
477.000000	99.989909
476.000000	100.013302
475.000000	100.022639
474.000000	99.998396
473.000000	99.981601
472.000000	99.962824
471.000000	99.957716
470.000000	100.007648
469.000000	99.964322
468.000000	99.951860
467.000000	100.020398
466.000000	100.010580
465.000000	99.937365
464.000000	99.954749
463.000000	100.029103
462.000000	99.996410
461.000000	99.975258
460.000000	99.973369
459.000000	99.954453
458.000000	99.976840
457.000000	99.982990
456.000000	100.013804
455.000000	99.997542
454.000000	99.910898
453.000000	99.917124
452.000000	99.960577
451.000000	100.045223
450.000000	100.085510
449.000000	100.021181
448.000000	99.971055
447.000000	99.952127
446.000000	99.964912
445.000000	99.978908
444.000000	100.005487
443.000000	99.981644
442.000000	99.994131
441.000000	99.988824
440.000000	99.969976
439.000000	99.911760
438.000000	99.950278
437.000000	100.104132
436.000000	100.003126
435.000000	99.989574
434.000000	100.060517
433.000000	100.016215
432.000000	100.043061
431.000000	99.966534
430.000000	99.988811
429.000000	100.044974
428.000000	100.018112
427.000000	99.966257
426.000000	100.021157
425.000000	99.962149
424.000000	100.017650
423.000000	100.046907
422.000000	99.931761
421.000000	99.978067
420.000000	99.980066
419.000000	99.965455
418.000000	99.943604
417.000000	99.925347
416.000000	99.983472
415.000000	100.005130
414.000000	99.971971
413.000000	99.953338
412.000000	100.025669
411.000000	99.985267
410.000000	99.943646
409.000000	99.940012
408.000000	100.013217
407.000000	99.930223
406.000000	99.831943
405.000000	100.029593
404.000000	99.992771
403.000000	99.970032
402.000000	100.095297
401.000000	99.998477
400.000000	99.907870
399.000000	99.995239
398.000000	100.060573
397.000000	99.992666
396.000000	100.095406
395.000000	99.975703
394.000000	99.970552
393.000000	100.044728
392.000000	99.902359
391.000000	99.987037
390.000000	99.971203
389.000000	99.900652
388.000000	99.968340
387.000000	100.002671
386.000000	99.986645
385.000000	99.983501
384.000000	100.101320
383.000000	100.067420
382.000000	99.905402
381.000000	99.999714
380.000000	100.003726
379.000000	100.122627
378.000000	100.052459
377.000000	99.797007
376.000000	99.833587
375.000000	100.032847
374.000000	100.054299
373.000000	100.070575
372.000000	100.147000
371.000000	100.071603
370.000000	100.011699
369.000000	100.028942
368.000000	100.115659
367.000000	100.003328
366.000000	99.706078
365.000000	99.938095
364.000000	99.979555
363.000000	99.956535
362.000000	100.113640
361.000000	100.203720
360.000000	99.855350
359.000000	100.070424
358.000000	100.040352
357.000000	99.864889
356.000000	100.030579
355.000000	99.858803
354.000000	100.113340
353.000000	100.209124
352.000000	100.047837
351.000000	99.873926
350.000000	99.909713
349.000000	100.172136
348.000000	99.891110
347.000000	99.952086
346.000000	100.334376
345.000000	99.853631
344.000000	99.789465
343.000000	100.098345
342.000000	100.108332
341.000000	100.106655
340.000000	100.064287
339.000000	100.024417
338.000000	99.919315
337.000000	100.168678
336.000000	100.287005
335.000000	100.185358
334.000000	100.255949
333.000000	100.055015
332.000000	99.893998
331.000000	99.937117
330.000000	100.077737
329.000000	100.041434
328.000000	99.673735
327.000000	99.624513
326.000000	99.898818
325.000000	100.097649
324.000000	99.681778
323.000000	100.375184
322.000000	99.724907
321.000000	100.077645
320.000000	100.244311
319.000000	100.659157
318.000000	100.382389
317.000000	100.010947
316.000000	99.895843
315.000000	100.070354
314.000000	100.237703
313.000000	100.237139
312.000000	100.117315
311.000000	99.758859
310.000000	99.864245
309.000000	99.846231
308.000000	100.073905
307.000000	100.125983
306.000000	100.111058
305.000000	99.769867
304.000000	99.803384
303.000000	99.929027
302.000000	99.925560
301.000000	100.115113
300.000000	100.090433
299.000000	99.847629
298.000000	100.162240
297.000000	100.007582
296.000000	99.967700
295.000000	100.162771
294.000000	100.273880
293.000000	100.214329
292.000000	100.082188
291.000000	100.180629
290.000000	99.835641
289.000000	99.870849
288.000000	100.223877
287.000000	100.035373
286.000000	99.890109
285.000000	100.203935
284.000000	100.095436
283.000000	99.989624
282.000000	99.848655
281.000000	99.824214
280.000000	99.531077
279.000000	99.818705
278.000000	99.840948
277.000000	99.992789
276.000000	100.027760
275.000000	99.921950
274.000000	99.971349
273.000000	99.944681
272.000000	100.132119
271.000000	100.167188
270.000000	100.098487
269.000000	99.988332
268.000000	99.997645
267.000000	100.280333
266.000000	100.080915
265.000000	99.930869
264.000000	100.035104
263.000000	99.929730
262.000000	99.882039
261.000000	99.752291
260.000000	99.962980
259.000000	100.100496
258.000000	99.916640
257.000000	99.844801
256.000000	99.642242
255.000000	99.816610
254.000000	99.814315
253.000000	99.838470
252.000000	100.027346
251.000000	100.034289
250.000000	100.003652
249.000000	100.095092
248.000000	100.303024
247.000000	100.065670
246.000000	100.015544
245.000000	100.072769
244.000000	100.128643
243.000000	100.027604
242.000000	99.855042
241.000000	100.189129
240.000000	100.072464
239.000000	100.057766
238.000000	100.030191
237.000000	99.950702
236.000000	99.864541
235.000000	100.020790
234.000000	100.418089
233.000000	100.276168
232.000000	100.091826
231.000000	100.042331
230.000000	99.882716
229.000000	99.982334
228.000000	100.021900
227.000000	99.741503
226.000000	99.953095
225.000000	100.323075
224.000000	100.357847
223.000000	100.150700
222.000000	99.836294
221.000000	99.894193
220.000000	100.302905
219.000000	100.348824
218.000000	100.075743
217.000000	99.943533
216.000000	99.628018
215.000000	99.532775
214.000000	99.821048
213.000000	99.779175
212.000000	100.105076
211.000000	100.078596
210.000000	99.976325
209.000000	99.947889
208.000000	99.998338
207.000000	100.232933
206.000000	100.252929
205.000000	100.650363
204.000000	100.118531
203.000000	99.063367
202.000000	99.680877
201.000000	100.442334
200.000000	99.726932
