PE UV       SUBTECH     SPECTRUM    ASCII       PEDS        4.00        
   -1
Empty Chamber 2.Sample.asc
18/03/21
14:32:47.00
18/03/21
14:32:47.00
Administrator

200.000000
1
Lambda 750
750N8071901
PerkinElmer UV WinLab 6.0.4.0738 / 1.61.00 Lambda 900

0
0
3350/servo 860.8/2
0
0
UV/VIS
1
1
1
CommonBeamDepol,150mm sphere / downward view
0
0
0
0
Program
Program
3350/servo 860.8/2
3350/0.2 860.8/0.2
3350/0.2 860.8/0.2
0
1
 
 
 
0
 
860.8
319.2
860.8
Front
100
on
 
 
0
0
0
 
0
 
 
 
0
 
 
0
0
0
0
0
 
 
 
 
0
0


0
0
#HDR
-1
-1
#GR
nm
%T
1.0
0.0
2350.000000
-1.000000
2151
8
100.661795
99.287371
#DATA
2350.000000	99.944707
2349.000000	100.541384
2348.000000	99.690851
2347.000000	100.280610
2346.000000	99.891301
2345.000000	99.898370
2344.000000	99.817420
2343.000000	99.750582
2342.000000	100.405783
2341.000000	100.303902
2340.000000	99.425213
2339.000000	99.906087
2338.000000	100.342875
2337.000000	99.960616
2336.000000	100.046739
2335.000000	100.377249
2334.000000	100.126122
2333.000000	100.063414
2332.000000	99.947837
2331.000000	99.950878
2330.000000	99.600892
2329.000000	99.906619
2328.000000	100.018792
2327.000000	99.882312
2326.000000	100.202850
2325.000000	100.111041
2324.000000	100.000101
2323.000000	100.039813
2322.000000	100.053261
2321.000000	99.807104
2320.000000	99.818357
2319.000000	100.034837
2318.000000	99.952453
2317.000000	100.350087
2316.000000	99.864764
2315.000000	99.921110
2314.000000	100.033638
2313.000000	99.942352
2312.000000	100.131435
2311.000000	100.263732
2310.000000	99.949502
2309.000000	99.764137
2308.000000	99.968379
2307.000000	99.843508
2306.000000	99.605267
2305.000000	99.904379
2304.000000	100.130764
2303.000000	100.018210
2302.000000	99.857923
2301.000000	99.826750
2300.000000	99.801572
2299.000000	99.930883
2298.000000	99.782729
2297.000000	100.009225
2296.000000	100.087970
2295.000000	99.747590
2294.000000	100.003338
2293.000000	100.271220
2292.000000	100.034113
2291.000000	100.013054
2290.000000	100.233175
2289.000000	100.163386
2288.000000	100.111351
2287.000000	100.189415
2286.000000	100.178592
2285.000000	100.222998
2284.000000	100.088948
2283.000000	100.249754
2282.000000	100.041398
2281.000000	100.184945
2280.000000	100.094805
2279.000000	100.168921
2278.000000	99.926660
2277.000000	99.909659
2276.000000	99.998685
2275.000000	100.061005
2274.000000	100.045803
2273.000000	100.110186
2272.000000	100.030468
2271.000000	99.797280
2270.000000	99.759472
2269.000000	99.871650
2268.000000	100.023294
2267.000000	100.058275
2266.000000	100.179471
2265.000000	100.203567
2264.000000	100.088514
2263.000000	99.965961
2262.000000	99.890517
2261.000000	99.929765
2260.000000	100.006065
2259.000000	99.993422
2258.000000	100.178853
2257.000000	100.124494
2256.000000	99.964689
2255.000000	99.982586
2254.000000	99.932172
2253.000000	99.813573
2252.000000	99.949534
2251.000000	100.000101
2250.000000	100.066545
2249.000000	100.239061
2248.000000	100.154217
2247.000000	100.061773
2246.000000	99.960013
2245.000000	99.931734
2244.000000	99.954582
2243.000000	99.966325
2242.000000	100.053971
2241.000000	100.096412
2240.000000	100.051268
2239.000000	99.965170
2238.000000	99.958630
2237.000000	99.930957
2236.000000	99.924981
2235.000000	100.084579
2234.000000	100.099014
2233.000000	99.949675
2232.000000	100.076985
2231.000000	100.194066
2230.000000	100.010932
2229.000000	99.976722
2228.000000	100.157223
2227.000000	100.048287
2226.000000	99.934699
2225.000000	99.943286
2224.000000	100.004458
2223.000000	99.924540
2222.000000	100.036060
2221.000000	100.119292
2220.000000	100.069529
2219.000000	100.017110
2218.000000	99.918615
2217.000000	99.870374
2216.000000	100.004145
2215.000000	100.004757
2214.000000	99.902205
2213.000000	100.064189
2212.000000	99.928973
2211.000000	99.867436
2210.000000	100.028367
2209.000000	99.882075
2208.000000	99.954754
2207.000000	100.037455
2206.000000	100.122112
2205.000000	100.103713
2204.000000	100.070273
2203.000000	99.945463
2202.000000	99.923092
2201.000000	100.040229
2200.000000	100.047752
2199.000000	99.925115
2198.000000	100.056957
2197.000000	99.923359
2196.000000	99.892795
2195.000000	100.063329
2194.000000	99.996562
2193.000000	99.982299
2192.000000	100.134930
2191.000000	100.129832
2190.000000	100.109978
2189.000000	100.044924
2188.000000	100.154852
2187.000000	99.998383
2186.000000	100.064240
2185.000000	100.028490
2184.000000	100.050699
2183.000000	100.102798
2182.000000	100.099702
2181.000000	99.909228
2180.000000	99.915959
2179.000000	99.947375
2178.000000	99.934196
2177.000000	100.161456
2176.000000	100.016370
2175.000000	99.873065
2174.000000	100.006564
2173.000000	100.007071
2172.000000	99.921269
2171.000000	100.057254
2170.000000	99.869943
2169.000000	99.934491
2168.000000	99.874409
2167.000000	100.001311
2166.000000	99.893418
2165.000000	100.243654
2164.000000	99.876664
2163.000000	100.047164
2162.000000	99.992246
2161.000000	100.199296
2160.000000	100.007671
2159.000000	100.209472
2158.000000	100.064143
2157.000000	99.937061
2156.000000	100.132829
2155.000000	99.783166
2154.000000	99.905002
2153.000000	100.231189
2152.000000	100.044138
2151.000000	99.852017
2150.000000	99.967463
2149.000000	99.789074
2148.000000	100.015604
2147.000000	99.934895
2146.000000	99.979245
2145.000000	100.208786
2144.000000	99.937715
2143.000000	99.843749
2142.000000	100.021526
2141.000000	99.949921
2140.000000	99.947165
2139.000000	100.004030
2138.000000	100.229867
2137.000000	100.118952
2136.000000	100.057311
2135.000000	99.931021
2134.000000	100.050318
2133.000000	100.130417
2132.000000	99.911344
2131.000000	99.949688
2130.000000	100.026495
2129.000000	99.967355
2128.000000	100.059478
2127.000000	99.896985
2126.000000	99.923496
2125.000000	99.853864
2124.000000	100.189755
2123.000000	99.961302
2122.000000	99.893993
2121.000000	100.018453
2120.000000	99.892227
2119.000000	99.874477
2118.000000	99.980749
2117.000000	99.952142
2116.000000	100.134569
2115.000000	100.266617
2114.000000	99.958877
2113.000000	100.069731
2112.000000	100.148197
2111.000000	100.009386
2110.000000	99.965094
2109.000000	99.996569
2108.000000	100.001816
2107.000000	99.828803
2106.000000	100.047038
2105.000000	100.092853
2104.000000	99.920594
2103.000000	100.013120
2102.000000	99.922359
2101.000000	100.082103
2100.000000	100.029064
2099.000000	99.969802
2098.000000	100.078243
2097.000000	100.108080
2096.000000	99.969416
2095.000000	99.976071
2094.000000	100.056321
2093.000000	100.008588
2092.000000	99.945067
2091.000000	100.011118
2090.000000	100.006872
2089.000000	99.955732
2088.000000	99.884136
2087.000000	99.973751
2086.000000	100.034351
2085.000000	100.058699
2084.000000	100.071519
2083.000000	100.081323
2082.000000	100.056944
2081.000000	99.899268
2080.000000	100.034376
2079.000000	100.070821
2078.000000	99.904173
2077.000000	99.894895
2076.000000	99.990905
2075.000000	99.945845
2074.000000	99.832115
2073.000000	99.878389
2072.000000	99.915053
2071.000000	100.025375
2070.000000	100.148174
2069.000000	100.039644
2068.000000	100.076054
2067.000000	99.996763
2066.000000	99.990896
2065.000000	100.000405
2064.000000	99.966323
2063.000000	100.007380
2062.000000	100.037610
2061.000000	100.098939
2060.000000	100.069198
2059.000000	99.942274
2058.000000	99.865095
2057.000000	99.959348
2056.000000	100.067583
2055.000000	100.021042
2054.000000	99.998179
2053.000000	100.020846
2052.000000	100.020545
2051.000000	99.993626
2050.000000	100.011131
2049.000000	100.053330
2048.000000	100.050617
2047.000000	100.015695
2046.000000	100.065419
2045.000000	100.006275
2044.000000	99.960842
2043.000000	100.008808
2042.000000	100.047189
2041.000000	100.076956
2040.000000	100.041921
2039.000000	99.942303
2038.000000	99.978642
2037.000000	99.954857
2036.000000	99.943083
2035.000000	100.019249
2034.000000	100.023096
2033.000000	99.990681
2032.000000	99.992098
2031.000000	100.058858
2030.000000	99.984712
2029.000000	99.913137
2028.000000	99.952099
2027.000000	99.978329
2026.000000	99.988658
2025.000000	99.949372
2024.000000	99.981161
2023.000000	100.026042
2022.000000	99.980746
2021.000000	99.956424
2020.000000	100.011353
2019.000000	100.043095
2018.000000	100.017843
2017.000000	100.032145
2016.000000	100.059842
2015.000000	99.983981
2014.000000	99.960260
2013.000000	99.982355
2012.000000	99.973734
2011.000000	100.050215
2010.000000	100.013390
2009.000000	99.963893
2008.000000	99.974436
2007.000000	99.967638
2006.000000	100.000101
2005.000000	100.013697
2004.000000	100.003552
2003.000000	100.007208
2002.000000	100.026805
2001.000000	100.035235
2000.000000	99.991373
1999.000000	99.975240
1998.000000	100.031260
1997.000000	100.024466
1996.000000	100.038682
1995.000000	99.983659
1994.000000	99.986296
1993.000000	100.009444
1992.000000	99.997258
1991.000000	99.980102
1990.000000	99.972995
1989.000000	100.042461
1988.000000	99.981519
1987.000000	99.993804
1986.000000	99.996039
1985.000000	99.955627
1984.000000	99.998070
1983.000000	100.006401
1982.000000	100.024383
1981.000000	100.003454
1980.000000	99.962217
1979.000000	99.965364
1978.000000	100.022961
1977.000000	99.976635
1976.000000	99.940674
1975.000000	99.959674
1974.000000	99.975621
1973.000000	99.992888
1972.000000	99.963426
1971.000000	99.997663
1970.000000	99.982831
1969.000000	100.039628
1968.000000	100.021029
1967.000000	100.007212
1966.000000	99.999086
1965.000000	99.978367
1964.000000	99.960899
1963.000000	100.009855
1962.000000	99.950437
1961.000000	99.989845
1960.000000	100.032009
1959.000000	100.074582
1958.000000	99.995734
1957.000000	99.998476
1956.000000	100.040735
1955.000000	99.868566
1954.000000	99.974919
1953.000000	99.989950
1952.000000	100.040517
1951.000000	100.026614
1950.000000	100.001117
1949.000000	100.015231
1948.000000	100.088782
1947.000000	100.011168
1946.000000	99.996853
1945.000000	100.003756
1944.000000	100.033497
1943.000000	99.978079
1942.000000	100.108975
1941.000000	100.030655
1940.000000	99.921821
1939.000000	99.977485
1938.000000	99.950852
1937.000000	100.004054
1936.000000	99.973657
1935.000000	100.021390
1934.000000	99.984696
1933.000000	99.992704
1932.000000	100.022189
1931.000000	99.996250
1930.000000	100.011046
1929.000000	100.033947
1928.000000	100.020980
1927.000000	100.039626
1926.000000	100.042247
1925.000000	99.948855
1924.000000	99.954326
1923.000000	100.032519
1922.000000	99.925063
1921.000000	100.041656
1920.000000	100.059889
1919.000000	100.028170
1918.000000	100.038002
1917.000000	100.066200
1916.000000	100.014997
1915.000000	100.100789
1914.000000	100.026750
1913.000000	100.051476
1912.000000	100.019058
1911.000000	100.022399
1910.000000	100.067331
1909.000000	99.991077
1908.000000	100.047753
1907.000000	99.982353
1906.000000	100.022511
1905.000000	100.004055
1904.000000	100.087747
1903.000000	99.997060
1902.000000	99.923163
1901.000000	99.892983
1900.000000	100.005171
1899.000000	99.993509
1898.000000	100.014208
1897.000000	99.983263
1896.000000	100.023841
1895.000000	100.012991
1894.000000	99.973416
1893.000000	99.993912
1892.000000	100.032187
1891.000000	100.033490
1890.000000	99.974332
1889.000000	99.943482
1888.000000	99.961651
1887.000000	99.924943
1886.000000	99.962887
1885.000000	99.966239
1884.000000	99.941404
1883.000000	99.998986
1882.000000	99.973144
1881.000000	99.974668
1880.000000	100.030410
1879.000000	99.931727
1878.000000	99.994123
1877.000000	100.067282
1876.000000	100.094649
1875.000000	99.982280
1874.000000	100.064626
1873.000000	99.990990
1872.000000	99.977825
1871.000000	99.997368
1870.000000	100.028656
1869.000000	100.027643
1868.000000	100.026940
1867.000000	100.001114
1866.000000	99.982985
1865.000000	100.002837
1864.000000	99.962124
1863.000000	99.971643
1862.000000	100.015703
1861.000000	100.020563
1860.000000	100.005877
1859.000000	100.000203
1858.000000	99.995541
1857.000000	99.956538
1856.000000	99.958991
1855.000000	100.049631
1854.000000	100.019351
1853.000000	100.028168
1852.000000	100.021074
1851.000000	100.015500
1850.000000	99.998683
1849.000000	99.995847
1848.000000	99.977520
1847.000000	99.994226
1846.000000	100.018235
1845.000000	99.975590
1844.000000	100.005166
1843.000000	100.007494
1842.000000	100.017012
1841.000000	99.995443
1840.000000	99.982785
1839.000000	100.002634
1838.000000	100.016008
1837.000000	100.021279
1836.000000	100.032838
1835.000000	100.056481
1834.000000	100.025752
1833.000000	100.002027
1832.000000	100.002940
1831.000000	99.981346
1830.000000	99.983168
1829.000000	100.003448
1828.000000	99.979413
1827.000000	99.988743
1826.000000	100.022115
1825.000000	100.030946
1824.000000	99.998884
1823.000000	100.005784
1822.000000	100.044046
1821.000000	100.040490
1820.000000	100.005886
1819.000000	99.999493
1818.000000	99.994925
1817.000000	99.995838
1816.000000	100.022741
1815.000000	100.020305
1814.000000	100.001218
1813.000000	100.010861
1812.000000	100.025482
1811.000000	100.014011
1810.000000	100.007920
1809.000000	100.013405
1808.000000	99.996548
1807.000000	99.980809
1806.000000	99.988422
1805.000000	99.975219
1804.000000	99.997664
1803.000000	100.032914
1802.000000	100.015035
1801.000000	99.990553
1800.000000	99.994006
1799.000000	100.022149
1798.000000	100.006908
1797.000000	99.995733
1796.000000	99.997358
1795.000000	100.011075
1794.000000	100.023068
1793.000000	100.022152
1792.000000	100.027841
1791.000000	100.040861
1790.000000	100.023280
1789.000000	99.997764
1788.000000	100.000915
1787.000000	100.029889
1786.000000	100.021753
1785.000000	100.006708
1784.000000	99.988922
1783.000000	99.954278
1782.000000	99.979370
1781.000000	100.009654
1780.000000	99.995530
1779.000000	99.996545
1778.000000	100.005692
1777.000000	100.009656
1776.000000	100.019315
1775.000000	99.993395
1774.000000	99.987095
1773.000000	99.992175
1772.000000	99.999594
1771.000000	100.015755
1770.000000	100.029273
1769.000000	100.020125
1768.000000	99.971348
1767.000000	100.023781
1766.000000	99.987502
1765.000000	100.032021
1764.000000	100.028666
1763.000000	100.007215
1762.000000	99.990347
1761.000000	100.011890
1760.000000	99.954895
1759.000000	99.986383
1758.000000	100.004676
1757.000000	100.017381
1756.000000	99.991362
1755.000000	99.997764
1754.000000	100.016565
1753.000000	99.992989
1752.000000	99.978563
1751.000000	99.968409
1750.000000	99.989231
1749.000000	100.022154
1748.000000	100.000305
1747.000000	100.045026
1746.000000	100.050009
1745.000000	99.997460
1744.000000	100.011280
1743.000000	100.039534
1742.000000	100.034654
1741.000000	99.986894
1740.000000	100.007519
1739.000000	99.995835
1738.000000	99.963933
1737.000000	99.992482
1736.000000	100.018087
1735.000000	99.996850
1734.000000	100.010161
1733.000000	99.995225
1732.000000	99.992584
1731.000000	99.988723
1730.000000	100.023070
1729.000000	100.021949
1728.000000	100.046949
1727.000000	100.024385
1726.000000	99.995225
1725.000000	100.011278
1724.000000	100.037600
1723.000000	99.983949
1722.000000	99.987807
1721.000000	100.028650
1720.000000	100.032413
1719.000000	100.031905
1718.000000	100.001626
1717.000000	100.043290
1716.000000	100.037087
1715.000000	100.025909
1714.000000	100.018286
1713.000000	100.010669
1712.000000	99.990247
1711.000000	99.998984
1710.000000	100.026317
1709.000000	100.010160
1708.000000	100.013003
1707.000000	99.987305
1706.000000	100.006400
1705.000000	99.975825
1704.000000	100.018591
1703.000000	100.007315
1702.000000	99.983236
1701.000000	100.020217
1700.000000	99.953694
1699.000000	99.983345
1698.000000	99.996445
1697.000000	99.984157
1696.000000	100.015136
1695.000000	100.006603
1694.000000	100.027127
1693.000000	99.997460
1692.000000	99.962629
1691.000000	100.008027
1690.000000	99.996343
1689.000000	100.002844
1688.000000	100.011581
1687.000000	100.043792
1686.000000	100.002235
1685.000000	100.018083
1684.000000	99.979892
1683.000000	99.978569
1682.000000	100.014425
1681.000000	99.975725
1680.000000	99.980706
1679.000000	99.981817
1678.000000	99.985373
1677.000000	99.994008
1676.000000	100.022144
1675.000000	100.019504
1674.000000	99.993296
1673.000000	99.981517
1672.000000	100.017473
1671.000000	100.007416
1670.000000	100.021026
1669.000000	99.988223
1668.000000	99.965282
1667.000000	99.993705
1666.000000	99.996041
1665.000000	99.996548
1664.000000	100.009038
1663.000000	99.996548
1662.000000	99.981827
1661.000000	99.990050
1660.000000	100.016958
1659.000000	100.024169
1658.000000	100.008429
1657.000000	100.015030
1656.000000	100.023151
1655.000000	99.999898
1654.000000	100.019700
1653.000000	100.002031
1652.000000	99.985077
1651.000000	100.010357
1650.000000	100.014519
1649.000000	99.979695
1648.000000	99.998680
1647.000000	99.985583
1646.000000	100.006701
1645.000000	99.999289
1644.000000	99.989137
1643.000000	99.985281
1642.000000	99.988326
1641.000000	99.989646
1640.000000	100.009340
1639.000000	99.989342
1638.000000	99.981830
1637.000000	100.016145
1636.000000	100.000000
1635.000000	100.023048
1634.000000	100.001015
1633.000000	100.004264
1632.000000	100.018581
1631.000000	100.014318
1630.000000	100.015028
1629.000000	100.027925
1628.000000	100.030261
1627.000000	99.994315
1626.000000	99.993097
1625.000000	100.013605
1624.000000	99.993300
1623.000000	100.005076
1622.000000	99.999492
1621.000000	100.001320
1620.000000	99.999695
1619.000000	99.992082
1618.000000	99.991879
1617.000000	99.995330
1616.000000	100.001929
1615.000000	100.021322
1614.000000	100.018175
1613.000000	100.019392
1612.000000	99.990052
1611.000000	100.002944
1610.000000	100.008933
1609.000000	100.009948
1608.000000	100.023960
1607.000000	100.013807
1606.000000	100.013909
1605.000000	100.003553
1604.000000	99.995229
1603.000000	99.999493
1602.000000	100.018577
1601.000000	100.019188
1600.000000	99.998985
1599.000000	100.008020
1598.000000	100.010456
1597.000000	99.989241
1596.000000	99.988226
1595.000000	99.988530
1594.000000	99.997056
1593.000000	99.998274
1592.000000	99.997056
1591.000000	100.000609
1590.000000	100.009035
1589.000000	99.985790
1588.000000	99.976960
1587.000000	99.994823
1586.000000	100.007614
1585.000000	100.027209
1584.000000	100.023147
1583.000000	100.014314
1582.000000	100.006598
1581.000000	100.006395
1580.000000	99.999290
1579.000000	99.988937
1578.000000	100.009846
1577.000000	100.022129
1576.000000	100.024970
1575.000000	100.025580
1574.000000	100.008221
1573.000000	100.014312
1572.000000	100.013399
1571.000000	100.006598
1570.000000	100.007308
1569.000000	100.014108
1568.000000	100.015834
1567.000000	100.009946
1566.000000	99.997362
1565.000000	99.995027
1564.000000	100.004770
1563.000000	100.013295
1562.000000	100.002436
1561.000000	100.008628
1560.000000	100.004465
1559.000000	100.023038
1558.000000	100.004669
1557.000000	99.996549
1556.000000	99.998579
1555.000000	100.012483
1554.000000	100.019891
1553.000000	100.012380
1552.000000	100.008727
1551.000000	100.002739
1550.000000	100.004566
1549.000000	100.003349
1548.000000	100.001623
1547.000000	99.990666
1546.000000	99.996753
1545.000000	100.012583
1544.000000	100.012075
1543.000000	99.999391
1542.000000	99.993608
1541.000000	100.005378
1540.000000	99.991275
1539.000000	99.997362
1538.000000	99.992391
1537.000000	100.002333
1536.000000	99.981437
1535.000000	99.985899
1534.000000	100.013089
1533.000000	100.015118
1532.000000	100.003044
1531.000000	100.008015
1530.000000	100.017758
1529.000000	100.014310
1528.000000	100.013396
1527.000000	100.008727
1526.000000	100.008627
1525.000000	99.979808
1524.000000	99.978592
1523.000000	99.989549
1522.000000	99.981327
1521.000000	100.009540
1520.000000	100.002131
1519.000000	99.999087
1518.000000	99.997768
1517.000000	100.001421
1516.000000	100.032474
1515.000000	100.005277
1514.000000	100.009741
1513.000000	100.008729
1512.000000	99.994115
1511.000000	100.000203
1510.000000	99.998072
1509.000000	100.007916
1508.000000	100.014921
1507.000000	99.996143
1506.000000	99.998985
1505.000000	99.979906
1504.000000	99.988939
1503.000000	100.000507
1502.000000	100.005379
1501.000000	100.012891
1500.000000	100.009844
1499.000000	99.993100
1498.000000	100.007104
1497.000000	100.005886
1496.000000	100.017049
1495.000000	99.998782
1494.000000	100.009234
1493.000000	100.011670
1492.000000	99.994520
1491.000000	100.009235
1490.000000	99.987722
1489.000000	99.985288
1488.000000	100.011466
1487.000000	100.007611
1486.000000	100.025164
1485.000000	100.001623
1484.000000	100.005783
1483.000000	100.002029
1482.000000	100.017449
1481.000000	99.986204
1480.000000	100.003347
1479.000000	99.989958
1478.000000	99.983669
1477.000000	99.983770
1476.000000	100.003246
1475.000000	100.001522
1474.000000	99.995639
1473.000000	99.990871
1472.000000	100.016331
1471.000000	99.999797
1470.000000	99.993712
1469.000000	100.024141
1468.000000	100.010853
1467.000000	100.025773
1466.000000	100.026275
1465.000000	100.010549
1464.000000	99.996653
1463.000000	100.003753
1462.000000	100.004870
1461.000000	100.013998
1460.000000	99.984585
1459.000000	100.002232
1458.000000	99.994929
1457.000000	100.003043
1456.000000	99.998479
1455.000000	99.991176
1454.000000	100.002028
1453.000000	100.012576
1452.000000	99.997768
1451.000000	100.014909
1450.000000	99.998986
1449.000000	100.010446
1448.000000	99.994727
1447.000000	100.011259
1446.000000	100.020791
1445.000000	99.998986
1444.000000	100.010343
1443.000000	100.009330
1442.000000	100.003650
1441.000000	99.993206
1440.000000	99.996045
1439.000000	100.010953
1438.000000	100.005272
1437.000000	100.005273
1436.000000	100.013283
1435.000000	100.004664
1434.000000	100.010748
1433.000000	100.004562
1432.000000	100.009328
1431.000000	100.022816
1430.000000	100.014399
1429.000000	100.023425
1428.000000	100.022307
1427.000000	99.988342
1426.000000	99.975877
1425.000000	99.994121
1424.000000	100.012366
1423.000000	100.000608
1422.000000	100.001824
1421.000000	100.011856
1420.000000	100.009626
1419.000000	100.010739
1418.000000	99.998278
1417.000000	100.020768
1416.000000	100.001418
1415.000000	100.004557
1414.000000	99.997266
1413.000000	99.997874
1412.000000	99.988460
1411.000000	99.980264
1410.000000	99.995850
1409.000000	100.010526
1408.000000	100.025100
1407.000000	100.028335
1406.000000	100.021349
1405.000000	99.995650
1404.000000	99.992313
1403.000000	99.993426
1402.000000	100.001922
1401.000000	100.012035
1400.000000	100.004248
1399.000000	99.989282
1398.000000	99.999798
1397.000000	99.996563
1396.000000	99.984030
1395.000000	99.994542
1394.000000	99.998888
1393.000000	99.992522
1392.000000	99.987268
1391.000000	99.996059
1390.000000	100.011116
1389.000000	99.993635
1388.000000	100.001718
1387.000000	100.018897
1386.000000	99.996161
1385.000000	99.994545
1384.000000	99.999596
1383.000000	99.990502
1382.000000	99.978685
1381.000000	99.988686
1380.000000	100.001617
1379.000000	99.995150
1378.000000	99.994949
1377.000000	99.991109
1376.000000	99.997171
1375.000000	100.002020
1374.000000	100.006971
1373.000000	100.012528
1372.000000	100.020008
1371.000000	100.016369
1370.000000	100.003031
1369.000000	99.977577
1368.000000	99.971115
1367.000000	99.998081
1366.000000	100.001515
1365.000000	99.994446
1364.000000	100.015956
1363.000000	100.023530
1362.000000	100.004039
1361.000000	100.004545
1360.000000	100.003737
1359.000000	99.978687
1358.000000	99.997272
1357.000000	100.004750
1356.000000	99.989689
1355.000000	99.983724
1354.000000	99.978569
1353.000000	99.979367
1352.000000	100.001720
1351.000000	100.007790
1350.000000	100.004554
1349.000000	99.996660
1348.000000	99.955782
1347.000000	99.998684
1346.000000	100.018221
1345.000000	100.001620
1344.000000	100.035646
1343.000000	99.999291
1342.000000	99.977626
1341.000000	100.013771
1340.000000	100.009113
1339.000000	100.005164
1338.000000	99.993723
1337.000000	99.997367
1336.000000	99.998076
1335.000000	100.014884
1334.000000	100.013667
1333.000000	100.016403
1332.000000	100.004151
1331.000000	100.000810
1330.000000	100.009416
1329.000000	100.011845
1328.000000	99.996154
1327.000000	99.993117
1326.000000	99.997975
1325.000000	100.003948
1324.000000	100.013463
1323.000000	100.017309
1322.000000	99.993318
1321.000000	100.009924
1320.000000	100.003948
1319.000000	100.005568
1318.000000	99.985931
1317.000000	100.017310
1316.000000	100.007392
1315.000000	99.992001
1314.000000	100.002430
1313.000000	99.991497
1312.000000	100.001923
1311.000000	99.992306
1310.000000	99.997266
1309.000000	99.999392
1308.000000	100.008810
1307.000000	99.999797
1306.000000	99.984509
1305.000000	100.003240
1304.000000	99.985014
1303.000000	99.981469
1302.000000	100.006584
1301.000000	99.972964
1300.000000	99.986328
1299.000000	99.998481
1298.000000	100.018335
1297.000000	100.017723
1296.000000	100.001924
1295.000000	100.027350
1294.000000	100.008304
1293.000000	100.000000
1292.000000	99.999494
1291.000000	100.008405
1290.000000	100.018836
1289.000000	99.987445
1288.000000	99.989267
1287.000000	99.984105
1286.000000	99.996254
1285.000000	99.993623
1284.000000	99.999595
1283.000000	100.011238
1282.000000	100.007895
1281.000000	100.032493
1280.000000	100.003947
1279.000000	100.013359
1278.000000	100.026012
1277.000000	100.005161
1276.000000	99.978351
1275.000000	100.020236
1274.000000	100.002631
1273.000000	100.006170
1272.000000	99.992211
1271.000000	100.003338
1270.000000	99.993931
1269.000000	99.985739
1268.000000	99.987562
1267.000000	99.983619
1266.000000	100.013755
1265.000000	100.001921
1264.000000	100.013449
1263.000000	99.993933
1262.000000	99.990392
1261.000000	99.999393
1260.000000	99.977352
1259.000000	100.010011
1258.000000	100.020427
1257.000000	99.998180
1256.000000	100.002124
1255.000000	99.976040
1254.000000	99.978165
1253.000000	100.015674
1252.000000	99.986755
1251.000000	99.977051
1250.000000	99.994135
1249.000000	100.002022
1248.000000	99.987867
1247.000000	100.012842
1246.000000	100.004853
1245.000000	100.014358
1244.000000	100.014863
1243.000000	100.002629
1242.000000	99.993631
1241.000000	100.010109
1240.000000	100.013343
1239.000000	100.019307
1238.000000	100.007581
1237.000000	99.976859
1236.000000	99.985450
1235.000000	99.996565
1234.000000	99.991715
1233.000000	99.995050
1232.000000	99.998586
1231.000000	99.997576
1230.000000	100.024747
1229.000000	100.014443
1228.000000	100.004645
1227.000000	100.003432
1226.000000	100.022110
1225.000000	100.003129
1224.000000	100.016655
1223.000000	99.982139
1222.000000	100.001009
1221.000000	100.001614
1220.000000	99.985976
1219.000000	99.990113
1218.000000	100.001513
1217.000000	100.003631
1216.000000	99.997378
1215.000000	100.016340
1214.000000	100.001210
1213.000000	100.008269
1212.000000	100.015833
1211.000000	100.014123
1210.000000	100.004640
1209.000000	99.996269
1208.000000	100.005243
1207.000000	100.015629
1206.000000	100.016135
1205.000000	99.998185
1204.000000	99.981753
1203.000000	99.975807
1202.000000	99.962801
1201.000000	100.014621
1200.000000	100.010889
1199.000000	99.997782
1198.000000	100.000706
1197.000000	99.998689
1196.000000	99.999395
1195.000000	100.000101
1194.000000	100.007562
1193.000000	100.016233
1192.000000	100.018047
1191.000000	100.011998
1190.000000	100.009478
1189.000000	100.003832
1188.000000	99.998891
1187.000000	100.018352
1186.000000	100.021979
1185.000000	100.011088
1184.000000	100.012902
1183.000000	100.023888
1182.000000	100.019350
1181.000000	100.013907
1180.000000	100.003628
1179.000000	100.008566
1178.000000	99.998186
1177.000000	99.989926
1176.000000	99.992042
1175.000000	99.995064
1174.000000	100.008159
1173.000000	99.975329
1172.000000	99.978954
1171.000000	100.001611
1170.000000	100.012285
1169.000000	100.016412
1168.000000	100.008356
1167.000000	100.005537
1166.000000	100.010468
1165.000000	100.001510
1164.000000	100.002214
1163.000000	100.008554
1162.000000	99.993058
1161.000000	99.993763
1160.000000	99.994971
1159.000000	99.988736
1158.000000	99.995977
1157.000000	99.996883
1156.000000	99.995174
1155.000000	99.995777
1154.000000	99.988740
1153.000000	99.979697
1152.000000	99.988844
1151.000000	100.009447
1150.000000	100.002010
1149.000000	99.994374
1148.000000	99.998192
1147.000000	100.010347
1146.000000	100.011350
1145.000000	100.020187
1144.000000	100.018779
1143.000000	100.016166
1142.000000	100.010641
1141.000000	100.010440
1140.000000	100.006925
1139.000000	99.991671
1138.000000	100.001505
1137.000000	100.003813
1136.000000	99.996890
1135.000000	99.994986
1134.000000	99.989170
1133.000000	99.988568
1132.000000	99.993784
1131.000000	100.006115
1130.000000	100.013434
1129.000000	100.018043
1128.000000	99.996993
1127.000000	100.003608
1126.000000	100.009018
1125.000000	100.007514
1124.000000	100.012221
1123.000000	100.014725
1122.000000	100.003606
1121.000000	100.000701
1120.000000	100.004706
1119.000000	100.002002
1118.000000	100.012413
1117.000000	100.012413
1116.000000	99.998899
1115.000000	100.016514
1114.000000	100.017514
1113.000000	100.005503
1112.000000	99.997699
1111.000000	100.013307
1110.000000	99.995399
1109.000000	99.965500
1108.000000	100.002100
1107.000000	99.992800
1106.000000	100.009300
1105.000000	100.006099
1104.000000	100.011197
1103.000000	100.004998
1102.000000	99.991406
1101.000000	100.000300
1100.000000	100.016384
1099.000000	99.996704
1098.000000	100.003995
1097.000000	100.019173
1096.000000	100.022266
1095.000000	100.027157
1094.000000	100.012077
1093.000000	99.990321
1092.000000	99.994214
1091.000000	99.994514
1090.000000	100.010373
1089.000000	99.997507
1088.000000	100.000598
1087.000000	100.012265
1086.000000	100.005881
1085.000000	100.014150
1084.000000	100.000797
1083.000000	100.002989
1082.000000	100.014144
1081.000000	99.979686
1080.000000	99.987853
1079.000000	99.983380
1078.000000	99.989153
1077.000000	99.981194
1076.000000	100.002885
1075.000000	99.991744
1074.000000	99.980707
1073.000000	100.024466
1072.000000	100.008351
1071.000000	100.003976
1070.000000	100.000199
1069.000000	100.008943
1068.000000	100.020764
1067.000000	100.038540
1066.000000	100.004667
1065.000000	99.998114
1064.000000	100.007445
1063.000000	99.994840
1062.000000	100.005258
1061.000000	100.013491
1060.000000	99.998711
1059.000000	99.976900
1058.000000	99.997522
1057.000000	100.000099
1056.000000	99.982366
1055.000000	100.015454
1054.000000	100.009706
1053.000000	100.009308
1052.000000	99.981986
1051.000000	100.025932
1050.000000	100.009796
1049.000000	99.988328
1048.000000	100.018495
1047.000000	100.012361
1046.000000	100.002273
1045.000000	100.015516
1044.000000	100.000692
1043.000000	100.022919
1042.000000	100.000395
1041.000000	99.999506
1040.000000	99.994275
1039.000000	100.009475
1038.000000	99.997435
1037.000000	99.993491
1036.000000	99.999310
1035.000000	99.996254
1034.000000	99.997438
1033.000000	100.013401
1032.000000	100.005122
1031.000000	99.995175
1030.000000	100.012699
1029.000000	100.001673
1028.000000	100.011413
1027.000000	100.004426
1026.000000	99.991643
1025.000000	100.017499
1024.000000	99.996069
1023.000000	100.009235
1022.000000	100.000196
1021.000000	99.999018
1020.000000	100.003141
1019.000000	100.002944
1018.000000	99.986661
1017.000000	99.990587
1016.000000	99.995785
1015.000000	99.999804
1014.000000	100.017340
1013.000000	100.004015
1012.000000	100.010476
1011.000000	99.999315
1010.000000	99.992272
1009.000000	99.988265
1008.000000	99.975174
1007.000000	99.995212
1006.000000	100.002931
1005.000000	100.004688
1004.000000	100.008202
1003.000000	99.986923
1002.000000	100.008488
1001.000000	99.999220
1000.000000	100.001755
999.000000	99.996589
998.000000	99.990650
997.000000	100.017141
996.000000	100.005159
995.000000	99.992606
994.000000	100.013811
993.000000	100.010403
992.000000	100.001360
991.000000	99.988052
990.000000	99.990679
989.000000	99.991362
988.000000	99.978269
987.000000	100.000194
986.000000	100.006302
985.000000	99.994573
984.000000	99.999322
983.000000	99.998063
982.000000	99.982479
981.000000	99.994291
980.000000	99.991972
979.000000	100.003384
978.000000	99.997874
977.000000	99.981939
976.000000	99.993724
975.000000	99.995947
974.000000	100.003666
973.000000	100.005786
972.000000	100.000385
971.000000	99.990945
970.000000	99.985845
969.000000	100.011550
968.000000	100.013373
967.000000	99.986926
966.000000	99.996060
965.000000	99.985401
964.000000	99.982719
963.000000	99.991555
962.000000	100.003549
961.000000	99.994728
960.000000	99.985725
959.000000	100.000670
958.000000	100.002010
957.000000	99.999522
956.000000	99.961858
955.000000	99.969710
954.000000	99.969058
953.000000	99.987591
952.000000	99.996471
951.000000	99.987512
950.000000	100.011244
949.000000	100.009904
948.000000	99.999714
947.000000	99.992200
946.000000	99.984981
945.000000	100.014156
944.000000	100.015763
943.000000	99.992694
942.000000	99.971746
941.000000	99.962854
940.000000	99.982290
939.000000	99.988453
938.000000	99.982410
937.000000	99.992911
936.000000	100.014453
935.000000	100.019729
934.000000	100.003774
933.000000	100.006317
932.000000	100.020163
931.000000	99.989173
930.000000	100.013362
929.000000	99.998590
928.000000	99.975203
927.000000	99.984980
926.000000	100.024208
925.000000	100.021564
924.000000	100.008900
923.000000	99.981561
922.000000	99.960254
921.000000	99.986167
920.000000	99.977488
919.000000	99.976289
918.000000	99.985727
917.000000	100.019671
916.000000	100.008290
915.000000	99.988366
914.000000	99.981865
913.000000	99.954202
912.000000	99.953122
911.000000	99.976621
910.000000	99.951349
909.000000	99.963153
908.000000	99.970306
907.000000	99.959610
906.000000	100.022360
905.000000	100.018371
904.000000	99.989028
903.000000	99.973190
902.000000	99.961789
901.000000	99.918434
900.000000	99.987226
899.000000	100.012581
898.000000	99.947797
897.000000	99.982951
896.000000	100.005038
895.000000	100.008785
894.000000	99.979156
893.000000	99.983470
892.000000	99.986766
891.000000	100.007751
890.000000	100.007561
889.000000	100.011379
888.000000	100.052104
887.000000	100.061971
886.000000	99.972142
885.000000	99.982417
884.000000	99.961605
883.000000	99.966611
882.000000	100.016638
881.000000	100.090078
880.000000	99.996301
879.000000	99.906985
878.000000	99.966596
877.000000	99.876549
876.000000	99.953275
875.000000	100.044919
874.000000	99.920553
873.000000	100.095700
872.000000	100.034143
871.000000	99.920531
870.000000	100.082326
869.000000	99.967572
868.000000	99.934320
867.000000	99.981280
866.000000	99.973469
865.000000	99.974365
864.000000	100.163177
863.000000	99.909482
862.000000	99.886570
861.000000	99.979774
860.000000	99.933523
859.000000	99.771803
858.000000	100.183918
857.000000	99.916439
856.000000	100.461593
855.000000	99.888574
854.000000	100.161411
853.000000	99.762798
852.000000	99.672074
851.000000	100.233629
850.000000	100.215854
849.000000	100.318334
848.000000	100.203665
847.000000	100.119741
846.000000	100.045018
845.000000	100.177182
844.000000	100.159897
843.000000	100.081869
842.000000	99.951654
841.000000	99.826472
840.000000	100.184424
839.000000	100.138073
838.000000	99.965833
837.000000	99.835745
836.000000	100.095450
835.000000	100.176190
834.000000	99.953716
833.000000	100.170480
832.000000	100.034896
831.000000	99.655682
830.000000	100.080597
829.000000	100.041781
828.000000	100.194622
827.000000	99.899677
826.000000	100.227220
825.000000	99.864072
824.000000	100.083534
823.000000	100.041156
822.000000	99.889441
821.000000	99.915382
820.000000	100.021116
819.000000	100.215837
818.000000	99.866072
817.000000	100.021100
816.000000	99.949264
815.000000	100.056859
814.000000	99.983016
813.000000	99.916553
812.000000	99.942816
811.000000	99.947457
810.000000	100.104347
809.000000	100.103344
808.000000	100.092402
807.000000	100.116412
806.000000	99.953675
805.000000	100.160685
804.000000	100.020020
803.000000	99.875280
802.000000	99.854524
801.000000	99.834170
800.000000	99.936234
799.000000	100.094589
798.000000	99.919800
797.000000	99.983129
796.000000	99.963463
795.000000	100.097671
794.000000	100.070568
793.000000	100.097773
792.000000	99.759801
791.000000	100.002125
790.000000	100.030676
789.000000	99.962322
788.000000	99.916990
787.000000	99.867080
786.000000	100.031013
785.000000	99.893737
784.000000	100.021441
783.000000	99.992883
782.000000	100.008187
781.000000	100.056752
780.000000	99.924811
779.000000	99.947533
778.000000	99.967381
777.000000	99.789777
776.000000	99.957568
775.000000	100.060786
774.000000	100.031326
773.000000	100.089157
772.000000	99.995353
771.000000	99.982121
770.000000	99.903940
769.000000	99.929326
768.000000	99.914839
767.000000	100.030882
766.000000	99.967470
765.000000	99.921689
764.000000	99.861803
763.000000	99.949579
762.000000	100.002513
761.000000	99.953604
760.000000	99.947732
759.000000	99.928507
758.000000	99.970248
757.000000	99.852941
756.000000	99.855238
755.000000	99.883214
754.000000	99.909916
753.000000	99.999369
752.000000	99.976552
751.000000	100.001804
750.000000	99.900825
749.000000	100.080708
748.000000	100.053394
747.000000	99.891108
746.000000	99.912832
745.000000	99.991322
744.000000	99.944839
743.000000	99.902715
742.000000	100.089787
741.000000	100.108936
740.000000	100.007881
739.000000	99.977982
738.000000	100.007616
737.000000	99.981229
736.000000	99.993466
735.000000	99.960064
734.000000	99.923506
733.000000	99.954162
732.000000	99.990193
731.000000	100.073637
730.000000	99.979813
729.000000	99.989542
728.000000	100.038840
727.000000	99.976350
726.000000	99.896256
725.000000	99.918976
724.000000	100.023240
723.000000	99.980776
722.000000	99.956175
721.000000	100.079456
720.000000	100.062011
719.000000	99.977939
718.000000	100.026738
717.000000	99.946615
716.000000	99.864444
715.000000	99.914666
714.000000	100.023936
713.000000	100.006670
712.000000	99.951321
711.000000	99.962520
710.000000	99.966617
709.000000	100.071112
708.000000	100.082201
707.000000	99.988468
706.000000	100.019231
705.000000	100.005403
704.000000	99.972701
703.000000	100.016404
702.000000	100.027590
701.000000	99.996974
700.000000	99.989642
699.000000	99.937477
698.000000	99.918550
697.000000	99.975414
696.000000	100.011564
695.000000	99.971533
694.000000	99.987692
693.000000	100.027753
692.000000	100.045228
691.000000	100.005790
690.000000	99.989614
689.000000	99.973454
688.000000	99.953374
687.000000	99.957589
686.000000	99.987696
685.000000	100.031962
684.000000	99.977219
683.000000	99.992646
682.000000	99.874960
681.000000	99.933826
680.000000	99.968280
679.000000	100.014989
678.000000	100.017016
677.000000	99.964851
676.000000	100.005982
675.000000	99.997974
674.000000	99.932419
673.000000	99.954138
672.000000	99.976511
671.000000	99.971998
670.000000	99.953108
669.000000	99.946830
668.000000	99.953257
667.000000	99.916638
666.000000	99.935092
665.000000	99.970400
664.000000	100.003136
663.000000	99.964581
662.000000	99.957362
661.000000	100.049687
660.000000	99.958480
659.000000	99.943419
658.000000	99.912130
657.000000	99.890124
656.000000	99.921319
655.000000	99.975518
654.000000	100.014971
653.000000	100.019962
652.000000	100.040024
651.000000	99.981053
650.000000	99.972911
649.000000	100.004254
648.000000	100.042089
647.000000	100.125533
646.000000	99.987700
645.000000	100.019161
644.000000	100.004166
643.000000	99.954628
642.000000	99.987958
641.000000	99.965745
640.000000	99.939920
639.000000	99.958030
638.000000	99.937468
637.000000	99.903511
636.000000	99.962007
635.000000	100.099777
634.000000	99.999537
633.000000	100.047765
632.000000	99.999165
631.000000	99.982193
630.000000	99.947800
629.000000	99.960590
628.000000	99.906026
627.000000	99.994431
626.000000	100.014665
625.000000	100.010764
624.000000	100.025427
623.000000	100.030818
622.000000	99.903732
621.000000	100.031485
620.000000	99.911124
619.000000	99.939274
618.000000	100.016169
617.000000	100.024342
616.000000	100.007246
615.000000	99.985974
614.000000	100.035230
613.000000	99.912286
612.000000	99.873351
611.000000	100.000558
610.000000	100.032086
609.000000	100.025027
608.000000	99.997581
607.000000	99.961134
606.000000	99.993676
605.000000	100.017486
604.000000	100.017777
603.000000	99.964472
602.000000	99.986972
601.000000	99.973858
600.000000	100.052779
599.000000	99.945940
598.000000	99.943037
597.000000	99.967411
596.000000	100.010148
595.000000	100.010616
594.000000	99.904057
593.000000	100.077772
592.000000	99.927287
591.000000	100.017699
590.000000	99.930331
589.000000	99.887751
588.000000	100.040440
587.000000	100.015749
586.000000	100.053216
585.000000	100.014637
584.000000	100.013611
583.000000	99.997111
582.000000	100.041762
581.000000	99.930157
580.000000	99.914652
579.000000	100.052674
578.000000	99.944356
577.000000	100.025921
576.000000	100.030478
575.000000	99.979774
574.000000	99.927110
573.000000	100.011752
572.000000	99.998974
571.000000	99.929612
570.000000	99.984894
569.000000	100.031816
568.000000	99.963238
567.000000	99.954660
566.000000	99.989552
565.000000	99.953546
564.000000	100.063381
563.000000	100.015587
562.000000	99.894041
561.000000	100.004107
560.000000	99.935446
559.000000	99.935437
558.000000	99.949062
557.000000	100.012413
556.000000	99.984697
555.000000	99.999907
554.000000	99.928902
553.000000	99.931208
552.000000	99.983754
551.000000	99.925618
550.000000	100.004107
549.000000	99.962298
548.000000	99.955366
547.000000	99.960226
546.000000	99.952939
545.000000	99.959291
544.000000	100.069204
543.000000	100.022695
542.000000	99.936193
541.000000	99.932849
540.000000	99.907084
539.000000	99.905319
538.000000	99.954418
537.000000	99.878293
536.000000	99.855088
535.000000	99.947292
534.000000	99.916640
533.000000	99.882094
532.000000	99.934772
531.000000	99.941305
530.000000	99.910361
529.000000	99.950348
528.000000	99.970920
527.000000	99.882131
526.000000	99.982890
525.000000	99.964008
524.000000	99.865885
523.000000	99.932484
522.000000	99.998129
521.000000	99.963992
520.000000	100.018900
519.000000	100.085812
518.000000	100.032850
517.000000	99.960894
516.000000	99.949855
515.000000	100.013570
514.000000	100.059799
513.000000	100.010390
512.000000	99.997098
511.000000	99.994663
510.000000	99.999719
509.000000	99.990268
508.000000	99.970425
507.000000	99.947034
506.000000	99.945897
505.000000	99.970516
504.000000	99.986144
503.000000	99.973411
502.000000	100.055530
501.000000	100.054616
500.000000	99.984919
499.000000	100.014711
498.000000	99.960949
497.000000	99.977057
496.000000	100.013861
495.000000	99.971439
494.000000	99.944373
493.000000	100.079184
492.000000	100.052274
491.000000	99.971346
490.000000	99.976308
489.000000	99.961331
488.000000	99.962449
487.000000	99.963191
486.000000	99.918777
485.000000	99.981755
484.000000	99.966959
483.000000	99.968799
482.000000	99.977026
481.000000	100.037521
480.000000	100.094803
479.000000	100.052952
478.000000	99.998967
477.000000	100.010710
476.000000	100.029882
475.000000	100.012499
474.000000	100.050000
473.000000	100.014846
472.000000	99.928708
471.000000	99.926083
470.000000	99.940722
469.000000	99.917139
468.000000	99.989754
467.000000	100.037799
466.000000	100.005078
465.000000	99.988525
464.000000	99.975164
463.000000	99.981002
462.000000	99.988246
461.000000	100.032637
460.000000	100.009028
459.000000	99.974043
458.000000	99.968958
457.000000	99.941896
456.000000	99.986837
455.000000	100.024176
454.000000	99.967172
453.000000	100.007718
452.000000	100.092481
451.000000	100.063765
450.000000	100.026450
449.000000	100.020147
448.000000	99.955187
447.000000	99.971848
446.000000	100.047761
445.000000	100.079819
444.000000	100.027886
443.000000	99.960066
442.000000	99.953550
441.000000	100.008015
440.000000	100.007731
439.000000	99.972286
438.000000	99.965304
437.000000	100.008112
436.000000	100.070765
435.000000	99.996320
434.000000	99.954711
433.000000	99.973952
432.000000	99.958872
431.000000	100.000849
430.000000	100.051461
429.000000	100.075484
428.000000	100.085500
427.000000	99.970062
426.000000	100.005857
425.000000	100.029560
424.000000	99.994805
423.000000	100.006805
422.000000	100.047366
421.000000	100.015311
420.000000	99.967578
419.000000	100.027226
418.000000	99.916340
417.000000	99.959147
416.000000	100.045511
415.000000	100.025934
414.000000	99.924796
413.000000	99.941467
412.000000	99.985053
411.000000	100.044990
410.000000	100.055024
409.000000	99.967057
408.000000	99.942353
407.000000	100.023966
406.000000	99.978977
405.000000	100.007011
404.000000	99.953205
403.000000	99.914856
402.000000	99.949776
401.000000	100.060479
400.000000	99.977921
399.000000	99.983026
398.000000	100.160179
397.000000	100.080920
396.000000	99.940035
395.000000	100.092171
394.000000	100.040037
393.000000	100.094010
392.000000	99.982152
391.000000	99.882798
390.000000	99.939059
389.000000	99.943350
388.000000	99.933928
387.000000	100.073603
386.000000	99.991447
385.000000	99.966739
384.000000	100.041625
383.000000	99.925620
382.000000	100.003422
381.000000	100.001806
380.000000	100.010080
379.000000	99.924839
378.000000	100.066796
377.000000	100.067636
376.000000	99.901914
375.000000	100.191991
374.000000	99.989942
373.000000	99.980060
372.000000	100.022601
371.000000	100.377770
370.000000	100.010518
369.000000	100.072843
368.000000	99.921011
367.000000	99.857264
366.000000	99.953324
365.000000	100.022784
364.000000	99.786593
363.000000	99.878940
362.000000	99.942929
361.000000	100.299285
360.000000	100.162270
359.000000	100.091474
358.000000	99.925921
357.000000	99.946809
356.000000	99.885698
355.000000	100.004831
354.000000	100.013092
353.000000	100.065475
352.000000	100.030948
351.000000	99.861351
350.000000	99.647882
349.000000	100.071907
348.000000	100.139039
347.000000	100.321689
346.000000	100.117115
345.000000	100.156898
344.000000	99.911841
343.000000	100.153618
342.000000	99.881734
341.000000	100.103165
340.000000	100.180049
339.000000	99.787074
338.000000	100.049871
337.000000	100.050934
336.000000	99.669047
335.000000	100.052694
334.000000	99.809271
333.000000	100.042268
332.000000	99.877820
331.000000	99.988820
330.000000	99.950504
329.000000	100.109937
328.000000	100.084607
327.000000	100.313063
326.000000	99.882818
325.000000	100.061530
324.000000	100.000758
323.000000	100.134299
322.000000	99.983031
321.000000	99.752049
320.000000	99.847905
319.000000	99.934823
318.000000	100.152052
317.000000	100.001601
316.000000	99.829932
315.000000	99.824177
314.000000	99.489000
313.000000	99.957383
312.000000	100.192046
311.000000	100.087956
310.000000	99.893344
309.000000	99.827052
308.000000	99.849982
307.000000	100.006331
306.000000	99.749258
305.000000	100.081148
304.000000	99.760586
303.000000	99.982697
302.000000	99.895955
301.000000	100.051056
300.000000	99.912423
299.000000	99.929284
298.000000	99.725982
297.000000	100.260590
296.000000	99.868126
295.000000	99.843663
294.000000	100.139229
293.000000	99.897110
292.000000	99.730370
291.000000	99.834690
290.000000	99.885520
289.000000	99.926747
288.000000	99.885840
287.000000	99.789762
286.000000	99.989766
285.000000	100.044998
284.000000	99.902015
283.000000	100.016648
282.000000	99.855590
281.000000	99.928832
280.000000	99.865243
279.000000	99.880139
278.000000	100.155853
277.000000	99.961788
276.000000	99.794830
275.000000	100.122304
274.000000	99.949241
273.000000	100.006005
272.000000	99.968448
271.000000	99.862378
270.000000	100.056355
269.000000	100.070036
268.000000	100.116498
267.000000	99.907522
266.000000	100.024814
265.000000	100.034229
264.000000	100.155976
263.000000	99.951468
262.000000	100.066372
261.000000	100.152376
260.000000	100.047022
259.000000	99.864888
258.000000	99.974275
257.000000	100.129422
256.000000	100.166587
255.000000	99.971774
254.000000	99.866135
253.000000	99.965486
252.000000	100.253861
251.000000	100.108221
250.000000	99.831975
249.000000	99.936926
248.000000	100.087686
247.000000	100.011424
246.000000	100.026266
245.000000	100.069759
244.000000	99.937411
243.000000	100.059186
242.000000	99.940842
241.000000	99.970318
240.000000	100.002429
239.000000	99.953493
238.000000	100.108164
237.000000	100.197180
236.000000	100.012460
235.000000	100.177517
234.000000	100.284556
233.000000	99.892568
232.000000	99.832427
231.000000	100.181101
230.000000	100.193824
229.000000	99.905846
228.000000	99.999687
227.000000	100.088307
226.000000	99.897460
225.000000	100.067465
224.000000	100.182269
223.000000	100.003480
222.000000	100.263340
221.000000	100.514526
220.000000	100.263075
219.000000	99.950184
218.000000	100.189092
217.000000	99.962432
216.000000	99.494731
215.000000	100.037273
214.000000	100.296672
213.000000	99.920243
212.000000	99.717115
211.000000	99.883180
210.000000	100.230207
209.000000	99.961209
208.000000	100.033254
207.000000	100.040807
206.000000	100.262257
205.000000	100.661795
204.000000	99.770519
203.000000	99.287371
202.000000	99.488503
201.000000	99.843201
200.000000	100.245174
