PE UV       SUBTECH     SPECTRUM    ASCII       PEDS        4.00        
   -1
RDmsopph192.Sample.asc
18/03/21
09:51:54.00
18/03/21
09:51:54.00
Administrator

200.000000
1
Lambda 750
750N8071901
PerkinElmer UV WinLab 6.0.4.0738 / 1.61.00 Lambda 900

0
0
3350/servo 860.8/2
0
0
UV/VIS
1
1
1
CommonBeamDepol,150mm sphere / downward view
0
0
0
0
Program
Program
3350/servo 860.8/2
3350/0.2 860.8/0.2
3350/0.2 860.8/0.2
0
1
 
 
 
0
 
860.8
319.2
860.8
Front
100
on
 
 
0
0
0
 
0
 
 
 
0
 
 
0
0
0
0
0
 
 
 
 
0
0


0
0
#HDR
-1
-1
#GR
nm
%R
1.0
0.0
2350.000000
-1.000000
2151
8
67.608212
10.826838
#DATA
2350.000000	28.878545
2349.000000	28.941509
2348.000000	28.714123
2347.000000	29.259509
2346.000000	28.936308
2345.000000	28.935158
2344.000000	28.823810
2343.000000	28.294761
2342.000000	29.039094
2341.000000	29.156038
2340.000000	28.939079
2339.000000	29.114574
2338.000000	29.546968
2337.000000	29.628700
2336.000000	29.545057
2335.000000	29.584236
2334.000000	29.601794
2333.000000	29.701444
2332.000000	29.677148
2331.000000	29.745629
2330.000000	29.954003
2329.000000	29.685984
2328.000000	29.608027
2327.000000	29.427226
2326.000000	29.374964
2325.000000	29.226670
2324.000000	29.477143
2323.000000	29.076958
2322.000000	29.254379
2321.000000	29.279619
2320.000000	29.377138
2319.000000	29.425029
2318.000000	29.387889
2317.000000	29.208731
2316.000000	29.186989
2315.000000	28.997199
2314.000000	29.040142
2313.000000	28.978693
2312.000000	29.168719
2311.000000	28.579741
2310.000000	28.599323
2309.000000	28.641002
2308.000000	28.908229
2307.000000	28.580403
2306.000000	28.493936
2305.000000	28.724396
2304.000000	28.515805
2303.000000	28.532099
2302.000000	28.520467
2301.000000	28.095492
2300.000000	28.200530
2299.000000	27.885253
2298.000000	27.989761
2297.000000	27.918311
2296.000000	27.825184
2295.000000	27.585704
2294.000000	27.798743
2293.000000	27.708848
2292.000000	27.704377
2291.000000	27.412629
2290.000000	27.351917
2289.000000	27.178192
2288.000000	27.303562
2287.000000	27.427911
2286.000000	27.308744
2285.000000	27.239730
2284.000000	27.125863
2283.000000	27.193996
2282.000000	27.202600
2281.000000	27.090997
2280.000000	27.232619
2279.000000	27.417314
2278.000000	27.326894
2277.000000	27.309705
2276.000000	27.274508
2275.000000	27.484712
2274.000000	27.586273
2273.000000	27.453520
2272.000000	27.430990
2271.000000	27.413048
2270.000000	27.336981
2269.000000	27.508238
2268.000000	27.694893
2267.000000	27.783011
2266.000000	27.977236
2265.000000	27.980146
2264.000000	27.935221
2263.000000	27.952037
2262.000000	28.160819
2261.000000	28.443275
2260.000000	28.605384
2259.000000	28.794860
2258.000000	28.887464
2257.000000	29.032029
2256.000000	29.121404
2255.000000	29.400614
2254.000000	29.706615
2253.000000	29.783783
2252.000000	29.897639
2251.000000	30.009398
2250.000000	30.221289
2249.000000	30.461393
2248.000000	30.608470
2247.000000	30.768856
2246.000000	30.917593
2245.000000	31.103716
2244.000000	31.390359
2243.000000	31.709653
2242.000000	31.815273
2241.000000	31.926692
2240.000000	32.151111
2239.000000	32.199749
2238.000000	32.246168
2237.000000	32.425716
2236.000000	32.560918
2235.000000	32.566383
2234.000000	32.638811
2233.000000	32.781746
2232.000000	32.879169
2231.000000	32.979721
2230.000000	32.986309
2229.000000	33.013523
2228.000000	33.084018
2227.000000	33.031324
2226.000000	33.063530
2225.000000	32.998845
2224.000000	32.913590
2223.000000	32.988916
2222.000000	33.036529
2221.000000	32.953089
2220.000000	32.965872
2219.000000	32.974260
2218.000000	32.942588
2217.000000	32.868732
2216.000000	32.769302
2215.000000	32.831120
2214.000000	32.763132
2213.000000	32.783664
2212.000000	32.684821
2211.000000	32.535699
2210.000000	32.617948
2209.000000	32.560172
2208.000000	32.287720
2207.000000	32.216889
2206.000000	32.153318
2205.000000	32.044673
2204.000000	32.025077
2203.000000	32.025338
2202.000000	31.945783
2201.000000	31.901016
2200.000000	31.829815
2199.000000	31.933346
2198.000000	31.794562
2197.000000	31.622535
2196.000000	31.597409
2195.000000	31.443177
2194.000000	31.275169
2193.000000	31.119394
2192.000000	31.222635
2191.000000	31.143557
2190.000000	31.071065
2189.000000	31.156380
2188.000000	31.063470
2187.000000	30.994043
2186.000000	31.039405
2185.000000	31.008362
2184.000000	30.961843
2183.000000	30.974496
2182.000000	30.672426
2181.000000	30.765292
2180.000000	30.819150
2179.000000	30.658616
2178.000000	30.604554
2177.000000	30.661948
2176.000000	30.703506
2175.000000	30.848250
2174.000000	30.786891
2173.000000	30.829903
2172.000000	30.871742
2171.000000	30.992018
2170.000000	31.038508
2169.000000	31.281309
2168.000000	31.226036
2167.000000	31.211060
2166.000000	31.352935
2165.000000	31.227714
2164.000000	31.272375
2163.000000	31.374411
2162.000000	31.776568
2161.000000	31.884114
2160.000000	31.719199
2159.000000	31.864806
2158.000000	31.784440
2157.000000	32.271542
2156.000000	32.307467
2155.000000	32.541355
2154.000000	32.674478
2153.000000	33.022361
2152.000000	33.043426
2151.000000	33.027445
2150.000000	33.083272
2149.000000	33.398889
2148.000000	33.423552
2147.000000	33.654648
2146.000000	33.716838
2145.000000	33.865174
2144.000000	34.052487
2143.000000	34.120201
2142.000000	34.174288
2141.000000	34.372902
2140.000000	34.432356
2139.000000	34.634406
2138.000000	34.737865
2137.000000	34.904093
2136.000000	35.013371
2135.000000	34.976303
2134.000000	35.174181
2133.000000	35.128275
2132.000000	35.368015
2131.000000	35.475964
2130.000000	35.610643
2129.000000	35.612556
2128.000000	35.476752
2127.000000	35.501386
2126.000000	35.778209
2125.000000	35.831074
2124.000000	35.819564
2123.000000	35.580598
2122.000000	35.876523
2121.000000	35.932361
2120.000000	36.098416
2119.000000	36.094234
2118.000000	36.078659
2117.000000	36.122094
2116.000000	36.192375
2115.000000	36.430666
2114.000000	36.208389
2113.000000	36.167608
2112.000000	36.199317
2111.000000	36.317057
2110.000000	36.301948
2109.000000	36.333633
2108.000000	36.325720
2107.000000	36.387302
2106.000000	36.431581
2105.000000	36.535257
2104.000000	36.462111
2103.000000	36.508883
2102.000000	36.555925
2101.000000	36.587851
2100.000000	36.625971
2099.000000	36.561141
2098.000000	36.606989
2097.000000	36.582892
2096.000000	36.548152
2095.000000	36.499129
2094.000000	36.499460
2093.000000	36.496089
2092.000000	36.527791
2091.000000	36.433677
2090.000000	36.448520
2089.000000	36.510783
2088.000000	36.511589
2087.000000	36.439275
2086.000000	36.442205
2085.000000	36.489148
2084.000000	36.432039
2083.000000	36.303191
2082.000000	36.218342
2081.000000	36.189755
2080.000000	36.029319
2079.000000	36.050288
2078.000000	35.921364
2077.000000	35.841564
2076.000000	35.795718
2075.000000	35.757391
2074.000000	35.554461
2073.000000	35.460192
2072.000000	35.385772
2071.000000	35.268768
2070.000000	35.177052
2069.000000	34.963500
2068.000000	34.884063
2067.000000	34.803936
2066.000000	34.555027
2065.000000	34.544446
2064.000000	34.441153
2063.000000	34.192545
2062.000000	34.068516
2061.000000	33.938699
2060.000000	33.855818
2059.000000	33.696975
2058.000000	33.509299
2057.000000	33.418860
2056.000000	33.306991
2055.000000	33.146449
2054.000000	32.935733
2053.000000	32.809665
2052.000000	32.719156
2051.000000	32.574701
2050.000000	32.396516
2049.000000	32.281496
2048.000000	32.182863
2047.000000	32.199042
2046.000000	32.141838
2045.000000	32.086902
2044.000000	32.025185
2043.000000	31.962084
2042.000000	31.991479
2041.000000	32.032306
2040.000000	32.065305
2039.000000	32.024558
2038.000000	32.113632
2037.000000	32.185350
2036.000000	32.210348
2035.000000	32.291070
2034.000000	32.369167
2033.000000	32.442712
2032.000000	32.563199
2031.000000	32.667605
2030.000000	32.818427
2029.000000	32.923127
2028.000000	32.997169
2027.000000	33.121724
2026.000000	33.254876
2025.000000	33.322569
2024.000000	33.363185
2023.000000	33.453925
2022.000000	33.546645
2021.000000	33.588738
2020.000000	33.629984
2019.000000	33.635652
2018.000000	33.675810
2017.000000	33.681827
2016.000000	33.653037
2015.000000	33.683924
2014.000000	33.684101
2013.000000	33.697137
2012.000000	33.637090
2011.000000	33.647023
2010.000000	33.654995
2009.000000	33.502255
2008.000000	33.384716
2007.000000	33.324319
2006.000000	33.252360
2005.000000	33.171245
2004.000000	33.079981
2003.000000	32.992980
2002.000000	32.935067
2001.000000	32.846713
2000.000000	32.738078
1999.000000	32.652881
1998.000000	32.528381
1997.000000	32.456835
1996.000000	32.384297
1995.000000	32.255577
1994.000000	32.146269
1993.000000	32.092682
1992.000000	31.989571
1991.000000	31.843467
1990.000000	31.808471
1989.000000	31.696216
1988.000000	31.623685
1987.000000	31.508154
1986.000000	31.381917
1985.000000	31.270599
1984.000000	31.160394
1983.000000	31.085522
1982.000000	31.000719
1981.000000	30.900187
1980.000000	30.813371
1979.000000	30.690608
1978.000000	30.595815
1977.000000	30.512614
1976.000000	30.414210
1975.000000	30.308679
1974.000000	30.178471
1973.000000	30.127907
1972.000000	30.035842
1971.000000	29.908459
1970.000000	29.808030
1969.000000	29.718254
1968.000000	29.671114
1967.000000	29.579454
1966.000000	29.460626
1965.000000	29.380033
1964.000000	29.302263
1963.000000	29.228045
1962.000000	29.158468
1961.000000	29.080043
1960.000000	28.984626
1959.000000	28.902670
1958.000000	28.860016
1957.000000	28.774423
1956.000000	28.726308
1955.000000	28.616550
1954.000000	28.602824
1953.000000	28.558259
1952.000000	28.513673
1951.000000	28.506809
1950.000000	28.418763
1949.000000	28.335712
1948.000000	28.351816
1947.000000	28.332779
1946.000000	28.263300
1945.000000	28.304558
1944.000000	28.277851
1943.000000	28.333918
1942.000000	28.394548
1941.000000	28.342468
1940.000000	28.408713
1939.000000	28.565707
1938.000000	28.550403
1937.000000	28.567450
1936.000000	28.822728
1935.000000	28.801152
1934.000000	28.963653
1933.000000	29.037585
1932.000000	29.204204
1931.000000	29.363370
1930.000000	29.517107
1929.000000	29.673293
1928.000000	29.847089
1927.000000	30.019937
1926.000000	30.129095
1925.000000	30.432416
1924.000000	30.696343
1923.000000	30.961590
1922.000000	31.170286
1921.000000	31.495283
1920.000000	31.689760
1919.000000	32.077428
1918.000000	32.320366
1917.000000	32.565518
1916.000000	32.939657
1915.000000	33.363761
1914.000000	33.708452
1913.000000	34.058024
1912.000000	34.473279
1911.000000	34.854397
1910.000000	35.237656
1909.000000	35.646588
1908.000000	36.099718
1907.000000	36.540594
1906.000000	37.076908
1905.000000	37.577086
1904.000000	38.052342
1903.000000	38.617025
1902.000000	39.120814
1901.000000	39.621303
1900.000000	40.096499
1899.000000	40.669926
1898.000000	41.254196
1897.000000	41.758917
1896.000000	42.357271
1895.000000	42.942953
1894.000000	43.396384
1893.000000	43.906862
1892.000000	44.444908
1891.000000	44.980188
1890.000000	45.512584
1889.000000	46.017726
1888.000000	46.498414
1887.000000	47.000500
1886.000000	47.367448
1885.000000	47.820647
1884.000000	48.259362
1883.000000	48.635273
1882.000000	49.081811
1881.000000	49.447864
1880.000000	49.776876
1879.000000	50.074475
1878.000000	50.480368
1877.000000	50.823087
1876.000000	51.060983
1875.000000	51.363868
1874.000000	51.639787
1873.000000	51.863766
1872.000000	52.103805
1871.000000	52.371704
1870.000000	52.538249
1869.000000	52.738882
1868.000000	52.868246
1867.000000	53.057855
1866.000000	53.184372
1865.000000	53.294262
1864.000000	53.382814
1863.000000	53.505419
1862.000000	53.571048
1861.000000	53.631972
1860.000000	53.686337
1859.000000	53.732883
1858.000000	53.802598
1857.000000	53.892789
1856.000000	53.971156
1855.000000	54.009760
1854.000000	54.040923
1853.000000	54.038738
1852.000000	54.048728
1851.000000	54.068427
1850.000000	54.092873
1849.000000	54.118223
1848.000000	54.109619
1847.000000	54.141171
1846.000000	54.094693
1845.000000	54.057611
1844.000000	54.043262
1843.000000	54.038320
1842.000000	53.995141
1841.000000	53.985956
1840.000000	53.949859
1839.000000	53.935204
1838.000000	53.907623
1837.000000	53.834193
1836.000000	53.763431
1835.000000	53.747028
1834.000000	53.706948
1833.000000	53.667887
1832.000000	53.616389
1831.000000	53.549610
1830.000000	53.503849
1829.000000	53.490509
1828.000000	53.431419
1827.000000	53.394814
1826.000000	53.354152
1825.000000	53.296051
1824.000000	53.275795
1823.000000	53.239438
1822.000000	53.183494
1821.000000	53.149221
1820.000000	53.107730
1819.000000	53.050871
1818.000000	53.021883
1817.000000	52.987997
1816.000000	52.933403
1815.000000	52.877785
1814.000000	52.821724
1813.000000	52.798501
1812.000000	52.798414
1811.000000	52.758962
1810.000000	52.711832
1809.000000	52.690608
1808.000000	52.643294
1807.000000	52.585411
1806.000000	52.540435
1805.000000	52.502843
1804.000000	52.461633
1803.000000	52.428768
1802.000000	52.385010
1801.000000	52.354403
1800.000000	52.339794
1799.000000	52.301341
1798.000000	52.265277
1797.000000	52.256053
1796.000000	52.236907
1795.000000	52.202945
1794.000000	52.171089
1793.000000	52.146397
1792.000000	52.110878
1791.000000	52.071081
1790.000000	52.038035
1789.000000	52.027067
1788.000000	51.981903
1787.000000	51.942898
1786.000000	51.932230
1785.000000	51.894508
1784.000000	51.862053
1783.000000	51.837929
1782.000000	51.820433
1781.000000	51.780013
1780.000000	51.732380
1779.000000	51.678504
1778.000000	51.575700
1777.000000	51.539291
1776.000000	51.525917
1775.000000	51.433698
1774.000000	51.345622
1773.000000	51.323416
1772.000000	51.238823
1771.000000	51.190788
1770.000000	51.131592
1769.000000	51.064140
1768.000000	50.993535
1767.000000	50.947354
1766.000000	50.893324
1765.000000	50.851103
1764.000000	50.805233
1763.000000	50.739872
1762.000000	50.688186
1761.000000	50.637566
1760.000000	50.540785
1759.000000	50.499787
1758.000000	50.444735
1757.000000	50.387721
1756.000000	50.341697
1755.000000	50.290422
1754.000000	50.206640
1753.000000	50.143199
1752.000000	50.115686
1751.000000	50.038443
1750.000000	49.989310
1749.000000	49.938606
1748.000000	49.881108
1747.000000	49.777282
1746.000000	49.718036
1745.000000	49.635468
1744.000000	49.582383
1743.000000	49.560660
1742.000000	49.462974
1741.000000	49.424128
1740.000000	49.357190
1739.000000	49.324769
1738.000000	49.275393
1737.000000	49.238431
1736.000000	49.221107
1735.000000	49.171623
1734.000000	49.171934
1733.000000	49.149204
1732.000000	49.171652
1731.000000	49.200392
1730.000000	49.180340
1729.000000	49.211162
1728.000000	49.295438
1727.000000	49.372088
1726.000000	49.478936
1725.000000	49.528145
1724.000000	49.584953
1723.000000	49.687377
1722.000000	49.834685
1721.000000	49.942526
1720.000000	50.040112
1719.000000	50.173504
1718.000000	50.250572
1717.000000	50.374242
1716.000000	50.473913
1715.000000	50.564309
1714.000000	50.670615
1713.000000	50.791611
1712.000000	50.864092
1711.000000	50.965934
1710.000000	51.005743
1709.000000	51.059317
1708.000000	51.142687
1707.000000	51.208345
1706.000000	51.177995
1705.000000	51.262423
1704.000000	51.292107
1703.000000	51.252356
1702.000000	51.324644
1701.000000	51.377162
1700.000000	51.370252
1699.000000	51.338258
1698.000000	51.397634
1697.000000	51.435111
1696.000000	51.476639
1695.000000	51.522028
1694.000000	51.538544
1693.000000	51.592204
1692.000000	51.663725
1691.000000	51.730728
1690.000000	51.832779
1689.000000	51.946113
1688.000000	52.050474
1687.000000	52.184826
1686.000000	52.286038
1685.000000	52.480620
1684.000000	52.637507
1683.000000	52.798591
1682.000000	52.987779
1681.000000	53.199261
1680.000000	53.343166
1679.000000	53.562414
1678.000000	53.769639
1677.000000	53.967855
1676.000000	54.161612
1675.000000	54.356814
1674.000000	54.568583
1673.000000	54.743797
1672.000000	54.940653
1671.000000	55.118894
1670.000000	55.278089
1669.000000	55.470631
1668.000000	55.647864
1667.000000	55.816743
1666.000000	55.886685
1665.000000	55.997985
1664.000000	56.118591
1663.000000	56.189847
1662.000000	56.295467
1661.000000	56.402200
1660.000000	56.479115
1659.000000	56.551006
1658.000000	56.589382
1657.000000	56.622242
1656.000000	56.667924
1655.000000	56.707227
1654.000000	56.741966
1653.000000	56.756902
1652.000000	56.777004
1651.000000	56.755652
1650.000000	56.783259
1649.000000	56.802552
1648.000000	56.784466
1647.000000	56.775018
1646.000000	56.758995
1645.000000	56.742977
1644.000000	56.728887
1643.000000	56.698536
1642.000000	56.675321
1641.000000	56.630627
1640.000000	56.608421
1639.000000	56.584290
1638.000000	56.541892
1637.000000	56.522044
1636.000000	56.465356
1635.000000	56.425853
1634.000000	56.392487
1633.000000	56.342833
1632.000000	56.297848
1631.000000	56.256428
1630.000000	56.208923
1629.000000	56.154874
1628.000000	56.105844
1627.000000	56.063321
1626.000000	56.005913
1625.000000	55.956084
1624.000000	55.900784
1623.000000	55.848055
1622.000000	55.815437
1621.000000	55.728770
1620.000000	55.674657
1619.000000	55.625032
1618.000000	55.564281
1617.000000	55.499178
1616.000000	55.420671
1615.000000	55.330168
1614.000000	55.276595
1613.000000	55.226085
1612.000000	55.155858
1611.000000	55.082008
1610.000000	55.010162
1609.000000	54.933710
1608.000000	54.866733
1607.000000	54.791748
1606.000000	54.715202
1605.000000	54.668853
1604.000000	54.586569
1603.000000	54.501704
1602.000000	54.429247
1601.000000	54.346928
1600.000000	54.276054
1599.000000	54.215928
1598.000000	54.140558
1597.000000	54.069363
1596.000000	54.011529
1595.000000	53.945880
1594.000000	53.876033
1593.000000	53.815612
1592.000000	53.759265
1591.000000	53.694710
1590.000000	53.628672
1589.000000	53.562130
1588.000000	53.529890
1587.000000	53.469495
1586.000000	53.398657
1585.000000	53.360737
1584.000000	53.297924
1583.000000	53.243130
1582.000000	53.199134
1581.000000	53.134565
1580.000000	53.087098
1579.000000	53.036713
1578.000000	52.994151
1577.000000	52.953149
1576.000000	52.883407
1575.000000	52.832125
1574.000000	52.785708
1573.000000	52.708427
1572.000000	52.667273
1571.000000	52.631097
1570.000000	52.587889
1569.000000	52.537205
1568.000000	52.480273
1567.000000	52.441850
1566.000000	52.399160
1565.000000	52.384056
1564.000000	52.354710
1563.000000	52.328163
1562.000000	52.283842
1561.000000	52.243941
1560.000000	52.219994
1559.000000	52.187920
1558.000000	52.179051
1557.000000	52.162819
1556.000000	52.141817
1555.000000	52.133818
1554.000000	52.107275
1553.000000	52.070310
1552.000000	52.029794
1551.000000	51.976267
1550.000000	51.952803
1549.000000	51.918548
1548.000000	51.881226
1547.000000	51.810965
1546.000000	51.731736
1545.000000	51.678770
1544.000000	51.592041
1543.000000	51.500842
1542.000000	51.421155
1541.000000	51.325617
1540.000000	51.244281
1539.000000	51.157012
1538.000000	51.062876
1537.000000	50.941858
1536.000000	50.852908
1535.000000	50.752985
1534.000000	50.634721
1533.000000	50.561262
1532.000000	50.470516
1531.000000	50.371200
1530.000000	50.256966
1529.000000	50.185027
1528.000000	50.110955
1527.000000	50.025980
1526.000000	49.932074
1525.000000	49.849741
1524.000000	49.786850
1523.000000	49.740510
1522.000000	49.685828
1521.000000	49.637082
1520.000000	49.590590
1519.000000	49.528748
1518.000000	49.487695
1517.000000	49.465882
1516.000000	49.415538
1515.000000	49.368680
1514.000000	49.348582
1513.000000	49.322987
1512.000000	49.291908
1511.000000	49.262160
1510.000000	49.229552
1509.000000	49.217175
1508.000000	49.212515
1507.000000	49.176162
1506.000000	49.170475
1505.000000	49.165551
1504.000000	49.131329
1503.000000	49.138331
1502.000000	49.131810
1501.000000	49.123073
1500.000000	49.123248
1499.000000	49.115871
1498.000000	49.129312
1497.000000	49.125473
1496.000000	49.138419
1495.000000	49.155789
1494.000000	49.179978
1493.000000	49.223343
1492.000000	49.230862
1491.000000	49.274979
1490.000000	49.306988
1489.000000	49.329516
1488.000000	49.389218
1487.000000	49.430613
1486.000000	49.482902
1485.000000	49.532935
1484.000000	49.578083
1483.000000	49.650931
1482.000000	49.685227
1481.000000	49.754026
1480.000000	49.820003
1479.000000	49.855792
1478.000000	49.938846
1477.000000	49.976459
1476.000000	50.031975
1475.000000	50.096484
1474.000000	50.155872
1473.000000	50.206014
1472.000000	50.269859
1471.000000	50.341264
1470.000000	50.392553
1469.000000	50.437856
1468.000000	50.511142
1467.000000	50.563714
1466.000000	50.617358
1465.000000	50.676692
1464.000000	50.709371
1463.000000	50.780211
1462.000000	50.821576
1461.000000	50.866316
1460.000000	50.921843
1459.000000	50.989647
1458.000000	51.065217
1457.000000	51.106371
1456.000000	51.183445
1455.000000	51.242675
1454.000000	51.317117
1453.000000	51.419102
1452.000000	51.475427
1451.000000	51.568779
1450.000000	51.640999
1449.000000	51.703477
1448.000000	51.813852
1447.000000	51.884768
1446.000000	51.965044
1445.000000	52.059472
1444.000000	52.166403
1443.000000	52.262091
1442.000000	52.357255
1441.000000	52.462933
1440.000000	52.580734
1439.000000	52.686487
1438.000000	52.801414
1437.000000	52.935776
1436.000000	53.049256
1435.000000	53.162533
1434.000000	53.282975
1433.000000	53.436792
1432.000000	53.576987
1431.000000	53.716019
1430.000000	53.856318
1429.000000	54.023235
1428.000000	54.173900
1427.000000	54.343820
1426.000000	54.508460
1425.000000	54.681552
1424.000000	54.844947
1423.000000	55.032473
1422.000000	55.217529
1421.000000	55.408081
1420.000000	55.612755
1419.000000	55.813521
1418.000000	56.011139
1417.000000	56.214673
1416.000000	56.402501
1415.000000	56.622024
1414.000000	56.838055
1413.000000	57.047639
1412.000000	57.271367
1411.000000	57.470625
1410.000000	57.687187
1409.000000	57.899212
1408.000000	58.120776
1407.000000	58.323654
1406.000000	58.534631
1405.000000	58.749734
1404.000000	58.947221
1403.000000	59.144869
1402.000000	59.343739
1401.000000	59.532234
1400.000000	59.735514
1399.000000	59.917249
1398.000000	60.104340
1397.000000	60.273520
1396.000000	60.444892
1395.000000	60.623547
1394.000000	60.799239
1393.000000	60.970232
1392.000000	61.130128
1391.000000	61.272904
1390.000000	61.402846
1389.000000	61.546917
1388.000000	61.681626
1387.000000	61.809943
1386.000000	61.935788
1385.000000	62.066537
1384.000000	62.182761
1383.000000	62.280959
1382.000000	62.389611
1381.000000	62.494389
1380.000000	62.570199
1379.000000	62.661642
1378.000000	62.750962
1377.000000	62.817303
1376.000000	62.888567
1375.000000	62.967054
1374.000000	63.047052
1373.000000	63.110559
1372.000000	63.158780
1371.000000	63.210487
1370.000000	63.273461
1369.000000	63.327775
1368.000000	63.381439
1367.000000	63.441519
1366.000000	63.488761
1365.000000	63.555159
1364.000000	63.625340
1363.000000	63.676526
1362.000000	63.732533
1361.000000	63.795149
1360.000000	63.854070
1359.000000	63.905879
1358.000000	63.970987
1357.000000	64.043608
1356.000000	64.118171
1355.000000	64.190899
1354.000000	64.249866
1353.000000	64.301585
1352.000000	64.373849
1351.000000	64.435737
1350.000000	64.508576
1349.000000	64.574550
1348.000000	64.615411
1347.000000	64.678857
1346.000000	64.777371
1345.000000	64.827329
1344.000000	64.876124
1343.000000	64.939363
1342.000000	64.995256
1341.000000	65.051736
1340.000000	65.110079
1339.000000	65.156855
1338.000000	65.218084
1337.000000	65.261059
1336.000000	65.306267
1335.000000	65.346950
1334.000000	65.370417
1333.000000	65.406696
1332.000000	65.439719
1331.000000	65.469130
1330.000000	65.527868
1329.000000	65.583968
1328.000000	65.651035
1327.000000	65.707366
1326.000000	65.773971
1325.000000	65.780203
1324.000000	65.772189
1323.000000	65.782245
1322.000000	65.784329
1321.000000	65.832003
1320.000000	65.898112
1319.000000	65.911918
1318.000000	65.901459
1317.000000	65.902994
1316.000000	65.923250
1315.000000	65.948128
1314.000000	65.986733
1313.000000	66.002937
1312.000000	66.023259
1311.000000	66.023684
1310.000000	66.019008
1309.000000	66.050066
1308.000000	66.093737
1307.000000	66.094375
1306.000000	66.084321
1305.000000	66.098920
1304.000000	66.109493
1303.000000	66.115657
1302.000000	66.128577
1301.000000	66.120131
1300.000000	66.135712
1299.000000	66.152072
1298.000000	66.172300
1297.000000	66.157630
1296.000000	66.173723
1295.000000	66.151532
1294.000000	66.155345
1293.000000	66.161401
1292.000000	66.142668
1291.000000	66.136530
1290.000000	66.137791
1289.000000	66.139556
1288.000000	66.126121
1287.000000	66.123135
1286.000000	66.087389
1285.000000	66.087055
1284.000000	66.098654
1283.000000	66.104712
1282.000000	66.093381
1281.000000	66.102670
1280.000000	66.096416
1279.000000	66.091711
1278.000000	66.096916
1277.000000	66.081091
1276.000000	66.095745
1275.000000	66.079627
1274.000000	66.077505
1273.000000	66.070570
1272.000000	66.095264
1271.000000	66.092528
1270.000000	66.093992
1269.000000	66.088574
1268.000000	66.098812
1267.000000	66.094018
1266.000000	66.103033
1265.000000	66.095388
1264.000000	66.120663
1263.000000	66.144556
1262.000000	66.169184
1261.000000	66.163022
1260.000000	66.171376
1259.000000	66.155449
1258.000000	66.171867
1257.000000	66.191585
1256.000000	66.185203
1255.000000	66.212344
1254.000000	66.200636
1253.000000	66.220751
1252.000000	66.205774
1251.000000	66.206858
1250.000000	66.212598
1249.000000	66.207395
1248.000000	66.195367
1247.000000	66.187787
1246.000000	66.197410
1245.000000	66.176718
1244.000000	66.164743
1243.000000	66.126272
1242.000000	66.115352
1241.000000	66.089525
1240.000000	66.084990
1239.000000	66.074454
1238.000000	66.034637
1237.000000	66.012846
1236.000000	65.980601
1235.000000	65.957860
1234.000000	65.927146
1233.000000	65.910633
1232.000000	65.889642
1231.000000	65.861611
1230.000000	65.853335
1229.000000	65.827945
1228.000000	65.797634
1227.000000	65.770611
1226.000000	65.763975
1225.000000	65.738811
1224.000000	65.729027
1223.000000	65.711846
1222.000000	65.690614
1221.000000	65.651033
1220.000000	65.628790
1219.000000	65.600110
1218.000000	65.573368
1217.000000	65.549360
1216.000000	65.488133
1215.000000	65.447224
1214.000000	65.418663
1213.000000	65.398537
1212.000000	65.389137
1211.000000	65.367777
1210.000000	65.340045
1209.000000	65.285688
1208.000000	65.266700
1207.000000	65.232545
1206.000000	65.196495
1205.000000	65.150492
1204.000000	65.136531
1203.000000	65.109515
1202.000000	65.064186
1201.000000	65.026264
1200.000000	64.982040
1199.000000	64.964988
1198.000000	64.930619
1197.000000	64.888677
1196.000000	64.859888
1195.000000	64.844289
1194.000000	64.821167
1193.000000	64.789278
1192.000000	64.766042
1191.000000	64.753256
1190.000000	64.725895
1189.000000	64.693788
1188.000000	64.691388
1187.000000	64.688802
1186.000000	64.676972
1185.000000	64.690455
1184.000000	64.695457
1183.000000	64.700968
1182.000000	64.714077
1181.000000	64.739038
1180.000000	64.774326
1179.000000	64.808278
1178.000000	64.837336
1177.000000	64.878549
1176.000000	64.924681
1175.000000	64.977742
1174.000000	65.032616
1173.000000	65.081301
1172.000000	65.142772
1171.000000	65.203546
1170.000000	65.267106
1169.000000	65.332525
1168.000000	65.400427
1167.000000	65.477075
1166.000000	65.547412
1165.000000	65.618052
1164.000000	65.689620
1163.000000	65.755939
1162.000000	65.822256
1161.000000	65.899051
1160.000000	65.974051
1159.000000	66.039305
1158.000000	66.090478
1157.000000	66.148222
1156.000000	66.224385
1155.000000	66.293760
1154.000000	66.359987
1153.000000	66.426955
1152.000000	66.476419
1151.000000	66.524672
1150.000000	66.572006
1149.000000	66.621474
1148.000000	66.689967
1147.000000	66.741963
1146.000000	66.781954
1145.000000	66.821728
1144.000000	66.868393
1143.000000	66.913639
1142.000000	66.955847
1141.000000	66.999697
1140.000000	67.024994
1139.000000	67.049636
1138.000000	67.089193
1137.000000	67.126286
1136.000000	67.162222
1135.000000	67.201250
1134.000000	67.234942
1133.000000	67.270672
1132.000000	67.310140
1131.000000	67.337459
1130.000000	67.352036
1129.000000	67.376964
1128.000000	67.395404
1127.000000	67.409080
1126.000000	67.447916
1125.000000	67.453563
1124.000000	67.453115
1123.000000	67.490577
1122.000000	67.490741
1121.000000	67.515219
1120.000000	67.537847
1119.000000	67.527298
1118.000000	67.526742
1117.000000	67.533578
1116.000000	67.572876
1115.000000	67.578341
1114.000000	67.578150
1113.000000	67.571450
1112.000000	67.580603
1111.000000	67.579325
1110.000000	67.577268
1109.000000	67.547839
1108.000000	67.564757
1107.000000	67.564205
1106.000000	67.582462
1105.000000	67.591710
1104.000000	67.606055
1103.000000	67.597659
1102.000000	67.586019
1101.000000	67.608212
1100.000000	67.595373
1099.000000	67.566271
1098.000000	67.568512
1097.000000	67.567454
1096.000000	67.572572
1095.000000	67.582861
1094.000000	67.587837
1093.000000	67.584404
1092.000000	67.576056
1091.000000	67.554660
1090.000000	67.546675
1089.000000	67.550875
1088.000000	67.559676
1087.000000	67.555486
1086.000000	67.516599
1085.000000	67.518907
1084.000000	67.526252
1083.000000	67.526101
1082.000000	67.525544
1081.000000	67.530945
1080.000000	67.480270
1079.000000	67.483527
1078.000000	67.484744
1077.000000	67.486867
1076.000000	67.470973
1075.000000	67.477654
1074.000000	67.438568
1073.000000	67.423879
1072.000000	67.429980
1071.000000	67.434750
1070.000000	67.435414
1069.000000	67.424328
1068.000000	67.401605
1067.000000	67.386085
1066.000000	67.382560
1065.000000	67.384539
1064.000000	67.391413
1063.000000	67.348823
1062.000000	67.349454
1061.000000	67.344881
1060.000000	67.326773
1059.000000	67.328781
1058.000000	67.319387
1057.000000	67.312883
1056.000000	67.284422
1055.000000	67.297482
1054.000000	67.266361
1053.000000	67.285114
1052.000000	67.288221
1051.000000	67.273366
1050.000000	67.260767
1049.000000	67.265442
1048.000000	67.228002
1047.000000	67.225215
1046.000000	67.209955
1045.000000	67.219168
1044.000000	67.180914
1043.000000	67.189063
1042.000000	67.179807
1041.000000	67.176602
1040.000000	67.162479
1039.000000	67.162575
1038.000000	67.141327
1037.000000	67.143903
1036.000000	67.121924
1035.000000	67.127261
1034.000000	67.116599
1033.000000	67.119231
1032.000000	67.130918
1031.000000	67.086029
1030.000000	67.103013
1029.000000	67.085904
1028.000000	67.066255
1027.000000	67.069204
1026.000000	67.064766
1025.000000	67.075710
1024.000000	67.039509
1023.000000	67.046486
1022.000000	67.054940
1021.000000	67.034925
1020.000000	67.046698
1019.000000	67.017143
1018.000000	67.037291
1017.000000	67.050263
1016.000000	67.036820
1015.000000	67.032146
1014.000000	67.022806
1013.000000	67.013860
1012.000000	67.011203
1011.000000	67.008019
1010.000000	67.018066
1009.000000	67.007437
1008.000000	67.021528
1007.000000	67.020920
1006.000000	67.002365
1005.000000	67.021677
1004.000000	67.026355
1003.000000	67.015005
1002.000000	67.005608
1001.000000	66.987042
1000.000000	67.013695
999.000000	67.017421
998.000000	67.005985
997.000000	67.003445
996.000000	67.009683
995.000000	66.990595
994.000000	66.989638
993.000000	66.978147
992.000000	66.973067
991.000000	66.979316
990.000000	66.972556
989.000000	66.989683
988.000000	66.996112
987.000000	66.979237
986.000000	66.978904
985.000000	66.978615
984.000000	66.968840
983.000000	66.987928
982.000000	66.993782
981.000000	66.984480
980.000000	66.987147
979.000000	66.985146
978.000000	66.993685
977.000000	66.992640
976.000000	66.996280
975.000000	67.017900
974.000000	67.027843
973.000000	67.014634
972.000000	67.000409
971.000000	66.997113
970.000000	67.012930
969.000000	67.025850
968.000000	67.038318
967.000000	67.044293
966.000000	67.047905
965.000000	67.046143
964.000000	67.039391
963.000000	67.045554
962.000000	67.033641
961.000000	67.035192
960.000000	67.036282
959.000000	67.051670
958.000000	67.057034
957.000000	67.061097
956.000000	67.066537
955.000000	67.089239
954.000000	67.069175
953.000000	67.055623
952.000000	67.078100
951.000000	67.078131
950.000000	67.082499
949.000000	67.081071
948.000000	67.078922
947.000000	67.065497
946.000000	67.039486
945.000000	67.056341
944.000000	67.065826
943.000000	67.059194
942.000000	67.068254
941.000000	67.085556
940.000000	67.070696
939.000000	67.038025
938.000000	67.031625
937.000000	67.045163
936.000000	67.056669
935.000000	67.031756
934.000000	66.989209
933.000000	67.010511
932.000000	67.016403
931.000000	67.023702
930.000000	67.023893
929.000000	66.994807
928.000000	67.017936
927.000000	67.018617
926.000000	66.952916
925.000000	66.916686
924.000000	66.908786
923.000000	66.918342
922.000000	66.912264
921.000000	66.910959
920.000000	66.891236
919.000000	66.867727
918.000000	66.871753
917.000000	66.856195
916.000000	66.896250
915.000000	66.906182
914.000000	66.853939
913.000000	66.812604
912.000000	66.775001
911.000000	66.809428
910.000000	66.808718
909.000000	66.841837
908.000000	66.861441
907.000000	66.782745
906.000000	66.771656
905.000000	66.774487
904.000000	66.762087
903.000000	66.782422
902.000000	66.795442
901.000000	66.759622
900.000000	66.811150
899.000000	66.786376
898.000000	66.729952
897.000000	66.740390
896.000000	66.730119
895.000000	66.707570
894.000000	66.699780
893.000000	66.706350
892.000000	66.799852
891.000000	66.827388
890.000000	66.811707
889.000000	66.742874
888.000000	66.695010
887.000000	66.684344
886.000000	66.732205
885.000000	66.762501
884.000000	66.867321
883.000000	66.812184
882.000000	66.711483
881.000000	66.707840
880.000000	66.633707
879.000000	66.557163
878.000000	66.659817
877.000000	66.715065
876.000000	66.680898
875.000000	66.641928
874.000000	66.600197
873.000000	66.643782
872.000000	66.737127
871.000000	66.518467
870.000000	66.639415
869.000000	66.628484
868.000000	66.661479
867.000000	66.640103
866.000000	66.575741
865.000000	66.624162
864.000000	66.547495
863.000000	66.531124
862.000000	66.626632
861.000000	66.527892
860.000000	66.621905
859.000000	65.667835
858.000000	65.871926
857.000000	66.195168
856.000000	65.938849
855.000000	65.967635
854.000000	66.110006
853.000000	66.423646
852.000000	65.862703
851.000000	66.068539
850.000000	66.120876
849.000000	65.712889
848.000000	65.750284
847.000000	65.900328
846.000000	65.976036
845.000000	65.881027
844.000000	65.925623
843.000000	65.940368
842.000000	65.631035
841.000000	65.936784
840.000000	66.098601
839.000000	65.870679
838.000000	65.946376
837.000000	65.713027
836.000000	65.705317
835.000000	65.816566
834.000000	65.569872
833.000000	65.855171
832.000000	65.766140
831.000000	65.802529
830.000000	65.720877
829.000000	65.659056
828.000000	65.656283
827.000000	65.613887
826.000000	65.651015
825.000000	65.771082
824.000000	65.689366
823.000000	65.542803
822.000000	65.766839
821.000000	65.383344
820.000000	65.673581
819.000000	65.420626
818.000000	65.377298
817.000000	65.403922
816.000000	65.494170
815.000000	65.467712
814.000000	65.466822
813.000000	65.358556
812.000000	65.393314
811.000000	65.470569
810.000000	65.372476
809.000000	65.255252
808.000000	65.200349
807.000000	65.203581
806.000000	65.304106
805.000000	65.164895
804.000000	65.329108
803.000000	65.277471
802.000000	65.198022
801.000000	65.222156
800.000000	65.080120
799.000000	65.128182
798.000000	65.116764
797.000000	65.060105
796.000000	65.202114
795.000000	65.117519
794.000000	65.014769
793.000000	64.948320
792.000000	64.932368
791.000000	64.969699
790.000000	64.821472
789.000000	64.878368
788.000000	64.949714
787.000000	64.974631
786.000000	64.907770
785.000000	64.943473
784.000000	64.862429
783.000000	64.820957
782.000000	64.741145
781.000000	64.755921
780.000000	64.790812
779.000000	64.760188
778.000000	64.754467
777.000000	64.701342
776.000000	64.525639
775.000000	64.582472
774.000000	64.542664
773.000000	64.553611
772.000000	64.560484
771.000000	64.441578
770.000000	64.451480
769.000000	64.545933
768.000000	64.402119
767.000000	64.438533
766.000000	64.426834
765.000000	64.314291
764.000000	64.355833
763.000000	64.356140
762.000000	64.332365
761.000000	64.206302
760.000000	64.157041
759.000000	64.166079
758.000000	64.106635
757.000000	64.194619
756.000000	64.068076
755.000000	63.999213
754.000000	63.955045
753.000000	63.906117
752.000000	63.936387
751.000000	63.885505
750.000000	63.900820
749.000000	63.911452
748.000000	63.807684
747.000000	63.775935
746.000000	63.638780
745.000000	63.675765
744.000000	63.726082
743.000000	63.695028
742.000000	63.587600
741.000000	63.586968
740.000000	63.524470
739.000000	63.500422
738.000000	63.516132
737.000000	63.481625
736.000000	63.404217
735.000000	63.350423
734.000000	63.359866
733.000000	63.346209
732.000000	63.231610
731.000000	63.262884
730.000000	63.177890
729.000000	63.075867
728.000000	63.076452
727.000000	63.093301
726.000000	63.082942
725.000000	62.959176
724.000000	62.873561
723.000000	62.869978
722.000000	62.801955
721.000000	62.800062
720.000000	62.783506
719.000000	62.763534
718.000000	62.696591
717.000000	62.640248
716.000000	62.600919
715.000000	62.533900
714.000000	62.493077
713.000000	62.438890
712.000000	62.387667
711.000000	62.377825
710.000000	62.359699
709.000000	62.346818
708.000000	62.240756
707.000000	62.126751
706.000000	62.167660
705.000000	62.169961
704.000000	62.079540
703.000000	62.057441
702.000000	62.033117
701.000000	61.883336
700.000000	61.825148
699.000000	61.824951
698.000000	61.766648
697.000000	61.719853
696.000000	61.628728
695.000000	61.559298
694.000000	61.552665
693.000000	61.522858
692.000000	61.462130
691.000000	61.362094
690.000000	61.298777
689.000000	61.231304
688.000000	61.200696
687.000000	61.109003
686.000000	61.046341
685.000000	61.012750
684.000000	60.985840
683.000000	60.920412
682.000000	60.823362
681.000000	60.788975
680.000000	60.716220
679.000000	60.664153
678.000000	60.585087
677.000000	60.499303
676.000000	60.456915
675.000000	60.392483
674.000000	60.314127
673.000000	60.320759
672.000000	60.247216
671.000000	60.222238
670.000000	60.183931
669.000000	60.053141
668.000000	59.983424
667.000000	59.905758
666.000000	59.858805
665.000000	59.796137
664.000000	59.743789
663.000000	59.645056
662.000000	59.575870
661.000000	59.524078
660.000000	59.463739
659.000000	59.412963
658.000000	59.354176
657.000000	59.307856
656.000000	59.198645
655.000000	59.143384
654.000000	59.086152
653.000000	59.018032
652.000000	58.975593
651.000000	58.829954
650.000000	58.684556
649.000000	58.649173
648.000000	58.724355
647.000000	58.572879
646.000000	58.501844
645.000000	58.444986
644.000000	58.349524
643.000000	58.293407
642.000000	58.206811
641.000000	58.156758
640.000000	58.094593
639.000000	58.010085
638.000000	57.932453
637.000000	57.905433
636.000000	57.836921
635.000000	57.764338
634.000000	57.635088
633.000000	57.598780
632.000000	57.518097
631.000000	57.381360
630.000000	57.344314
629.000000	57.231066
628.000000	57.171519
627.000000	57.124736
626.000000	57.003025
625.000000	56.986955
624.000000	56.844257
623.000000	56.877606
622.000000	56.746732
621.000000	56.656546
620.000000	56.583141
619.000000	56.454189
618.000000	56.397413
617.000000	56.346369
616.000000	56.251446
615.000000	56.109793
614.000000	56.043796
613.000000	55.991173
612.000000	55.906949
611.000000	55.790794
610.000000	55.650811
609.000000	55.668170
608.000000	55.509529
607.000000	55.452650
606.000000	55.338774
605.000000	55.292779
604.000000	55.218125
603.000000	55.140128
602.000000	55.027976
601.000000	54.946616
600.000000	54.822060
599.000000	54.706625
598.000000	54.666515
597.000000	54.549382
596.000000	54.499841
595.000000	54.372116
594.000000	54.231056
593.000000	54.221249
592.000000	54.069304
591.000000	53.983437
590.000000	53.902730
589.000000	53.775406
588.000000	53.686699
587.000000	53.691325
586.000000	53.414286
585.000000	53.329417
584.000000	53.280045
583.000000	53.169206
582.000000	53.106801
581.000000	52.997069
580.000000	52.856730
579.000000	52.777923
578.000000	52.615683
577.000000	52.525110
576.000000	52.455670
575.000000	52.380332
574.000000	52.212112
573.000000	52.163193
572.000000	51.979374
571.000000	51.915720
570.000000	51.812662
569.000000	51.666269
568.000000	51.545027
567.000000	51.445805
566.000000	51.326012
565.000000	51.221116
564.000000	51.067557
563.000000	50.945337
562.000000	50.839617
561.000000	50.808834
560.000000	50.605633
559.000000	50.496200
558.000000	50.386712
557.000000	50.275127
556.000000	50.143280
555.000000	50.032357
554.000000	49.861567
553.000000	49.809258
552.000000	49.631776
551.000000	49.520029
550.000000	49.372804
549.000000	49.252399
548.000000	49.088802
547.000000	48.996700
546.000000	48.838983
545.000000	48.731591
544.000000	48.606406
543.000000	48.430945
542.000000	48.297206
541.000000	48.172380
540.000000	48.012807
539.000000	47.905242
538.000000	47.783199
537.000000	47.657334
536.000000	47.506802
535.000000	47.393609
534.000000	47.211622
533.000000	47.107301
532.000000	46.943212
531.000000	46.831713
530.000000	46.651818
529.000000	46.562063
528.000000	46.383082
527.000000	46.224663
526.000000	46.108712
525.000000	45.974727
524.000000	45.841751
523.000000	45.697345
522.000000	45.523790
521.000000	45.388781
520.000000	45.282943
519.000000	45.121247
518.000000	44.978873
517.000000	44.815023
516.000000	44.679201
515.000000	44.556675
514.000000	44.414917
513.000000	44.231765
512.000000	44.091491
511.000000	43.948816
510.000000	43.824847
509.000000	43.688413
508.000000	43.522094
507.000000	43.366333
506.000000	43.201379
505.000000	43.053321
504.000000	42.926061
503.000000	42.787786
502.000000	42.648406
501.000000	42.483160
500.000000	42.306068
499.000000	42.176767
498.000000	42.015003
497.000000	41.852661
496.000000	41.704540
495.000000	41.557082
494.000000	41.351150
493.000000	41.181854
492.000000	41.008823
491.000000	40.928600
490.000000	40.793295
489.000000	40.576066
488.000000	40.403376
487.000000	40.310505
486.000000	40.157120
485.000000	39.951612
484.000000	39.767540
483.000000	39.650267
482.000000	39.527108
481.000000	39.327246
480.000000	39.210528
479.000000	39.087479
478.000000	38.923388
477.000000	38.802921
476.000000	38.661790
475.000000	38.497993
474.000000	38.346659
473.000000	38.188013
472.000000	38.033790
471.000000	37.893695
470.000000	37.764422
469.000000	37.602928
468.000000	37.435199
467.000000	37.289090
466.000000	37.133788
465.000000	36.965739
464.000000	36.809792
463.000000	36.676207
462.000000	36.521385
461.000000	36.339770
460.000000	36.170323
459.000000	36.053568
458.000000	35.877417
457.000000	35.669836
456.000000	35.521572
455.000000	35.338389
454.000000	35.124407
453.000000	34.956110
452.000000	34.811591
451.000000	34.631275
450.000000	34.425352
449.000000	34.244244
448.000000	34.063925
447.000000	33.881787
446.000000	33.668321
445.000000	33.488575
444.000000	33.321129
443.000000	33.138516
442.000000	32.953605
441.000000	32.770069
440.000000	32.576833
439.000000	32.373742
438.000000	32.164620
437.000000	31.995789
436.000000	31.800932
435.000000	31.595146
434.000000	31.416078
433.000000	31.204709
432.000000	31.017691
431.000000	30.810354
430.000000	30.611895
429.000000	30.426091
428.000000	30.204524
427.000000	29.982617
426.000000	29.826825
425.000000	29.633421
424.000000	29.423476
423.000000	29.199995
422.000000	29.018799
421.000000	28.860363
420.000000	28.617995
419.000000	28.386611
418.000000	28.212100
417.000000	28.026374
416.000000	27.826682
415.000000	27.613942
414.000000	27.422026
413.000000	27.242402
412.000000	27.065684
411.000000	26.823153
410.000000	26.622692
409.000000	26.421430
408.000000	26.197386
407.000000	26.025355
406.000000	25.814645
405.000000	25.646384
404.000000	25.480994
403.000000	25.283603
402.000000	25.062143
401.000000	24.868242
400.000000	24.706858
399.000000	24.480626
398.000000	24.322839
397.000000	24.155380
396.000000	23.954895
395.000000	23.765708
394.000000	23.593118
393.000000	23.428236
392.000000	23.225617
391.000000	23.041018
390.000000	22.882123
389.000000	22.630410
388.000000	22.484065
387.000000	22.305518
386.000000	22.108665
385.000000	21.943206
384.000000	21.776444
383.000000	21.553077
382.000000	21.357879
381.000000	21.173949
380.000000	21.014274
379.000000	20.835200
378.000000	20.539382
377.000000	20.397102
376.000000	20.126284
375.000000	20.008397
374.000000	19.863299
373.000000	19.734026
372.000000	19.547854
371.000000	19.294861
370.000000	19.135491
369.000000	19.037777
368.000000	18.835376
367.000000	18.659371
366.000000	18.495649
365.000000	18.328813
364.000000	18.202453
363.000000	18.004757
362.000000	17.942890
361.000000	17.771866
360.000000	17.523538
359.000000	17.439397
358.000000	17.323871
357.000000	17.136719
356.000000	17.133266
355.000000	16.862588
354.000000	16.852280
353.000000	16.666206
352.000000	16.537247
351.000000	16.306986
350.000000	16.303840
349.000000	16.168829
348.000000	16.044141
347.000000	15.850867
346.000000	15.797857
345.000000	15.718466
344.000000	15.491118
343.000000	15.453783
342.000000	15.275428
341.000000	15.258072
340.000000	15.097358
339.000000	14.928104
338.000000	14.821552
337.000000	14.754671
336.000000	14.741448
335.000000	14.506202
334.000000	14.408366
333.000000	14.213772
332.000000	14.109388
331.000000	14.131401
330.000000	13.941493
329.000000	13.865155
328.000000	13.775046
327.000000	13.768464
326.000000	13.663450
325.000000	13.553040
324.000000	13.418779
323.000000	13.431230
322.000000	13.285508
321.000000	13.231548
320.000000	13.215765
319.000000	13.204855
318.000000	13.132455
317.000000	13.033266
316.000000	12.938767
315.000000	12.940513
314.000000	12.849008
313.000000	12.782357
312.000000	12.710315
311.000000	12.672624
310.000000	12.603185
309.000000	12.549892
308.000000	12.581985
307.000000	12.531649
306.000000	12.459051
305.000000	12.377003
304.000000	12.299109
303.000000	12.290748
302.000000	12.245012
301.000000	12.234910
300.000000	12.193222
299.000000	12.080731
298.000000	12.034676
297.000000	12.001998
296.000000	11.929636
295.000000	11.811741
294.000000	11.745259
293.000000	11.661809
292.000000	11.602624
291.000000	11.504960
290.000000	11.426475
289.000000	11.321875
288.000000	11.230022
287.000000	11.151587
286.000000	11.134097
285.000000	11.123774
284.000000	11.053418
283.000000	11.038161
282.000000	11.019597
281.000000	11.040478
280.000000	11.057843
279.000000	10.983002
278.000000	11.020981
277.000000	11.074221
276.000000	11.169543
275.000000	11.213697
274.000000	11.180651
273.000000	11.233805
272.000000	11.343730
271.000000	11.404562
270.000000	11.377753
269.000000	11.476117
268.000000	11.524491
267.000000	11.635014
266.000000	11.666911
265.000000	11.737237
264.000000	11.864875
263.000000	11.972877
262.000000	12.046346
261.000000	12.101148
260.000000	12.305069
259.000000	12.420529
258.000000	12.465860
257.000000	12.622372
256.000000	12.730114
255.000000	12.888160
254.000000	12.977925
253.000000	13.125517
252.000000	13.293399
251.000000	13.460777
250.000000	13.595160
249.000000	13.636783
248.000000	13.757756
247.000000	13.813884
246.000000	13.834464
245.000000	13.854434
244.000000	13.752824
243.000000	13.609754
242.000000	13.520736
241.000000	13.396114
240.000000	13.191405
239.000000	12.998016
238.000000	12.788790
237.000000	12.548278
236.000000	12.280341
235.000000	12.074762
234.000000	11.971931
233.000000	11.849165
232.000000	11.652694
231.000000	11.430641
230.000000	11.252555
229.000000	11.138358
228.000000	11.003122
227.000000	10.981552
226.000000	11.020599
225.000000	10.945598
224.000000	10.881537
223.000000	10.837657
222.000000	10.826838
221.000000	10.911526
220.000000	11.039534
219.000000	11.139860
218.000000	11.180318
217.000000	11.185128
216.000000	11.249195
215.000000	11.411070
214.000000	11.617385
213.000000	11.795552
212.000000	11.923969
211.000000	12.081116
210.000000	12.284038
209.000000	12.456942
208.000000	12.670792
207.000000	13.003539
206.000000	13.268920
205.000000	13.520710
204.000000	13.940995
203.000000	14.349102
202.000000	14.811898
201.000000	15.279937
200.000000	15.546829
