PE UV       SUBTECH     SPECTRUM    ASCII       PEDS        4.00        
   -1
RDmsopph202.Sample.asc
18/03/21
10:50:13.00
18/03/21
10:50:13.00
Administrator

200.000000
1
Lambda 750
750N8071901
PerkinElmer UV WinLab 6.0.4.0738 / 1.61.00 Lambda 900

0
0
3350/servo 860.8/2
0
0
UV/VIS
1
1
1
CommonBeamDepol,150mm sphere / downward view
0
0
0
0
Program
Program
3350/servo 860.8/2
3350/0.2 860.8/0.2
3350/0.2 860.8/0.2
0
1
 
 
 
0
 
860.8
319.2
860.8
Front
100
on
 
 
0
0
0
 
0
 
 
 
0
 
 
0
0
0
0
0
 
 
 
 
0
0


0
0
#HDR
-1
-1
#GR
nm
%R
1.0
0.0
2350.000000
-1.000000
2151
8
62.751303
8.702626
#DATA
2350.000000	29.583377
2349.000000	29.946076
2348.000000	29.735295
2347.000000	30.531071
2346.000000	30.471074
2345.000000	30.116107
2344.000000	30.303874
2343.000000	29.816311
2342.000000	30.456591
2341.000000	30.079692
2340.000000	30.197802
2339.000000	30.481068
2338.000000	30.793938
2337.000000	30.468432
2336.000000	30.577516
2335.000000	30.769862
2334.000000	30.696217
2333.000000	30.929975
2332.000000	31.337862
2331.000000	30.803421
2330.000000	30.426270
2329.000000	30.514295
2328.000000	30.613263
2327.000000	30.570155
2326.000000	30.843458
2325.000000	30.878850
2324.000000	30.667683
2323.000000	30.377919
2322.000000	30.492466
2321.000000	30.474631
2320.000000	30.639026
2319.000000	30.471224
2318.000000	30.644663
2317.000000	30.520383
2316.000000	30.491136
2315.000000	30.179496
2314.000000	30.047371
2313.000000	30.079923
2312.000000	29.687484
2311.000000	29.848176
2310.000000	29.787660
2309.000000	29.885348
2308.000000	29.748889
2307.000000	29.704492
2306.000000	29.596199
2305.000000	29.617520
2304.000000	29.693530
2303.000000	29.546143
2302.000000	29.610679
2301.000000	29.507302
2300.000000	29.279887
2299.000000	28.953958
2298.000000	29.010674
2297.000000	28.967040
2296.000000	28.859370
2295.000000	28.830579
2294.000000	28.809896
2293.000000	28.678172
2292.000000	28.624244
2291.000000	28.734442
2290.000000	28.663709
2289.000000	28.645308
2288.000000	28.626789
2287.000000	28.618444
2286.000000	28.493360
2285.000000	28.448866
2284.000000	28.452294
2283.000000	28.361312
2282.000000	28.276383
2281.000000	28.312613
2280.000000	28.454321
2279.000000	28.576507
2278.000000	28.560121
2277.000000	28.547130
2276.000000	28.712391
2275.000000	28.611565
2274.000000	28.560419
2273.000000	28.744035
2272.000000	28.809713
2271.000000	28.720370
2270.000000	28.640303
2269.000000	28.690169
2268.000000	28.850823
2267.000000	28.957045
2266.000000	28.969292
2265.000000	28.825076
2264.000000	28.996887
2263.000000	29.193648
2262.000000	29.371683
2261.000000	29.534725
2260.000000	29.519682
2259.000000	29.682811
2258.000000	29.888759
2257.000000	30.132434
2256.000000	30.319965
2255.000000	30.363124
2254.000000	30.526822
2253.000000	30.627127
2252.000000	30.741075
2251.000000	30.921296
2250.000000	31.170047
2249.000000	31.464303
2248.000000	31.617760
2247.000000	31.877635
2246.000000	32.140164
2245.000000	32.280224
2244.000000	32.337387
2243.000000	32.438148
2242.000000	32.638642
2241.000000	32.744269
2240.000000	32.852487
2239.000000	32.982697
2238.000000	33.069426
2237.000000	33.204152
2236.000000	33.275261
2235.000000	33.327747
2234.000000	33.471791
2233.000000	33.548433
2232.000000	33.572717
2231.000000	33.600065
2230.000000	33.550663
2229.000000	33.675161
2228.000000	33.781838
2227.000000	33.811179
2226.000000	33.787397
2225.000000	33.747529
2224.000000	33.516855
2223.000000	33.472088
2222.000000	33.647501
2221.000000	33.632249
2220.000000	33.657451
2219.000000	33.628243
2218.000000	33.644915
2217.000000	33.604963
2216.000000	33.481747
2215.000000	33.403779
2214.000000	33.474920
2213.000000	33.518305
2212.000000	33.474304
2211.000000	33.310300
2210.000000	33.202395
2209.000000	33.144129
2208.000000	33.148895
2207.000000	33.181302
2206.000000	33.088325
2205.000000	32.967618
2204.000000	33.001675
2203.000000	32.908936
2202.000000	32.803755
2201.000000	32.854090
2200.000000	32.676380
2199.000000	32.673239
2198.000000	32.574361
2197.000000	32.493253
2196.000000	32.490286
2195.000000	32.366930
2194.000000	32.277586
2193.000000	32.146392
2192.000000	32.118494
2191.000000	31.922780
2190.000000	31.944020
2189.000000	31.945092
2188.000000	31.950186
2187.000000	31.891498
2186.000000	31.864729
2185.000000	31.868397
2184.000000	31.808351
2183.000000	31.842322
2182.000000	31.694371
2181.000000	31.574486
2180.000000	31.504146
2179.000000	31.570072
2178.000000	31.613629
2177.000000	31.570284
2176.000000	31.592978
2175.000000	31.569700
2174.000000	31.590339
2173.000000	31.633602
2172.000000	31.634723
2171.000000	31.802695
2170.000000	31.977557
2169.000000	31.982728
2168.000000	32.018789
2167.000000	32.005017
2166.000000	32.088006
2165.000000	32.121680
2164.000000	32.201458
2163.000000	32.452170
2162.000000	32.558966
2161.000000	32.515008
2160.000000	32.689800
2159.000000	32.867516
2158.000000	32.993647
2157.000000	32.918541
2156.000000	33.105187
2155.000000	33.174655
2154.000000	33.322494
2153.000000	33.637642
2152.000000	33.709458
2151.000000	33.755489
2150.000000	33.991813
2149.000000	34.135833
2148.000000	34.133762
2147.000000	34.322018
2146.000000	34.400761
2145.000000	34.564838
2144.000000	34.699119
2143.000000	34.716892
2142.000000	34.828464
2141.000000	35.128168
2140.000000	35.093082
2139.000000	35.210525
2138.000000	35.479979
2137.000000	35.456703
2136.000000	35.605576
2135.000000	35.651646
2134.000000	35.645858
2133.000000	35.904154
2132.000000	35.992160
2131.000000	36.218137
2130.000000	36.074009
2129.000000	36.081538
2128.000000	36.107677
2127.000000	36.136429
2126.000000	36.136116
2125.000000	36.446485
2124.000000	36.506259
2123.000000	36.517978
2122.000000	36.661779
2121.000000	36.666545
2120.000000	36.548867
2119.000000	36.575950
2118.000000	36.670321
2117.000000	36.637695
2116.000000	36.702628
2115.000000	36.682173
2114.000000	36.822452
2113.000000	36.766567
2112.000000	36.749602
2111.000000	36.855554
2110.000000	36.902888
2109.000000	37.005351
2108.000000	37.030782
2107.000000	37.068806
2106.000000	37.086507
2105.000000	36.869646
2104.000000	36.877110
2103.000000	37.055567
2102.000000	37.021043
2101.000000	37.007206
2100.000000	37.157952
2099.000000	37.012670
2098.000000	36.992151
2097.000000	37.038979
2096.000000	37.049119
2095.000000	37.129354
2094.000000	37.078276
2093.000000	36.963706
2092.000000	37.000049
2091.000000	36.988797
2090.000000	36.874924
2089.000000	36.978059
2088.000000	36.794242
2087.000000	36.855693
2086.000000	36.920075
2085.000000	36.823358
2084.000000	36.755957
2083.000000	36.832719
2082.000000	36.719982
2081.000000	36.679818
2080.000000	36.675009
2079.000000	36.579977
2078.000000	36.438281
2077.000000	36.405364
2076.000000	36.391390
2075.000000	36.392288
2074.000000	36.211155
2073.000000	36.106092
2072.000000	35.988270
2071.000000	35.919026
2070.000000	35.787085
2069.000000	35.596988
2068.000000	35.504159
2067.000000	35.416107
2066.000000	35.296860
2065.000000	35.203514
2064.000000	34.997058
2063.000000	34.790333
2062.000000	34.769738
2061.000000	34.586183
2060.000000	34.461360
2059.000000	34.409589
2058.000000	34.275693
2057.000000	34.131984
2056.000000	33.962325
2055.000000	33.847873
2054.000000	33.731914
2053.000000	33.619622
2052.000000	33.528028
2051.000000	33.381796
2050.000000	33.302180
2049.000000	33.189346
2048.000000	33.092613
2047.000000	33.136723
2046.000000	33.071426
2045.000000	32.970311
2044.000000	32.911798
2043.000000	32.863732
2042.000000	32.866773
2041.000000	32.924538
2040.000000	32.948182
2039.000000	32.929306
2038.000000	33.007184
2037.000000	33.064181
2036.000000	33.073064
2035.000000	33.161450
2034.000000	33.290551
2033.000000	33.333435
2032.000000	33.408902
2031.000000	33.515376
2030.000000	33.615714
2029.000000	33.709627
2028.000000	33.831269
2027.000000	33.928330
2026.000000	34.010851
2025.000000	34.093212
2024.000000	34.150088
2023.000000	34.236180
2022.000000	34.309935
2021.000000	34.290846
2020.000000	34.363198
2019.000000	34.420893
2018.000000	34.422117
2017.000000	34.452566
2016.000000	34.447909
2015.000000	34.417309
2014.000000	34.378797
2013.000000	34.384197
2012.000000	34.365841
2011.000000	34.345074
2010.000000	34.305198
2009.000000	34.236631
2008.000000	34.157898
2007.000000	34.077967
2006.000000	34.044676
2005.000000	33.975246
2004.000000	33.814007
2003.000000	33.716761
2002.000000	33.703457
2001.000000	33.611174
2000.000000	33.516828
1999.000000	33.415492
1998.000000	33.299610
1997.000000	33.259057
1996.000000	33.203381
1995.000000	33.113013
1994.000000	32.993097
1993.000000	32.889858
1992.000000	32.797294
1991.000000	32.705120
1990.000000	32.619331
1989.000000	32.496659
1988.000000	32.364401
1987.000000	32.285969
1986.000000	32.197198
1985.000000	32.117549
1984.000000	32.077190
1983.000000	31.964468
1982.000000	31.873515
1981.000000	31.789369
1980.000000	31.684785
1979.000000	31.601988
1978.000000	31.486629
1977.000000	31.401059
1976.000000	31.307009
1975.000000	31.240347
1974.000000	31.113113
1973.000000	30.991749
1972.000000	30.934945
1971.000000	30.863364
1970.000000	30.770679
1969.000000	30.718775
1968.000000	30.578688
1967.000000	30.504932
1966.000000	30.453776
1965.000000	30.368035
1964.000000	30.279907
1963.000000	30.206125
1962.000000	30.138076
1961.000000	29.985238
1960.000000	29.933791
1959.000000	29.880010
1958.000000	29.832972
1957.000000	29.718169
1956.000000	29.673420
1955.000000	29.578956
1954.000000	29.526976
1953.000000	29.497237
1952.000000	29.437414
1951.000000	29.461635
1950.000000	29.345790
1949.000000	29.288678
1948.000000	29.339819
1947.000000	29.260205
1946.000000	29.278690
1945.000000	29.237437
1944.000000	29.200605
1943.000000	29.272617
1942.000000	29.315007
1941.000000	29.290434
1940.000000	29.366294
1939.000000	29.365868
1938.000000	29.409112
1937.000000	29.448191
1936.000000	29.680829
1935.000000	29.711524
1934.000000	29.789967
1933.000000	29.882615
1932.000000	30.017473
1931.000000	30.138226
1930.000000	30.292933
1929.000000	30.477514
1928.000000	30.686254
1927.000000	30.749691
1926.000000	30.936202
1925.000000	31.198431
1924.000000	31.409973
1923.000000	31.666525
1922.000000	31.865998
1921.000000	32.109682
1920.000000	32.366111
1919.000000	32.643657
1918.000000	32.957408
1917.000000	33.222093
1916.000000	33.471806
1915.000000	33.886387
1914.000000	34.115132
1913.000000	34.519579
1912.000000	34.788420
1911.000000	35.204731
1910.000000	35.579922
1909.000000	35.862452
1908.000000	36.338453
1907.000000	36.705355
1906.000000	37.128423
1905.000000	37.553414
1904.000000	38.015672
1903.000000	38.455770
1902.000000	38.981320
1901.000000	39.477691
1900.000000	39.957076
1899.000000	40.430115
1898.000000	40.941303
1897.000000	41.470095
1896.000000	41.847017
1895.000000	42.397611
1894.000000	42.852757
1893.000000	43.282921
1892.000000	43.853218
1891.000000	44.266515
1890.000000	44.722281
1889.000000	45.133861
1888.000000	45.551765
1887.000000	46.018759
1886.000000	46.361765
1885.000000	46.732569
1884.000000	47.188543
1883.000000	47.536728
1882.000000	47.928260
1881.000000	48.233428
1880.000000	48.601465
1879.000000	48.849288
1878.000000	49.214437
1877.000000	49.549327
1876.000000	49.792473
1875.000000	50.035218
1874.000000	50.301142
1873.000000	50.528373
1872.000000	50.736705
1871.000000	50.934587
1870.000000	51.099605
1869.000000	51.322607
1868.000000	51.487579
1867.000000	51.535143
1866.000000	51.630678
1865.000000	51.766142
1864.000000	51.884778
1863.000000	51.990698
1862.000000	52.053217
1861.000000	52.104014
1860.000000	52.165035
1859.000000	52.202285
1858.000000	52.267165
1857.000000	52.371764
1856.000000	52.396810
1855.000000	52.406201
1854.000000	52.470528
1853.000000	52.508665
1852.000000	52.489417
1851.000000	52.502480
1850.000000	52.566524
1849.000000	52.539419
1848.000000	52.521471
1847.000000	52.521081
1846.000000	52.495897
1845.000000	52.493472
1844.000000	52.438001
1843.000000	52.436881
1842.000000	52.442611
1841.000000	52.406091
1840.000000	52.399780
1839.000000	52.363539
1838.000000	52.345589
1837.000000	52.280975
1836.000000	52.222639
1835.000000	52.184983
1834.000000	52.108745
1833.000000	52.062942
1832.000000	52.037347
1831.000000	51.974941
1830.000000	51.960979
1829.000000	51.954026
1828.000000	51.885110
1827.000000	51.858993
1826.000000	51.825896
1825.000000	51.753428
1824.000000	51.712887
1823.000000	51.688692
1822.000000	51.661342
1821.000000	51.627642
1820.000000	51.564364
1819.000000	51.497320
1818.000000	51.491719
1817.000000	51.444512
1816.000000	51.394143
1815.000000	51.360286
1814.000000	51.318486
1813.000000	51.307140
1812.000000	51.268982
1811.000000	51.215783
1810.000000	51.190996
1809.000000	51.171626
1808.000000	51.143439
1807.000000	51.075698
1806.000000	51.035935
1805.000000	51.011898
1804.000000	50.964195
1803.000000	50.917901
1802.000000	50.888359
1801.000000	50.878879
1800.000000	50.854606
1799.000000	50.815202
1798.000000	50.787976
1797.000000	50.772652
1796.000000	50.731450
1795.000000	50.690641
1794.000000	50.670318
1793.000000	50.645349
1792.000000	50.621349
1791.000000	50.589119
1790.000000	50.543452
1789.000000	50.512928
1788.000000	50.487151
1787.000000	50.439376
1786.000000	50.440062
1785.000000	50.447528
1784.000000	50.397684
1783.000000	50.351335
1782.000000	50.332358
1781.000000	50.294471
1780.000000	50.256285
1779.000000	50.205855
1778.000000	50.166051
1777.000000	50.103101
1776.000000	50.080156
1775.000000	50.013798
1774.000000	49.920534
1773.000000	49.875876
1772.000000	49.829963
1771.000000	49.772919
1770.000000	49.721226
1769.000000	49.678243
1768.000000	49.619641
1767.000000	49.573059
1766.000000	49.524015
1765.000000	49.472293
1764.000000	49.409442
1763.000000	49.333260
1762.000000	49.279320
1761.000000	49.240818
1760.000000	49.161325
1759.000000	49.122929
1758.000000	49.062259
1757.000000	49.004451
1756.000000	48.950977
1755.000000	48.910777
1754.000000	48.841566
1753.000000	48.779420
1752.000000	48.752202
1751.000000	48.711431
1750.000000	48.643035
1749.000000	48.615633
1748.000000	48.531702
1747.000000	48.456958
1746.000000	48.395076
1745.000000	48.312221
1744.000000	48.278674
1743.000000	48.245693
1742.000000	48.140007
1741.000000	48.110102
1740.000000	48.063527
1739.000000	48.001490
1738.000000	47.925740
1737.000000	47.907085
1736.000000	47.929689
1735.000000	47.870041
1734.000000	47.850142
1733.000000	47.838321
1732.000000	47.859898
1731.000000	47.861331
1730.000000	47.859292
1729.000000	47.887794
1728.000000	47.976343
1727.000000	47.988075
1726.000000	48.079929
1725.000000	48.151885
1724.000000	48.186838
1723.000000	48.295793
1722.000000	48.394763
1721.000000	48.516102
1720.000000	48.599228
1719.000000	48.729778
1718.000000	48.774836
1717.000000	48.905581
1716.000000	49.020255
1715.000000	49.062436
1714.000000	49.171414
1713.000000	49.276707
1712.000000	49.342655
1711.000000	49.437773
1710.000000	49.448234
1709.000000	49.518353
1708.000000	49.582631
1707.000000	49.637359
1706.000000	49.649741
1705.000000	49.708961
1704.000000	49.736286
1703.000000	49.742934
1702.000000	49.748225
1701.000000	49.757409
1700.000000	49.827561
1699.000000	49.796040
1698.000000	49.857804
1697.000000	49.862964
1696.000000	49.885990
1695.000000	49.885059
1694.000000	49.906319
1693.000000	49.998626
1692.000000	50.004479
1691.000000	50.101502
1690.000000	50.191472
1689.000000	50.244460
1688.000000	50.344477
1687.000000	50.436619
1686.000000	50.568584
1685.000000	50.684395
1684.000000	50.845323
1683.000000	51.015338
1682.000000	51.183630
1681.000000	51.335265
1680.000000	51.456210
1679.000000	51.665791
1678.000000	51.849473
1677.000000	52.021742
1676.000000	52.192807
1675.000000	52.395652
1674.000000	52.570916
1673.000000	52.748401
1672.000000	52.910164
1671.000000	53.075610
1670.000000	53.235437
1669.000000	53.428874
1668.000000	53.580089
1667.000000	53.712347
1666.000000	53.806022
1665.000000	53.908916
1664.000000	54.001088
1663.000000	54.086725
1662.000000	54.182753
1661.000000	54.275171
1660.000000	54.337011
1659.000000	54.398551
1658.000000	54.447737
1657.000000	54.487954
1656.000000	54.559213
1655.000000	54.565877
1654.000000	54.586229
1653.000000	54.608331
1652.000000	54.612716
1651.000000	54.604186
1650.000000	54.618256
1649.000000	54.619814
1648.000000	54.581420
1647.000000	54.616302
1646.000000	54.585378
1645.000000	54.582160
1644.000000	54.579147
1643.000000	54.550578
1642.000000	54.544927
1641.000000	54.515475
1640.000000	54.476404
1639.000000	54.428481
1638.000000	54.397776
1637.000000	54.373718
1636.000000	54.331412
1635.000000	54.275307
1634.000000	54.253588
1633.000000	54.193413
1632.000000	54.151796
1631.000000	54.122377
1630.000000	54.081995
1629.000000	54.045097
1628.000000	53.990105
1627.000000	53.949549
1626.000000	53.885963
1625.000000	53.853494
1624.000000	53.798389
1623.000000	53.740698
1622.000000	53.710897
1621.000000	53.636398
1620.000000	53.572646
1619.000000	53.528621
1618.000000	53.453555
1617.000000	53.408961
1616.000000	53.354471
1615.000000	53.274932
1614.000000	53.209204
1613.000000	53.152393
1612.000000	53.089893
1611.000000	53.029369
1610.000000	52.977860
1609.000000	52.900319
1608.000000	52.824472
1607.000000	52.749200
1606.000000	52.682486
1605.000000	52.632521
1604.000000	52.559035
1603.000000	52.470599
1602.000000	52.401646
1601.000000	52.343995
1600.000000	52.272008
1599.000000	52.192669
1598.000000	52.121666
1597.000000	52.060308
1596.000000	52.007697
1595.000000	51.951682
1594.000000	51.900206
1593.000000	51.848488
1592.000000	51.778232
1591.000000	51.707625
1590.000000	51.662425
1589.000000	51.610403
1588.000000	51.569032
1587.000000	51.525841
1586.000000	51.463672
1585.000000	51.416324
1584.000000	51.360332
1583.000000	51.308958
1582.000000	51.240560
1581.000000	51.186852
1580.000000	51.151706
1579.000000	51.120716
1578.000000	51.091930
1577.000000	51.044122
1576.000000	50.969983
1575.000000	50.921700
1574.000000	50.869444
1573.000000	50.815177
1572.000000	50.773280
1571.000000	50.728306
1570.000000	50.694748
1569.000000	50.652354
1568.000000	50.587054
1567.000000	50.551300
1566.000000	50.522786
1565.000000	50.486187
1564.000000	50.454732
1563.000000	50.428734
1562.000000	50.386903
1561.000000	50.356694
1560.000000	50.358506
1559.000000	50.310715
1558.000000	50.306557
1557.000000	50.284406
1556.000000	50.252678
1555.000000	50.250299
1554.000000	50.225701
1553.000000	50.192259
1552.000000	50.143359
1551.000000	50.106599
1550.000000	50.099038
1549.000000	50.046878
1548.000000	50.007778
1547.000000	49.947584
1546.000000	49.882002
1545.000000	49.830226
1544.000000	49.742684
1543.000000	49.675388
1542.000000	49.599083
1541.000000	49.522440
1540.000000	49.445269
1539.000000	49.359193
1538.000000	49.273096
1537.000000	49.161839
1536.000000	49.081311
1535.000000	49.007122
1534.000000	48.908646
1533.000000	48.803105
1532.000000	48.717177
1531.000000	48.618970
1530.000000	48.552570
1529.000000	48.452212
1528.000000	48.383675
1527.000000	48.304010
1526.000000	48.236678
1525.000000	48.176507
1524.000000	48.132608
1523.000000	48.068019
1522.000000	47.998206
1521.000000	47.958514
1520.000000	47.905964
1519.000000	47.849875
1518.000000	47.814860
1517.000000	47.787036
1516.000000	47.747389
1515.000000	47.708788
1514.000000	47.679785
1513.000000	47.655610
1512.000000	47.621353
1511.000000	47.584169
1510.000000	47.565791
1509.000000	47.555490
1508.000000	47.538652
1507.000000	47.528892
1506.000000	47.492201
1505.000000	47.489126
1504.000000	47.480458
1503.000000	47.482653
1502.000000	47.453828
1501.000000	47.459867
1500.000000	47.452454
1499.000000	47.442107
1498.000000	47.443984
1497.000000	47.466141
1496.000000	47.474051
1495.000000	47.482521
1494.000000	47.518673
1493.000000	47.529845
1492.000000	47.543263
1491.000000	47.553461
1490.000000	47.605737
1489.000000	47.634923
1488.000000	47.707329
1487.000000	47.718992
1486.000000	47.754494
1485.000000	47.813886
1484.000000	47.837938
1483.000000	47.914433
1482.000000	47.923616
1481.000000	47.981363
1480.000000	48.072409
1479.000000	48.085957
1478.000000	48.145087
1477.000000	48.205234
1476.000000	48.226324
1475.000000	48.293679
1474.000000	48.355875
1473.000000	48.404150
1472.000000	48.436264
1471.000000	48.514751
1470.000000	48.562538
1469.000000	48.610974
1468.000000	48.665214
1467.000000	48.702466
1466.000000	48.738898
1465.000000	48.783682
1464.000000	48.813581
1463.000000	48.869605
1462.000000	48.911209
1461.000000	48.955631
1460.000000	48.989912
1459.000000	49.035772
1458.000000	49.109701
1457.000000	49.150626
1456.000000	49.207292
1455.000000	49.258787
1454.000000	49.320244
1453.000000	49.411093
1452.000000	49.472873
1451.000000	49.516258
1450.000000	49.601011
1449.000000	49.667276
1448.000000	49.742128
1447.000000	49.804046
1446.000000	49.858993
1445.000000	49.941239
1444.000000	50.035888
1443.000000	50.112904
1442.000000	50.183861
1441.000000	50.270496
1440.000000	50.368662
1439.000000	50.465511
1438.000000	50.559043
1437.000000	50.658529
1436.000000	50.772137
1435.000000	50.879040
1434.000000	50.977390
1433.000000	51.096732
1432.000000	51.229670
1431.000000	51.343887
1430.000000	51.467609
1429.000000	51.598794
1428.000000	51.726090
1427.000000	51.884550
1426.000000	52.015623
1425.000000	52.172380
1424.000000	52.321527
1423.000000	52.478388
1422.000000	52.639647
1421.000000	52.814189
1420.000000	52.980684
1419.000000	53.146796
1418.000000	53.326454
1417.000000	53.507343
1416.000000	53.692208
1415.000000	53.880213
1414.000000	54.069716
1413.000000	54.246650
1412.000000	54.462734
1411.000000	54.652281
1410.000000	54.836049
1409.000000	55.032047
1408.000000	55.206991
1407.000000	55.403723
1406.000000	55.602088
1405.000000	55.781264
1404.000000	55.947626
1403.000000	56.126085
1402.000000	56.301902
1401.000000	56.474867
1400.000000	56.644946
1399.000000	56.836051
1398.000000	57.005169
1397.000000	57.146752
1396.000000	57.290577
1395.000000	57.456052
1394.000000	57.614992
1393.000000	57.752542
1392.000000	57.891622
1391.000000	58.029291
1390.000000	58.155238
1389.000000	58.268494
1388.000000	58.380520
1387.000000	58.512505
1386.000000	58.630482
1385.000000	58.738858
1384.000000	58.843085
1383.000000	58.928991
1382.000000	59.019174
1381.000000	59.106628
1380.000000	59.192837
1379.000000	59.282934
1378.000000	59.351705
1377.000000	59.411527
1376.000000	59.479879
1375.000000	59.553351
1374.000000	59.619212
1373.000000	59.677800
1372.000000	59.721416
1371.000000	59.758260
1370.000000	59.818215
1369.000000	59.879810
1368.000000	59.933079
1367.000000	59.988957
1366.000000	60.026338
1365.000000	60.067465
1364.000000	60.120528
1363.000000	60.158911
1362.000000	60.200896
1361.000000	60.267127
1360.000000	60.321735
1359.000000	60.359768
1358.000000	60.416694
1357.000000	60.467539
1356.000000	60.525102
1355.000000	60.598784
1354.000000	60.654632
1353.000000	60.685562
1352.000000	60.745508
1351.000000	60.810852
1350.000000	60.869371
1349.000000	60.920069
1348.000000	60.968280
1347.000000	61.028738
1346.000000	61.115024
1345.000000	61.159447
1344.000000	61.190508
1343.000000	61.246029
1342.000000	61.302651
1341.000000	61.348931
1340.000000	61.386244
1339.000000	61.428057
1338.000000	61.487619
1337.000000	61.535448
1336.000000	61.568992
1335.000000	61.611670
1334.000000	61.631647
1333.000000	61.656818
1332.000000	61.686132
1331.000000	61.695739
1330.000000	61.733190
1329.000000	61.746583
1328.000000	61.791000
1327.000000	61.848112
1326.000000	61.922309
1325.000000	61.953359
1324.000000	61.967397
1323.000000	61.983677
1322.000000	61.972172
1321.000000	61.968883
1320.000000	61.992011
1319.000000	62.021310
1318.000000	62.039259
1317.000000	62.030209
1316.000000	62.052580
1315.000000	62.050224
1314.000000	62.061782
1313.000000	62.100319
1312.000000	62.121907
1311.000000	62.138589
1310.000000	62.142593
1309.000000	62.123766
1308.000000	62.152314
1307.000000	62.142906
1306.000000	62.153967
1305.000000	62.169080
1304.000000	62.182252
1303.000000	62.201108
1302.000000	62.218985
1301.000000	62.223361
1300.000000	62.227798
1299.000000	62.220145
1298.000000	62.214357
1297.000000	62.218767
1296.000000	62.211630
1295.000000	62.211100
1294.000000	62.213460
1293.000000	62.206287
1292.000000	62.207553
1291.000000	62.189171
1290.000000	62.187812
1289.000000	62.201807
1288.000000	62.181362
1287.000000	62.174964
1286.000000	62.125980
1285.000000	62.113867
1284.000000	62.109037
1283.000000	62.101446
1282.000000	62.107768
1281.000000	62.100661
1280.000000	62.092419
1279.000000	62.091159
1278.000000	62.078671
1277.000000	62.086146
1276.000000	62.068399
1275.000000	62.051609
1274.000000	62.069130
1273.000000	62.037493
1272.000000	62.053298
1271.000000	62.043278
1270.000000	62.030121
1269.000000	62.035235
1268.000000	62.024186
1267.000000	62.032421
1266.000000	62.015541
1265.000000	62.023161
1264.000000	62.042761
1263.000000	62.082794
1262.000000	62.072964
1261.000000	62.070591
1260.000000	62.050694
1259.000000	62.051857
1258.000000	62.061478
1257.000000	62.109068
1256.000000	62.091431
1255.000000	62.095471
1254.000000	62.092700
1253.000000	62.096935
1252.000000	62.069598
1251.000000	62.098478
1250.000000	62.102871
1249.000000	62.082259
1248.000000	62.087360
1247.000000	62.076391
1246.000000	62.057405
1245.000000	62.066844
1244.000000	62.040645
1243.000000	62.018891
1242.000000	61.985200
1241.000000	61.968713
1240.000000	61.948853
1239.000000	61.946998
1238.000000	61.936880
1237.000000	61.882744
1236.000000	61.836558
1235.000000	61.814995
1234.000000	61.794231
1233.000000	61.770758
1232.000000	61.758750
1231.000000	61.723971
1230.000000	61.711247
1229.000000	61.675568
1228.000000	61.633464
1227.000000	61.601608
1226.000000	61.579640
1225.000000	61.564067
1224.000000	61.551942
1223.000000	61.521933
1222.000000	61.491189
1221.000000	61.462974
1220.000000	61.433520
1219.000000	61.393919
1218.000000	61.359506
1217.000000	61.333649
1216.000000	61.293492
1215.000000	61.254276
1214.000000	61.213132
1213.000000	61.193970
1212.000000	61.178962
1211.000000	61.140859
1210.000000	61.108336
1209.000000	61.066744
1208.000000	61.036173
1207.000000	60.992247
1206.000000	60.965327
1205.000000	60.915284
1204.000000	60.896976
1203.000000	60.869952
1202.000000	60.829508
1201.000000	60.799336
1200.000000	60.762590
1199.000000	60.726579
1198.000000	60.694796
1197.000000	60.672282
1196.000000	60.641579
1195.000000	60.607886
1194.000000	60.583819
1193.000000	60.553808
1192.000000	60.536100
1191.000000	60.514377
1190.000000	60.493661
1189.000000	60.463750
1188.000000	60.455184
1187.000000	60.453019
1186.000000	60.435763
1185.000000	60.436557
1184.000000	60.430341
1183.000000	60.423898
1182.000000	60.440161
1181.000000	60.458186
1180.000000	60.475174
1179.000000	60.506815
1178.000000	60.537892
1177.000000	60.557701
1176.000000	60.586157
1175.000000	60.631171
1174.000000	60.684549
1173.000000	60.715454
1172.000000	60.762163
1171.000000	60.822260
1170.000000	60.876556
1169.000000	60.933146
1168.000000	60.990805
1167.000000	61.046779
1166.000000	61.093735
1165.000000	61.151082
1164.000000	61.220331
1163.000000	61.288406
1162.000000	61.344932
1161.000000	61.410226
1160.000000	61.476251
1159.000000	61.533553
1158.000000	61.587521
1157.000000	61.628879
1156.000000	61.675068
1155.000000	61.729179
1154.000000	61.782067
1153.000000	61.838634
1152.000000	61.895966
1151.000000	61.947760
1150.000000	61.993220
1149.000000	62.029974
1148.000000	62.075582
1147.000000	62.110082
1146.000000	62.137551
1145.000000	62.175020
1144.000000	62.211982
1143.000000	62.248301
1142.000000	62.289946
1141.000000	62.330126
1140.000000	62.359086
1139.000000	62.385489
1138.000000	62.402869
1137.000000	62.417971
1136.000000	62.452589
1135.000000	62.496517
1134.000000	62.526435
1133.000000	62.550640
1132.000000	62.565576
1131.000000	62.585822
1130.000000	62.612376
1129.000000	62.630694
1128.000000	62.650404
1127.000000	62.656154
1126.000000	62.669111
1125.000000	62.689888
1124.000000	62.685710
1123.000000	62.695252
1122.000000	62.700437
1121.000000	62.718038
1120.000000	62.721138
1119.000000	62.720822
1118.000000	62.714689
1117.000000	62.713178
1116.000000	62.740629
1115.000000	62.751303
1114.000000	62.743420
1113.000000	62.719145
1112.000000	62.726662
1111.000000	62.739900
1110.000000	62.732427
1109.000000	62.729468
1108.000000	62.712942
1107.000000	62.712345
1106.000000	62.712357
1105.000000	62.706563
1104.000000	62.720877
1103.000000	62.718918
1102.000000	62.706118
1101.000000	62.702842
1100.000000	62.710774
1099.000000	62.664189
1098.000000	62.651213
1097.000000	62.645924
1096.000000	62.641006
1095.000000	62.648261
1094.000000	62.645661
1093.000000	62.649495
1092.000000	62.629177
1091.000000	62.602652
1090.000000	62.602889
1089.000000	62.606373
1088.000000	62.608090
1087.000000	62.591028
1086.000000	62.573780
1085.000000	62.567510
1084.000000	62.565548
1083.000000	62.559883
1082.000000	62.559734
1081.000000	62.540675
1080.000000	62.513990
1079.000000	62.506301
1078.000000	62.502233
1077.000000	62.498017
1076.000000	62.486820
1075.000000	62.464419
1074.000000	62.443314
1073.000000	62.438578
1072.000000	62.413985
1071.000000	62.428491
1070.000000	62.397637
1069.000000	62.398954
1068.000000	62.394628
1067.000000	62.356627
1066.000000	62.348707
1065.000000	62.351300
1064.000000	62.332722
1063.000000	62.313090
1062.000000	62.299421
1061.000000	62.266829
1060.000000	62.281052
1059.000000	62.264147
1058.000000	62.250831
1057.000000	62.238589
1056.000000	62.247229
1055.000000	62.224966
1054.000000	62.246745
1053.000000	62.200916
1052.000000	62.193181
1051.000000	62.172446
1050.000000	62.163704
1049.000000	62.148605
1048.000000	62.124914
1047.000000	62.120856
1046.000000	62.108169
1045.000000	62.096315
1044.000000	62.073836
1043.000000	62.074793
1042.000000	62.055929
1041.000000	62.067446
1040.000000	62.016586
1039.000000	62.017484
1038.000000	61.995313
1037.000000	61.976522
1036.000000	61.968419
1035.000000	61.952425
1034.000000	61.947368
1033.000000	61.949008
1032.000000	61.942030
1031.000000	61.913672
1030.000000	61.911678
1029.000000	61.888661
1028.000000	61.890061
1027.000000	61.882608
1026.000000	61.868046
1025.000000	61.867212
1024.000000	61.849120
1023.000000	61.825830
1022.000000	61.809561
1021.000000	61.816555
1020.000000	61.811062
1019.000000	61.798752
1018.000000	61.786709
1017.000000	61.759207
1016.000000	61.774888
1015.000000	61.766154
1014.000000	61.763241
1013.000000	61.754599
1012.000000	61.738709
1011.000000	61.737992
1010.000000	61.718929
1009.000000	61.706534
1008.000000	61.727628
1007.000000	61.710157
1006.000000	61.707407
1005.000000	61.711119
1004.000000	61.698484
1003.000000	61.671241
1002.000000	61.660136
1001.000000	61.650056
1000.000000	61.659794
999.000000	61.661421
998.000000	61.649164
997.000000	61.652639
996.000000	61.650438
995.000000	61.630263
994.000000	61.605329
993.000000	61.596637
992.000000	61.584891
991.000000	61.597052
990.000000	61.596411
989.000000	61.576103
988.000000	61.554629
987.000000	61.559153
986.000000	61.545212
985.000000	61.551233
984.000000	61.562348
983.000000	61.563505
982.000000	61.558589
981.000000	61.545967
980.000000	61.536269
979.000000	61.542442
978.000000	61.543633
977.000000	61.539713
976.000000	61.542229
975.000000	61.537814
974.000000	61.548601
973.000000	61.544491
972.000000	61.523807
971.000000	61.516313
970.000000	61.521199
969.000000	61.531284
968.000000	61.537423
967.000000	61.537490
966.000000	61.523193
965.000000	61.527253
964.000000	61.519362
963.000000	61.503834
962.000000	61.502682
961.000000	61.517884
960.000000	61.530468
959.000000	61.540219
958.000000	61.544743
957.000000	61.522072
956.000000	61.512792
955.000000	61.515035
954.000000	61.503594
953.000000	61.498027
952.000000	61.487892
951.000000	61.470284
950.000000	61.478738
949.000000	61.478684
948.000000	61.451127
947.000000	61.443952
946.000000	61.444430
945.000000	61.460703
944.000000	61.468933
943.000000	61.444806
942.000000	61.452082
941.000000	61.445229
940.000000	61.419668
939.000000	61.416529
938.000000	61.417554
937.000000	61.426261
936.000000	61.418628
935.000000	61.393343
934.000000	61.387203
933.000000	61.371522
932.000000	61.375824
931.000000	61.374635
930.000000	61.342377
929.000000	61.343568
928.000000	61.340645
927.000000	61.330046
926.000000	61.284096
925.000000	61.265327
924.000000	61.274981
923.000000	61.283414
922.000000	61.267311
921.000000	61.252954
920.000000	61.242240
919.000000	61.229017
918.000000	61.207304
917.000000	61.183901
916.000000	61.200067
915.000000	61.239609
914.000000	61.176340
913.000000	61.145067
912.000000	61.124424
911.000000	61.123519
910.000000	61.150124
909.000000	61.143523
908.000000	61.123901
907.000000	61.030521
906.000000	61.034427
905.000000	61.048316
904.000000	61.104314
903.000000	61.041449
902.000000	61.010961
901.000000	61.027630
900.000000	61.068873
899.000000	61.069291
898.000000	61.026593
897.000000	61.014725
896.000000	61.031829
895.000000	61.022160
894.000000	60.981322
893.000000	60.907953
892.000000	60.935510
891.000000	60.953229
890.000000	60.944108
889.000000	60.957092
888.000000	60.945474
887.000000	60.895890
886.000000	60.926267
885.000000	60.922131
884.000000	60.888813
883.000000	60.942972
882.000000	60.903958
881.000000	60.859820
880.000000	60.854974
879.000000	60.835302
878.000000	60.791726
877.000000	60.794328
876.000000	60.738281
875.000000	60.868838
874.000000	60.758262
873.000000	60.693805
872.000000	60.800935
871.000000	60.765197
870.000000	60.683335
869.000000	60.644317
868.000000	60.746320
867.000000	60.706370
866.000000	60.523068
865.000000	60.605105
864.000000	60.705249
863.000000	60.580948
862.000000	60.529902
861.000000	60.474034
860.000000	60.557609
859.000000	60.912554
858.000000	61.177078
857.000000	61.144882
856.000000	60.599412
855.000000	61.216485
854.000000	60.839973
853.000000	60.926837
852.000000	60.873908
851.000000	61.077254
850.000000	61.046111
849.000000	60.577891
848.000000	60.869465
847.000000	61.058510
846.000000	60.914377
845.000000	60.646243
844.000000	60.564724
843.000000	60.711956
842.000000	60.596718
841.000000	60.667372
840.000000	60.719970
839.000000	60.738496
838.000000	60.745811
837.000000	60.636661
836.000000	60.609424
835.000000	60.434836
834.000000	60.630681
833.000000	60.623087
832.000000	60.621797
831.000000	60.857677
830.000000	60.403912
829.000000	60.472149
828.000000	60.420910
827.000000	60.522878
826.000000	60.363544
825.000000	60.438732
824.000000	60.449841
823.000000	60.202137
822.000000	60.314235
821.000000	60.247504
820.000000	60.467945
819.000000	60.371410
818.000000	60.167420
817.000000	60.452170
816.000000	60.193297
815.000000	60.061060
814.000000	60.233888
813.000000	60.137817
812.000000	60.129535
811.000000	60.051889
810.000000	60.058897
809.000000	60.049883
808.000000	59.990677
807.000000	59.881054
806.000000	59.926464
805.000000	59.948996
804.000000	59.906757
803.000000	60.017154
802.000000	59.763603
801.000000	59.800295
800.000000	59.628833
799.000000	59.807743
798.000000	59.645933
797.000000	59.720728
796.000000	59.821102
795.000000	59.793252
794.000000	59.681578
793.000000	59.712574
792.000000	59.511653
791.000000	59.574817
790.000000	59.502726
789.000000	59.493588
788.000000	59.576281
787.000000	59.424798
786.000000	59.376911
785.000000	59.345326
784.000000	59.385748
783.000000	59.397999
782.000000	59.306232
781.000000	59.360181
780.000000	59.332088
779.000000	59.279348
778.000000	59.195996
777.000000	59.265872
776.000000	59.135564
775.000000	59.089078
774.000000	59.090917
773.000000	59.173838
772.000000	59.115111
771.000000	59.022467
770.000000	58.963106
769.000000	58.941705
768.000000	58.892440
767.000000	58.967055
766.000000	58.868535
765.000000	58.635110
764.000000	58.766096
763.000000	58.793841
762.000000	58.742104
761.000000	58.697174
760.000000	58.660951
759.000000	58.664869
758.000000	58.665310
757.000000	58.619130
756.000000	58.523279
755.000000	58.498944
754.000000	58.520970
753.000000	58.428759
752.000000	58.385827
751.000000	58.382006
750.000000	58.351444
749.000000	58.294716
748.000000	58.278767
747.000000	58.263443
746.000000	58.113979
745.000000	58.100349
744.000000	58.140293
743.000000	58.054145
742.000000	57.977710
741.000000	58.007288
740.000000	57.974650
739.000000	57.913236
738.000000	57.829364
737.000000	57.807671
736.000000	57.783552
735.000000	57.689102
734.000000	57.663127
733.000000	57.717572
732.000000	57.634468
731.000000	57.606084
730.000000	57.526644
729.000000	57.399399
728.000000	57.359088
727.000000	57.371850
726.000000	57.351925
725.000000	57.326620
724.000000	57.298107
723.000000	57.223193
722.000000	57.177506
721.000000	57.171405
720.000000	57.094200
719.000000	57.073469
718.000000	56.997092
717.000000	56.932622
716.000000	56.917637
715.000000	56.877738
714.000000	56.877571
713.000000	56.781727
712.000000	56.708316
711.000000	56.703590
710.000000	56.667275
709.000000	56.618043
708.000000	56.544996
707.000000	56.468151
706.000000	56.466622
705.000000	56.392509
704.000000	56.287753
703.000000	56.302345
702.000000	56.284107
701.000000	56.178325
700.000000	56.134501
699.000000	56.116646
698.000000	56.053316
697.000000	55.998687
696.000000	55.912842
695.000000	55.851462
694.000000	55.748663
693.000000	55.707148
692.000000	55.690114
691.000000	55.626173
690.000000	55.561687
689.000000	55.461085
688.000000	55.415738
687.000000	55.353580
686.000000	55.280677
685.000000	55.217249
684.000000	55.155554
683.000000	55.098085
682.000000	54.981040
681.000000	54.995516
680.000000	54.937902
679.000000	54.845363
678.000000	54.801281
677.000000	54.744121
676.000000	54.667028
675.000000	54.611835
674.000000	54.534099
673.000000	54.483823
672.000000	54.441324
671.000000	54.411852
670.000000	54.334458
669.000000	54.194444
668.000000	54.184592
667.000000	54.142144
666.000000	54.029629
665.000000	53.958030
664.000000	53.867129
663.000000	53.827168
662.000000	53.749361
661.000000	53.710655
660.000000	53.602374
659.000000	53.556861
658.000000	53.492894
657.000000	53.451401
656.000000	53.415365
655.000000	53.324816
654.000000	53.230033
653.000000	53.178313
652.000000	53.096782
651.000000	53.020742
650.000000	52.931843
649.000000	52.856334
648.000000	52.873075
647.000000	52.768640
646.000000	52.695226
645.000000	52.629868
644.000000	52.576750
643.000000	52.505678
642.000000	52.394464
641.000000	52.305329
640.000000	52.315544
639.000000	52.221581
638.000000	52.126688
637.000000	52.044799
636.000000	52.000346
635.000000	51.977227
634.000000	51.831093
633.000000	51.770089
632.000000	51.677086
631.000000	51.591005
630.000000	51.528107
629.000000	51.434750
628.000000	51.421232
627.000000	51.327180
626.000000	51.270419
625.000000	51.192622
624.000000	51.081608
623.000000	51.058488
622.000000	50.960570
621.000000	50.889290
620.000000	50.813198
619.000000	50.740692
618.000000	50.687479
617.000000	50.597876
616.000000	50.503288
615.000000	50.415305
614.000000	50.368188
613.000000	50.262556
612.000000	50.128490
611.000000	50.098375
610.000000	49.964178
609.000000	49.922568
608.000000	49.805158
607.000000	49.732977
606.000000	49.646192
605.000000	49.559764
604.000000	49.519705
603.000000	49.442668
602.000000	49.312834
601.000000	49.253634
600.000000	49.186427
599.000000	49.071341
598.000000	48.973819
597.000000	48.897827
596.000000	48.831470
595.000000	48.709447
594.000000	48.600583
593.000000	48.514620
592.000000	48.433013
591.000000	48.349294
590.000000	48.251449
589.000000	48.112554
588.000000	48.088858
587.000000	47.982033
586.000000	47.892341
585.000000	47.760651
584.000000	47.717949
583.000000	47.616744
582.000000	47.502612
581.000000	47.426945
580.000000	47.290347
579.000000	47.234720
578.000000	47.140464
577.000000	46.971150
576.000000	46.926177
575.000000	46.817326
574.000000	46.706276
573.000000	46.648475
572.000000	46.471018
571.000000	46.445848
570.000000	46.325856
569.000000	46.176701
568.000000	46.076993
567.000000	45.961134
566.000000	45.886113
565.000000	45.769960
564.000000	45.654728
563.000000	45.535516
562.000000	45.431542
561.000000	45.330145
560.000000	45.209166
559.000000	45.102939
558.000000	44.948828
557.000000	44.817029
556.000000	44.731837
555.000000	44.644013
554.000000	44.485840
553.000000	44.442485
552.000000	44.284833
551.000000	44.207232
550.000000	44.074590
549.000000	43.930036
548.000000	43.816043
547.000000	43.698093
546.000000	43.562748
545.000000	43.480357
544.000000	43.341549
543.000000	43.215366
542.000000	43.082096
541.000000	42.983377
540.000000	42.871111
539.000000	42.754387
538.000000	42.604768
537.000000	42.511169
536.000000	42.371312
535.000000	42.258024
534.000000	42.123307
533.000000	42.026458
532.000000	41.880786
531.000000	41.795500
530.000000	41.672710
529.000000	41.548777
528.000000	41.404752
527.000000	41.273459
526.000000	41.137265
525.000000	41.020358
524.000000	40.909791
523.000000	40.783488
522.000000	40.642402
521.000000	40.519953
520.000000	40.395192
519.000000	40.283763
518.000000	40.152849
517.000000	40.017633
516.000000	39.895840
515.000000	39.786251
514.000000	39.650626
513.000000	39.513561
512.000000	39.371039
511.000000	39.229296
510.000000	39.093201
509.000000	38.976852
508.000000	38.826069
507.000000	38.702487
506.000000	38.577992
505.000000	38.430852
504.000000	38.332440
503.000000	38.177466
502.000000	38.033286
501.000000	37.882919
500.000000	37.737727
499.000000	37.650823
498.000000	37.468304
497.000000	37.307257
496.000000	37.159697
495.000000	37.049129
494.000000	36.909155
493.000000	36.742140
492.000000	36.546462
491.000000	36.437132
490.000000	36.311186
489.000000	36.138603
488.000000	35.995614
487.000000	35.868377
486.000000	35.716228
485.000000	35.605593
484.000000	35.462213
483.000000	35.327953
482.000000	35.219002
481.000000	35.057034
480.000000	34.954905
479.000000	34.842234
478.000000	34.702353
477.000000	34.557428
476.000000	34.427785
475.000000	34.295104
474.000000	34.161236
473.000000	34.050218
472.000000	33.910850
471.000000	33.766803
470.000000	33.631681
469.000000	33.478908
468.000000	33.343937
467.000000	33.217870
466.000000	33.087405
465.000000	32.955604
464.000000	32.798792
463.000000	32.634522
462.000000	32.485726
461.000000	32.350547
460.000000	32.215102
459.000000	32.087651
458.000000	31.939111
457.000000	31.746674
456.000000	31.609084
455.000000	31.467802
454.000000	31.271679
453.000000	31.098358
452.000000	30.949824
451.000000	30.799608
450.000000	30.644939
449.000000	30.470805
448.000000	30.289828
447.000000	30.120571
446.000000	29.937117
445.000000	29.761642
444.000000	29.623186
443.000000	29.481542
442.000000	29.329023
441.000000	29.143199
440.000000	28.941863
439.000000	28.753359
438.000000	28.598908
437.000000	28.447724
436.000000	28.273621
435.000000	28.102625
434.000000	27.973631
433.000000	27.804529
432.000000	27.627790
431.000000	27.438091
430.000000	27.266762
429.000000	27.111832
428.000000	26.938468
427.000000	26.732781
426.000000	26.564841
425.000000	26.389685
424.000000	26.219403
423.000000	26.065761
422.000000	25.884356
421.000000	25.717839
420.000000	25.518545
419.000000	25.324357
418.000000	25.167406
417.000000	24.993233
416.000000	24.803537
415.000000	24.623011
414.000000	24.463443
413.000000	24.306481
412.000000	24.124913
411.000000	23.934453
410.000000	23.764515
409.000000	23.588505
408.000000	23.403628
407.000000	23.230963
406.000000	23.062138
405.000000	22.870921
404.000000	22.694519
403.000000	22.522823
402.000000	22.378396
401.000000	22.176248
400.000000	21.984726
399.000000	21.827937
398.000000	21.669340
397.000000	21.479323
396.000000	21.318699
395.000000	21.151012
394.000000	20.990445
393.000000	20.863554
392.000000	20.616160
391.000000	20.477272
390.000000	20.322067
389.000000	20.107464
388.000000	19.953063
387.000000	19.788839
386.000000	19.629751
385.000000	19.461627
384.000000	19.320042
383.000000	19.134756
382.000000	18.984145
381.000000	18.791495
380.000000	18.643807
379.000000	18.468139
378.000000	18.285527
377.000000	18.037473
376.000000	17.926398
375.000000	17.818438
374.000000	17.619125
373.000000	17.494212
372.000000	17.347332
371.000000	17.233033
370.000000	17.009885
369.000000	16.899174
368.000000	16.755228
367.000000	16.543475
366.000000	16.452247
365.000000	16.267597
364.000000	16.145038
363.000000	16.041776
362.000000	15.924035
361.000000	15.751339
360.000000	15.592297
359.000000	15.481891
358.000000	15.389279
357.000000	15.214861
356.000000	15.155603
355.000000	14.978417
354.000000	14.892170
353.000000	14.728382
352.000000	14.595520
351.000000	14.388227
350.000000	14.370652
349.000000	14.226990
348.000000	14.153857
347.000000	13.934510
346.000000	13.854699
345.000000	13.699696
344.000000	13.634593
343.000000	13.479474
342.000000	13.437594
341.000000	13.338945
340.000000	13.184915
339.000000	12.963190
338.000000	12.957050
337.000000	12.807982
336.000000	12.684360
335.000000	12.471444
334.000000	12.429588
333.000000	12.294418
332.000000	12.098868
331.000000	12.066141
330.000000	11.941292
329.000000	11.795631
328.000000	11.769535
327.000000	11.592210
326.000000	11.487564
325.000000	11.422596
324.000000	11.290771
323.000000	11.274020
322.000000	11.110953
321.000000	10.965058
320.000000	10.955556
319.000000	10.893805
318.000000	10.691969
317.000000	10.555426
316.000000	10.571708
315.000000	10.469251
314.000000	10.356337
313.000000	10.302408
312.000000	10.256422
311.000000	10.176497
310.000000	10.049491
309.000000	9.975255
308.000000	9.990209
307.000000	9.915498
306.000000	9.863750
305.000000	9.809227
304.000000	9.746129
303.000000	9.694740
302.000000	9.639610
301.000000	9.598604
300.000000	9.563064
299.000000	9.564761
298.000000	9.470196
297.000000	9.404364
296.000000	9.336154
295.000000	9.314080
294.000000	9.222477
293.000000	9.158041
292.000000	9.152291
291.000000	9.070981
290.000000	8.983930
289.000000	8.906871
288.000000	8.903049
287.000000	8.833446
286.000000	8.795166
285.000000	8.751485
284.000000	8.784940
283.000000	8.709613
282.000000	8.702626
281.000000	8.728325
280.000000	8.708936
279.000000	8.717383
278.000000	8.778148
277.000000	8.774840
276.000000	8.826948
275.000000	8.799653
274.000000	8.794705
273.000000	8.843758
272.000000	8.936794
271.000000	9.046181
270.000000	9.039394
269.000000	9.032133
268.000000	9.104373
267.000000	9.181407
266.000000	9.214233
265.000000	9.258243
264.000000	9.330244
263.000000	9.414458
262.000000	9.504432
261.000000	9.542253
260.000000	9.667126
259.000000	9.759506
258.000000	9.845819
257.000000	9.946248
256.000000	10.023105
255.000000	10.152624
254.000000	10.245050
253.000000	10.323606
252.000000	10.449556
251.000000	10.528246
250.000000	10.635190
249.000000	10.678043
248.000000	10.768224
247.000000	10.828759
246.000000	10.839610
245.000000	10.856479
244.000000	10.840027
243.000000	10.770062
242.000000	10.668237
241.000000	10.645877
240.000000	10.553422
239.000000	10.392604
238.000000	10.310931
237.000000	10.140081
236.000000	9.997276
235.000000	9.968678
234.000000	9.876941
233.000000	9.777272
232.000000	9.707486
231.000000	9.612618
230.000000	9.470277
229.000000	9.443692
228.000000	9.406129
227.000000	9.322132
226.000000	9.353881
225.000000	9.355946
224.000000	9.305521
223.000000	9.309491
222.000000	9.357525
221.000000	9.457689
220.000000	9.501352
219.000000	9.529094
218.000000	9.551899
217.000000	9.629437
216.000000	9.734780
215.000000	9.853218
214.000000	10.028299
213.000000	10.122606
212.000000	10.243952
211.000000	10.461892
210.000000	10.580788
209.000000	10.680975
208.000000	10.888071
207.000000	11.308011
206.000000	11.527714
205.000000	11.745886
204.000000	12.093242
203.000000	12.288397
202.000000	12.739073
201.000000	13.324963
200.000000	13.468262
