PE UV       SUBTECH     SPECTRUM    ASCII       PEDS        4.00        
   -1
RDms1556132.Sample.asc
18/03/21
11:38:35.00
18/03/21
11:38:35.00
Administrator

200.000000
1
Lambda 750
750N8071901
PerkinElmer UV WinLab 6.0.4.0738 / 1.61.00 Lambda 900

0
0
3350/servo 860.8/2
0
0
UV/VIS
1
1
1
CommonBeamDepol,150mm sphere / downward view
0
0
0
0
Program
Program
3350/servo 860.8/2
3350/0.2 860.8/0.2
3350/0.2 860.8/0.2
0
1
 
 
 
0
 
860.8
319.2
860.8
Front
100
on
 
 
0
0
0
 
0
 
 
 
0
 
 
0
0
0
0
0
 
 
 
 
0
0


0
0
#HDR
-1
-1
#GR
nm
%R
1.0
0.0
2350.000000
-1.000000
2151
8
63.839081
10.806392
#DATA
2350.000000	39.335591
2349.000000	39.639179
2348.000000	39.228299
2347.000000	40.212765
2346.000000	39.916774
2345.000000	39.720111
2344.000000	39.993602
2343.000000	39.522151
2342.000000	39.885187
2341.000000	40.007503
2340.000000	40.067048
2339.000000	40.038933
2338.000000	40.350762
2337.000000	40.220298
2336.000000	40.088993
2335.000000	40.063936
2334.000000	40.183312
2333.000000	40.410077
2332.000000	40.517130
2331.000000	40.432026
2330.000000	40.494356
2329.000000	40.286021
2328.000000	40.410677
2327.000000	40.453984
2326.000000	40.535762
2325.000000	40.607563
2324.000000	40.220743
2323.000000	39.871761
2322.000000	39.902965
2321.000000	39.968473
2320.000000	39.874521
2319.000000	40.071085
2318.000000	39.953529
2317.000000	40.067046
2316.000000	39.882253
2315.000000	39.847153
2314.000000	39.749653
2313.000000	39.615763
2312.000000	39.345553
2311.000000	39.700048
2310.000000	39.648711
2309.000000	39.658178
2308.000000	39.501655
2307.000000	39.403495
2306.000000	39.418070
2305.000000	39.184396
2304.000000	39.161272
2303.000000	39.160809
2302.000000	39.179312
2301.000000	39.037652
2300.000000	38.828191
2299.000000	38.768344
2298.000000	38.723001
2297.000000	38.696338
2296.000000	38.586040
2295.000000	38.618100
2294.000000	38.521545
2293.000000	38.475777
2292.000000	38.437848
2291.000000	38.418204
2290.000000	38.344032
2289.000000	38.490841
2288.000000	38.455125
2287.000000	38.480237
2286.000000	38.109841
2285.000000	38.101344
2284.000000	38.153776
2283.000000	37.966495
2282.000000	38.095175
2281.000000	38.221489
2280.000000	38.206076
2279.000000	38.140639
2278.000000	38.160534
2277.000000	38.039058
2276.000000	38.141399
2275.000000	38.388173
2274.000000	38.369109
2273.000000	38.466010
2272.000000	38.627999
2271.000000	38.474883
2270.000000	38.487301
2269.000000	38.486106
2268.000000	38.656425
2267.000000	38.861254
2266.000000	38.892701
2265.000000	38.919577
2264.000000	39.107441
2263.000000	39.127857
2262.000000	39.198340
2261.000000	39.340014
2260.000000	39.526088
2259.000000	39.632413
2258.000000	39.858883
2257.000000	40.026950
2256.000000	40.030347
2255.000000	40.205498
2254.000000	40.377427
2253.000000	40.330001
2252.000000	40.417612
2251.000000	40.579189
2250.000000	40.910166
2249.000000	41.213185
2248.000000	41.285613
2247.000000	41.381502
2246.000000	41.645665
2245.000000	41.863994
2244.000000	42.006616
2243.000000	42.235717
2242.000000	42.286753
2241.000000	42.257455
2240.000000	42.395354
2239.000000	42.511235
2238.000000	42.586219
2237.000000	42.731647
2236.000000	42.756458
2235.000000	42.946161
2234.000000	43.082880
2233.000000	43.042226
2232.000000	43.177978
2231.000000	43.196212
2230.000000	43.126830
2229.000000	43.251717
2228.000000	43.340162
2227.000000	43.294704
2226.000000	43.342551
2225.000000	43.366253
2224.000000	43.251636
2223.000000	43.156854
2222.000000	43.191836
2221.000000	43.144034
2220.000000	43.155927
2219.000000	43.214351
2218.000000	43.147270
2217.000000	43.062695
2216.000000	43.025033
2215.000000	42.963145
2214.000000	42.950278
2213.000000	43.000909
2212.000000	42.929625
2211.000000	42.954870
2210.000000	43.022532
2209.000000	42.916171
2208.000000	42.908472
2207.000000	42.833455
2206.000000	42.891370
2205.000000	42.822851
2204.000000	42.738515
2203.000000	42.754042
2202.000000	42.643582
2201.000000	42.511353
2200.000000	42.470162
2199.000000	42.486943
2198.000000	42.398227
2197.000000	42.202193
2196.000000	42.164573
2195.000000	42.126101
2194.000000	42.098070
2193.000000	42.043348
2192.000000	42.049851
2191.000000	41.913610
2190.000000	41.945390
2189.000000	41.923554
2188.000000	42.015397
2187.000000	41.933898
2186.000000	41.730357
2185.000000	41.790104
2184.000000	41.884482
2183.000000	41.942688
2182.000000	41.731824
2181.000000	41.715520
2180.000000	41.702424
2179.000000	41.667510
2178.000000	41.644371
2177.000000	41.597085
2176.000000	41.591185
2175.000000	41.778515
2174.000000	41.809820
2173.000000	41.735343
2172.000000	41.719424
2171.000000	41.994108
2170.000000	42.122815
2169.000000	42.180406
2168.000000	42.196298
2167.000000	42.094895
2166.000000	42.190563
2165.000000	42.218148
2164.000000	42.397531
2163.000000	42.439271
2162.000000	42.657560
2161.000000	42.823332
2160.000000	42.805018
2159.000000	42.927748
2158.000000	42.832113
2157.000000	43.016561
2156.000000	43.313156
2155.000000	43.377606
2154.000000	43.496561
2153.000000	43.541311
2152.000000	43.711852
2151.000000	43.891875
2150.000000	44.016971
2149.000000	44.126627
2148.000000	44.066496
2147.000000	44.465533
2146.000000	44.330732
2145.000000	44.520848
2144.000000	44.793569
2143.000000	44.732762
2142.000000	44.727588
2141.000000	44.890693
2140.000000	45.081027
2139.000000	45.136701
2138.000000	45.337538
2137.000000	45.347242
2136.000000	45.451928
2135.000000	45.491184
2134.000000	45.660282
2133.000000	45.635836
2132.000000	45.492531
2131.000000	45.712501
2130.000000	45.988719
2129.000000	45.878652
2128.000000	45.966115
2127.000000	45.896958
2126.000000	45.884218
2125.000000	46.068119
2124.000000	46.169333
2123.000000	46.207166
2122.000000	46.197806
2121.000000	46.299847
2120.000000	46.162730
2119.000000	46.295617
2118.000000	46.162078
2117.000000	46.314009
2116.000000	46.284890
2115.000000	46.388799
2114.000000	46.327494
2113.000000	46.259939
2112.000000	46.234421
2111.000000	46.318595
2110.000000	46.351044
2109.000000	46.336489
2108.000000	46.309285
2107.000000	46.463992
2106.000000	46.542575
2105.000000	46.473091
2104.000000	46.393751
2103.000000	46.526920
2102.000000	46.474155
2101.000000	46.439422
2100.000000	46.555949
2099.000000	46.386307
2098.000000	46.418330
2097.000000	46.442605
2096.000000	46.382330
2095.000000	46.405268
2094.000000	46.514741
2093.000000	46.411831
2092.000000	46.383440
2091.000000	46.424328
2090.000000	46.405079
2089.000000	46.425192
2088.000000	46.397040
2087.000000	46.373925
2086.000000	46.333917
2085.000000	46.341283
2084.000000	46.263492
2083.000000	46.325320
2082.000000	46.157915
2081.000000	46.140586
2080.000000	46.062252
2079.000000	46.146725
2078.000000	46.098849
2077.000000	45.951345
2076.000000	45.744858
2075.000000	45.745946
2074.000000	45.760466
2073.000000	45.710597
2072.000000	45.558729
2071.000000	45.458332
2070.000000	45.373498
2069.000000	45.240627
2068.000000	45.194080
2067.000000	45.079859
2066.000000	44.906232
2065.000000	44.817938
2064.000000	44.836343
2063.000000	44.678827
2062.000000	44.506048
2061.000000	44.429256
2060.000000	44.322139
2059.000000	44.261773
2058.000000	44.140859
2057.000000	44.009610
2056.000000	43.893779
2055.000000	43.767001
2054.000000	43.660991
2053.000000	43.515471
2052.000000	43.410390
2051.000000	43.322920
2050.000000	43.241153
2049.000000	43.176412
2048.000000	43.056261
2047.000000	43.070168
2046.000000	43.065811
2045.000000	42.945210
2044.000000	42.841727
2043.000000	42.894824
2042.000000	42.934431
2041.000000	42.939476
2040.000000	42.950780
2039.000000	42.941516
2038.000000	43.023209
2037.000000	43.062608
2036.000000	43.073257
2035.000000	43.111581
2034.000000	43.129578
2033.000000	43.159615
2032.000000	43.270422
2031.000000	43.331749
2030.000000	43.464827
2029.000000	43.575193
2028.000000	43.572594
2027.000000	43.651566
2026.000000	43.743279
2025.000000	43.792612
2024.000000	43.802094
2023.000000	43.864756
2022.000000	43.961201
2021.000000	43.951922
2020.000000	43.944541
2019.000000	44.012545
2018.000000	44.085187
2017.000000	44.105724
2016.000000	44.058837
2015.000000	44.003235
2014.000000	43.978865
2013.000000	43.949584
2012.000000	43.887676
2011.000000	43.878941
2010.000000	43.814898
2009.000000	43.793687
2008.000000	43.759126
2007.000000	43.639025
2006.000000	43.535385
2005.000000	43.519828
2004.000000	43.478261
2003.000000	43.395741
2002.000000	43.322975
2001.000000	43.223695
2000.000000	43.161566
1999.000000	43.094555
1998.000000	42.964835
1997.000000	42.895993
1996.000000	42.824950
1995.000000	42.708532
1994.000000	42.622591
1993.000000	42.540322
1992.000000	42.466460
1991.000000	42.397968
1990.000000	42.322070
1989.000000	42.170671
1988.000000	42.083063
1987.000000	41.996184
1986.000000	41.892735
1985.000000	41.806536
1984.000000	41.732552
1983.000000	41.621469
1982.000000	41.573823
1981.000000	41.526707
1980.000000	41.381072
1979.000000	41.311509
1978.000000	41.217411
1977.000000	41.107102
1976.000000	41.000647
1975.000000	40.921202
1974.000000	40.797036
1973.000000	40.777316
1972.000000	40.703500
1971.000000	40.578440
1970.000000	40.497325
1969.000000	40.415311
1968.000000	40.335267
1967.000000	40.251448
1966.000000	40.209538
1965.000000	40.072490
1964.000000	40.026121
1963.000000	39.985092
1962.000000	39.890664
1961.000000	39.783246
1960.000000	39.665777
1959.000000	39.586452
1958.000000	39.551335
1957.000000	39.439269
1956.000000	39.377932
1955.000000	39.354381
1954.000000	39.301438
1953.000000	39.289661
1952.000000	39.238219
1951.000000	39.178779
1950.000000	39.178933
1949.000000	39.100699
1948.000000	39.095753
1947.000000	39.045681
1946.000000	38.999501
1945.000000	39.004502
1944.000000	38.987269
1943.000000	39.086209
1942.000000	39.055207
1941.000000	39.082321
1940.000000	39.159737
1939.000000	39.204027
1938.000000	39.165222
1937.000000	39.242844
1936.000000	39.441553
1935.000000	39.514258
1934.000000	39.678498
1933.000000	39.709206
1932.000000	39.789003
1931.000000	39.913349
1930.000000	40.078141
1929.000000	40.148287
1928.000000	40.418678
1927.000000	40.638486
1926.000000	40.787437
1925.000000	40.924599
1924.000000	41.108980
1923.000000	41.314504
1922.000000	41.635617
1921.000000	41.854854
1920.000000	42.017879
1919.000000	42.312703
1918.000000	42.552150
1917.000000	42.833298
1916.000000	43.084307
1915.000000	43.326649
1914.000000	43.700009
1913.000000	43.970224
1912.000000	44.304810
1911.000000	44.605706
1910.000000	44.879318
1909.000000	45.145538
1908.000000	45.517199
1907.000000	45.886623
1906.000000	46.238102
1905.000000	46.520857
1904.000000	46.891545
1903.000000	47.320745
1902.000000	47.661017
1901.000000	48.054782
1900.000000	48.382917
1899.000000	48.705528
1898.000000	49.103674
1897.000000	49.392010
1896.000000	49.803014
1895.000000	50.197460
1894.000000	50.472979
1893.000000	50.885899
1892.000000	51.205961
1891.000000	51.504744
1890.000000	51.797701
1889.000000	52.087551
1888.000000	52.381156
1887.000000	52.617841
1886.000000	52.891998
1885.000000	53.152051
1884.000000	53.457910
1883.000000	53.752034
1882.000000	54.020670
1881.000000	54.168638
1880.000000	54.404925
1879.000000	54.554347
1878.000000	54.753708
1877.000000	55.011500
1876.000000	55.158851
1875.000000	55.330939
1874.000000	55.486425
1873.000000	55.637061
1872.000000	55.742644
1871.000000	55.850799
1870.000000	55.992658
1869.000000	56.077012
1868.000000	56.212394
1867.000000	56.272243
1866.000000	56.324542
1865.000000	56.366030
1864.000000	56.438581
1863.000000	56.501768
1862.000000	56.535704
1861.000000	56.564298
1860.000000	56.614207
1859.000000	56.702091
1858.000000	56.695012
1857.000000	56.737018
1856.000000	56.769677
1855.000000	56.774992
1854.000000	56.807772
1853.000000	56.803955
1852.000000	56.818842
1851.000000	56.818683
1850.000000	56.860039
1849.000000	56.882932
1848.000000	56.884664
1847.000000	56.890407
1846.000000	56.873644
1845.000000	56.892582
1844.000000	56.859145
1843.000000	56.813957
1842.000000	56.837941
1841.000000	56.799398
1840.000000	56.781622
1839.000000	56.815218
1838.000000	56.779814
1837.000000	56.749181
1836.000000	56.739609
1835.000000	56.704452
1834.000000	56.679597
1833.000000	56.643929
1832.000000	56.644894
1831.000000	56.631067
1830.000000	56.610624
1829.000000	56.563984
1828.000000	56.516820
1827.000000	56.491560
1826.000000	56.498593
1825.000000	56.477755
1824.000000	56.455280
1823.000000	56.450006
1822.000000	56.400337
1821.000000	56.373794
1820.000000	56.346581
1819.000000	56.315485
1818.000000	56.297522
1817.000000	56.304954
1816.000000	56.294932
1815.000000	56.271254
1814.000000	56.250795
1813.000000	56.226057
1812.000000	56.205121
1811.000000	56.155726
1810.000000	56.133458
1809.000000	56.160400
1808.000000	56.146991
1807.000000	56.106378
1806.000000	56.113445
1805.000000	56.088033
1804.000000	56.021000
1803.000000	56.029317
1802.000000	56.039847
1801.000000	56.037713
1800.000000	56.031327
1799.000000	55.995866
1798.000000	55.983727
1797.000000	55.975858
1796.000000	55.943382
1795.000000	55.945376
1794.000000	55.952336
1793.000000	55.910265
1792.000000	55.877669
1791.000000	55.886000
1790.000000	55.901713
1789.000000	55.870714
1788.000000	55.845000
1787.000000	55.830832
1786.000000	55.833562
1785.000000	55.828151
1784.000000	55.811808
1783.000000	55.803061
1782.000000	55.765044
1781.000000	55.766749
1780.000000	55.761038
1779.000000	55.724749
1778.000000	55.692048
1777.000000	55.664874
1776.000000	55.670193
1775.000000	55.637392
1774.000000	55.580670
1773.000000	55.529896
1772.000000	55.494318
1771.000000	55.480331
1770.000000	55.453920
1769.000000	55.416410
1768.000000	55.376800
1767.000000	55.359718
1766.000000	55.326653
1765.000000	55.281500
1764.000000	55.280808
1763.000000	55.262113
1762.000000	55.231982
1761.000000	55.214350
1760.000000	55.149271
1759.000000	55.142574
1758.000000	55.115924
1757.000000	55.068985
1756.000000	55.081165
1755.000000	55.019978
1754.000000	54.956651
1753.000000	54.954047
1752.000000	54.951170
1751.000000	54.938945
1750.000000	54.891508
1749.000000	54.863864
1748.000000	54.838404
1747.000000	54.798749
1746.000000	54.765590
1745.000000	54.728123
1744.000000	54.693566
1743.000000	54.662100
1742.000000	54.639699
1741.000000	54.625355
1740.000000	54.580399
1739.000000	54.538374
1738.000000	54.526094
1737.000000	54.492250
1736.000000	54.478622
1735.000000	54.507031
1734.000000	54.502254
1733.000000	54.479368
1732.000000	54.489124
1731.000000	54.533727
1730.000000	54.534884
1729.000000	54.508906
1728.000000	54.582609
1727.000000	54.616736
1726.000000	54.618404
1725.000000	54.708161
1724.000000	54.727295
1723.000000	54.790326
1722.000000	54.874871
1721.000000	54.912506
1720.000000	54.962820
1719.000000	55.062457
1718.000000	55.112742
1717.000000	55.158387
1716.000000	55.212530
1715.000000	55.251008
1714.000000	55.318757
1713.000000	55.393138
1712.000000	55.438378
1711.000000	55.529642
1710.000000	55.534515
1709.000000	55.569239
1708.000000	55.596077
1707.000000	55.628440
1706.000000	55.654877
1705.000000	55.698793
1704.000000	55.705320
1703.000000	55.719051
1702.000000	55.732082
1701.000000	55.723753
1700.000000	55.760535
1699.000000	55.757084
1698.000000	55.805408
1697.000000	55.811505
1696.000000	55.834282
1695.000000	55.876963
1694.000000	55.842497
1693.000000	55.895974
1692.000000	55.924164
1691.000000	55.930630
1690.000000	56.024605
1689.000000	56.026111
1688.000000	56.109382
1687.000000	56.189875
1686.000000	56.219119
1685.000000	56.323874
1684.000000	56.394734
1683.000000	56.506570
1682.000000	56.598317
1681.000000	56.680701
1680.000000	56.750556
1679.000000	56.870588
1678.000000	56.984472
1677.000000	57.097779
1676.000000	57.131357
1675.000000	57.272450
1674.000000	57.329293
1673.000000	57.485684
1672.000000	57.566243
1671.000000	57.639849
1670.000000	57.705583
1669.000000	57.832280
1668.000000	57.928318
1667.000000	57.966612
1666.000000	58.035907
1665.000000	58.081967
1664.000000	58.132842
1663.000000	58.185656
1662.000000	58.237784
1661.000000	58.294917
1660.000000	58.343677
1659.000000	58.378645
1658.000000	58.424408
1657.000000	58.444701
1656.000000	58.452900
1655.000000	58.465074
1654.000000	58.505732
1653.000000	58.508592
1652.000000	58.511648
1651.000000	58.505408
1650.000000	58.517438
1649.000000	58.517814
1648.000000	58.496057
1647.000000	58.514015
1646.000000	58.500065
1645.000000	58.517530
1644.000000	58.502720
1643.000000	58.482432
1642.000000	58.489324
1641.000000	58.460661
1640.000000	58.454028
1639.000000	58.452061
1638.000000	58.439047
1637.000000	58.430481
1636.000000	58.389558
1635.000000	58.368689
1634.000000	58.359258
1633.000000	58.332155
1632.000000	58.306186
1631.000000	58.278680
1630.000000	58.262712
1629.000000	58.241357
1628.000000	58.215682
1627.000000	58.214226
1626.000000	58.198399
1625.000000	58.163458
1624.000000	58.144986
1623.000000	58.126218
1622.000000	58.108488
1621.000000	58.053989
1620.000000	58.033837
1619.000000	58.018475
1618.000000	57.980884
1617.000000	57.947462
1616.000000	57.939741
1615.000000	57.892119
1614.000000	57.850508
1613.000000	57.822802
1612.000000	57.806416
1611.000000	57.770712
1610.000000	57.740240
1609.000000	57.701653
1608.000000	57.678236
1607.000000	57.652332
1606.000000	57.613837
1605.000000	57.584439
1604.000000	57.533268
1603.000000	57.499179
1602.000000	57.483566
1601.000000	57.455742
1600.000000	57.428946
1599.000000	57.398967
1598.000000	57.358782
1597.000000	57.305959
1596.000000	57.269244
1595.000000	57.251371
1594.000000	57.226376
1593.000000	57.197922
1592.000000	57.165814
1591.000000	57.129998
1590.000000	57.101009
1589.000000	57.071678
1588.000000	57.045337
1587.000000	57.033436
1586.000000	57.009984
1585.000000	56.981831
1584.000000	56.950260
1583.000000	56.925665
1582.000000	56.900676
1581.000000	56.867082
1580.000000	56.853138
1579.000000	56.842368
1578.000000	56.835207
1577.000000	56.800699
1576.000000	56.763340
1575.000000	56.739016
1574.000000	56.704993
1573.000000	56.678901
1572.000000	56.659893
1571.000000	56.629612
1570.000000	56.609413
1569.000000	56.593010
1568.000000	56.579433
1567.000000	56.556007
1566.000000	56.519312
1565.000000	56.528902
1564.000000	56.514161
1563.000000	56.499055
1562.000000	56.474234
1561.000000	56.453586
1560.000000	56.443454
1559.000000	56.424647
1558.000000	56.421831
1557.000000	56.422453
1556.000000	56.411724
1555.000000	56.403996
1554.000000	56.375009
1553.000000	56.383408
1552.000000	56.358307
1551.000000	56.326117
1550.000000	56.321470
1549.000000	56.306183
1548.000000	56.292089
1547.000000	56.247553
1546.000000	56.217787
1545.000000	56.202300
1544.000000	56.151422
1543.000000	56.110184
1542.000000	56.059608
1541.000000	56.022010
1540.000000	55.982166
1539.000000	55.924659
1538.000000	55.875585
1537.000000	55.803388
1536.000000	55.756647
1535.000000	55.735733
1534.000000	55.679342
1533.000000	55.621719
1532.000000	55.565712
1531.000000	55.532100
1530.000000	55.494418
1529.000000	55.430656
1528.000000	55.398666
1527.000000	55.353764
1526.000000	55.302066
1525.000000	55.266779
1524.000000	55.246061
1523.000000	55.223358
1522.000000	55.181252
1521.000000	55.155353
1520.000000	55.121257
1519.000000	55.081976
1518.000000	55.075099
1517.000000	55.060034
1516.000000	55.051641
1515.000000	55.002304
1514.000000	54.999832
1513.000000	54.987634
1512.000000	54.958167
1511.000000	54.950261
1510.000000	54.927919
1509.000000	54.921677
1508.000000	54.929411
1507.000000	54.899284
1506.000000	54.891660
1505.000000	54.898763
1504.000000	54.883031
1503.000000	54.895204
1502.000000	54.883524
1501.000000	54.885794
1500.000000	54.883279
1499.000000	54.872273
1498.000000	54.868560
1497.000000	54.884309
1496.000000	54.910709
1495.000000	54.918295
1494.000000	54.911844
1493.000000	54.940768
1492.000000	54.945261
1491.000000	54.952682
1490.000000	54.982504
1489.000000	55.017315
1488.000000	55.058688
1487.000000	55.044133
1486.000000	55.086014
1485.000000	55.117275
1484.000000	55.132209
1483.000000	55.176131
1482.000000	55.186586
1481.000000	55.238470
1480.000000	55.286103
1479.000000	55.280786
1478.000000	55.312497
1477.000000	55.358877
1476.000000	55.379792
1475.000000	55.411772
1474.000000	55.452658
1473.000000	55.472501
1472.000000	55.498954
1471.000000	55.533840
1470.000000	55.589744
1469.000000	55.616461
1468.000000	55.653581
1467.000000	55.674723
1466.000000	55.687289
1465.000000	55.719195
1464.000000	55.721734
1463.000000	55.776976
1462.000000	55.806039
1461.000000	55.827894
1460.000000	55.842103
1459.000000	55.876620
1458.000000	55.935041
1457.000000	55.944192
1456.000000	55.977213
1455.000000	56.010369
1454.000000	56.053348
1453.000000	56.121607
1452.000000	56.147884
1451.000000	56.195596
1450.000000	56.224288
1449.000000	56.260453
1448.000000	56.325094
1447.000000	56.351808
1446.000000	56.394908
1445.000000	56.452702
1444.000000	56.505716
1443.000000	56.549079
1442.000000	56.594854
1441.000000	56.650260
1440.000000	56.705598
1439.000000	56.748770
1438.000000	56.824711
1437.000000	56.897015
1436.000000	56.950144
1435.000000	57.021244
1434.000000	57.072688
1433.000000	57.159660
1432.000000	57.224878
1431.000000	57.293380
1430.000000	57.361119
1429.000000	57.452380
1428.000000	57.522614
1427.000000	57.600555
1426.000000	57.681828
1425.000000	57.774876
1424.000000	57.856693
1423.000000	57.954578
1422.000000	58.033634
1421.000000	58.143589
1420.000000	58.250311
1419.000000	58.338556
1418.000000	58.443139
1417.000000	58.538143
1416.000000	58.624831
1415.000000	58.736483
1414.000000	58.846187
1413.000000	58.933945
1412.000000	59.048889
1411.000000	59.160759
1410.000000	59.253645
1409.000000	59.363639
1408.000000	59.474644
1407.000000	59.576937
1406.000000	59.674867
1405.000000	59.767451
1404.000000	59.851257
1403.000000	59.944761
1402.000000	60.015613
1401.000000	60.123329
1400.000000	60.230094
1399.000000	60.331611
1398.000000	60.412128
1397.000000	60.485877
1396.000000	60.553130
1395.000000	60.627195
1394.000000	60.712491
1393.000000	60.795434
1392.000000	60.868384
1391.000000	60.937215
1390.000000	60.995882
1389.000000	61.057686
1388.000000	61.126325
1387.000000	61.181136
1386.000000	61.222327
1385.000000	61.280312
1384.000000	61.334898
1383.000000	61.387371
1382.000000	61.444592
1381.000000	61.493209
1380.000000	61.522797
1379.000000	61.576953
1378.000000	61.625814
1377.000000	61.649962
1376.000000	61.681156
1375.000000	61.730663
1374.000000	61.766882
1373.000000	61.779628
1372.000000	61.815711
1371.000000	61.853651
1370.000000	61.874767
1369.000000	61.894593
1368.000000	61.917203
1367.000000	61.956871
1366.000000	61.985372
1365.000000	62.014212
1364.000000	62.035927
1363.000000	62.037383
1362.000000	62.070586
1361.000000	62.102914
1360.000000	62.125338
1359.000000	62.148071
1358.000000	62.180262
1357.000000	62.216504
1356.000000	62.247022
1355.000000	62.278275
1354.000000	62.298970
1353.000000	62.317630
1352.000000	62.342924
1351.000000	62.363316
1350.000000	62.394854
1349.000000	62.423381
1348.000000	62.450793
1347.000000	62.479390
1346.000000	62.524993
1345.000000	62.543594
1344.000000	62.556021
1343.000000	62.579234
1342.000000	62.600634
1341.000000	62.626600
1340.000000	62.663414
1339.000000	62.672951
1338.000000	62.705496
1337.000000	62.732933
1336.000000	62.752474
1335.000000	62.762282
1334.000000	62.781671
1333.000000	62.789178
1332.000000	62.804010
1331.000000	62.814517
1330.000000	62.832923
1329.000000	62.842877
1328.000000	62.857499
1327.000000	62.900082
1326.000000	62.964662
1325.000000	63.011636
1324.000000	63.025856
1323.000000	63.034207
1322.000000	63.012635
1321.000000	63.014124
1320.000000	63.024430
1319.000000	63.042265
1318.000000	63.044438
1317.000000	63.049443
1316.000000	63.066441
1315.000000	63.046006
1314.000000	63.052913
1313.000000	63.078155
1312.000000	63.094327
1311.000000	63.080531
1310.000000	63.103730
1309.000000	63.096107
1308.000000	63.106205
1307.000000	63.114306
1306.000000	63.131456
1305.000000	63.129644
1304.000000	63.128926
1303.000000	63.140896
1302.000000	63.156057
1301.000000	63.153754
1300.000000	63.168515
1299.000000	63.174530
1298.000000	63.180321
1297.000000	63.174150
1296.000000	63.179824
1295.000000	63.178245
1294.000000	63.179774
1293.000000	63.169085
1292.000000	63.176996
1291.000000	63.178446
1290.000000	63.173987
1289.000000	63.189517
1288.000000	63.178334
1287.000000	63.143945
1286.000000	63.148492
1285.000000	63.148018
1284.000000	63.154649
1283.000000	63.159320
1282.000000	63.152401
1281.000000	63.157179
1280.000000	63.153843
1279.000000	63.169975
1278.000000	63.164247
1277.000000	63.171030
1276.000000	63.165863
1275.000000	63.162548
1274.000000	63.157687
1273.000000	63.145441
1272.000000	63.146859
1271.000000	63.143232
1270.000000	63.151140
1269.000000	63.169221
1268.000000	63.165268
1267.000000	63.166432
1266.000000	63.169294
1265.000000	63.153964
1264.000000	63.176660
1263.000000	63.179562
1262.000000	63.201726
1261.000000	63.209162
1260.000000	63.189394
1259.000000	63.187758
1258.000000	63.191014
1257.000000	63.224712
1256.000000	63.202266
1255.000000	63.238202
1254.000000	63.223862
1253.000000	63.235120
1252.000000	63.219532
1251.000000	63.240145
1250.000000	63.235729
1249.000000	63.233564
1248.000000	63.224357
1247.000000	63.207603
1246.000000	63.231476
1245.000000	63.233682
1244.000000	63.231439
1243.000000	63.199768
1242.000000	63.189156
1241.000000	63.202565
1240.000000	63.199572
1239.000000	63.206096
1238.000000	63.176319
1237.000000	63.169785
1236.000000	63.176887
1235.000000	63.143867
1234.000000	63.125489
1233.000000	63.122870
1232.000000	63.115295
1231.000000	63.114421
1230.000000	63.121541
1229.000000	63.077847
1228.000000	63.063117
1227.000000	63.055832
1226.000000	63.051548
1225.000000	63.043469
1224.000000	63.034391
1223.000000	63.041316
1222.000000	63.035689
1221.000000	63.016111
1220.000000	63.008845
1219.000000	62.993957
1218.000000	62.965225
1217.000000	62.972547
1216.000000	62.941647
1215.000000	62.930201
1214.000000	62.907393
1213.000000	62.898803
1212.000000	62.923042
1211.000000	62.918762
1210.000000	62.892578
1209.000000	62.872885
1208.000000	62.879334
1207.000000	62.853720
1206.000000	62.838174
1205.000000	62.825696
1204.000000	62.832987
1203.000000	62.815187
1202.000000	62.804161
1201.000000	62.791006
1200.000000	62.771751
1199.000000	62.774719
1198.000000	62.762060
1197.000000	62.758951
1196.000000	62.757404
1195.000000	62.741297
1194.000000	62.732359
1193.000000	62.705902
1192.000000	62.692303
1191.000000	62.706681
1190.000000	62.695539
1189.000000	62.675456
1188.000000	62.669451
1187.000000	62.688097
1186.000000	62.680372
1185.000000	62.676749
1184.000000	62.673895
1183.000000	62.669165
1182.000000	62.686124
1181.000000	62.696391
1180.000000	62.710854
1179.000000	62.739305
1178.000000	62.748056
1177.000000	62.750640
1176.000000	62.769050
1175.000000	62.814705
1174.000000	62.836774
1173.000000	62.846795
1172.000000	62.873483
1171.000000	62.897590
1170.000000	62.929974
1169.000000	62.955756
1168.000000	62.968117
1167.000000	62.999778
1166.000000	63.026265
1165.000000	63.054185
1164.000000	63.087738
1163.000000	63.107675
1162.000000	63.128177
1161.000000	63.160580
1160.000000	63.184465
1159.000000	63.196973
1158.000000	63.221634
1157.000000	63.257798
1156.000000	63.275468
1155.000000	63.302543
1154.000000	63.339552
1153.000000	63.376371
1152.000000	63.402328
1151.000000	63.403944
1150.000000	63.418172
1149.000000	63.442154
1148.000000	63.469174
1147.000000	63.491398
1146.000000	63.501260
1145.000000	63.515608
1144.000000	63.536690
1143.000000	63.567177
1142.000000	63.573846
1141.000000	63.578109
1140.000000	63.579977
1139.000000	63.590740
1138.000000	63.614716
1137.000000	63.639409
1136.000000	63.663063
1135.000000	63.696639
1134.000000	63.712763
1133.000000	63.713202
1132.000000	63.710396
1131.000000	63.726259
1130.000000	63.733094
1129.000000	63.746789
1128.000000	63.766319
1127.000000	63.747675
1126.000000	63.741838
1125.000000	63.761231
1124.000000	63.780958
1123.000000	63.792773
1122.000000	63.789485
1121.000000	63.809105
1120.000000	63.806958
1119.000000	63.809420
1118.000000	63.801544
1117.000000	63.797369
1116.000000	63.806521
1115.000000	63.828372
1114.000000	63.837159
1113.000000	63.814856
1112.000000	63.820496
1111.000000	63.799402
1110.000000	63.794360
1109.000000	63.801855
1108.000000	63.811366
1107.000000	63.814676
1106.000000	63.830158
1105.000000	63.824675
1104.000000	63.839081
1103.000000	63.835708
1102.000000	63.823347
1101.000000	63.830913
1100.000000	63.814004
1099.000000	63.802070
1098.000000	63.798843
1097.000000	63.802606
1096.000000	63.808086
1095.000000	63.815431
1094.000000	63.814754
1093.000000	63.816335
1092.000000	63.827378
1091.000000	63.800523
1090.000000	63.796965
1089.000000	63.801904
1088.000000	63.803800
1087.000000	63.769259
1086.000000	63.776336
1085.000000	63.773939
1084.000000	63.794735
1083.000000	63.792997
1082.000000	63.785233
1081.000000	63.762507
1080.000000	63.760252
1079.000000	63.775164
1078.000000	63.768618
1077.000000	63.763888
1076.000000	63.764007
1075.000000	63.739645
1074.000000	63.734181
1073.000000	63.732855
1072.000000	63.749750
1071.000000	63.754530
1070.000000	63.735404
1069.000000	63.733255
1068.000000	63.730765
1067.000000	63.706844
1066.000000	63.716769
1065.000000	63.707739
1064.000000	63.691347
1063.000000	63.693852
1062.000000	63.694372
1061.000000	63.691317
1060.000000	63.695011
1059.000000	63.709041
1058.000000	63.677705
1057.000000	63.691581
1056.000000	63.680026
1055.000000	63.678967
1054.000000	63.690939
1053.000000	63.664976
1052.000000	63.684277
1051.000000	63.672571
1050.000000	63.657570
1049.000000	63.674181
1048.000000	63.658379
1047.000000	63.650865
1046.000000	63.642986
1045.000000	63.656301
1044.000000	63.622225
1043.000000	63.647135
1042.000000	63.636355
1041.000000	63.632700
1040.000000	63.632800
1039.000000	63.618218
1038.000000	63.600221
1037.000000	63.588714
1036.000000	63.591267
1035.000000	63.588342
1034.000000	63.603312
1033.000000	63.583754
1032.000000	63.598652
1031.000000	63.589904
1030.000000	63.578311
1029.000000	63.588310
1028.000000	63.569219
1027.000000	63.578137
1026.000000	63.565186
1025.000000	63.565753
1024.000000	63.556322
1023.000000	63.549793
1022.000000	63.549354
1021.000000	63.546527
1020.000000	63.559686
1019.000000	63.536084
1018.000000	63.524902
1017.000000	63.531317
1016.000000	63.513957
1015.000000	63.521419
1014.000000	63.528250
1013.000000	63.520748
1012.000000	63.515055
1011.000000	63.523812
1010.000000	63.511564
1009.000000	63.492099
1008.000000	63.503470
1007.000000	63.490048
1006.000000	63.462695
1005.000000	63.497431
1004.000000	63.493891
1003.000000	63.473892
1002.000000	63.471955
1001.000000	63.477967
1000.000000	63.481375
999.000000	63.471150
998.000000	63.483868
997.000000	63.453456
996.000000	63.462030
995.000000	63.464970
994.000000	63.448976
993.000000	63.443784
992.000000	63.424559
991.000000	63.437302
990.000000	63.433400
989.000000	63.429175
988.000000	63.421592
987.000000	63.412412
986.000000	63.421942
985.000000	63.426908
984.000000	63.418208
983.000000	63.428754
982.000000	63.426106
981.000000	63.432479
980.000000	63.409905
979.000000	63.413396
978.000000	63.438617
977.000000	63.419161
976.000000	63.438705
975.000000	63.434104
974.000000	63.432105
973.000000	63.424771
972.000000	63.429363
971.000000	63.427926
970.000000	63.433146
969.000000	63.438805
968.000000	63.439817
967.000000	63.435424
966.000000	63.463847
965.000000	63.456544
964.000000	63.429753
963.000000	63.407793
962.000000	63.412353
961.000000	63.427418
960.000000	63.425571
959.000000	63.442454
958.000000	63.441536
957.000000	63.438733
956.000000	63.442787
955.000000	63.450477
954.000000	63.437509
953.000000	63.426067
952.000000	63.433709
951.000000	63.418139
950.000000	63.410770
949.000000	63.423307
948.000000	63.427109
947.000000	63.417953
946.000000	63.414548
945.000000	63.416153
944.000000	63.426661
943.000000	63.426494
942.000000	63.429637
941.000000	63.423466
940.000000	63.412317
939.000000	63.434193
938.000000	63.423338
937.000000	63.425089
936.000000	63.430469
935.000000	63.392282
934.000000	63.378998
933.000000	63.370713
932.000000	63.390297
931.000000	63.403674
930.000000	63.371335
929.000000	63.365092
928.000000	63.376409
927.000000	63.370329
926.000000	63.343434
925.000000	63.326012
924.000000	63.335014
923.000000	63.355233
922.000000	63.372309
921.000000	63.353203
920.000000	63.333954
919.000000	63.311581
918.000000	63.301787
917.000000	63.308058
916.000000	63.294967
915.000000	63.292288
914.000000	63.245681
913.000000	63.261249
912.000000	63.281714
911.000000	63.261962
910.000000	63.246536
909.000000	63.236103
908.000000	63.263518
907.000000	63.240579
906.000000	63.241239
905.000000	63.244140
904.000000	63.267999
903.000000	63.223172
902.000000	63.262244
901.000000	63.232944
900.000000	63.236578
899.000000	63.246886
898.000000	63.225452
897.000000	63.232498
896.000000	63.255460
895.000000	63.262398
894.000000	63.236312
893.000000	63.167000
892.000000	63.174692
891.000000	63.152639
890.000000	63.143340
889.000000	63.147809
888.000000	63.131911
887.000000	63.163042
886.000000	63.156761
885.000000	63.138721
884.000000	63.199827
883.000000	63.182675
882.000000	63.136103
881.000000	63.132391
880.000000	63.139914
879.000000	63.132439
878.000000	63.127155
877.000000	63.143318
876.000000	63.094070
875.000000	63.144699
874.000000	63.178412
873.000000	62.981719
872.000000	63.051994
871.000000	63.006467
870.000000	63.029143
869.000000	63.080796
868.000000	63.176723
867.000000	63.144169
866.000000	63.058905
865.000000	62.936557
864.000000	63.042806
863.000000	63.010397
862.000000	63.049174
861.000000	62.999938
860.000000	62.938973
859.000000	63.188126
858.000000	63.713062
857.000000	63.165996
856.000000	63.109536
855.000000	63.504923
854.000000	63.486820
853.000000	63.371956
852.000000	63.041616
851.000000	63.307996
850.000000	63.379535
849.000000	62.981528
848.000000	63.263099
847.000000	63.089414
846.000000	63.075279
845.000000	63.168982
844.000000	63.152399
843.000000	63.238089
842.000000	62.971481
841.000000	62.779272
840.000000	63.183278
839.000000	62.878879
838.000000	63.005922
837.000000	62.896966
836.000000	62.914352
835.000000	62.915719
834.000000	62.843634
833.000000	62.834144
832.000000	62.904155
831.000000	62.925571
830.000000	62.751476
829.000000	63.038111
828.000000	62.939759
827.000000	62.811427
826.000000	62.716249
825.000000	63.078071
824.000000	62.775938
823.000000	62.864955
822.000000	62.882213
821.000000	62.588658
820.000000	62.688330
819.000000	62.750752
818.000000	62.829860
817.000000	62.903900
816.000000	62.710516
815.000000	62.604782
814.000000	62.466610
813.000000	62.695508
812.000000	62.605343
811.000000	62.587341
810.000000	62.568532
809.000000	62.656094
808.000000	62.585599
807.000000	62.607776
806.000000	62.612683
805.000000	62.430449
804.000000	62.694974
803.000000	62.587822
802.000000	62.474016
801.000000	62.479039
800.000000	62.335769
799.000000	62.519815
798.000000	62.436464
797.000000	62.303978
796.000000	62.420026
795.000000	62.493636
794.000000	62.367686
793.000000	62.501074
792.000000	62.331984
791.000000	62.351423
790.000000	62.297246
789.000000	62.292154
788.000000	62.269928
787.000000	62.268842
786.000000	62.320037
785.000000	62.396895
784.000000	62.245797
783.000000	62.242977
782.000000	62.153443
781.000000	62.273053
780.000000	62.245802
779.000000	62.109799
778.000000	62.125918
777.000000	62.059406
776.000000	62.152140
775.000000	62.154598
774.000000	62.045829
773.000000	61.944255
772.000000	62.123454
771.000000	62.022362
770.000000	61.991958
769.000000	61.995894
768.000000	61.945342
767.000000	61.962008
766.000000	61.939959
765.000000	61.781125
764.000000	61.826563
763.000000	61.855603
762.000000	61.846126
761.000000	61.736083
760.000000	61.738772
759.000000	61.700174
758.000000	61.672640
757.000000	61.727737
756.000000	61.671185
755.000000	61.775023
754.000000	61.721461
753.000000	61.633316
752.000000	61.587958
751.000000	61.635280
750.000000	61.597896
749.000000	61.539957
748.000000	61.507436
747.000000	61.489848
746.000000	61.351614
745.000000	61.347946
744.000000	61.376078
743.000000	61.370418
742.000000	61.244791
741.000000	61.246336
740.000000	61.240814
739.000000	61.284756
738.000000	61.236974
737.000000	61.161317
736.000000	61.154152
735.000000	61.146733
734.000000	61.143204
733.000000	61.142761
732.000000	61.091026
731.000000	60.990388
730.000000	61.023164
729.000000	60.987437
728.000000	60.936095
727.000000	60.886053
726.000000	60.798393
725.000000	60.796007
724.000000	60.782560
723.000000	60.739071
722.000000	60.641086
721.000000	60.688905
720.000000	60.744019
719.000000	60.679308
718.000000	60.656889
717.000000	60.633321
716.000000	60.490228
715.000000	60.495987
714.000000	60.503508
713.000000	60.459570
712.000000	60.429668
711.000000	60.418633
710.000000	60.390839
709.000000	60.310173
708.000000	60.244540
707.000000	60.181794
706.000000	60.167214
705.000000	60.167615
704.000000	60.161029
703.000000	60.147372
702.000000	60.049949
701.000000	59.930488
700.000000	59.901290
699.000000	59.905843
698.000000	59.838754
697.000000	59.787361
696.000000	59.706698
695.000000	59.645127
694.000000	59.634006
693.000000	59.608812
692.000000	59.591098
691.000000	59.519447
690.000000	59.492417
689.000000	59.402563
688.000000	59.340091
687.000000	59.317382
686.000000	59.266166
685.000000	59.198299
684.000000	59.133715
683.000000	59.143611
682.000000	59.111949
681.000000	59.060514
680.000000	58.966364
679.000000	58.865078
678.000000	58.828885
677.000000	58.818721
676.000000	58.796187
675.000000	58.720112
674.000000	58.677988
673.000000	58.665682
672.000000	58.586357
671.000000	58.527484
670.000000	58.501106
669.000000	58.374235
668.000000	58.371358
667.000000	58.359152
666.000000	58.275659
665.000000	58.208410
664.000000	58.128799
663.000000	58.060143
662.000000	58.011577
661.000000	57.957487
660.000000	57.937558
659.000000	57.912066
658.000000	57.871084
657.000000	57.799441
656.000000	57.709942
655.000000	57.651843
654.000000	57.588286
653.000000	57.557986
652.000000	57.516767
651.000000	57.408483
650.000000	57.337379
649.000000	57.308088
648.000000	57.282268
647.000000	57.198723
646.000000	57.198462
645.000000	57.094568
644.000000	57.016016
643.000000	56.967113
642.000000	56.866658
641.000000	56.844909
640.000000	56.782957
639.000000	56.723637
638.000000	56.650376
637.000000	56.565950
636.000000	56.534334
635.000000	56.506323
634.000000	56.401614
633.000000	56.361454
632.000000	56.275655
631.000000	56.191120
630.000000	56.101447
629.000000	56.034565
628.000000	55.996678
627.000000	55.996168
626.000000	55.900651
625.000000	55.835711
624.000000	55.681483
623.000000	55.677496
622.000000	55.565281
621.000000	55.576544
620.000000	55.478326
619.000000	55.401453
618.000000	55.313693
617.000000	55.256141
616.000000	55.148299
615.000000	55.071624
614.000000	55.077554
613.000000	54.958033
612.000000	54.882576
611.000000	54.777096
610.000000	54.665802
609.000000	54.663416
608.000000	54.537935
607.000000	54.522389
606.000000	54.405464
605.000000	54.338600
604.000000	54.270802
603.000000	54.190644
602.000000	54.076932
601.000000	54.055107
600.000000	53.929489
599.000000	53.844566
598.000000	53.776809
597.000000	53.722740
596.000000	53.624647
595.000000	53.557659
594.000000	53.370854
593.000000	53.339920
592.000000	53.273257
591.000000	53.195600
590.000000	53.073142
589.000000	52.968310
588.000000	52.892085
587.000000	52.838116
586.000000	52.733141
585.000000	52.655713
584.000000	52.540696
583.000000	52.496123
582.000000	52.375767
581.000000	52.273840
580.000000	52.195163
579.000000	52.080656
578.000000	52.027644
577.000000	51.881562
576.000000	51.776581
575.000000	51.726621
574.000000	51.597553
573.000000	51.491108
572.000000	51.366346
571.000000	51.333416
570.000000	51.227182
569.000000	51.075050
568.000000	50.987663
567.000000	50.863604
566.000000	50.771922
565.000000	50.674099
564.000000	50.528579
563.000000	50.408570
562.000000	50.315360
561.000000	50.264360
560.000000	50.146944
559.000000	50.019645
558.000000	49.902607
557.000000	49.767150
556.000000	49.672149
555.000000	49.566985
554.000000	49.381879
553.000000	49.364724
552.000000	49.208308
551.000000	49.115581
550.000000	48.997228
549.000000	48.879278
548.000000	48.763096
547.000000	48.633663
546.000000	48.471595
545.000000	48.395068
544.000000	48.272022
543.000000	48.138184
542.000000	48.015072
541.000000	47.905834
540.000000	47.752883
539.000000	47.665728
538.000000	47.543307
537.000000	47.410110
536.000000	47.279030
535.000000	47.176109
534.000000	47.033631
533.000000	46.922921
532.000000	46.779084
531.000000	46.680006
530.000000	46.534680
529.000000	46.417363
528.000000	46.293546
527.000000	46.143617
526.000000	46.020597
525.000000	45.889038
524.000000	45.750887
523.000000	45.627998
522.000000	45.491657
521.000000	45.360032
520.000000	45.242536
519.000000	45.131682
518.000000	44.968156
517.000000	44.822261
516.000000	44.715018
515.000000	44.582435
514.000000	44.438982
513.000000	44.306314
512.000000	44.153622
511.000000	44.018845
510.000000	43.888380
509.000000	43.775943
508.000000	43.618643
507.000000	43.466930
506.000000	43.326135
505.000000	43.202248
504.000000	43.080693
503.000000	42.940903
502.000000	42.803588
501.000000	42.650363
500.000000	42.480645
499.000000	42.353882
498.000000	42.223314
497.000000	42.032776
496.000000	41.915737
495.000000	41.784282
494.000000	41.584454
493.000000	41.474863
492.000000	41.298806
491.000000	41.165067
490.000000	41.065785
489.000000	40.885593
488.000000	40.754523
487.000000	40.638189
486.000000	40.493430
485.000000	40.336575
484.000000	40.186246
483.000000	40.062714
482.000000	39.917701
481.000000	39.760133
480.000000	39.625128
479.000000	39.510374
478.000000	39.378733
477.000000	39.220049
476.000000	39.059049
475.000000	38.927092
474.000000	38.796330
473.000000	38.677038
472.000000	38.538590
471.000000	38.390526
470.000000	38.259297
469.000000	38.098834
468.000000	37.952283
467.000000	37.830584
466.000000	37.704745
465.000000	37.553825
464.000000	37.381145
463.000000	37.246639
462.000000	37.112644
461.000000	36.942172
460.000000	36.790587
459.000000	36.645966
458.000000	36.489026
457.000000	36.307914
456.000000	36.155437
455.000000	36.008937
454.000000	35.803205
453.000000	35.634143
452.000000	35.512889
451.000000	35.368942
450.000000	35.167511
449.000000	34.983027
448.000000	34.809209
447.000000	34.621731
446.000000	34.426440
445.000000	34.279853
444.000000	34.089327
443.000000	33.891199
442.000000	33.736286
441.000000	33.568653
440.000000	33.361716
439.000000	33.145745
438.000000	32.945120
437.000000	32.771709
436.000000	32.576874
435.000000	32.404794
434.000000	32.233246
433.000000	32.023437
432.000000	31.806455
431.000000	31.582530
430.000000	31.412405
429.000000	31.214283
428.000000	30.985525
427.000000	30.778133
426.000000	30.612483
425.000000	30.407333
424.000000	30.213178
423.000000	30.023340
422.000000	29.775883
421.000000	29.615943
420.000000	29.393523
419.000000	29.160834
418.000000	28.991099
417.000000	28.790666
416.000000	28.575961
415.000000	28.384830
414.000000	28.216803
413.000000	28.027488
412.000000	27.816920
411.000000	27.616925
410.000000	27.396251
409.000000	27.194141
408.000000	27.004201
407.000000	26.788050
406.000000	26.565484
405.000000	26.383164
404.000000	26.169623
403.000000	25.958505
402.000000	25.768162
401.000000	25.581360
400.000000	25.414206
399.000000	25.178457
398.000000	24.989524
397.000000	24.775225
396.000000	24.578608
395.000000	24.368074
394.000000	24.179315
393.000000	23.991203
392.000000	23.718777
391.000000	23.578035
390.000000	23.341442
389.000000	23.092955
388.000000	22.926831
387.000000	22.724328
386.000000	22.511118
385.000000	22.293208
384.000000	22.117263
383.000000	21.921497
382.000000	21.711738
381.000000	21.471112
380.000000	21.285673
379.000000	21.089049
378.000000	20.873525
377.000000	20.632912
376.000000	20.504945
375.000000	20.243274
374.000000	20.094785
373.000000	19.865651
372.000000	19.765448
371.000000	19.526619
370.000000	19.261992
369.000000	19.166495
368.000000	18.974357
367.000000	18.775098
366.000000	18.587672
365.000000	18.449390
364.000000	18.262551
363.000000	18.117844
362.000000	17.968324
361.000000	17.816936
360.000000	17.662102
359.000000	17.434924
358.000000	17.299032
357.000000	17.085411
356.000000	17.051434
355.000000	16.895917
354.000000	16.741703
353.000000	16.625353
352.000000	16.428163
351.000000	16.249412
350.000000	16.180954
349.000000	16.040369
348.000000	15.877385
347.000000	15.633449
346.000000	15.597879
345.000000	15.422879
344.000000	15.366564
343.000000	15.148953
342.000000	15.108508
341.000000	14.969627
340.000000	14.788000
339.000000	14.676148
338.000000	14.633096
337.000000	14.423690
336.000000	14.284625
335.000000	14.098282
334.000000	14.118531
333.000000	13.987441
332.000000	13.915115
331.000000	13.621037
330.000000	13.587128
329.000000	13.460506
328.000000	13.351984
327.000000	13.253459
326.000000	13.208985
325.000000	13.070582
324.000000	12.955120
323.000000	12.948295
322.000000	12.911347
321.000000	12.774387
320.000000	12.724676
319.000000	12.684388
318.000000	12.510706
317.000000	12.437799
316.000000	12.441613
315.000000	12.383926
314.000000	12.272418
313.000000	12.213489
312.000000	12.186692
311.000000	12.035054
310.000000	11.983464
309.000000	11.980665
308.000000	11.968726
307.000000	11.841816
306.000000	11.864218
305.000000	11.797320
304.000000	11.674587
303.000000	11.748040
302.000000	11.699118
301.000000	11.629547
300.000000	11.593591
299.000000	11.545773
298.000000	11.522483
297.000000	11.445700
296.000000	11.390515
295.000000	11.334932
294.000000	11.309125
293.000000	11.252835
292.000000	11.177699
291.000000	11.142182
290.000000	11.098326
289.000000	11.066519
288.000000	10.996249
287.000000	10.982236
286.000000	10.892299
285.000000	10.894419
284.000000	10.857789
283.000000	10.863479
282.000000	10.845474
281.000000	10.846732
280.000000	10.843985
279.000000	10.806392
278.000000	10.848986
277.000000	10.863263
276.000000	10.880767
275.000000	10.895894
274.000000	10.955221
273.000000	10.988988
272.000000	11.013335
271.000000	11.016051
270.000000	11.062634
269.000000	11.083625
268.000000	11.139867
267.000000	11.236526
266.000000	11.239188
265.000000	11.243617
264.000000	11.349755
263.000000	11.452581
262.000000	11.523360
261.000000	11.541427
260.000000	11.671009
259.000000	11.744502
258.000000	11.743202
257.000000	11.833797
256.000000	11.887590
255.000000	11.994490
254.000000	12.079236
253.000000	12.164264
252.000000	12.283268
251.000000	12.379430
250.000000	12.436380
249.000000	12.527622
248.000000	12.624126
247.000000	12.725054
246.000000	12.730084
245.000000	12.797905
244.000000	12.882597
243.000000	12.847357
242.000000	12.891808
241.000000	12.912230
240.000000	12.871114
239.000000	12.852059
238.000000	12.852254
237.000000	12.796042
236.000000	12.641741
235.000000	12.547014
234.000000	12.562013
233.000000	12.539584
232.000000	12.514865
231.000000	12.455958
230.000000	12.325873
229.000000	12.302836
228.000000	12.249299
227.000000	12.209652
226.000000	12.259677
225.000000	12.213551
224.000000	12.258772
223.000000	12.309245
222.000000	12.292216
221.000000	12.360233
220.000000	12.464381
219.000000	12.488013
218.000000	12.531730
217.000000	12.636956
216.000000	12.777771
215.000000	12.930367
214.000000	12.953692
213.000000	13.089723
212.000000	13.339871
211.000000	13.445672
210.000000	13.655293
209.000000	13.919471
208.000000	14.158314
207.000000	14.402475
206.000000	14.668749
205.000000	15.200691
204.000000	15.641828
203.000000	15.965302
202.000000	16.553021
201.000000	17.147861
200.000000	17.477844
