PE UV       SUBTECH     SPECTRUM    ASCII       PEDS        4.00        
   -1
RDms1556142.Sample.asc
18/03/21
15:24:42.00
18/03/21
15:24:42.00
Administrator

200.000000
1
Lambda 750
750N8071901
PerkinElmer UV WinLab 6.0.4.0738 / 1.61.00 Lambda 900

0
0
3350/servo 860.8/2
0
0
UV/VIS
1
1
1
CommonBeamDepol,150mm sphere / downward view
0
0
0
0
Program
Program
3350/servo 860.8/2
3350/0.2 860.8/0.2
3350/0.2 860.8/0.2
0
1
 
 
 
0
 
860.8
319.2
860.8
Front
100
on
 
 
0
0
0
 
0
 
 
 
0
 
 
0
0
0
0
0
 
 
 
 
0
0


0
0
#HDR
-1
-1
#GR
nm
%R
1.0
0.0
2350.000000
-1.000000
2151
8
56.453990
8.061651
#DATA
2350.000000	37.160600
2349.000000	37.842372
2348.000000	37.017874
2347.000000	37.714738
2346.000000	37.724988
2345.000000	37.662332
2344.000000	37.639851
2343.000000	37.199197
2342.000000	37.683137
2341.000000	37.587789
2340.000000	37.654991
2339.000000	38.039367
2338.000000	37.949675
2337.000000	37.623125
2336.000000	38.530316
2335.000000	38.086862
2334.000000	38.148838
2333.000000	38.508848
2332.000000	38.237852
2331.000000	38.372267
2330.000000	38.225005
2329.000000	37.969689
2328.000000	38.091293
2327.000000	38.122084
2326.000000	38.309020
2325.000000	37.849681
2324.000000	38.068491
2323.000000	38.165269
2322.000000	37.672074
2321.000000	37.814960
2320.000000	37.771353
2319.000000	37.891577
2318.000000	37.738609
2317.000000	37.993337
2316.000000	37.736904
2315.000000	37.744834
2314.000000	37.683302
2313.000000	37.398496
2312.000000	37.449012
2311.000000	37.445360
2310.000000	37.506603
2309.000000	37.614450
2308.000000	37.312136
2307.000000	37.136188
2306.000000	37.035320
2305.000000	37.142155
2304.000000	37.037225
2303.000000	36.955897
2302.000000	36.980547
2301.000000	36.893498
2300.000000	36.774369
2299.000000	37.066033
2298.000000	36.920949
2297.000000	36.752960
2296.000000	36.726718
2295.000000	36.535960
2294.000000	36.504324
2293.000000	36.501316
2292.000000	36.394161
2291.000000	36.371051
2290.000000	36.450424
2289.000000	36.226903
2288.000000	36.128548
2287.000000	36.245761
2286.000000	36.290756
2285.000000	36.252400
2284.000000	36.279836
2283.000000	36.264389
2282.000000	36.092473
2281.000000	36.405241
2280.000000	36.210564
2279.000000	36.044919
2278.000000	36.003795
2277.000000	36.095088
2276.000000	36.236633
2275.000000	36.283510
2274.000000	36.393409
2273.000000	36.446476
2272.000000	36.393966
2271.000000	36.325942
2270.000000	36.401321
2269.000000	36.475855
2268.000000	36.528490
2267.000000	36.604446
2266.000000	36.665837
2265.000000	36.776579
2264.000000	36.939787
2263.000000	36.889811
2262.000000	36.935042
2261.000000	37.162921
2260.000000	37.231034
2259.000000	37.429552
2258.000000	37.524699
2257.000000	37.693068
2256.000000	37.768197
2255.000000	37.932103
2254.000000	38.056325
2253.000000	38.172991
2252.000000	38.302275
2251.000000	38.475321
2250.000000	38.737933
2249.000000	38.798696
2248.000000	38.855046
2247.000000	39.132359
2246.000000	39.356863
2245.000000	39.346005
2244.000000	39.387438
2243.000000	39.699575
2242.000000	39.930658
2241.000000	39.939112
2240.000000	39.973981
2239.000000	40.109431
2238.000000	40.236081
2237.000000	40.258644
2236.000000	40.190392
2235.000000	40.303551
2234.000000	40.532181
2233.000000	40.583443
2232.000000	40.640777
2231.000000	40.667420
2230.000000	40.660526
2229.000000	40.761406
2228.000000	40.803854
2227.000000	40.741922
2226.000000	40.806072
2225.000000	40.867757
2224.000000	40.795824
2223.000000	40.666316
2222.000000	40.630704
2221.000000	40.762899
2220.000000	40.763763
2219.000000	40.606134
2218.000000	40.514996
2217.000000	40.542022
2216.000000	40.648694
2215.000000	40.603795
2214.000000	40.586630
2213.000000	40.665295
2212.000000	40.509372
2211.000000	40.321450
2210.000000	40.474922
2209.000000	40.357418
2208.000000	40.156852
2207.000000	40.215256
2206.000000	40.280431
2205.000000	40.279601
2204.000000	40.236114
2203.000000	40.030961
2202.000000	39.906720
2201.000000	39.976833
2200.000000	39.902757
2199.000000	39.899695
2198.000000	39.891569
2197.000000	39.941417
2196.000000	39.730948
2195.000000	39.700147
2194.000000	39.701250
2193.000000	39.757047
2192.000000	39.782959
2191.000000	39.763102
2190.000000	39.608633
2189.000000	39.588032
2188.000000	39.543682
2187.000000	39.404568
2186.000000	39.338010
2185.000000	39.223693
2184.000000	39.178794
2183.000000	39.278977
2182.000000	39.424336
2181.000000	39.297434
2180.000000	39.396967
2179.000000	39.452031
2178.000000	39.304433
2177.000000	39.331686
2176.000000	39.442010
2175.000000	39.370753
2174.000000	39.399892
2173.000000	39.443086
2172.000000	39.586387
2171.000000	39.534928
2170.000000	39.496293
2169.000000	39.634437
2168.000000	39.819258
2167.000000	39.897707
2166.000000	39.832999
2165.000000	39.926298
2164.000000	39.782345
2163.000000	40.046499
2162.000000	40.042716
2161.000000	40.081757
2160.000000	40.240126
2159.000000	40.361672
2158.000000	40.454385
2157.000000	40.450022
2156.000000	40.684744
2155.000000	40.726047
2154.000000	40.873421
2153.000000	40.981120
2152.000000	41.097435
2151.000000	40.916366
2150.000000	41.335648
2149.000000	41.464277
2148.000000	41.383233
2147.000000	41.716343
2146.000000	41.897486
2145.000000	41.927834
2144.000000	41.900310
2143.000000	41.964252
2142.000000	42.030120
2141.000000	42.113096
2140.000000	42.242905
2139.000000	42.677221
2138.000000	42.555784
2137.000000	42.774409
2136.000000	42.644362
2135.000000	42.618543
2134.000000	42.739714
2133.000000	42.616522
2132.000000	43.012977
2131.000000	42.963646
2130.000000	42.905599
2129.000000	43.005225
2128.000000	42.996044
2127.000000	42.999632
2126.000000	43.011690
2125.000000	43.058110
2124.000000	43.248470
2123.000000	43.176303
2122.000000	43.281241
2121.000000	43.240082
2120.000000	43.165986
2119.000000	43.381974
2118.000000	43.306359
2117.000000	43.279447
2116.000000	43.312758
2115.000000	43.416413
2114.000000	43.441109
2113.000000	43.402466
2112.000000	43.315132
2111.000000	43.521146
2110.000000	43.352108
2109.000000	43.416681
2108.000000	43.348110
2107.000000	43.491275
2106.000000	43.536073
2105.000000	43.378418
2104.000000	43.365378
2103.000000	43.470744
2102.000000	43.444333
2101.000000	43.516302
2100.000000	43.589190
2099.000000	43.512644
2098.000000	43.426162
2097.000000	43.581510
2096.000000	43.459530
2095.000000	43.468919
2094.000000	43.567418
2093.000000	43.533282
2092.000000	43.467908
2091.000000	43.526707
2090.000000	43.392995
2089.000000	43.434415
2088.000000	43.396448
2087.000000	43.371317
2086.000000	43.413354
2085.000000	43.462263
2084.000000	43.347428
2083.000000	43.335589
2082.000000	43.272151
2081.000000	43.157317
2080.000000	43.112000
2079.000000	43.109325
2078.000000	43.099642
2077.000000	42.993318
2076.000000	42.896540
2075.000000	42.878562
2074.000000	42.876307
2073.000000	42.738144
2072.000000	42.612779
2071.000000	42.627091
2070.000000	42.650439
2069.000000	42.420405
2068.000000	42.296085
2067.000000	42.270936
2066.000000	42.201966
2065.000000	42.058983
2064.000000	41.955795
2063.000000	41.833139
2062.000000	41.752966
2061.000000	41.689210
2060.000000	41.524174
2059.000000	41.447505
2058.000000	41.374944
2057.000000	41.283455
2056.000000	41.215416
2055.000000	41.069440
2054.000000	40.963431
2053.000000	40.832718
2052.000000	40.779510
2051.000000	40.741475
2050.000000	40.665870
2049.000000	40.541719
2048.000000	40.477359
2047.000000	40.463587
2046.000000	40.411270
2045.000000	40.382083
2044.000000	40.342811
2043.000000	40.336414
2042.000000	40.376785
2041.000000	40.343894
2040.000000	40.317203
2039.000000	40.302960
2038.000000	40.329049
2037.000000	40.358433
2036.000000	40.413870
2035.000000	40.480658
2034.000000	40.539432
2033.000000	40.594947
2032.000000	40.699308
2031.000000	40.732516
2030.000000	40.777200
2029.000000	40.869718
2028.000000	40.929193
2027.000000	40.971936
2026.000000	41.044431
2025.000000	41.123389
2024.000000	41.149094
2023.000000	41.225175
2022.000000	41.254893
2021.000000	41.266335
2020.000000	41.323022
2019.000000	41.333030
2018.000000	41.359188
2017.000000	41.369023
2016.000000	41.358896
2015.000000	41.327514
2014.000000	41.337518
2013.000000	41.330159
2012.000000	41.300391
2011.000000	41.328375
2010.000000	41.274804
2009.000000	41.164747
2008.000000	41.099559
2007.000000	41.069945
2006.000000	41.021008
2005.000000	40.996863
2004.000000	40.945300
2003.000000	40.846902
2002.000000	40.753714
2001.000000	40.656231
2000.000000	40.616814
1999.000000	40.570380
1998.000000	40.471444
1997.000000	40.388778
1996.000000	40.284930
1995.000000	40.190690
1994.000000	40.118486
1993.000000	40.089261
1992.000000	40.018788
1991.000000	39.877750
1990.000000	39.841156
1989.000000	39.764228
1988.000000	39.670716
1987.000000	39.604461
1986.000000	39.503144
1985.000000	39.430989
1984.000000	39.377088
1983.000000	39.276505
1982.000000	39.229898
1981.000000	39.144458
1980.000000	39.037183
1979.000000	38.940120
1978.000000	38.831465
1977.000000	38.757011
1976.000000	38.749309
1975.000000	38.650485
1974.000000	38.594164
1973.000000	38.562433
1972.000000	38.473066
1971.000000	38.404589
1970.000000	38.290895
1969.000000	38.238973
1968.000000	38.170810
1967.000000	38.109333
1966.000000	38.051406
1965.000000	37.946826
1964.000000	37.868169
1963.000000	37.852058
1962.000000	37.761868
1961.000000	37.644466
1960.000000	37.584138
1959.000000	37.482904
1958.000000	37.432552
1957.000000	37.405751
1956.000000	37.360995
1955.000000	37.216846
1954.000000	37.214335
1953.000000	37.170423
1952.000000	37.175523
1951.000000	37.176114
1950.000000	37.090621
1949.000000	37.073528
1948.000000	37.020818
1947.000000	36.955025
1946.000000	36.908482
1945.000000	36.933086
1944.000000	36.895391
1943.000000	36.980664
1942.000000	37.007938
1941.000000	37.009367
1940.000000	37.051841
1939.000000	37.085407
1938.000000	37.041736
1937.000000	37.160166
1936.000000	37.184986
1935.000000	37.255977
1934.000000	37.346107
1933.000000	37.387608
1932.000000	37.406684
1931.000000	37.658638
1930.000000	37.681158
1929.000000	37.751032
1928.000000	37.918302
1927.000000	38.110729
1926.000000	38.283503
1925.000000	38.414133
1924.000000	38.545174
1923.000000	38.826159
1922.000000	38.956653
1921.000000	39.224512
1920.000000	39.351818
1919.000000	39.540532
1918.000000	39.704453
1917.000000	39.964437
1916.000000	40.203758
1915.000000	40.509338
1914.000000	40.700129
1913.000000	40.963473
1912.000000	41.284873
1911.000000	41.532703
1910.000000	41.808418
1909.000000	42.105599
1908.000000	42.333281
1907.000000	42.648535
1906.000000	42.894415
1905.000000	43.161655
1904.000000	43.610911
1903.000000	43.918608
1902.000000	44.259954
1901.000000	44.550459
1900.000000	44.838844
1899.000000	45.253741
1898.000000	45.563335
1897.000000	45.829779
1896.000000	46.151388
1895.000000	46.467639
1894.000000	46.768479
1893.000000	47.014234
1892.000000	47.395627
1891.000000	47.586200
1890.000000	47.876863
1889.000000	48.209288
1888.000000	48.450760
1887.000000	48.684267
1886.000000	48.946733
1885.000000	49.143669
1884.000000	49.424585
1883.000000	49.695925
1882.000000	49.837139
1881.000000	49.999493
1880.000000	50.221993
1879.000000	50.402494
1878.000000	50.600615
1877.000000	50.788583
1876.000000	50.947907
1875.000000	51.042356
1874.000000	51.220194
1873.000000	51.269602
1872.000000	51.414459
1871.000000	51.498739
1870.000000	51.605110
1869.000000	51.725356
1868.000000	51.853604
1867.000000	51.872156
1866.000000	51.870000
1865.000000	51.903113
1864.000000	51.950530
1863.000000	51.998509
1862.000000	52.092816
1861.000000	52.084469
1860.000000	52.118168
1859.000000	52.091848
1858.000000	52.133329
1857.000000	52.164051
1856.000000	52.139723
1855.000000	52.161595
1854.000000	52.220358
1853.000000	52.256739
1852.000000	52.244840
1851.000000	52.281783
1850.000000	52.286869
1849.000000	52.261777
1848.000000	52.220634
1847.000000	52.255874
1846.000000	52.295841
1845.000000	52.272983
1844.000000	52.262533
1843.000000	52.249371
1842.000000	52.272117
1841.000000	52.260093
1840.000000	52.227171
1839.000000	52.211783
1838.000000	52.185604
1837.000000	52.136813
1836.000000	52.135280
1835.000000	52.122238
1834.000000	52.082752
1833.000000	52.055233
1832.000000	52.042243
1831.000000	52.002571
1830.000000	51.986494
1829.000000	51.967343
1828.000000	51.947013
1827.000000	51.927364
1826.000000	51.940578
1825.000000	51.904886
1824.000000	51.890411
1823.000000	51.875287
1822.000000	51.841346
1821.000000	51.800202
1820.000000	51.770348
1819.000000	51.760532
1818.000000	51.752158
1817.000000	51.719178
1816.000000	51.695673
1815.000000	51.689904
1814.000000	51.661074
1813.000000	51.663552
1812.000000	51.650300
1811.000000	51.621333
1810.000000	51.628491
1809.000000	51.643726
1808.000000	51.605782
1807.000000	51.554570
1806.000000	51.548502
1805.000000	51.549630
1804.000000	51.542267
1803.000000	51.519535
1802.000000	51.492898
1801.000000	51.484318
1800.000000	51.489961
1799.000000	51.471607
1798.000000	51.425814
1797.000000	51.420423
1796.000000	51.427788
1795.000000	51.443177
1794.000000	51.454694
1793.000000	51.433870
1792.000000	51.410197
1791.000000	51.422923
1790.000000	51.403837
1789.000000	51.356235
1788.000000	51.344619
1787.000000	51.393506
1786.000000	51.358868
1785.000000	51.323185
1784.000000	51.333821
1783.000000	51.313937
1782.000000	51.327192
1781.000000	51.281785
1780.000000	51.270865
1779.000000	51.256085
1778.000000	51.247234
1777.000000	51.223841
1776.000000	51.196037
1775.000000	51.172449
1774.000000	51.143113
1773.000000	51.115372
1772.000000	51.088638
1771.000000	51.077792
1770.000000	51.021416
1769.000000	50.981582
1768.000000	50.947499
1767.000000	50.954529
1766.000000	50.917421
1765.000000	50.934867
1764.000000	50.901036
1763.000000	50.851881
1762.000000	50.785841
1761.000000	50.757658
1760.000000	50.691814
1759.000000	50.714154
1758.000000	50.694893
1757.000000	50.654971
1756.000000	50.661901
1755.000000	50.635883
1754.000000	50.596833
1753.000000	50.597693
1752.000000	50.571167
1751.000000	50.513738
1750.000000	50.492439
1749.000000	50.497450
1748.000000	50.459354
1747.000000	50.443199
1746.000000	50.415522
1745.000000	50.359766
1744.000000	50.339420
1743.000000	50.323591
1742.000000	50.279316
1741.000000	50.271320
1740.000000	50.248231
1739.000000	50.194000
1738.000000	50.186076
1737.000000	50.149151
1736.000000	50.168674
1735.000000	50.157276
1734.000000	50.160181
1733.000000	50.120650
1732.000000	50.132276
1731.000000	50.141471
1730.000000	50.157069
1729.000000	50.177678
1728.000000	50.196791
1727.000000	50.198585
1726.000000	50.268019
1725.000000	50.296680
1724.000000	50.354606
1723.000000	50.384462
1722.000000	50.453223
1721.000000	50.483904
1720.000000	50.570931
1719.000000	50.615129
1718.000000	50.662363
1717.000000	50.683803
1716.000000	50.747336
1715.000000	50.765851
1714.000000	50.819621
1713.000000	50.859051
1712.000000	50.915325
1711.000000	50.952371
1710.000000	50.983875
1709.000000	51.023993
1708.000000	51.040458
1707.000000	51.036260
1706.000000	51.038469
1705.000000	51.087095
1704.000000	51.149473
1703.000000	51.094225
1702.000000	51.118390
1701.000000	51.160149
1700.000000	51.132664
1699.000000	51.144553
1698.000000	51.191274
1697.000000	51.208494
1696.000000	51.219958
1695.000000	51.230286
1694.000000	51.246775
1693.000000	51.257392
1692.000000	51.277307
1691.000000	51.331949
1690.000000	51.382557
1689.000000	51.394930
1688.000000	51.448727
1687.000000	51.513618
1686.000000	51.570360
1685.000000	51.589216
1684.000000	51.681996
1683.000000	51.755641
1682.000000	51.831595
1681.000000	51.907705
1680.000000	51.965323
1679.000000	52.073575
1678.000000	52.132815
1677.000000	52.221868
1676.000000	52.302695
1675.000000	52.387875
1674.000000	52.469017
1673.000000	52.518153
1672.000000	52.622880
1671.000000	52.714087
1670.000000	52.765944
1669.000000	52.851929
1668.000000	52.887911
1667.000000	52.969720
1666.000000	53.013258
1665.000000	53.048969
1664.000000	53.091249
1663.000000	53.136948
1662.000000	53.156156
1661.000000	53.204489
1660.000000	53.237890
1659.000000	53.290018
1658.000000	53.290707
1657.000000	53.336813
1656.000000	53.346960
1655.000000	53.376763
1654.000000	53.380450
1653.000000	53.390249
1652.000000	53.385771
1651.000000	53.379235
1650.000000	53.397385
1649.000000	53.407059
1648.000000	53.365383
1647.000000	53.360225
1646.000000	53.347669
1645.000000	53.349213
1644.000000	53.348420
1643.000000	53.327087
1642.000000	53.354103
1641.000000	53.327750
1640.000000	53.322038
1639.000000	53.307280
1638.000000	53.268422
1637.000000	53.278197
1636.000000	53.247526
1635.000000	53.248966
1634.000000	53.227048
1633.000000	53.181540
1632.000000	53.184237
1631.000000	53.181499
1630.000000	53.143172
1629.000000	53.113468
1628.000000	53.080202
1627.000000	53.052554
1626.000000	53.031543
1625.000000	53.025839
1624.000000	53.009709
1623.000000	52.999560
1622.000000	52.985817
1621.000000	52.947160
1620.000000	52.905855
1619.000000	52.874149
1618.000000	52.842971
1617.000000	52.841312
1616.000000	52.822184
1615.000000	52.806168
1614.000000	52.762398
1613.000000	52.733159
1612.000000	52.711822
1611.000000	52.689159
1610.000000	52.654034
1609.000000	52.635923
1608.000000	52.611258
1607.000000	52.585412
1606.000000	52.559663
1605.000000	52.520519
1604.000000	52.484994
1603.000000	52.462910
1602.000000	52.453433
1601.000000	52.417647
1600.000000	52.365382
1599.000000	52.344330
1598.000000	52.324319
1597.000000	52.289976
1596.000000	52.263662
1595.000000	52.245408
1594.000000	52.225664
1593.000000	52.202621
1592.000000	52.175502
1591.000000	52.161110
1590.000000	52.151461
1589.000000	52.107654
1588.000000	52.058446
1587.000000	52.043068
1586.000000	52.023711
1585.000000	52.001645
1584.000000	51.981365
1583.000000	51.967875
1582.000000	51.950291
1581.000000	51.936197
1580.000000	51.910631
1579.000000	51.887078
1578.000000	51.880902
1577.000000	51.861567
1576.000000	51.828833
1575.000000	51.801165
1574.000000	51.771450
1573.000000	51.750577
1572.000000	51.718919
1571.000000	51.714540
1570.000000	51.697562
1569.000000	51.663678
1568.000000	51.648586
1567.000000	51.640289
1566.000000	51.620805
1565.000000	51.602084
1564.000000	51.585148
1563.000000	51.585040
1562.000000	51.576268
1561.000000	51.556549
1560.000000	51.540412
1559.000000	51.533625
1558.000000	51.512836
1557.000000	51.491428
1556.000000	51.492211
1555.000000	51.490414
1554.000000	51.472867
1553.000000	51.450589
1552.000000	51.408679
1551.000000	51.398130
1550.000000	51.390200
1549.000000	51.357434
1548.000000	51.353885
1547.000000	51.323790
1546.000000	51.293585
1545.000000	51.266491
1544.000000	51.222678
1543.000000	51.178272
1542.000000	51.147421
1541.000000	51.101927
1540.000000	51.061691
1539.000000	51.004712
1538.000000	50.978154
1537.000000	50.947816
1536.000000	50.897861
1535.000000	50.855568
1534.000000	50.818499
1533.000000	50.783221
1532.000000	50.731648
1531.000000	50.686824
1530.000000	50.643041
1529.000000	50.628560
1528.000000	50.573781
1527.000000	50.543885
1526.000000	50.506944
1525.000000	50.468632
1524.000000	50.410194
1523.000000	50.395073
1522.000000	50.381575
1521.000000	50.340897
1520.000000	50.319205
1519.000000	50.285611
1518.000000	50.289467
1517.000000	50.272006
1516.000000	50.245485
1515.000000	50.217455
1514.000000	50.192629
1513.000000	50.208121
1512.000000	50.185995
1511.000000	50.161332
1510.000000	50.148718
1509.000000	50.146499
1508.000000	50.134444
1507.000000	50.108239
1506.000000	50.127616
1505.000000	50.114727
1504.000000	50.102394
1503.000000	50.119806
1502.000000	50.103529
1501.000000	50.080033
1500.000000	50.091437
1499.000000	50.087617
1498.000000	50.096305
1497.000000	50.110878
1496.000000	50.108282
1495.000000	50.124820
1494.000000	50.107868
1493.000000	50.124771
1492.000000	50.154041
1491.000000	50.165056
1490.000000	50.172456
1489.000000	50.181775
1488.000000	50.216082
1487.000000	50.237550
1486.000000	50.256509
1485.000000	50.273491
1484.000000	50.278230
1483.000000	50.321876
1482.000000	50.305568
1481.000000	50.349108
1480.000000	50.380590
1479.000000	50.391697
1478.000000	50.429116
1477.000000	50.446169
1476.000000	50.449994
1475.000000	50.499926
1474.000000	50.533470
1473.000000	50.543389
1472.000000	50.560635
1471.000000	50.569229
1470.000000	50.621131
1469.000000	50.628682
1468.000000	50.647400
1467.000000	50.700127
1466.000000	50.695771
1465.000000	50.730406
1464.000000	50.724789
1463.000000	50.740906
1462.000000	50.794667
1461.000000	50.795475
1460.000000	50.801311
1459.000000	50.834465
1458.000000	50.856541
1457.000000	50.891332
1456.000000	50.900877
1455.000000	50.927574
1454.000000	50.952396
1453.000000	50.978479
1452.000000	51.036698
1451.000000	51.069589
1450.000000	51.092550
1449.000000	51.116335
1448.000000	51.145420
1447.000000	51.187100
1446.000000	51.212307
1445.000000	51.239194
1444.000000	51.271235
1443.000000	51.336931
1442.000000	51.362834
1441.000000	51.395060
1440.000000	51.445085
1439.000000	51.494952
1438.000000	51.543440
1437.000000	51.591462
1436.000000	51.647854
1435.000000	51.697040
1434.000000	51.736862
1433.000000	51.785805
1432.000000	51.855585
1431.000000	51.912063
1430.000000	51.970829
1429.000000	52.039979
1428.000000	52.101857
1427.000000	52.154811
1426.000000	52.214495
1425.000000	52.287471
1424.000000	52.358794
1423.000000	52.432017
1422.000000	52.503516
1421.000000	52.585702
1420.000000	52.658543
1419.000000	52.722003
1418.000000	52.803775
1417.000000	52.891065
1416.000000	52.956238
1415.000000	53.044886
1414.000000	53.139024
1413.000000	53.227668
1412.000000	53.293322
1411.000000	53.376706
1410.000000	53.472631
1409.000000	53.559569
1408.000000	53.642871
1407.000000	53.722719
1406.000000	53.807487
1405.000000	53.869141
1404.000000	53.928428
1403.000000	54.009021
1402.000000	54.085670
1401.000000	54.164871
1400.000000	54.246380
1399.000000	54.299997
1398.000000	54.348439
1397.000000	54.417473
1396.000000	54.501341
1395.000000	54.567010
1394.000000	54.627602
1393.000000	54.686437
1392.000000	54.734579
1391.000000	54.789122
1390.000000	54.838468
1389.000000	54.868069
1388.000000	54.920956
1387.000000	54.980406
1386.000000	55.010355
1385.000000	55.043028
1384.000000	55.097670
1383.000000	55.154575
1382.000000	55.174904
1381.000000	55.222718
1380.000000	55.268992
1379.000000	55.288081
1378.000000	55.309139
1377.000000	55.338769
1376.000000	55.373771
1375.000000	55.380934
1374.000000	55.401732
1373.000000	55.444551
1372.000000	55.469743
1371.000000	55.481547
1370.000000	55.487847
1369.000000	55.496332
1368.000000	55.521306
1367.000000	55.551695
1366.000000	55.564612
1365.000000	55.571904
1364.000000	55.585718
1363.000000	55.612938
1362.000000	55.632629
1361.000000	55.649313
1360.000000	55.662523
1359.000000	55.685883
1358.000000	55.728266
1357.000000	55.742910
1356.000000	55.764896
1355.000000	55.769872
1354.000000	55.774141
1353.000000	55.826820
1352.000000	55.837028
1351.000000	55.841205
1350.000000	55.867173
1349.000000	55.878522
1348.000000	55.890635
1347.000000	55.929237
1346.000000	55.952142
1345.000000	55.959513
1344.000000	55.995192
1343.000000	56.005298
1342.000000	56.007014
1341.000000	56.036998
1340.000000	56.053709
1339.000000	56.068574
1338.000000	56.082148
1337.000000	56.111658
1336.000000	56.127115
1335.000000	56.128354
1334.000000	56.139060
1333.000000	56.154350
1332.000000	56.169172
1331.000000	56.160324
1330.000000	56.174126
1329.000000	56.177608
1328.000000	56.165575
1327.000000	56.189421
1326.000000	56.219283
1325.000000	56.257023
1324.000000	56.327288
1323.000000	56.363646
1322.000000	56.384589
1321.000000	56.393652
1320.000000	56.353780
1319.000000	56.339001
1318.000000	56.345150
1317.000000	56.358547
1316.000000	56.402730
1315.000000	56.388997
1314.000000	56.355760
1313.000000	56.361949
1312.000000	56.360783
1311.000000	56.400317
1310.000000	56.440775
1309.000000	56.433682
1308.000000	56.408823
1307.000000	56.403869
1306.000000	56.399085
1305.000000	56.411111
1304.000000	56.438959
1303.000000	56.424300
1302.000000	56.446506
1301.000000	56.412479
1300.000000	56.407543
1299.000000	56.404466
1298.000000	56.419919
1297.000000	56.412510
1296.000000	56.443751
1295.000000	56.453990
1294.000000	56.422033
1293.000000	56.414460
1292.000000	56.428561
1291.000000	56.418449
1290.000000	56.410937
1289.000000	56.376639
1288.000000	56.372221
1287.000000	56.362473
1286.000000	56.376152
1285.000000	56.376299
1284.000000	56.363942
1283.000000	56.372949
1282.000000	56.370354
1281.000000	56.373461
1280.000000	56.364457
1279.000000	56.357807
1278.000000	56.353718
1277.000000	56.312796
1276.000000	56.300241
1275.000000	56.313605
1274.000000	56.308233
1273.000000	56.317342
1272.000000	56.307821
1271.000000	56.304852
1270.000000	56.299413
1269.000000	56.306843
1268.000000	56.315703
1267.000000	56.323198
1266.000000	56.337899
1265.000000	56.315044
1264.000000	56.318293
1263.000000	56.321251
1262.000000	56.324760
1261.000000	56.317557
1260.000000	56.341274
1259.000000	56.349612
1258.000000	56.339010
1257.000000	56.302361
1256.000000	56.333095
1255.000000	56.313888
1254.000000	56.292489
1253.000000	56.304801
1252.000000	56.321952
1251.000000	56.343869
1250.000000	56.332668
1249.000000	56.325319
1248.000000	56.306873
1247.000000	56.313913
1246.000000	56.311579
1245.000000	56.298194
1244.000000	56.257545
1243.000000	56.253621
1242.000000	56.246841
1241.000000	56.253703
1240.000000	56.248098
1239.000000	56.246102
1238.000000	56.196845
1237.000000	56.188334
1236.000000	56.182768
1235.000000	56.140861
1234.000000	56.148895
1233.000000	56.153929
1232.000000	56.143270
1231.000000	56.133169
1230.000000	56.090555
1229.000000	56.098857
1228.000000	56.083112
1227.000000	56.072042
1226.000000	56.072423
1225.000000	56.074566
1224.000000	56.053276
1223.000000	56.005082
1222.000000	55.994321
1221.000000	55.983421
1220.000000	55.989209
1219.000000	55.967135
1218.000000	55.966026
1217.000000	55.952256
1216.000000	55.938681
1215.000000	55.953912
1214.000000	55.941972
1213.000000	55.923830
1212.000000	55.915490
1211.000000	55.926416
1210.000000	55.939632
1209.000000	55.893290
1208.000000	55.865028
1207.000000	55.857691
1206.000000	55.870234
1205.000000	55.858959
1204.000000	55.831246
1203.000000	55.824252
1202.000000	55.810730
1201.000000	55.795813
1200.000000	55.782685
1199.000000	55.778407
1198.000000	55.757908
1197.000000	55.745636
1196.000000	55.731234
1195.000000	55.733966
1194.000000	55.740141
1193.000000	55.733483
1192.000000	55.715091
1191.000000	55.708715
1190.000000	55.683764
1189.000000	55.631514
1188.000000	55.636498
1187.000000	55.656247
1186.000000	55.638059
1185.000000	55.617493
1184.000000	55.610592
1183.000000	55.619536
1182.000000	55.635477
1181.000000	55.644262
1180.000000	55.643226
1179.000000	55.651748
1178.000000	55.662303
1177.000000	55.660882
1176.000000	55.673368
1175.000000	55.693309
1174.000000	55.703137
1173.000000	55.700313
1172.000000	55.725902
1171.000000	55.750714
1170.000000	55.761967
1169.000000	55.776312
1168.000000	55.799062
1167.000000	55.802318
1166.000000	55.795659
1165.000000	55.812547
1164.000000	55.834464
1163.000000	55.858193
1162.000000	55.871411
1161.000000	55.890774
1160.000000	55.913047
1159.000000	55.924899
1158.000000	55.944714
1157.000000	55.973123
1156.000000	55.981121
1155.000000	55.992708
1154.000000	56.020650
1153.000000	56.025136
1152.000000	56.033306
1151.000000	56.061652
1150.000000	56.073041
1149.000000	56.076158
1148.000000	56.084609
1147.000000	56.098257
1146.000000	56.089729
1145.000000	56.077896
1144.000000	56.091945
1143.000000	56.106764
1142.000000	56.108631
1141.000000	56.121765
1140.000000	56.136699
1139.000000	56.140111
1138.000000	56.154485
1137.000000	56.159541
1136.000000	56.164106
1135.000000	56.165741
1134.000000	56.169553
1133.000000	56.183127
1132.000000	56.165756
1131.000000	56.144783
1130.000000	56.165915
1129.000000	56.173700
1128.000000	56.172839
1127.000000	56.191329
1126.000000	56.184525
1125.000000	56.174449
1124.000000	56.178622
1123.000000	56.193665
1122.000000	56.194196
1121.000000	56.190037
1120.000000	56.182926
1119.000000	56.174680
1118.000000	56.171760
1117.000000	56.176818
1116.000000	56.143278
1115.000000	56.130358
1114.000000	56.145436
1113.000000	56.146198
1112.000000	56.148957
1111.000000	56.149828
1110.000000	56.133582
1109.000000	56.124170
1108.000000	56.142735
1107.000000	56.126630
1106.000000	56.136402
1105.000000	56.129025
1104.000000	56.125681
1103.000000	56.084336
1102.000000	56.080495
1101.000000	56.074445
1100.000000	56.084235
1099.000000	56.083818
1098.000000	56.082196
1097.000000	56.080918
1096.000000	56.084625
1095.000000	56.038691
1094.000000	56.023117
1093.000000	56.005385
1092.000000	56.008293
1091.000000	56.022850
1090.000000	56.029404
1089.000000	56.015791
1088.000000	55.984006
1087.000000	55.989965
1086.000000	55.979731
1085.000000	55.959251
1084.000000	55.962363
1083.000000	55.953764
1082.000000	55.931258
1081.000000	55.915348
1080.000000	55.922802
1079.000000	55.906265
1078.000000	55.914132
1077.000000	55.874325
1076.000000	55.874640
1075.000000	55.874091
1074.000000	55.869287
1073.000000	55.872010
1072.000000	55.848400
1071.000000	55.825524
1070.000000	55.824751
1069.000000	55.833140
1068.000000	55.827248
1067.000000	55.803187
1066.000000	55.791567
1065.000000	55.788160
1064.000000	55.780955
1063.000000	55.770017
1062.000000	55.761061
1061.000000	55.762382
1060.000000	55.745620
1059.000000	55.738427
1058.000000	55.744615
1057.000000	55.728805
1056.000000	55.737572
1055.000000	55.718642
1054.000000	55.705266
1053.000000	55.689562
1052.000000	55.693389
1051.000000	55.692981
1050.000000	55.669417
1049.000000	55.652481
1048.000000	55.672876
1047.000000	55.644667
1046.000000	55.633403
1045.000000	55.644842
1044.000000	55.635170
1043.000000	55.629031
1042.000000	55.607815
1041.000000	55.599612
1040.000000	55.595555
1039.000000	55.558867
1038.000000	55.552837
1037.000000	55.556651
1036.000000	55.568428
1035.000000	55.546880
1034.000000	55.528749
1033.000000	55.529245
1032.000000	55.517480
1031.000000	55.496618
1030.000000	55.507068
1029.000000	55.485631
1028.000000	55.467335
1027.000000	55.475243
1026.000000	55.452910
1025.000000	55.466223
1024.000000	55.429570
1023.000000	55.436690
1022.000000	55.421856
1021.000000	55.389162
1020.000000	55.398167
1019.000000	55.389802
1018.000000	55.380414
1017.000000	55.375475
1016.000000	55.349620
1015.000000	55.349179
1014.000000	55.361523
1013.000000	55.323368
1012.000000	55.331616
1011.000000	55.313312
1010.000000	55.311856
1009.000000	55.306417
1008.000000	55.277279
1007.000000	55.260188
1006.000000	55.260831
1005.000000	55.262826
1004.000000	55.263579
1003.000000	55.255153
1002.000000	55.252747
1001.000000	55.232730
1000.000000	55.237145
999.000000	55.222809
998.000000	55.221513
997.000000	55.232406
996.000000	55.212880
995.000000	55.192059
994.000000	55.194493
993.000000	55.172890
992.000000	55.168440
991.000000	55.146057
990.000000	55.140586
989.000000	55.120625
988.000000	55.120701
987.000000	55.129215
986.000000	55.121168
985.000000	55.113386
984.000000	55.123164
983.000000	55.111875
982.000000	55.094297
981.000000	55.086469
980.000000	55.071691
979.000000	55.064257
978.000000	55.059185
977.000000	55.067966
976.000000	55.062562
975.000000	55.047284
974.000000	55.045296
973.000000	55.031783
972.000000	55.028266
971.000000	55.025914
970.000000	55.017342
969.000000	55.024284
968.000000	55.018130
967.000000	54.982681
966.000000	54.966712
965.000000	54.975685
964.000000	54.964661
963.000000	54.958950
962.000000	54.955251
961.000000	54.943848
960.000000	54.933547
959.000000	54.943595
958.000000	54.939858
957.000000	54.944050
956.000000	54.939121
955.000000	54.921600
954.000000	54.913003
953.000000	54.919318
952.000000	54.903725
951.000000	54.889312
950.000000	54.883389
949.000000	54.860269
948.000000	54.849984
947.000000	54.854843
946.000000	54.845318
945.000000	54.831694
944.000000	54.836483
943.000000	54.831171
942.000000	54.797326
941.000000	54.806675
940.000000	54.822036
939.000000	54.818089
938.000000	54.784478
937.000000	54.746132
936.000000	54.752697
935.000000	54.760725
934.000000	54.740847
933.000000	54.735425
932.000000	54.739447
931.000000	54.715658
930.000000	54.708724
929.000000	54.677665
928.000000	54.652491
927.000000	54.670623
926.000000	54.657694
925.000000	54.656371
924.000000	54.632790
923.000000	54.628654
922.000000	54.614396
921.000000	54.595196
920.000000	54.595998
919.000000	54.570565
918.000000	54.559592
917.000000	54.579974
916.000000	54.564735
915.000000	54.571438
914.000000	54.542639
913.000000	54.508186
912.000000	54.497961
911.000000	54.513920
910.000000	54.504453
909.000000	54.499013
908.000000	54.504256
907.000000	54.455927
906.000000	54.486967
905.000000	54.480412
904.000000	54.427747
903.000000	54.441120
902.000000	54.455472
901.000000	54.414199
900.000000	54.404695
899.000000	54.430477
898.000000	54.411932
897.000000	54.401588
896.000000	54.405258
895.000000	54.411572
894.000000	54.406866
893.000000	54.393422
892.000000	54.325623
891.000000	54.407051
890.000000	54.362039
889.000000	54.315691
888.000000	54.354482
887.000000	54.339832
886.000000	54.330153
885.000000	54.262121
884.000000	54.233216
883.000000	54.202276
882.000000	54.203333
881.000000	54.250680
880.000000	54.237154
879.000000	54.208397
878.000000	54.171180
877.000000	54.160455
876.000000	54.161653
875.000000	54.191877
874.000000	54.071355
873.000000	54.029854
872.000000	54.112432
871.000000	54.038108
870.000000	54.177778
869.000000	54.064195
868.000000	54.101976
867.000000	54.070413
866.000000	53.966521
865.000000	53.998861
864.000000	54.045809
863.000000	53.979153
862.000000	53.944830
861.000000	53.850098
860.000000	53.775450
859.000000	53.749189
858.000000	53.485408
857.000000	53.287117
856.000000	54.107089
855.000000	53.958796
854.000000	53.743417
853.000000	53.397961
852.000000	53.399752
851.000000	53.653296
850.000000	53.854894
849.000000	53.404365
848.000000	53.726488
847.000000	53.471164
846.000000	53.767313
845.000000	53.531096
844.000000	53.429460
843.000000	53.342628
842.000000	53.466151
841.000000	53.633308
840.000000	53.549200
839.000000	53.482345
838.000000	53.528619
837.000000	53.276807
836.000000	53.251686
835.000000	53.381983
834.000000	53.401287
833.000000	53.404215
832.000000	53.215987
831.000000	53.222238
830.000000	53.263776
829.000000	53.238971
828.000000	53.380692
827.000000	53.130610
826.000000	53.218373
825.000000	53.239972
824.000000	53.100025
823.000000	53.134388
822.000000	53.035660
821.000000	52.983428
820.000000	52.918331
819.000000	52.940047
818.000000	52.921179
817.000000	52.975418
816.000000	52.912873
815.000000	52.968130
814.000000	52.897638
813.000000	52.871544
812.000000	52.768606
811.000000	52.841438
810.000000	52.752657
809.000000	52.707504
808.000000	52.747143
807.000000	52.721826
806.000000	52.636163
805.000000	52.696424
804.000000	52.712716
803.000000	52.652575
802.000000	52.560915
801.000000	52.518562
800.000000	52.631319
799.000000	52.655080
798.000000	52.486195
797.000000	52.494729
796.000000	52.588407
795.000000	52.405320
794.000000	52.397303
793.000000	52.425485
792.000000	52.397298
791.000000	52.276109
790.000000	52.376030
789.000000	52.240199
788.000000	52.244896
787.000000	52.207817
786.000000	52.235092
785.000000	52.153306
784.000000	52.145687
783.000000	52.129704
782.000000	52.081780
781.000000	52.098593
780.000000	52.008788
779.000000	51.995400
778.000000	51.959652
777.000000	51.848444
776.000000	51.863375
775.000000	52.014335
774.000000	51.862747
773.000000	51.876002
772.000000	51.792495
771.000000	51.760148
770.000000	51.662872
769.000000	51.686555
768.000000	51.626777
767.000000	51.608142
766.000000	51.622460
765.000000	51.520967
764.000000	51.436681
763.000000	51.591258
762.000000	51.531472
761.000000	51.376132
760.000000	51.386801
759.000000	51.375616
758.000000	51.315839
757.000000	51.254407
756.000000	51.223330
755.000000	51.172486
754.000000	51.142075
753.000000	51.153158
752.000000	51.173097
751.000000	51.096341
750.000000	50.984403
749.000000	51.022936
748.000000	51.029977
747.000000	50.932757
746.000000	50.919014
745.000000	50.859496
744.000000	50.780985
743.000000	50.716436
742.000000	50.752106
741.000000	50.789990
740.000000	50.730040
739.000000	50.680567
738.000000	50.691923
737.000000	50.593155
736.000000	50.508180
735.000000	50.497931
734.000000	50.464819
733.000000	50.418623
732.000000	50.369487
731.000000	50.317093
730.000000	50.277340
729.000000	50.245208
728.000000	50.216939
727.000000	50.189063
726.000000	50.146970
725.000000	50.082799
724.000000	50.014810
723.000000	49.939731
722.000000	49.923284
721.000000	49.898377
720.000000	49.814650
719.000000	49.790468
718.000000	49.781856
717.000000	49.715690
716.000000	49.612214
715.000000	49.556901
714.000000	49.569418
713.000000	49.501379
712.000000	49.419821
711.000000	49.432630
710.000000	49.407474
709.000000	49.396188
708.000000	49.356946
707.000000	49.243674
706.000000	49.149340
705.000000	49.091568
704.000000	49.079884
703.000000	49.030948
702.000000	48.944205
701.000000	48.915551
700.000000	48.812674
699.000000	48.717234
698.000000	48.757112
697.000000	48.676398
696.000000	48.585636
695.000000	48.563300
694.000000	48.513219
693.000000	48.465748
692.000000	48.441918
691.000000	48.357642
690.000000	48.274258
689.000000	48.158803
688.000000	48.080130
687.000000	47.996618
686.000000	47.943832
685.000000	47.946667
684.000000	47.837605
683.000000	47.775506
682.000000	47.642699
681.000000	47.609791
680.000000	47.588050
679.000000	47.498860
678.000000	47.461712
677.000000	47.429842
676.000000	47.363795
675.000000	47.299922
674.000000	47.252148
673.000000	47.183794
672.000000	47.119531
671.000000	47.073995
670.000000	46.965576
669.000000	46.892333
668.000000	46.888144
667.000000	46.833175
666.000000	46.722815
665.000000	46.632333
664.000000	46.566183
663.000000	46.503974
662.000000	46.439320
661.000000	46.432592
660.000000	46.337194
659.000000	46.247773
658.000000	46.180372
657.000000	46.132887
656.000000	46.057668
655.000000	46.006679
654.000000	45.950866
653.000000	45.912519
652.000000	45.806062
651.000000	45.735995
650.000000	45.690060
649.000000	45.615671
648.000000	45.571714
647.000000	45.463704
646.000000	45.386251
645.000000	45.338337
644.000000	45.258921
643.000000	45.171541
642.000000	45.190383
641.000000	45.049248
640.000000	44.982513
639.000000	44.943035
638.000000	44.829088
637.000000	44.763370
636.000000	44.760535
635.000000	44.628656
634.000000	44.559468
633.000000	44.546179
632.000000	44.468044
631.000000	44.372105
630.000000	44.281551
629.000000	44.262880
628.000000	44.186642
627.000000	44.116416
626.000000	44.020679
625.000000	43.958218
624.000000	43.855283
623.000000	43.788731
622.000000	43.698733
621.000000	43.622300
620.000000	43.572168
619.000000	43.480086
618.000000	43.449413
617.000000	43.350623
616.000000	43.246897
615.000000	43.147485
614.000000	43.107364
613.000000	42.997925
612.000000	42.886280
611.000000	42.865470
610.000000	42.751187
609.000000	42.719927
608.000000	42.669593
607.000000	42.542352
606.000000	42.467403
605.000000	42.369216
604.000000	42.346178
603.000000	42.202234
602.000000	42.144804
601.000000	42.073574
600.000000	41.988843
599.000000	41.881078
598.000000	41.796959
597.000000	41.745013
596.000000	41.632748
595.000000	41.541986
594.000000	41.424585
593.000000	41.382917
592.000000	41.287800
591.000000	41.214099
590.000000	41.096337
589.000000	40.960481
588.000000	40.929544
587.000000	40.871828
586.000000	40.731214
585.000000	40.670448
584.000000	40.574383
583.000000	40.489208
582.000000	40.380347
581.000000	40.241396
580.000000	40.149993
579.000000	40.120003
578.000000	39.958859
577.000000	39.922666
576.000000	39.827256
575.000000	39.684682
574.000000	39.597000
573.000000	39.550317
572.000000	39.371643
571.000000	39.272938
570.000000	39.212168
569.000000	39.126329
568.000000	39.034940
567.000000	38.883566
566.000000	38.786158
565.000000	38.685858
564.000000	38.602696
563.000000	38.485338
562.000000	38.365325
561.000000	38.285368
560.000000	38.188991
559.000000	38.063850
558.000000	37.958894
557.000000	37.875326
556.000000	37.732726
555.000000	37.646284
554.000000	37.515360
553.000000	37.426214
552.000000	37.306738
551.000000	37.200616
550.000000	37.105839
549.000000	36.938860
548.000000	36.846779
547.000000	36.770838
546.000000	36.653526
545.000000	36.509285
544.000000	36.400510
543.000000	36.269665
542.000000	36.164929
541.000000	36.055738
540.000000	35.905702
539.000000	35.828782
538.000000	35.703497
537.000000	35.553955
536.000000	35.468389
535.000000	35.343445
534.000000	35.207124
533.000000	35.073589
532.000000	34.980918
531.000000	34.858964
530.000000	34.733187
529.000000	34.653086
528.000000	34.496788
527.000000	34.366736
526.000000	34.255181
525.000000	34.107541
524.000000	33.976429
523.000000	33.887645
522.000000	33.774835
521.000000	33.633367
520.000000	33.529098
519.000000	33.425384
518.000000	33.285290
517.000000	33.131254
516.000000	33.023480
515.000000	32.929846
514.000000	32.766536
513.000000	32.659080
512.000000	32.530775
511.000000	32.425354
510.000000	32.281980
509.000000	32.156298
508.000000	32.045617
507.000000	31.888962
506.000000	31.762964
505.000000	31.657591
504.000000	31.518540
503.000000	31.397197
502.000000	31.284864
501.000000	31.161899
500.000000	31.029102
499.000000	30.903534
498.000000	30.752763
497.000000	30.639698
496.000000	30.523911
495.000000	30.399422
494.000000	30.270878
493.000000	30.182666
492.000000	30.040246
491.000000	29.894615
490.000000	29.777846
489.000000	29.655090
488.000000	29.557815
487.000000	29.436839
486.000000	29.267946
485.000000	29.151946
484.000000	29.062189
483.000000	28.985920
482.000000	28.881623
481.000000	28.744857
480.000000	28.624690
479.000000	28.479970
478.000000	28.354696
477.000000	28.242906
476.000000	28.118819
475.000000	28.005958
474.000000	27.892774
473.000000	27.761001
472.000000	27.621517
471.000000	27.494931
470.000000	27.373921
469.000000	27.259780
468.000000	27.154535
467.000000	27.046953
466.000000	26.923417
465.000000	26.793631
464.000000	26.678564
463.000000	26.561199
462.000000	26.424979
461.000000	26.296152
460.000000	26.154150
459.000000	26.033304
458.000000	25.902556
457.000000	25.746983
456.000000	25.648890
455.000000	25.537799
454.000000	25.386953
453.000000	25.258727
452.000000	25.139757
451.000000	24.991900
450.000000	24.825345
449.000000	24.725800
448.000000	24.573361
447.000000	24.406994
446.000000	24.293220
445.000000	24.186070
444.000000	24.014983
443.000000	23.836429
442.000000	23.692988
441.000000	23.566496
440.000000	23.402554
439.000000	23.250998
438.000000	23.095801
437.000000	22.933885
436.000000	22.774432
435.000000	22.606648
434.000000	22.459256
433.000000	22.304905
432.000000	22.143057
431.000000	21.977897
430.000000	21.815584
429.000000	21.647364
428.000000	21.496573
427.000000	21.340404
426.000000	21.208491
425.000000	21.053347
424.000000	20.894599
423.000000	20.719220
422.000000	20.561847
421.000000	20.413105
420.000000	20.252837
419.000000	20.091057
418.000000	19.944472
417.000000	19.796718
416.000000	19.664051
415.000000	19.512828
414.000000	19.350466
413.000000	19.183038
412.000000	19.036415
411.000000	18.899740
410.000000	18.765437
409.000000	18.605626
408.000000	18.438609
407.000000	18.318019
406.000000	18.150361
405.000000	17.994175
404.000000	17.842514
403.000000	17.697422
402.000000	17.552531
401.000000	17.445346
400.000000	17.277649
399.000000	17.116566
398.000000	17.010873
397.000000	16.851649
396.000000	16.698167
395.000000	16.561744
394.000000	16.400435
393.000000	16.261206
392.000000	16.075319
391.000000	15.934022
390.000000	15.808778
389.000000	15.674889
388.000000	15.530546
387.000000	15.364704
386.000000	15.215999
385.000000	15.064560
384.000000	14.936441
383.000000	14.758948
382.000000	14.638375
381.000000	14.508186
380.000000	14.372960
379.000000	14.227508
378.000000	14.032526
377.000000	13.884314
376.000000	13.778009
375.000000	13.620849
374.000000	13.493770
373.000000	13.401509
372.000000	13.282775
371.000000	13.227173
370.000000	13.002208
369.000000	12.860670
368.000000	12.749647
367.000000	12.678076
366.000000	12.577687
365.000000	12.388824
364.000000	12.329974
363.000000	12.222318
362.000000	12.080585
361.000000	12.033634
360.000000	11.943183
359.000000	11.804244
358.000000	11.729393
357.000000	11.614503
356.000000	11.481956
355.000000	11.405175
354.000000	11.320955
353.000000	11.216271
352.000000	11.092831
351.000000	10.996418
350.000000	10.895491
349.000000	10.827658
348.000000	10.802337
347.000000	10.638712
346.000000	10.612701
345.000000	10.497486
344.000000	10.444842
343.000000	10.365846
342.000000	10.269558
341.000000	10.144459
340.000000	10.103687
339.000000	9.936624
338.000000	9.892037
337.000000	9.923742
336.000000	9.732740
335.000000	9.735421
334.000000	9.713129
333.000000	9.510240
332.000000	9.503437
331.000000	9.456099
330.000000	9.334800
329.000000	9.298628
328.000000	9.235290
327.000000	9.196903
326.000000	9.125925
325.000000	9.023828
324.000000	8.976601
323.000000	8.947181
322.000000	8.964484
321.000000	8.808225
320.000000	8.760470
319.000000	8.747884
318.000000	8.917463
317.000000	8.887418
316.000000	8.856037
315.000000	8.842712
314.000000	8.791468
313.000000	8.773233
312.000000	8.738423
311.000000	8.693882
310.000000	8.656605
309.000000	8.625986
308.000000	8.615605
307.000000	8.594939
306.000000	8.540713
305.000000	8.503155
304.000000	8.515700
303.000000	8.525812
302.000000	8.466813
301.000000	8.476167
300.000000	8.386154
299.000000	8.356116
298.000000	8.393399
297.000000	8.411638
296.000000	8.353536
295.000000	8.277334
294.000000	8.304660
293.000000	8.269549
292.000000	8.244136
291.000000	8.220705
290.000000	8.158442
289.000000	8.174602
288.000000	8.141441
287.000000	8.120097
286.000000	8.089572
285.000000	8.072734
284.000000	8.061651
283.000000	8.077911
282.000000	8.071731
281.000000	8.102603
280.000000	8.074254
279.000000	8.125130
278.000000	8.188488
277.000000	8.127842
276.000000	8.152970
275.000000	8.177032
274.000000	8.218456
273.000000	8.240168
272.000000	8.263109
271.000000	8.286471
270.000000	8.303068
269.000000	8.346318
268.000000	8.357171
267.000000	8.418726
266.000000	8.466382
265.000000	8.480002
264.000000	8.564390
263.000000	8.614278
262.000000	8.642132
261.000000	8.748057
260.000000	8.771597
259.000000	8.812232
258.000000	8.876599
257.000000	8.960603
256.000000	9.064404
255.000000	9.070214
254.000000	9.151775
253.000000	9.223166
252.000000	9.281880
251.000000	9.362439
250.000000	9.400205
249.000000	9.481324
248.000000	9.603528
247.000000	9.682484
246.000000	9.716965
245.000000	9.809079
244.000000	9.908776
243.000000	9.955938
242.000000	9.990978
241.000000	10.026345
240.000000	10.056090
239.000000	10.111649
238.000000	10.123356
237.000000	10.145696
236.000000	10.162079
235.000000	10.167098
234.000000	10.191777
233.000000	10.165889
232.000000	10.181965
231.000000	10.288195
230.000000	10.327965
229.000000	10.237607
228.000000	10.222641
227.000000	10.331325
226.000000	10.401741
225.000000	10.448104
224.000000	10.496716
223.000000	10.515482
222.000000	10.616756
221.000000	10.672246
220.000000	10.706588
219.000000	10.829034
218.000000	10.969283
217.000000	10.998966
216.000000	11.077793
215.000000	11.258448
214.000000	11.412353
213.000000	11.533175
212.000000	11.689017
211.000000	11.873140
210.000000	12.046448
209.000000	12.245515
208.000000	12.531690
207.000000	12.770939
206.000000	13.172319
205.000000	13.657271
204.000000	13.841057
203.000000	14.268883
202.000000	14.757874
201.000000	15.157278
200.000000	15.591081
