PE UV       SUBTECH     SPECTRUM    ASCII       PEDS        4.00        
   -1
RTmsopph202.Sample.asc
18/03/21
10:40:37.00
18/03/21
10:40:37.00
Administrator

200.000000
1
Lambda 750
750N8071901
PerkinElmer UV WinLab 6.0.4.0738 / 1.61.00 Lambda 900

0
0
3350/servo 860.8/2
0
0
UV/VIS
1
1
1
CommonBeamDepol,150mm sphere / downward view
0
0
0
0
Program
Program
3350/servo 860.8/2
3350/0.2 860.8/0.2
3350/0.2 860.8/0.2
0
1
 
 
 
0
 
860.8
319.2
860.8
Front
100
on
 
 
0
0
0
 
0
 
 
 
0
 
 
0
0
0
0
0
 
 
 
 
0
0


0
0
#HDR
-1
-1
#GR
nm
%R
1.0
0.0
2350.000000
-1.000000
2151
8
62.169956
8.944045
#DATA
2350.000000	29.769449
2349.000000	29.714073
2348.000000	29.922428
2347.000000	29.918102
2346.000000	29.748700
2345.000000	29.989410
2344.000000	29.739900
2343.000000	29.579906
2342.000000	29.774333
2341.000000	29.871743
2340.000000	29.844837
2339.000000	30.041505
2338.000000	30.032008
2337.000000	30.380268
2336.000000	30.219986
2335.000000	30.500728
2334.000000	30.370473
2333.000000	30.534135
2332.000000	30.490332
2331.000000	30.485089
2330.000000	30.557850
2329.000000	30.446055
2328.000000	30.129369
2327.000000	30.328026
2326.000000	30.478268
2325.000000	30.279941
2324.000000	30.243622
2323.000000	30.243876
2322.000000	30.243794
2321.000000	30.151565
2320.000000	30.052700
2319.000000	29.946909
2318.000000	30.272914
2317.000000	30.286261
2316.000000	30.068364
2315.000000	29.821476
2314.000000	29.804586
2313.000000	29.531695
2312.000000	29.437326
2311.000000	29.878031
2310.000000	29.656300
2309.000000	29.611366
2308.000000	29.305207
2307.000000	29.365985
2306.000000	29.359296
2305.000000	29.351198
2304.000000	29.140267
2303.000000	29.114739
2302.000000	29.256086
2301.000000	29.045727
2300.000000	29.042965
2299.000000	28.901746
2298.000000	28.817660
2297.000000	28.689318
2296.000000	28.588263
2295.000000	28.621698
2294.000000	28.409308
2293.000000	28.258169
2292.000000	28.348406
2291.000000	28.339449
2290.000000	28.385984
2289.000000	28.383533
2288.000000	28.280191
2287.000000	28.336003
2286.000000	28.124718
2285.000000	28.105893
2284.000000	28.270097
2283.000000	28.197075
2282.000000	28.092190
2281.000000	28.103155
2280.000000	28.068541
2279.000000	28.124022
2278.000000	28.266573
2277.000000	28.228259
2276.000000	28.214760
2275.000000	28.315089
2274.000000	28.361473
2273.000000	28.270312
2272.000000	28.344994
2271.000000	28.369761
2270.000000	28.303965
2269.000000	28.394661
2268.000000	28.580422
2267.000000	28.600825
2266.000000	28.685601
2265.000000	28.908716
2264.000000	28.951284
2263.000000	28.947844
2262.000000	29.084469
2261.000000	29.249708
2260.000000	29.398960
2259.000000	29.562299
2258.000000	29.664896
2257.000000	29.673501
2256.000000	29.712311
2255.000000	29.933954
2254.000000	30.143889
2253.000000	30.319015
2252.000000	30.585293
2251.000000	30.760026
2250.000000	30.958918
2249.000000	31.242913
2248.000000	31.389489
2247.000000	31.541580
2246.000000	31.661691
2245.000000	31.688015
2244.000000	31.902589
2243.000000	32.187912
2242.000000	32.262448
2241.000000	32.346027
2240.000000	32.525144
2239.000000	32.672966
2238.000000	32.647099
2237.000000	32.744200
2236.000000	32.909251
2235.000000	33.033907
2234.000000	33.209108
2233.000000	33.286325
2232.000000	33.403854
2231.000000	33.449343
2230.000000	33.305102
2229.000000	33.350481
2228.000000	33.444140
2227.000000	33.350407
2226.000000	33.357445
2225.000000	33.405111
2224.000000	33.383529
2223.000000	33.363453
2222.000000	33.289163
2221.000000	33.340339
2220.000000	33.375256
2219.000000	33.337629
2218.000000	33.207571
2217.000000	33.154739
2216.000000	33.144545
2215.000000	33.148024
2214.000000	33.169636
2213.000000	33.153777
2212.000000	33.031901
2211.000000	32.981039
2210.000000	32.878741
2209.000000	32.753979
2208.000000	32.687207
2207.000000	32.763308
2206.000000	32.752145
2205.000000	32.729704
2204.000000	32.695162
2203.000000	32.591755
2202.000000	32.496038
2201.000000	32.404743
2200.000000	32.358513
2199.000000	32.378681
2198.000000	32.412377
2197.000000	32.274661
2196.000000	32.049016
2195.000000	31.959144
2194.000000	31.887955
2193.000000	31.802065
2192.000000	31.877305
2191.000000	31.840009
2190.000000	31.819791
2189.000000	31.733464
2188.000000	31.636815
2187.000000	31.639007
2186.000000	31.616919
2185.000000	31.536157
2184.000000	31.555594
2183.000000	31.526353
2182.000000	31.345785
2181.000000	31.350414
2180.000000	31.321554
2179.000000	31.362592
2178.000000	31.284051
2177.000000	31.280927
2176.000000	31.448142
2175.000000	31.556933
2174.000000	31.324343
2173.000000	31.365399
2172.000000	31.423928
2171.000000	31.468958
2170.000000	31.794582
2169.000000	31.822184
2168.000000	31.897994
2167.000000	31.952862
2166.000000	31.844700
2165.000000	31.854602
2164.000000	31.920561
2163.000000	31.927230
2162.000000	32.223841
2161.000000	32.279346
2160.000000	32.242320
2159.000000	32.497523
2158.000000	32.612445
2157.000000	32.686907
2156.000000	32.869529
2155.000000	32.871127
2154.000000	33.176572
2153.000000	33.339290
2152.000000	33.412411
2151.000000	33.679742
2150.000000	33.706304
2149.000000	33.799701
2148.000000	33.905707
2147.000000	34.109168
2146.000000	34.113613
2145.000000	34.413018
2144.000000	34.560244
2143.000000	34.576684
2142.000000	34.661868
2141.000000	34.804959
2140.000000	34.826774
2139.000000	35.134207
2138.000000	35.042936
2137.000000	35.105327
2136.000000	35.174505
2135.000000	35.208421
2134.000000	35.527459
2133.000000	35.330520
2132.000000	35.628084
2131.000000	35.693621
2130.000000	36.015533
2129.000000	35.834370
2128.000000	35.789131
2127.000000	35.971889
2126.000000	36.048482
2125.000000	36.080191
2124.000000	36.202702
2123.000000	36.177214
2122.000000	36.297720
2121.000000	36.148500
2120.000000	36.194407
2119.000000	36.246961
2118.000000	36.322600
2117.000000	36.380602
2116.000000	36.524758
2115.000000	36.405283
2114.000000	36.396003
2113.000000	36.527449
2112.000000	36.426268
2111.000000	36.565096
2110.000000	36.502396
2109.000000	36.559362
2108.000000	36.561652
2107.000000	36.642866
2106.000000	36.636758
2105.000000	36.628789
2104.000000	36.694498
2103.000000	36.760350
2102.000000	36.601931
2101.000000	36.700859
2100.000000	36.750256
2099.000000	36.696104
2098.000000	36.809551
2097.000000	36.641396
2096.000000	36.653182
2095.000000	36.601722
2094.000000	36.763940
2093.000000	36.773537
2092.000000	36.773944
2091.000000	36.667332
2090.000000	36.658633
2089.000000	36.623326
2088.000000	36.695131
2087.000000	36.703411
2086.000000	36.660321
2085.000000	36.596091
2084.000000	36.536836
2083.000000	36.454876
2082.000000	36.382482
2081.000000	36.412428
2080.000000	36.272289
2079.000000	36.316248
2078.000000	36.220365
2077.000000	36.179763
2076.000000	36.087118
2075.000000	35.930941
2074.000000	35.889292
2073.000000	35.800166
2072.000000	35.676179
2071.000000	35.579201
2070.000000	35.432686
2069.000000	35.324089
2068.000000	35.191525
2067.000000	35.114282
2066.000000	34.919457
2065.000000	34.774476
2064.000000	34.758827
2063.000000	34.583972
2062.000000	34.419279
2061.000000	34.271720
2060.000000	34.199205
2059.000000	34.087148
2058.000000	33.936504
2057.000000	33.814127
2056.000000	33.680917
2055.000000	33.581137
2054.000000	33.494389
2053.000000	33.329714
2052.000000	33.205250
2051.000000	33.146922
2050.000000	33.048493
2049.000000	32.886121
2048.000000	32.770773
2047.000000	32.797704
2046.000000	32.751512
2045.000000	32.673744
2044.000000	32.616767
2043.000000	32.585662
2042.000000	32.595151
2041.000000	32.624355
2040.000000	32.655310
2039.000000	32.659018
2038.000000	32.693694
2037.000000	32.747920
2036.000000	32.800547
2035.000000	32.886722
2034.000000	32.987146
2033.000000	33.088747
2032.000000	33.198847
2031.000000	33.293128
2030.000000	33.417002
2029.000000	33.521175
2028.000000	33.568259
2027.000000	33.669851
2026.000000	33.796497
2025.000000	33.839750
2024.000000	33.895741
2023.000000	33.962462
2022.000000	34.018926
2021.000000	34.070186
2020.000000	34.107518
2019.000000	34.110820
2018.000000	34.167725
2017.000000	34.198670
2016.000000	34.128375
2015.000000	34.162316
2014.000000	34.170429
2013.000000	34.118254
2012.000000	34.088609
2011.000000	34.059166
2010.000000	33.990413
2009.000000	33.910004
2008.000000	33.888139
2007.000000	33.828175
2006.000000	33.738202
2005.000000	33.668190
2004.000000	33.587160
2003.000000	33.504171
2002.000000	33.452718
2001.000000	33.334418
2000.000000	33.225318
1999.000000	33.178777
1998.000000	33.084256
1997.000000	32.982429
1996.000000	32.926148
1995.000000	32.832797
1994.000000	32.727134
1993.000000	32.652181
1992.000000	32.555699
1991.000000	32.427029
1990.000000	32.318172
1989.000000	32.261971
1988.000000	32.162711
1987.000000	32.059229
1986.000000	31.961571
1985.000000	31.840491
1984.000000	31.753920
1983.000000	31.707888
1982.000000	31.620989
1981.000000	31.509126
1980.000000	31.431971
1979.000000	31.346057
1978.000000	31.263925
1977.000000	31.137812
1976.000000	31.069201
1975.000000	31.017484
1974.000000	30.897951
1973.000000	30.815235
1972.000000	30.690263
1971.000000	30.600742
1970.000000	30.558770
1969.000000	30.469434
1968.000000	30.369859
1967.000000	30.311369
1966.000000	30.213324
1965.000000	30.146760
1964.000000	30.021041
1963.000000	29.956437
1962.000000	29.921257
1961.000000	29.820000
1960.000000	29.732841
1959.000000	29.624685
1958.000000	29.581463
1957.000000	29.529277
1956.000000	29.418863
1955.000000	29.365337
1954.000000	29.371306
1953.000000	29.313064
1952.000000	29.220416
1951.000000	29.203420
1950.000000	29.148806
1949.000000	29.102031
1948.000000	29.055207
1947.000000	29.020466
1946.000000	29.055534
1945.000000	29.023080
1944.000000	29.032573
1943.000000	29.015398
1942.000000	29.090996
1941.000000	29.080521
1940.000000	29.127712
1939.000000	29.176908
1938.000000	29.261321
1937.000000	29.269725
1936.000000	29.409534
1935.000000	29.474963
1934.000000	29.580950
1933.000000	29.723695
1932.000000	29.815401
1931.000000	29.931151
1930.000000	30.078943
1929.000000	30.189494
1928.000000	30.460235
1927.000000	30.567989
1926.000000	30.727117
1925.000000	30.917572
1924.000000	31.159704
1923.000000	31.408671
1922.000000	31.683055
1921.000000	31.873875
1920.000000	32.143742
1919.000000	32.446959
1918.000000	32.716307
1917.000000	33.007637
1916.000000	33.216907
1915.000000	33.637818
1914.000000	33.988546
1913.000000	34.249737
1912.000000	34.562651
1911.000000	34.957687
1910.000000	35.305825
1909.000000	35.675539
1908.000000	36.096063
1907.000000	36.532463
1906.000000	36.937300
1905.000000	37.375418
1904.000000	37.832827
1903.000000	38.212312
1902.000000	38.750693
1901.000000	39.215164
1900.000000	39.712069
1899.000000	40.158296
1898.000000	40.692981
1897.000000	41.118242
1896.000000	41.643831
1895.000000	42.179149
1894.000000	42.560512
1893.000000	43.010289
1892.000000	43.534435
1891.000000	43.972076
1890.000000	44.422689
1889.000000	44.850898
1888.000000	45.286419
1887.000000	45.716278
1886.000000	46.077533
1885.000000	46.437622
1884.000000	46.822799
1883.000000	47.208089
1882.000000	47.598325
1881.000000	47.917762
1880.000000	48.221809
1879.000000	48.547126
1878.000000	48.867136
1877.000000	49.209902
1876.000000	49.472528
1875.000000	49.673800
1874.000000	49.953413
1873.000000	50.158603
1872.000000	50.383695
1871.000000	50.586952
1870.000000	50.749152
1869.000000	50.934238
1868.000000	51.052220
1867.000000	51.194372
1866.000000	51.304370
1865.000000	51.384087
1864.000000	51.473519
1863.000000	51.537865
1862.000000	51.681428
1861.000000	51.727051
1860.000000	51.789254
1859.000000	51.822351
1858.000000	51.875440
1857.000000	51.940784
1856.000000	51.974635
1855.000000	52.001478
1854.000000	52.048764
1853.000000	52.067136
1852.000000	52.057967
1851.000000	52.077794
1850.000000	52.107868
1849.000000	52.113923
1848.000000	52.109459
1847.000000	52.117786
1846.000000	52.092288
1845.000000	52.078596
1844.000000	52.057987
1843.000000	52.022333
1842.000000	52.003688
1841.000000	51.979196
1840.000000	51.959424
1839.000000	51.938762
1838.000000	51.919026
1837.000000	51.854406
1836.000000	51.782833
1835.000000	51.736277
1834.000000	51.703785
1833.000000	51.658328
1832.000000	51.630417
1831.000000	51.588082
1830.000000	51.530524
1829.000000	51.480668
1828.000000	51.452994
1827.000000	51.416238
1826.000000	51.391125
1825.000000	51.354585
1824.000000	51.327344
1823.000000	51.273533
1822.000000	51.216928
1821.000000	51.195563
1820.000000	51.146542
1819.000000	51.094645
1818.000000	51.075844
1817.000000	51.024616
1816.000000	50.974308
1815.000000	50.938036
1814.000000	50.879618
1813.000000	50.848675
1812.000000	50.832016
1811.000000	50.789394
1810.000000	50.758027
1809.000000	50.733793
1808.000000	50.682400
1807.000000	50.635323
1806.000000	50.629828
1805.000000	50.592357
1804.000000	50.545763
1803.000000	50.522319
1802.000000	50.474111
1801.000000	50.450436
1800.000000	50.440770
1799.000000	50.397166
1798.000000	50.353673
1797.000000	50.334249
1796.000000	50.310875
1795.000000	50.285765
1794.000000	50.247736
1793.000000	50.216406
1792.000000	50.187464
1791.000000	50.149774
1790.000000	50.126610
1789.000000	50.120060
1788.000000	50.096738
1787.000000	50.052395
1786.000000	50.034070
1785.000000	50.025768
1784.000000	49.975613
1783.000000	49.951991
1782.000000	49.916198
1781.000000	49.878250
1780.000000	49.835373
1779.000000	49.797199
1778.000000	49.751687
1777.000000	49.711265
1776.000000	49.658802
1775.000000	49.593041
1774.000000	49.534049
1773.000000	49.496477
1772.000000	49.431549
1771.000000	49.365385
1770.000000	49.309173
1769.000000	49.262301
1768.000000	49.212758
1767.000000	49.160680
1766.000000	49.106472
1765.000000	49.062244
1764.000000	49.029179
1763.000000	48.952629
1762.000000	48.895603
1761.000000	48.856109
1760.000000	48.770453
1759.000000	48.708679
1758.000000	48.656834
1757.000000	48.583788
1756.000000	48.542427
1755.000000	48.511937
1754.000000	48.461072
1753.000000	48.409840
1752.000000	48.368993
1751.000000	48.306637
1750.000000	48.230998
1749.000000	48.191679
1748.000000	48.148092
1747.000000	48.069352
1746.000000	48.005682
1745.000000	47.955324
1744.000000	47.894302
1743.000000	47.859602
1742.000000	47.779615
1741.000000	47.716210
1740.000000	47.659995
1739.000000	47.619818
1738.000000	47.575652
1737.000000	47.541723
1736.000000	47.523620
1735.000000	47.479954
1734.000000	47.464200
1733.000000	47.483343
1732.000000	47.460487
1731.000000	47.497113
1730.000000	47.492249
1729.000000	47.517936
1728.000000	47.553993
1727.000000	47.625094
1726.000000	47.699631
1725.000000	47.766072
1724.000000	47.835883
1723.000000	47.925960
1722.000000	48.042445
1721.000000	48.139897
1720.000000	48.186601
1719.000000	48.337970
1718.000000	48.408193
1717.000000	48.511331
1716.000000	48.602291
1715.000000	48.682362
1714.000000	48.766002
1713.000000	48.860996
1712.000000	48.943006
1711.000000	49.034779
1710.000000	49.073771
1709.000000	49.112783
1708.000000	49.169385
1707.000000	49.208501
1706.000000	49.259536
1705.000000	49.319756
1704.000000	49.325092
1703.000000	49.301363
1702.000000	49.353917
1701.000000	49.364355
1700.000000	49.398193
1699.000000	49.395041
1698.000000	49.425108
1697.000000	49.423146
1696.000000	49.481660
1695.000000	49.502159
1694.000000	49.535765
1693.000000	49.575823
1692.000000	49.629186
1691.000000	49.710248
1690.000000	49.779415
1689.000000	49.853548
1688.000000	49.955108
1687.000000	50.068147
1686.000000	50.150388
1685.000000	50.312208
1684.000000	50.448428
1683.000000	50.611279
1682.000000	50.779620
1681.000000	50.967474
1680.000000	51.112590
1679.000000	51.262651
1678.000000	51.475700
1677.000000	51.644103
1676.000000	51.812582
1675.000000	51.989354
1674.000000	52.166599
1673.000000	52.347572
1672.000000	52.512819
1671.000000	52.671920
1670.000000	52.824343
1669.000000	53.030331
1668.000000	53.169587
1667.000000	53.309698
1666.000000	53.406164
1665.000000	53.503861
1664.000000	53.584627
1663.000000	53.680056
1662.000000	53.765866
1661.000000	53.848056
1660.000000	53.911642
1659.000000	53.975771
1658.000000	54.031250
1657.000000	54.064758
1656.000000	54.101324
1655.000000	54.141187
1654.000000	54.153068
1653.000000	54.195277
1652.000000	54.213994
1651.000000	54.222212
1650.000000	54.215815
1649.000000	54.205547
1648.000000	54.180303
1647.000000	54.183562
1646.000000	54.179790
1645.000000	54.154798
1644.000000	54.157155
1643.000000	54.112563
1642.000000	54.095979
1641.000000	54.075742
1640.000000	54.032648
1639.000000	54.013206
1638.000000	53.977090
1637.000000	53.961489
1636.000000	53.909689
1635.000000	53.894572
1634.000000	53.844017
1633.000000	53.781166
1632.000000	53.741707
1631.000000	53.701833
1630.000000	53.665947
1629.000000	53.627007
1628.000000	53.559449
1627.000000	53.514525
1626.000000	53.468037
1625.000000	53.422254
1624.000000	53.396770
1623.000000	53.361242
1622.000000	53.303865
1621.000000	53.226346
1620.000000	53.171328
1619.000000	53.118169
1618.000000	53.057654
1617.000000	52.998710
1616.000000	52.934050
1615.000000	52.873079
1614.000000	52.795645
1613.000000	52.734543
1612.000000	52.685245
1611.000000	52.619736
1610.000000	52.560313
1609.000000	52.491545
1608.000000	52.431052
1607.000000	52.359509
1606.000000	52.284670
1605.000000	52.222549
1604.000000	52.148482
1603.000000	52.083950
1602.000000	52.014478
1601.000000	51.942615
1600.000000	51.883567
1599.000000	51.819061
1598.000000	51.749417
1597.000000	51.686890
1596.000000	51.633129
1595.000000	51.576664
1594.000000	51.511570
1593.000000	51.451443
1592.000000	51.397342
1591.000000	51.338403
1590.000000	51.278757
1589.000000	51.225753
1588.000000	51.187785
1587.000000	51.143478
1586.000000	51.078811
1585.000000	51.023373
1584.000000	50.967321
1583.000000	50.919845
1582.000000	50.887349
1581.000000	50.831945
1580.000000	50.778600
1579.000000	50.728872
1578.000000	50.691693
1577.000000	50.642665
1576.000000	50.581400
1575.000000	50.546715
1574.000000	50.500552
1573.000000	50.431971
1572.000000	50.388827
1571.000000	50.357593
1570.000000	50.314676
1569.000000	50.271763
1568.000000	50.220025
1567.000000	50.179801
1566.000000	50.151111
1565.000000	50.119793
1564.000000	50.085475
1563.000000	50.054971
1562.000000	50.012763
1561.000000	49.987237
1560.000000	49.978235
1559.000000	49.945036
1558.000000	49.920933
1557.000000	49.910554
1556.000000	49.882151
1555.000000	49.863894
1554.000000	49.836736
1553.000000	49.806215
1552.000000	49.766458
1551.000000	49.738460
1550.000000	49.709698
1549.000000	49.669819
1548.000000	49.638986
1547.000000	49.583063
1546.000000	49.510978
1545.000000	49.456816
1544.000000	49.390242
1543.000000	49.306799
1542.000000	49.239753
1541.000000	49.160077
1540.000000	49.071517
1539.000000	48.987977
1538.000000	48.896755
1537.000000	48.788837
1536.000000	48.706455
1535.000000	48.633095
1534.000000	48.536303
1533.000000	48.451738
1532.000000	48.354288
1531.000000	48.263176
1530.000000	48.186594
1529.000000	48.105242
1528.000000	48.031385
1527.000000	47.944059
1526.000000	47.893084
1525.000000	47.830632
1524.000000	47.766830
1523.000000	47.711182
1522.000000	47.660132
1521.000000	47.600325
1520.000000	47.559052
1519.000000	47.513164
1518.000000	47.448950
1517.000000	47.415666
1516.000000	47.382533
1515.000000	47.354151
1514.000000	47.328368
1513.000000	47.331373
1512.000000	47.313788
1511.000000	47.344936
1510.000000	47.344675
1509.000000	47.344498
1508.000000	47.285517
1507.000000	47.203345
1506.000000	47.173227
1505.000000	47.171948
1504.000000	47.131219
1503.000000	47.137537
1502.000000	47.122159
1501.000000	47.105515
1500.000000	47.101570
1499.000000	47.102472
1498.000000	47.115219
1497.000000	47.114275
1496.000000	47.105514
1495.000000	47.129579
1494.000000	47.150648
1493.000000	47.172468
1492.000000	47.200780
1491.000000	47.229907
1490.000000	47.256739
1489.000000	47.277840
1488.000000	47.344359
1487.000000	47.368186
1486.000000	47.398947
1485.000000	47.446296
1484.000000	47.488688
1483.000000	47.540852
1482.000000	47.594503
1481.000000	47.643161
1480.000000	47.699806
1479.000000	47.746203
1478.000000	47.800528
1477.000000	47.864269
1476.000000	47.915114
1475.000000	47.981655
1474.000000	48.028677
1473.000000	48.056081
1472.000000	48.122378
1471.000000	48.183453
1470.000000	48.242538
1469.000000	48.298561
1468.000000	48.318587
1467.000000	48.378934
1466.000000	48.408128
1465.000000	48.445387
1464.000000	48.495244
1463.000000	48.577395
1462.000000	48.598746
1461.000000	48.644776
1460.000000	48.697423
1459.000000	48.764098
1458.000000	48.800544
1457.000000	48.812300
1456.000000	48.886507
1455.000000	48.938982
1454.000000	49.014221
1453.000000	49.086358
1452.000000	49.132335
1451.000000	49.214339
1450.000000	49.261199
1449.000000	49.326468
1448.000000	49.388366
1447.000000	49.450465
1446.000000	49.519846
1445.000000	49.615819
1444.000000	49.693883
1443.000000	49.767838
1442.000000	49.844503
1441.000000	49.918409
1440.000000	49.996188
1439.000000	50.084726
1438.000000	50.189194
1437.000000	50.296069
1436.000000	50.395497
1435.000000	50.494613
1434.000000	50.601276
1433.000000	50.710415
1432.000000	50.834639
1431.000000	50.941127
1430.000000	51.054754
1429.000000	51.197075
1428.000000	51.307856
1427.000000	51.447703
1426.000000	51.591816
1425.000000	51.742599
1424.000000	51.884513
1423.000000	52.052657
1422.000000	52.205361
1421.000000	52.352565
1420.000000	52.519015
1419.000000	52.701005
1418.000000	52.896746
1417.000000	53.079512
1416.000000	53.260494
1415.000000	53.439980
1414.000000	53.631541
1413.000000	53.820873
1412.000000	54.009752
1411.000000	54.201282
1410.000000	54.391215
1409.000000	54.583171
1408.000000	54.781504
1407.000000	54.974737
1406.000000	55.150436
1405.000000	55.329554
1404.000000	55.511478
1403.000000	55.693135
1402.000000	55.862807
1401.000000	56.042648
1400.000000	56.218398
1399.000000	56.393302
1398.000000	56.557072
1397.000000	56.715450
1396.000000	56.869684
1395.000000	57.018147
1394.000000	57.163212
1393.000000	57.311140
1392.000000	57.458322
1391.000000	57.597748
1390.000000	57.723757
1389.000000	57.854436
1388.000000	57.984687
1387.000000	58.115929
1386.000000	58.228666
1385.000000	58.322644
1384.000000	58.417228
1383.000000	58.530524
1382.000000	58.632230
1381.000000	58.712681
1380.000000	58.787270
1379.000000	58.871312
1378.000000	58.944836
1377.000000	58.999482
1376.000000	59.050969
1375.000000	59.118254
1374.000000	59.170160
1373.000000	59.206731
1372.000000	59.263425
1371.000000	59.314357
1370.000000	59.362994
1369.000000	59.400934
1368.000000	59.440239
1367.000000	59.500524
1366.000000	59.541923
1365.000000	59.586400
1364.000000	59.639247
1363.000000	59.681368
1362.000000	59.723927
1361.000000	59.772343
1360.000000	59.831676
1359.000000	59.873661
1358.000000	59.927872
1357.000000	59.986946
1356.000000	60.035037
1355.000000	60.102704
1354.000000	60.160469
1353.000000	60.197280
1352.000000	60.255096
1351.000000	60.309661
1350.000000	60.361486
1349.000000	60.415481
1348.000000	60.481177
1347.000000	60.531557
1346.000000	60.595268
1345.000000	60.658142
1344.000000	60.701440
1343.000000	60.736373
1342.000000	60.776253
1341.000000	60.831469
1340.000000	60.869896
1339.000000	60.921900
1338.000000	61.007938
1337.000000	61.035303
1336.000000	61.064525
1335.000000	61.095325
1334.000000	61.117572
1333.000000	61.138124
1332.000000	61.172342
1331.000000	61.200566
1330.000000	61.252324
1329.000000	61.276612
1328.000000	61.291894
1327.000000	61.309849
1326.000000	61.353993
1325.000000	61.356645
1324.000000	61.366491
1323.000000	61.409351
1322.000000	61.403854
1321.000000	61.392444
1320.000000	61.443478
1319.000000	61.462175
1318.000000	61.475223
1317.000000	61.488782
1316.000000	61.483857
1315.000000	61.471626
1314.000000	61.518470
1313.000000	61.530015
1312.000000	61.530092
1311.000000	61.560493
1310.000000	61.564998
1309.000000	61.563417
1308.000000	61.599447
1307.000000	61.603363
1306.000000	61.595402
1305.000000	61.589392
1304.000000	61.593181
1303.000000	61.651384
1302.000000	61.653656
1301.000000	61.640013
1300.000000	61.645889
1299.000000	61.630239
1298.000000	61.638453
1297.000000	61.648764
1296.000000	61.647502
1295.000000	61.642889
1294.000000	61.630078
1293.000000	61.641111
1292.000000	61.642552
1291.000000	61.614622
1290.000000	61.617397
1289.000000	61.616914
1288.000000	61.583383
1287.000000	61.582150
1286.000000	61.565166
1285.000000	61.517113
1284.000000	61.506400
1283.000000	61.513727
1282.000000	61.515718
1281.000000	61.515397
1280.000000	61.515305
1279.000000	61.507684
1278.000000	61.505404
1277.000000	61.489855
1276.000000	61.497410
1275.000000	61.495023
1274.000000	61.494434
1273.000000	61.484786
1272.000000	61.490244
1271.000000	61.471911
1270.000000	61.460994
1269.000000	61.469104
1268.000000	61.463528
1267.000000	61.472613
1266.000000	61.447178
1265.000000	61.449450
1264.000000	61.495575
1263.000000	61.517430
1262.000000	61.506556
1261.000000	61.495731
1260.000000	61.499027
1259.000000	61.491862
1258.000000	61.498685
1257.000000	61.559306
1256.000000	61.536520
1255.000000	61.541385
1254.000000	61.519519
1253.000000	61.529566
1252.000000	61.519405
1251.000000	61.528405
1250.000000	61.535733
1249.000000	61.519580
1248.000000	61.520179
1247.000000	61.501614
1246.000000	61.499608
1245.000000	61.486567
1244.000000	61.482239
1243.000000	61.475422
1242.000000	61.446652
1241.000000	61.418758
1240.000000	61.387574
1239.000000	61.371502
1238.000000	61.367466
1237.000000	61.311356
1236.000000	61.262000
1235.000000	61.244480
1234.000000	61.230679
1233.000000	61.201884
1232.000000	61.166540
1231.000000	61.148295
1230.000000	61.126737
1229.000000	61.092103
1228.000000	61.057089
1227.000000	61.023238
1226.000000	61.018721
1225.000000	61.005876
1224.000000	60.987740
1223.000000	60.962192
1222.000000	60.940883
1221.000000	60.906959
1220.000000	60.889363
1219.000000	60.860270
1218.000000	60.820222
1217.000000	60.800125
1216.000000	60.755464
1215.000000	60.701867
1214.000000	60.665292
1213.000000	60.654399
1212.000000	60.657922
1211.000000	60.613290
1210.000000	60.571689
1209.000000	60.533059
1208.000000	60.512082
1207.000000	60.483690
1206.000000	60.456398
1205.000000	60.389420
1204.000000	60.349620
1203.000000	60.315023
1202.000000	60.287171
1201.000000	60.252524
1200.000000	60.217926
1199.000000	60.205673
1198.000000	60.171940
1197.000000	60.118600
1196.000000	60.075432
1195.000000	60.045175
1194.000000	60.024095
1193.000000	59.986176
1192.000000	59.967540
1191.000000	59.949247
1190.000000	59.915119
1189.000000	59.876456
1188.000000	59.870514
1187.000000	59.866532
1186.000000	59.853236
1185.000000	59.841996
1184.000000	59.823175
1183.000000	59.822298
1182.000000	59.851091
1181.000000	59.865655
1180.000000	59.887039
1179.000000	59.904455
1178.000000	59.927004
1177.000000	59.958195
1176.000000	59.996486
1175.000000	60.038388
1174.000000	60.085738
1173.000000	60.126443
1172.000000	60.182577
1171.000000	60.226468
1170.000000	60.285409
1169.000000	60.345539
1168.000000	60.396249
1167.000000	60.464159
1166.000000	60.534074
1165.000000	60.595939
1164.000000	60.658858
1163.000000	60.723068
1162.000000	60.779896
1161.000000	60.837968
1160.000000	60.906678
1159.000000	60.971518
1158.000000	61.035123
1157.000000	61.096658
1156.000000	61.146305
1155.000000	61.206908
1154.000000	61.256993
1153.000000	61.300592
1152.000000	61.361903
1151.000000	61.396237
1150.000000	61.413770
1149.000000	61.447173
1148.000000	61.492803
1147.000000	61.534232
1146.000000	61.561217
1145.000000	61.592760
1144.000000	61.638310
1143.000000	61.674066
1142.000000	61.706620
1141.000000	61.760281
1140.000000	61.784917
1139.000000	61.813299
1138.000000	61.842518
1137.000000	61.876506
1136.000000	61.907046
1135.000000	61.936789
1134.000000	61.971636
1133.000000	61.986150
1132.000000	61.992914
1131.000000	62.012236
1130.000000	62.026740
1129.000000	62.071038
1128.000000	62.088528
1127.000000	62.092111
1126.000000	62.114716
1125.000000	62.134225
1124.000000	62.136679
1123.000000	62.155029
1122.000000	62.156666
1121.000000	62.161408
1120.000000	62.157543
1119.000000	62.168341
1118.000000	62.169956
1117.000000	62.155877
1116.000000	62.163521
1115.000000	62.144322
1114.000000	62.150292
1113.000000	62.147264
1112.000000	62.142227
1111.000000	62.144701
1110.000000	62.139332
1109.000000	62.142387
1108.000000	62.147537
1107.000000	62.149099
1106.000000	62.152053
1105.000000	62.152720
1104.000000	62.158467
1103.000000	62.142986
1102.000000	62.146151
1101.000000	62.117018
1100.000000	62.100663
1099.000000	62.096750
1098.000000	62.098772
1097.000000	62.091558
1096.000000	62.083489
1095.000000	62.087295
1094.000000	62.101145
1093.000000	62.073879
1092.000000	62.066695
1091.000000	62.052974
1090.000000	62.042348
1089.000000	62.043552
1088.000000	62.054570
1087.000000	62.026996
1086.000000	62.001928
1085.000000	61.989071
1084.000000	61.988018
1083.000000	61.990323
1082.000000	61.979093
1081.000000	61.983327
1080.000000	61.956202
1079.000000	61.947287
1078.000000	61.923628
1077.000000	61.934077
1076.000000	61.913916
1075.000000	61.900312
1074.000000	61.900384
1073.000000	61.867454
1072.000000	61.862933
1071.000000	61.840269
1070.000000	61.829148
1069.000000	61.824406
1068.000000	61.829454
1067.000000	61.809968
1066.000000	61.802975
1065.000000	61.757199
1064.000000	61.758758
1063.000000	61.732848
1062.000000	61.734239
1061.000000	61.724006
1060.000000	61.717477
1059.000000	61.678355
1058.000000	61.670540
1057.000000	61.678897
1056.000000	61.656663
1055.000000	61.655901
1054.000000	61.658042
1053.000000	61.614338
1052.000000	61.602104
1051.000000	61.586291
1050.000000	61.581378
1049.000000	61.588060
1048.000000	61.531878
1047.000000	61.536433
1046.000000	61.512617
1045.000000	61.519335
1044.000000	61.504149
1043.000000	61.488632
1042.000000	61.476331
1041.000000	61.467703
1040.000000	61.456830
1039.000000	61.426807
1038.000000	61.435910
1037.000000	61.432103
1036.000000	61.423020
1035.000000	61.403726
1034.000000	61.379641
1033.000000	61.398856
1032.000000	61.389690
1031.000000	61.350188
1030.000000	61.358700
1029.000000	61.358101
1028.000000	61.345635
1027.000000	61.326637
1026.000000	61.310090
1025.000000	61.310726
1024.000000	61.280348
1023.000000	61.285953
1022.000000	61.280779
1021.000000	61.285285
1020.000000	61.261978
1019.000000	61.240724
1018.000000	61.255512
1017.000000	61.253242
1016.000000	61.244773
1015.000000	61.253067
1014.000000	61.211055
1013.000000	61.212499
1012.000000	61.221463
1011.000000	61.191521
1010.000000	61.208261
1009.000000	61.201653
1008.000000	61.204404
1007.000000	61.193721
1006.000000	61.194309
1005.000000	61.187467
1004.000000	61.194588
1003.000000	61.173685
1002.000000	61.159451
1001.000000	61.157908
1000.000000	61.168917
999.000000	61.165336
998.000000	61.155911
997.000000	61.151523
996.000000	61.156456
995.000000	61.163197
994.000000	61.160065
993.000000	61.168693
992.000000	61.165620
991.000000	61.148773
990.000000	61.135290
989.000000	61.116337
988.000000	61.138073
987.000000	61.130154
986.000000	61.125494
985.000000	61.126590
984.000000	61.132295
983.000000	61.136893
982.000000	61.130057
981.000000	61.132140
980.000000	61.129126
979.000000	61.109781
978.000000	61.118586
977.000000	61.132375
976.000000	61.130414
975.000000	61.132240
974.000000	61.127337
973.000000	61.110596
972.000000	61.098837
971.000000	61.097937
970.000000	61.108655
969.000000	61.099704
968.000000	61.104403
967.000000	61.099683
966.000000	61.104730
965.000000	61.099945
964.000000	61.070900
963.000000	61.074255
962.000000	61.082060
961.000000	61.064642
960.000000	61.058541
959.000000	61.074068
958.000000	61.083114
957.000000	61.065345
956.000000	61.048262
955.000000	61.050119
954.000000	61.046106
953.000000	61.035029
952.000000	61.032989
951.000000	61.018052
950.000000	61.010222
949.000000	61.024602
948.000000	61.016547
947.000000	61.020679
946.000000	61.017266
945.000000	60.999359
944.000000	60.999536
943.000000	60.984025
942.000000	60.979150
941.000000	60.997620
940.000000	60.991844
939.000000	60.956766
938.000000	60.933903
937.000000	60.925442
936.000000	60.920781
935.000000	60.940704
934.000000	60.949814
933.000000	60.926386
932.000000	60.908491
931.000000	60.909212
930.000000	60.891938
929.000000	60.883209
928.000000	60.881828
927.000000	60.871987
926.000000	60.828492
925.000000	60.803399
924.000000	60.798158
923.000000	60.798951
922.000000	60.797711
921.000000	60.809405
920.000000	60.805584
919.000000	60.760240
918.000000	60.748873
917.000000	60.746817
916.000000	60.744913
915.000000	60.726136
914.000000	60.700505
913.000000	60.689293
912.000000	60.680301
911.000000	60.650716
910.000000	60.628877
909.000000	60.649748
908.000000	60.664286
907.000000	60.632101
906.000000	60.625755
905.000000	60.618913
904.000000	60.601925
903.000000	60.596519
902.000000	60.588574
901.000000	60.570592
900.000000	60.610290
899.000000	60.612719
898.000000	60.594596
897.000000	60.582941
896.000000	60.554334
895.000000	60.537547
894.000000	60.567753
893.000000	60.533152
892.000000	60.502877
891.000000	60.508217
890.000000	60.489645
889.000000	60.497481
888.000000	60.475359
887.000000	60.498277
886.000000	60.528036
885.000000	60.420296
884.000000	60.419894
883.000000	60.481124
882.000000	60.496081
881.000000	60.482566
880.000000	60.428102
879.000000	60.392534
878.000000	60.358187
877.000000	60.380283
876.000000	60.412033
875.000000	60.356254
874.000000	60.340390
873.000000	60.310153
872.000000	60.294247
871.000000	60.222416
870.000000	60.223253
869.000000	60.285906
868.000000	60.286354
867.000000	60.240197
866.000000	60.200679
865.000000	60.130866
864.000000	60.124088
863.000000	60.053897
862.000000	59.945824
861.000000	60.105390
860.000000	60.099152
859.000000	60.720225
858.000000	60.848217
857.000000	60.560762
856.000000	60.489927
855.000000	60.776421
854.000000	60.432120
853.000000	60.586947
852.000000	60.353018
851.000000	60.472915
850.000000	60.643719
849.000000	60.393801
848.000000	60.068250
847.000000	60.552382
846.000000	60.504560
845.000000	60.306628
844.000000	60.259343
843.000000	60.312150
842.000000	60.323771
841.000000	60.269006
840.000000	60.361560
839.000000	60.324981
838.000000	60.218484
837.000000	60.215657
836.000000	60.222286
835.000000	60.207168
834.000000	60.107082
833.000000	60.009952
832.000000	60.151693
831.000000	60.137665
830.000000	60.023323
829.000000	60.167980
828.000000	60.146825
827.000000	59.953119
826.000000	60.011228
825.000000	60.148870
824.000000	60.035120
823.000000	59.842829
822.000000	60.101433
821.000000	59.776038
820.000000	59.966437
819.000000	59.964559
818.000000	59.759904
817.000000	59.878828
816.000000	59.898794
815.000000	59.943888
814.000000	59.690066
813.000000	59.794198
812.000000	59.784948
811.000000	59.754310
810.000000	59.757716
809.000000	59.615764
808.000000	59.537290
807.000000	59.523209
806.000000	59.676024
805.000000	59.509210
804.000000	59.568339
803.000000	59.553774
802.000000	59.433132
801.000000	59.396753
800.000000	59.346015
799.000000	59.465330
798.000000	59.357757
797.000000	59.296668
796.000000	59.361286
795.000000	59.320610
794.000000	59.252934
793.000000	59.274845
792.000000	59.214906
791.000000	59.189278
790.000000	59.108675
789.000000	59.135378
788.000000	59.186930
787.000000	59.130439
786.000000	59.173575
785.000000	59.179842
784.000000	58.993489
783.000000	59.030454
782.000000	58.908247
781.000000	59.019582
780.000000	58.920325
779.000000	58.808305
778.000000	58.913008
777.000000	58.838919
776.000000	58.794887
775.000000	58.805442
774.000000	58.636322
773.000000	58.710239
772.000000	58.769548
771.000000	58.713553
770.000000	58.631370
769.000000	58.593574
768.000000	58.521921
767.000000	58.531324
766.000000	58.570020
765.000000	58.398847
764.000000	58.383617
763.000000	58.383479
762.000000	58.360898
761.000000	58.305886
760.000000	58.267468
759.000000	58.269096
758.000000	58.171667
757.000000	58.183474
756.000000	58.156688
755.000000	58.134364
754.000000	58.104853
753.000000	58.077140
752.000000	57.973825
751.000000	57.932232
750.000000	57.947773
749.000000	57.969739
748.000000	57.888457
747.000000	57.833648
746.000000	57.715637
745.000000	57.725125
744.000000	57.722592
743.000000	57.672979
742.000000	57.584856
741.000000	57.546925
740.000000	57.511205
739.000000	57.535970
738.000000	57.519276
737.000000	57.421407
736.000000	57.320365
735.000000	57.295206
734.000000	57.348956
733.000000	57.328311
732.000000	57.216977
731.000000	57.237999
730.000000	57.222444
729.000000	57.100389
728.000000	57.001770
727.000000	57.010129
726.000000	57.007889
725.000000	56.962717
724.000000	56.891295
723.000000	56.843241
722.000000	56.775401
721.000000	56.739675
720.000000	56.738247
719.000000	56.759838
718.000000	56.658864
717.000000	56.624040
716.000000	56.603535
715.000000	56.527213
714.000000	56.470172
713.000000	56.409528
712.000000	56.346413
711.000000	56.345932
710.000000	56.318626
709.000000	56.259622
708.000000	56.172997
707.000000	56.111754
706.000000	56.142352
705.000000	56.071733
704.000000	55.952826
703.000000	55.915408
702.000000	55.894971
701.000000	55.776589
700.000000	55.685044
699.000000	55.696717
698.000000	55.675903
697.000000	55.596724
696.000000	55.534652
695.000000	55.473705
694.000000	55.378640
693.000000	55.360931
692.000000	55.350529
691.000000	55.278000
690.000000	55.225251
689.000000	55.096792
688.000000	55.029712
687.000000	54.972833
686.000000	54.895065
685.000000	54.859574
684.000000	54.815930
683.000000	54.768293
682.000000	54.655197
681.000000	54.642812
680.000000	54.566209
679.000000	54.481914
678.000000	54.436444
677.000000	54.323883
676.000000	54.291097
675.000000	54.306920
674.000000	54.213228
673.000000	54.142496
672.000000	54.089914
671.000000	54.055723
670.000000	53.975623
669.000000	53.893425
668.000000	53.871392
667.000000	53.840744
666.000000	53.728509
665.000000	53.627512
664.000000	53.560675
663.000000	53.507428
662.000000	53.409125
661.000000	53.391781
660.000000	53.302157
659.000000	53.243915
658.000000	53.165820
657.000000	53.146696
656.000000	53.056170
655.000000	52.982618
654.000000	52.924305
653.000000	52.852314
652.000000	52.801789
651.000000	52.738174
650.000000	52.659142
649.000000	52.557553
648.000000	52.515526
647.000000	52.399296
646.000000	52.355403
645.000000	52.275125
644.000000	52.240492
643.000000	52.144206
642.000000	52.097891
641.000000	52.017297
640.000000	51.978242
639.000000	51.896318
638.000000	51.809215
637.000000	51.738435
636.000000	51.670676
635.000000	51.609522
634.000000	51.504374
633.000000	51.480684
632.000000	51.404671
631.000000	51.290629
630.000000	51.219322
629.000000	51.127320
628.000000	51.031884
627.000000	51.049907
626.000000	50.937312
625.000000	50.870632
624.000000	50.736362
623.000000	50.708114
622.000000	50.603916
621.000000	50.569711
620.000000	50.473779
619.000000	50.388226
618.000000	50.324156
617.000000	50.250048
616.000000	50.152834
615.000000	50.067911
614.000000	50.010970
613.000000	49.941888
612.000000	49.823717
611.000000	49.733888
610.000000	49.629467
609.000000	49.638711
608.000000	49.519478
607.000000	49.493082
606.000000	49.362884
605.000000	49.314633
604.000000	49.189978
603.000000	49.146241
602.000000	49.059608
601.000000	48.950732
600.000000	48.851935
599.000000	48.752260
598.000000	48.705169
597.000000	48.613552
596.000000	48.515173
595.000000	48.415924
594.000000	48.297493
593.000000	48.232901
592.000000	48.149585
591.000000	48.094634
590.000000	47.974296
589.000000	47.823645
588.000000	47.804500
587.000000	47.739838
586.000000	47.586617
585.000000	47.498634
584.000000	47.362358
583.000000	47.351423
582.000000	47.224448
581.000000	47.135874
580.000000	47.001058
579.000000	46.934085
578.000000	46.836093
577.000000	46.715022
576.000000	46.597538
575.000000	46.554250
574.000000	46.422504
573.000000	46.347573
572.000000	46.201485
571.000000	46.131652
570.000000	46.059541
569.000000	45.933357
568.000000	45.856127
567.000000	45.699879
566.000000	45.600167
565.000000	45.498279
564.000000	45.393905
563.000000	45.259358
562.000000	45.114308
561.000000	45.057439
560.000000	44.914998
559.000000	44.828935
558.000000	44.704524
557.000000	44.564494
556.000000	44.436654
555.000000	44.341268
554.000000	44.235311
553.000000	44.163455
552.000000	44.011619
551.000000	43.926811
550.000000	43.781746
549.000000	43.670408
548.000000	43.538100
547.000000	43.456851
546.000000	43.296188
545.000000	43.193933
544.000000	43.074718
543.000000	42.950652
542.000000	42.838150
541.000000	42.723495
540.000000	42.587823
539.000000	42.494977
538.000000	42.362623
537.000000	42.251645
536.000000	42.097816
535.000000	41.995445
534.000000	41.850595
533.000000	41.795958
532.000000	41.648866
531.000000	41.545536
530.000000	41.398791
529.000000	41.299029
528.000000	41.161792
527.000000	41.025627
526.000000	40.920641
525.000000	40.788753
524.000000	40.654581
523.000000	40.529592
522.000000	40.381867
521.000000	40.283201
520.000000	40.157265
519.000000	40.039632
518.000000	39.894811
517.000000	39.777195
516.000000	39.651986
515.000000	39.525082
514.000000	39.407627
513.000000	39.282676
512.000000	39.119225
511.000000	38.988944
510.000000	38.864161
509.000000	38.731186
508.000000	38.603357
507.000000	38.485686
506.000000	38.337224
505.000000	38.216393
504.000000	38.097482
503.000000	37.950896
502.000000	37.812081
501.000000	37.646408
500.000000	37.505209
499.000000	37.414607
498.000000	37.276835
497.000000	37.109271
496.000000	36.971641
495.000000	36.854024
494.000000	36.681120
493.000000	36.533131
492.000000	36.364576
491.000000	36.245155
490.000000	36.103785
489.000000	35.952717
488.000000	35.812988
487.000000	35.691222
486.000000	35.546238
485.000000	35.393647
484.000000	35.248629
483.000000	35.113169
482.000000	34.992914
481.000000	34.839649
480.000000	34.726319
479.000000	34.609963
478.000000	34.504848
477.000000	34.395595
476.000000	34.245806
475.000000	34.100882
474.000000	33.983896
473.000000	33.875007
472.000000	33.730631
471.000000	33.587664
470.000000	33.449915
469.000000	33.300802
468.000000	33.164307
467.000000	33.055913
466.000000	32.934653
465.000000	32.783193
464.000000	32.623361
463.000000	32.499308
462.000000	32.356403
461.000000	32.213522
460.000000	32.057014
459.000000	31.905935
458.000000	31.791834
457.000000	31.644328
456.000000	31.483427
455.000000	31.318129
454.000000	31.130987
453.000000	30.963318
452.000000	30.827395
451.000000	30.700741
450.000000	30.529349
449.000000	30.342490
448.000000	30.184737
447.000000	30.028326
446.000000	29.851147
445.000000	29.675572
444.000000	29.520728
443.000000	29.359296
442.000000	29.176046
441.000000	29.019036
440.000000	28.847340
439.000000	28.667486
438.000000	28.523140
437.000000	28.366806
436.000000	28.198594
435.000000	28.036276
434.000000	27.900403
433.000000	27.730280
432.000000	27.546694
431.000000	27.347174
430.000000	27.195928
429.000000	27.029473
428.000000	26.826571
427.000000	26.632500
426.000000	26.493021
425.000000	26.341872
424.000000	26.176226
423.000000	26.015436
422.000000	25.800742
421.000000	25.641788
420.000000	25.459977
419.000000	25.290286
418.000000	25.109017
417.000000	24.912976
416.000000	24.745499
415.000000	24.575418
414.000000	24.418407
413.000000	24.232068
412.000000	24.073956
411.000000	23.898428
410.000000	23.719090
409.000000	23.546390
408.000000	23.371013
407.000000	23.170502
406.000000	23.009098
405.000000	22.849987
404.000000	22.647437
403.000000	22.474113
402.000000	22.323084
401.000000	22.136366
400.000000	21.974352
399.000000	21.808799
398.000000	21.646482
397.000000	21.485228
396.000000	21.324227
395.000000	21.155585
394.000000	20.984536
393.000000	20.818158
392.000000	20.609778
391.000000	20.458876
390.000000	20.327502
389.000000	20.146517
388.000000	19.953540
387.000000	19.797616
386.000000	19.622406
385.000000	19.447226
384.000000	19.320233
383.000000	19.167606
382.000000	18.963430
381.000000	18.809059
380.000000	18.632344
379.000000	18.464605
378.000000	18.293605
377.000000	18.156758
376.000000	18.063047
375.000000	17.887463
374.000000	17.710100
373.000000	17.524023
372.000000	17.365623
371.000000	17.209705
370.000000	17.105189
369.000000	16.920120
368.000000	16.745803
367.000000	16.621736
366.000000	16.463738
365.000000	16.358124
364.000000	16.188305
363.000000	16.076301
362.000000	15.941658
361.000000	15.818325
360.000000	15.723538
359.000000	15.590954
358.000000	15.452471
357.000000	15.284792
356.000000	15.234100
355.000000	15.009752
354.000000	14.919886
353.000000	14.795519
352.000000	14.709074
351.000000	14.524277
350.000000	14.408668
349.000000	14.342509
348.000000	14.242793
347.000000	14.093272
346.000000	13.975848
345.000000	13.785465
344.000000	13.698723
343.000000	13.610822
342.000000	13.460516
341.000000	13.417223
340.000000	13.289239
339.000000	13.181419
338.000000	13.038970
337.000000	12.901882
336.000000	12.784954
335.000000	12.609727
334.000000	12.536003
333.000000	12.334325
332.000000	12.297502
331.000000	12.137560
330.000000	12.034007
329.000000	11.952434
328.000000	11.832168
327.000000	11.681940
326.000000	11.585898
325.000000	11.521099
324.000000	11.415770
323.000000	11.342468
322.000000	11.206984
321.000000	11.091468
320.000000	11.119379
319.000000	11.094600
318.000000	10.812972
317.000000	10.757847
316.000000	10.658190
315.000000	10.678798
314.000000	10.586766
313.000000	10.477241
312.000000	10.378739
311.000000	10.380749
310.000000	10.276285
309.000000	10.201381
308.000000	10.167505
307.000000	10.100550
306.000000	10.033649
305.000000	9.957481
304.000000	9.945201
303.000000	9.870659
302.000000	9.827036
301.000000	9.811179
300.000000	9.754369
299.000000	9.693523
298.000000	9.628539
297.000000	9.527469
296.000000	9.551803
295.000000	9.455934
294.000000	9.412328
293.000000	9.381879
292.000000	9.335597
291.000000	9.243629
290.000000	9.200706
289.000000	9.142461
288.000000	9.121883
287.000000	9.054525
286.000000	8.981449
285.000000	9.034538
284.000000	8.958780
283.000000	8.954643
282.000000	8.953279
281.000000	8.944045
280.000000	8.951601
279.000000	8.982059
278.000000	8.990505
277.000000	9.036950
276.000000	9.039193
275.000000	9.087800
274.000000	9.145096
273.000000	9.181774
272.000000	9.223700
271.000000	9.268481
270.000000	9.312556
269.000000	9.353834
268.000000	9.404888
267.000000	9.491254
266.000000	9.561238
265.000000	9.607263
264.000000	9.732296
263.000000	9.811657
262.000000	9.930132
261.000000	10.003470
260.000000	10.073838
259.000000	10.180862
258.000000	10.317689
257.000000	10.413064
256.000000	10.497203
255.000000	10.613652
254.000000	10.717310
253.000000	10.826829
252.000000	10.968916
251.000000	11.047151
250.000000	11.160950
249.000000	11.281164
248.000000	11.326415
247.000000	11.382835
246.000000	11.379111
245.000000	11.364058
244.000000	11.356193
243.000000	11.299737
242.000000	11.190701
241.000000	11.084766
240.000000	10.995657
239.000000	10.865687
238.000000	10.748269
237.000000	10.593202
236.000000	10.462568
235.000000	10.363259
234.000000	10.296933
233.000000	10.089834
232.000000	9.933202
231.000000	9.847545
230.000000	9.744045
229.000000	9.646850
228.000000	9.576694
227.000000	9.534895
226.000000	9.496710
225.000000	9.479375
224.000000	9.423175
223.000000	9.439559
222.000000	9.495915
221.000000	9.481629
220.000000	9.529201
219.000000	9.600451
218.000000	9.631198
217.000000	9.753922
216.000000	9.803642
215.000000	9.919685
214.000000	10.100163
213.000000	10.172163
212.000000	10.292878
211.000000	10.487798
210.000000	10.658639
209.000000	10.805622
208.000000	10.922299
207.000000	11.151423
206.000000	11.494058
205.000000	11.798213
204.000000	12.034768
203.000000	12.371678
202.000000	12.696576
201.000000	13.257448
200.000000	13.721679
