PE UV       SUBTECH     SPECTRUM    ASCII       PEDS        4.00        
   -1
RTms1556142.Sample.asc
18/03/21
15:15:06.00
18/03/21
15:15:06.00
Administrator

200.000000
1
Lambda 750
750N8071901
PerkinElmer UV WinLab 6.0.4.0738 / 1.61.00 Lambda 900

0
0
3350/servo 860.8/2
0
0
UV/VIS
1
1
1
CommonBeamDepol,150mm sphere / downward view
0
0
0
0
Program
Program
3350/servo 860.8/2
3350/0.2 860.8/0.2
3350/0.2 860.8/0.2
0
1
 
 
 
0
 
860.8
319.2
860.8
Front
100
on
 
 
0
0
0
 
0
 
 
 
0
 
 
0
0
0
0
0
 
 
 
 
0
0


0
0
#HDR
-1
-1
#GR
nm
%R
1.0
0.0
2350.000000
-1.000000
2151
8
56.001767
8.184483
#DATA
2350.000000	36.851259
2349.000000	37.181972
2348.000000	37.058960
2347.000000	37.462007
2346.000000	36.958536
2345.000000	37.118219
2344.000000	37.266915
2343.000000	37.254398
2342.000000	37.582375
2341.000000	37.544186
2340.000000	37.372135
2339.000000	37.666140
2338.000000	37.914143
2337.000000	37.537087
2336.000000	37.850680
2335.000000	37.665261
2334.000000	37.590385
2333.000000	37.991624
2332.000000	38.015477
2331.000000	38.031143
2330.000000	38.009953
2329.000000	37.874588
2328.000000	37.757070
2327.000000	37.713613
2326.000000	37.786307
2325.000000	37.627094
2324.000000	37.808497
2323.000000	37.828633
2322.000000	37.454888
2321.000000	37.644912
2320.000000	37.580012
2319.000000	37.629792
2318.000000	37.621157
2317.000000	37.778391
2316.000000	37.514549
2315.000000	37.475005
2314.000000	37.301525
2313.000000	37.404968
2312.000000	37.286723
2311.000000	37.279476
2310.000000	37.031377
2309.000000	37.168346
2308.000000	37.036771
2307.000000	36.949733
2306.000000	36.952798
2305.000000	36.884303
2304.000000	36.930973
2303.000000	36.753765
2302.000000	36.764651
2301.000000	36.617532
2300.000000	36.364649
2299.000000	36.374360
2298.000000	36.436416
2297.000000	36.555787
2296.000000	36.309268
2295.000000	36.229122
2294.000000	36.223602
2293.000000	36.319117
2292.000000	36.073171
2291.000000	35.937935
2290.000000	35.952701
2289.000000	36.139090
2288.000000	36.249617
2287.000000	36.238468
2286.000000	36.069212
2285.000000	35.899008
2284.000000	35.938429
2283.000000	35.831955
2282.000000	35.883862
2281.000000	35.977993
2280.000000	35.848462
2279.000000	35.872248
2278.000000	35.948563
2277.000000	35.976724
2276.000000	36.032346
2275.000000	35.926482
2274.000000	35.939625
2273.000000	36.183102
2272.000000	36.195064
2271.000000	36.130501
2270.000000	36.229241
2269.000000	36.332727
2268.000000	36.292208
2267.000000	36.378426
2266.000000	36.467134
2265.000000	36.499384
2264.000000	36.596061
2263.000000	36.693983
2262.000000	36.802792
2261.000000	36.934632
2260.000000	37.101655
2259.000000	37.212884
2258.000000	37.277181
2257.000000	37.352277
2256.000000	37.439875
2255.000000	37.695499
2254.000000	37.872178
2253.000000	37.876043
2252.000000	38.019544
2251.000000	38.331601
2250.000000	38.527967
2249.000000	38.605948
2248.000000	38.691209
2247.000000	38.892861
2246.000000	38.998598
2245.000000	39.053929
2244.000000	39.183716
2243.000000	39.288600
2242.000000	39.501322
2241.000000	39.654945
2240.000000	39.657761
2239.000000	39.689041
2238.000000	39.737014
2237.000000	39.786158
2236.000000	40.085305
2235.000000	40.290164
2234.000000	40.184366
2233.000000	40.107738
2232.000000	40.221716
2231.000000	40.450058
2230.000000	40.480247
2229.000000	40.465070
2228.000000	40.534256
2227.000000	40.459487
2226.000000	40.409202
2225.000000	40.446254
2224.000000	40.492154
2223.000000	40.465360
2222.000000	40.386084
2221.000000	40.408673
2220.000000	40.274831
2219.000000	40.186082
2218.000000	40.358501
2217.000000	40.263761
2216.000000	40.218982
2215.000000	40.202574
2214.000000	40.276052
2213.000000	40.318332
2212.000000	40.179430
2211.000000	40.126093
2210.000000	40.199257
2209.000000	40.155175
2208.000000	40.170315
2207.000000	40.070902
2206.000000	39.947611
2205.000000	39.887029
2204.000000	39.839080
2203.000000	39.705259
2202.000000	39.662048
2201.000000	39.677138
2200.000000	39.806444
2199.000000	39.803661
2198.000000	39.746596
2197.000000	39.623931
2196.000000	39.572516
2195.000000	39.453709
2194.000000	39.319319
2193.000000	39.285909
2192.000000	39.362683
2191.000000	39.339071
2190.000000	39.289830
2189.000000	39.306749
2188.000000	39.223148
2187.000000	39.018866
2186.000000	39.055396
2185.000000	39.105691
2184.000000	39.124964
2183.000000	39.142754
2182.000000	39.183112
2181.000000	39.019566
2180.000000	38.994742
2179.000000	39.074867
2178.000000	38.983889
2177.000000	39.059595
2176.000000	38.973228
2175.000000	39.099528
2174.000000	39.055917
2173.000000	39.182881
2172.000000	39.072067
2171.000000	39.269925
2170.000000	39.298739
2169.000000	39.327248
2168.000000	39.433624
2167.000000	39.492066
2166.000000	39.474836
2165.000000	39.664375
2164.000000	39.524094
2163.000000	39.637038
2162.000000	39.788053
2161.000000	40.084784
2160.000000	40.092659
2159.000000	40.102153
2158.000000	40.226153
2157.000000	40.296248
2156.000000	40.424730
2155.000000	40.449043
2154.000000	40.621635
2153.000000	40.871275
2152.000000	40.882285
2151.000000	40.785273
2150.000000	41.075956
2149.000000	41.162090
2148.000000	41.168003
2147.000000	41.263937
2146.000000	41.482479
2145.000000	41.531756
2144.000000	41.416444
2143.000000	41.622654
2142.000000	41.810338
2141.000000	41.928266
2140.000000	41.929416
2139.000000	42.113488
2138.000000	42.169918
2137.000000	42.266241
2136.000000	42.291232
2135.000000	42.285833
2134.000000	42.583123
2133.000000	42.413451
2132.000000	42.511532
2131.000000	42.473408
2130.000000	42.719430
2129.000000	42.693386
2128.000000	42.612161
2127.000000	42.755235
2126.000000	42.757414
2125.000000	42.786888
2124.000000	42.885202
2123.000000	42.829832
2122.000000	42.976636
2121.000000	43.010272
2120.000000	42.873489
2119.000000	43.020314
2118.000000	42.992099
2117.000000	42.978897
2116.000000	42.999335
2115.000000	43.146870
2114.000000	43.045707
2113.000000	42.994674
2112.000000	43.134529
2111.000000	43.146604
2110.000000	43.186154
2109.000000	43.115290
2108.000000	43.104104
2107.000000	43.197707
2106.000000	43.195706
2105.000000	43.148303
2104.000000	43.004569
2103.000000	43.109143
2102.000000	43.189832
2101.000000	43.275952
2100.000000	43.139709
2099.000000	43.190160
2098.000000	43.177399
2097.000000	43.126564
2096.000000	43.179627
2095.000000	43.151990
2094.000000	43.166699
2093.000000	43.035271
2092.000000	43.124882
2091.000000	43.117858
2090.000000	43.122174
2089.000000	43.064607
2088.000000	43.031884
2087.000000	43.056331
2086.000000	43.078938
2085.000000	43.104006
2084.000000	43.042031
2083.000000	43.043978
2082.000000	42.997141
2081.000000	42.833905
2080.000000	42.777746
2079.000000	42.816225
2078.000000	42.701677
2077.000000	42.659103
2076.000000	42.578318
2075.000000	42.504226
2074.000000	42.470130
2073.000000	42.383311
2072.000000	42.300769
2071.000000	42.299741
2070.000000	42.299132
2069.000000	42.102038
2068.000000	42.000566
2067.000000	41.869635
2066.000000	41.746751
2065.000000	41.660734
2064.000000	41.580291
2063.000000	41.529429
2062.000000	41.463207
2061.000000	41.326837
2060.000000	41.229982
2059.000000	41.143608
2058.000000	41.052384
2057.000000	40.978665
2056.000000	40.885596
2055.000000	40.759374
2054.000000	40.658793
2053.000000	40.584390
2052.000000	40.519815
2051.000000	40.402417
2050.000000	40.369595
2049.000000	40.313018
2048.000000	40.226704
2047.000000	40.202348
2046.000000	40.140277
2045.000000	40.068218
2044.000000	40.030659
2043.000000	40.009902
2042.000000	40.039473
2041.000000	40.043663
2040.000000	40.063854
2039.000000	40.029861
2038.000000	40.031257
2037.000000	40.103060
2036.000000	40.131414
2035.000000	40.191112
2034.000000	40.256101
2033.000000	40.296835
2032.000000	40.391451
2031.000000	40.431134
2030.000000	40.458379
2029.000000	40.539378
2028.000000	40.616775
2027.000000	40.683934
2026.000000	40.747098
2025.000000	40.817597
2024.000000	40.862464
2023.000000	40.894329
2022.000000	40.941459
2021.000000	41.015216
2020.000000	41.045977
2019.000000	41.074565
2018.000000	41.061434
2017.000000	41.051327
2016.000000	41.042951
2015.000000	41.008562
2014.000000	41.023146
2013.000000	41.023194
2012.000000	40.985607
2011.000000	40.973116
2010.000000	40.942297
2009.000000	40.854696
2008.000000	40.805172
2007.000000	40.769864
2006.000000	40.709926
2005.000000	40.652508
2004.000000	40.619821
2003.000000	40.545293
2002.000000	40.467393
2001.000000	40.381964
2000.000000	40.305839
1999.000000	40.243930
1998.000000	40.186142
1997.000000	40.126148
1996.000000	40.077710
1995.000000	39.956540
1994.000000	39.860947
1993.000000	39.803199
1992.000000	39.717167
1991.000000	39.609637
1990.000000	39.540342
1989.000000	39.475430
1988.000000	39.351667
1987.000000	39.318451
1986.000000	39.238487
1985.000000	39.136726
1984.000000	39.080951
1983.000000	39.027998
1982.000000	38.951625
1981.000000	38.879323
1980.000000	38.801547
1979.000000	38.723468
1978.000000	38.633454
1977.000000	38.556172
1976.000000	38.453287
1975.000000	38.381411
1974.000000	38.303745
1973.000000	38.245550
1972.000000	38.179557
1971.000000	38.113267
1970.000000	38.017510
1969.000000	37.975396
1968.000000	37.904345
1967.000000	37.799931
1966.000000	37.771564
1965.000000	37.664075
1964.000000	37.588472
1963.000000	37.525538
1962.000000	37.444077
1961.000000	37.376275
1960.000000	37.349608
1959.000000	37.275415
1958.000000	37.176520
1957.000000	37.133631
1956.000000	37.088548
1955.000000	36.967578
1954.000000	36.968702
1953.000000	36.923634
1952.000000	36.936383
1951.000000	36.872494
1950.000000	36.811602
1949.000000	36.771037
1948.000000	36.756302
1947.000000	36.672982
1946.000000	36.692485
1945.000000	36.708442
1944.000000	36.679791
1943.000000	36.717209
1942.000000	36.787754
1941.000000	36.733573
1940.000000	36.740140
1939.000000	36.866542
1938.000000	36.840079
1937.000000	36.928061
1936.000000	36.973735
1935.000000	37.057890
1934.000000	37.049646
1933.000000	37.105494
1932.000000	37.139198
1931.000000	37.360794
1930.000000	37.484254
1929.000000	37.585653
1928.000000	37.682045
1927.000000	37.887669
1926.000000	37.992537
1925.000000	38.147473
1924.000000	38.354579
1923.000000	38.520724
1922.000000	38.656803
1921.000000	38.900589
1920.000000	39.090980
1919.000000	39.313048
1918.000000	39.470257
1917.000000	39.723360
1916.000000	39.944247
1915.000000	40.210825
1914.000000	40.494036
1913.000000	40.708322
1912.000000	40.962814
1911.000000	41.222461
1910.000000	41.468215
1909.000000	41.722903
1908.000000	42.065114
1907.000000	42.388797
1906.000000	42.606133
1905.000000	42.998537
1904.000000	43.305877
1903.000000	43.546385
1902.000000	43.893202
1901.000000	44.211674
1900.000000	44.527675
1899.000000	44.895405
1898.000000	45.260917
1897.000000	45.475054
1896.000000	45.811014
1895.000000	46.117488
1894.000000	46.425114
1893.000000	46.715226
1892.000000	47.056297
1891.000000	47.308432
1890.000000	47.609733
1889.000000	47.862977
1888.000000	48.121748
1887.000000	48.389515
1886.000000	48.625085
1885.000000	48.854525
1884.000000	49.061351
1883.000000	49.289208
1882.000000	49.479189
1881.000000	49.655887
1880.000000	49.890929
1879.000000	50.033377
1878.000000	50.190241
1877.000000	50.397559
1876.000000	50.542052
1875.000000	50.642891
1874.000000	50.810863
1873.000000	50.888059
1872.000000	51.014696
1871.000000	51.135770
1870.000000	51.245640
1869.000000	51.307674
1868.000000	51.374758
1867.000000	51.431065
1866.000000	51.490804
1865.000000	51.546713
1864.000000	51.603870
1863.000000	51.612348
1862.000000	51.653333
1861.000000	51.687490
1860.000000	51.715885
1859.000000	51.764732
1858.000000	51.788981
1857.000000	51.774713
1856.000000	51.779753
1855.000000	51.834231
1854.000000	51.849555
1853.000000	51.871606
1852.000000	51.888709
1851.000000	51.875847
1850.000000	51.878856
1849.000000	51.876400
1848.000000	51.868856
1847.000000	51.906728
1846.000000	51.901762
1845.000000	51.882834
1844.000000	51.863024
1843.000000	51.857564
1842.000000	51.827283
1841.000000	51.820023
1840.000000	51.834355
1839.000000	51.833968
1838.000000	51.811239
1837.000000	51.762700
1836.000000	51.747711
1835.000000	51.716225
1834.000000	51.702347
1833.000000	51.684835
1832.000000	51.637941
1831.000000	51.592182
1830.000000	51.577869
1829.000000	51.562677
1828.000000	51.529894
1827.000000	51.504954
1826.000000	51.505585
1825.000000	51.498330
1824.000000	51.495324
1823.000000	51.471342
1822.000000	51.422810
1821.000000	51.411128
1820.000000	51.394278
1819.000000	51.377838
1818.000000	51.361188
1817.000000	51.323007
1816.000000	51.297199
1815.000000	51.299852
1814.000000	51.284300
1813.000000	51.256406
1812.000000	51.253651
1811.000000	51.240709
1810.000000	51.233198
1809.000000	51.228072
1808.000000	51.186936
1807.000000	51.162729
1806.000000	51.168854
1805.000000	51.156180
1804.000000	51.140462
1803.000000	51.138585
1802.000000	51.123839
1801.000000	51.090701
1800.000000	51.087782
1799.000000	51.090904
1798.000000	51.070072
1797.000000	51.073775
1796.000000	51.083948
1795.000000	51.064589
1794.000000	51.050753
1793.000000	51.031582
1792.000000	51.024282
1791.000000	51.032811
1790.000000	51.025163
1789.000000	51.011803
1788.000000	51.009963
1787.000000	51.006269
1786.000000	51.002582
1785.000000	50.984436
1784.000000	50.964388
1783.000000	50.940340
1782.000000	50.948328
1781.000000	50.916447
1780.000000	50.902361
1779.000000	50.892413
1778.000000	50.874126
1777.000000	50.852740
1776.000000	50.840443
1775.000000	50.784478
1774.000000	50.749357
1773.000000	50.748730
1772.000000	50.707670
1771.000000	50.692761
1770.000000	50.677963
1769.000000	50.637736
1768.000000	50.609872
1767.000000	50.595075
1766.000000	50.563723
1765.000000	50.554577
1764.000000	50.514355
1763.000000	50.488161
1762.000000	50.448377
1761.000000	50.418437
1760.000000	50.386339
1759.000000	50.359084
1758.000000	50.335173
1757.000000	50.325961
1756.000000	50.300208
1755.000000	50.275309
1754.000000	50.245928
1753.000000	50.212101
1752.000000	50.199228
1751.000000	50.150795
1750.000000	50.134920
1749.000000	50.143595
1748.000000	50.096383
1747.000000	50.082176
1746.000000	50.059665
1745.000000	50.005132
1744.000000	49.985570
1743.000000	49.960161
1742.000000	49.924035
1741.000000	49.896623
1740.000000	49.882133
1739.000000	49.856392
1738.000000	49.839628
1737.000000	49.848817
1736.000000	49.826042
1735.000000	49.812244
1734.000000	49.791658
1733.000000	49.804878
1732.000000	49.788074
1731.000000	49.794930
1730.000000	49.833683
1729.000000	49.826895
1728.000000	49.846195
1727.000000	49.851302
1726.000000	49.867921
1725.000000	49.938632
1724.000000	49.984198
1723.000000	50.029511
1722.000000	50.075038
1721.000000	50.125472
1720.000000	50.189599
1719.000000	50.240605
1718.000000	50.276365
1717.000000	50.332908
1716.000000	50.341610
1715.000000	50.417040
1714.000000	50.438763
1713.000000	50.523031
1712.000000	50.524305
1711.000000	50.562259
1710.000000	50.605586
1709.000000	50.640345
1708.000000	50.656559
1707.000000	50.701114
1706.000000	50.698272
1705.000000	50.732500
1704.000000	50.744625
1703.000000	50.769615
1702.000000	50.749488
1701.000000	50.763324
1700.000000	50.758257
1699.000000	50.747869
1698.000000	50.804476
1697.000000	50.805307
1696.000000	50.858527
1695.000000	50.867920
1694.000000	50.879189
1693.000000	50.903463
1692.000000	50.910911
1691.000000	50.977623
1690.000000	51.005884
1689.000000	51.036776
1688.000000	51.088488
1687.000000	51.132902
1686.000000	51.177541
1685.000000	51.253768
1684.000000	51.318634
1683.000000	51.391827
1682.000000	51.466089
1681.000000	51.540830
1680.000000	51.601271
1679.000000	51.705842
1678.000000	51.770701
1677.000000	51.835054
1676.000000	51.934784
1675.000000	52.016383
1674.000000	52.082426
1673.000000	52.169211
1672.000000	52.246811
1671.000000	52.311710
1670.000000	52.395391
1669.000000	52.479631
1668.000000	52.516872
1667.000000	52.594748
1666.000000	52.615389
1665.000000	52.657378
1664.000000	52.732082
1663.000000	52.752673
1662.000000	52.787412
1661.000000	52.824271
1660.000000	52.871423
1659.000000	52.916308
1658.000000	52.925513
1657.000000	52.939838
1656.000000	52.953893
1655.000000	52.991335
1654.000000	53.008088
1653.000000	52.997196
1652.000000	52.998983
1651.000000	52.997757
1650.000000	52.984464
1649.000000	52.981983
1648.000000	52.986172
1647.000000	52.965179
1646.000000	52.971803
1645.000000	52.957607
1644.000000	52.955019
1643.000000	52.935773
1642.000000	52.947243
1641.000000	52.929641
1640.000000	52.915958
1639.000000	52.896782
1638.000000	52.901875
1637.000000	52.901683
1636.000000	52.847149
1635.000000	52.856438
1634.000000	52.839315
1633.000000	52.809248
1632.000000	52.785808
1631.000000	52.764157
1630.000000	52.755092
1629.000000	52.743540
1628.000000	52.719706
1627.000000	52.686968
1626.000000	52.659389
1625.000000	52.655566
1624.000000	52.628737
1623.000000	52.620295
1622.000000	52.603072
1621.000000	52.570409
1620.000000	52.539584
1619.000000	52.515407
1618.000000	52.486477
1617.000000	52.453915
1616.000000	52.437020
1615.000000	52.419936
1614.000000	52.387533
1613.000000	52.367154
1612.000000	52.329247
1611.000000	52.299243
1610.000000	52.288083
1609.000000	52.267534
1608.000000	52.242420
1607.000000	52.211601
1606.000000	52.182503
1605.000000	52.155971
1604.000000	52.120866
1603.000000	52.084219
1602.000000	52.071031
1601.000000	52.040477
1600.000000	52.006826
1599.000000	51.984663
1598.000000	51.964233
1597.000000	51.929029
1596.000000	51.887823
1595.000000	51.871157
1594.000000	51.852826
1593.000000	51.821366
1592.000000	51.800737
1591.000000	51.776717
1590.000000	51.760840
1589.000000	51.725597
1588.000000	51.693262
1587.000000	51.685554
1586.000000	51.672864
1585.000000	51.651480
1584.000000	51.622990
1583.000000	51.602502
1582.000000	51.591641
1581.000000	51.574832
1580.000000	51.554672
1579.000000	51.525861
1578.000000	51.516182
1577.000000	51.483031
1576.000000	51.453768
1575.000000	51.427005
1574.000000	51.393166
1573.000000	51.377766
1572.000000	51.370558
1571.000000	51.347686
1570.000000	51.322717
1569.000000	51.307324
1568.000000	51.297188
1567.000000	51.276243
1566.000000	51.259645
1565.000000	51.240596
1564.000000	51.221921
1563.000000	51.222626
1562.000000	51.205519
1561.000000	51.197635
1560.000000	51.181872
1559.000000	51.162182
1558.000000	51.151525
1557.000000	51.147076
1556.000000	51.119272
1555.000000	51.104363
1554.000000	51.090075
1553.000000	51.089325
1552.000000	51.077769
1551.000000	51.057323
1550.000000	51.038388
1549.000000	51.010288
1548.000000	50.972307
1547.000000	50.938549
1546.000000	50.919278
1545.000000	50.902897
1544.000000	50.870674
1543.000000	50.837564
1542.000000	50.802875
1541.000000	50.763317
1540.000000	50.720493
1539.000000	50.678634
1538.000000	50.628447
1537.000000	50.584516
1536.000000	50.550138
1535.000000	50.503866
1534.000000	50.463684
1533.000000	50.423444
1532.000000	50.376147
1531.000000	50.341155
1530.000000	50.296710
1529.000000	50.269195
1528.000000	50.236454
1527.000000	50.187587
1526.000000	50.156397
1525.000000	50.109839
1524.000000	50.085631
1523.000000	50.056569
1522.000000	50.041405
1521.000000	50.010656
1520.000000	49.985897
1519.000000	49.963982
1518.000000	49.924108
1517.000000	49.893197
1516.000000	49.889791
1515.000000	49.868187
1514.000000	49.844608
1513.000000	49.868510
1512.000000	49.883005
1511.000000	49.932322
1510.000000	49.953269
1509.000000	49.946465
1508.000000	49.924125
1507.000000	49.883235
1506.000000	49.859191
1505.000000	49.839503
1504.000000	49.823120
1503.000000	49.822143
1502.000000	49.815577
1501.000000	49.791264
1500.000000	49.782927
1499.000000	49.769416
1498.000000	49.790442
1497.000000	49.792606
1496.000000	49.786987
1495.000000	49.792373
1494.000000	49.788933
1493.000000	49.810078
1492.000000	49.808717
1491.000000	49.838496
1490.000000	49.868946
1489.000000	49.858507
1488.000000	49.893608
1487.000000	49.905122
1486.000000	49.903606
1485.000000	49.939681
1484.000000	49.967383
1483.000000	49.932074
1482.000000	49.964594
1481.000000	49.989298
1480.000000	50.038343
1479.000000	50.051479
1478.000000	50.087588
1477.000000	50.114167
1476.000000	50.121970
1475.000000	50.165391
1474.000000	50.187595
1473.000000	50.217680
1472.000000	50.247909
1471.000000	50.253909
1470.000000	50.296670
1469.000000	50.340714
1468.000000	50.362574
1467.000000	50.378068
1466.000000	50.393663
1465.000000	50.399335
1464.000000	50.434894
1463.000000	50.472519
1462.000000	50.498595
1461.000000	50.501204
1460.000000	50.498798
1459.000000	50.562109
1458.000000	50.601861
1457.000000	50.621001
1456.000000	50.625299
1455.000000	50.668740
1454.000000	50.714056
1453.000000	50.717517
1452.000000	50.761801
1451.000000	50.762283
1450.000000	50.792199
1449.000000	50.850005
1448.000000	50.870105
1447.000000	50.918803
1446.000000	50.923974
1445.000000	50.945430
1444.000000	51.004028
1443.000000	51.067871
1442.000000	51.099707
1441.000000	51.126452
1440.000000	51.161980
1439.000000	51.213628
1438.000000	51.242001
1437.000000	51.296492
1436.000000	51.335744
1435.000000	51.390313
1434.000000	51.449801
1433.000000	51.522912
1432.000000	51.569556
1431.000000	51.614038
1430.000000	51.671493
1429.000000	51.722369
1428.000000	51.775468
1427.000000	51.821500
1426.000000	51.886505
1425.000000	51.958445
1424.000000	52.023604
1423.000000	52.064128
1422.000000	52.131612
1421.000000	52.217257
1420.000000	52.303686
1419.000000	52.379466
1418.000000	52.450650
1417.000000	52.511972
1416.000000	52.591316
1415.000000	52.670681
1414.000000	52.741495
1413.000000	52.818514
1412.000000	52.901579
1411.000000	52.995747
1410.000000	53.090466
1409.000000	53.166777
1408.000000	53.250686
1407.000000	53.325022
1406.000000	53.405389
1405.000000	53.487158
1404.000000	53.564219
1403.000000	53.637145
1402.000000	53.696684
1401.000000	53.773163
1400.000000	53.854291
1399.000000	53.927799
1398.000000	53.995602
1397.000000	54.065879
1396.000000	54.127168
1395.000000	54.190022
1394.000000	54.248912
1393.000000	54.312125
1392.000000	54.371616
1391.000000	54.425155
1390.000000	54.481048
1389.000000	54.527672
1388.000000	54.593764
1387.000000	54.663503
1386.000000	54.705960
1385.000000	54.742805
1384.000000	54.777711
1383.000000	54.826399
1382.000000	54.872554
1381.000000	54.908850
1380.000000	54.943223
1379.000000	54.988284
1378.000000	55.009188
1377.000000	55.029906
1376.000000	55.066909
1375.000000	55.084838
1374.000000	55.097553
1373.000000	55.113256
1372.000000	55.126886
1371.000000	55.144770
1370.000000	55.180025
1369.000000	55.192605
1368.000000	55.185390
1367.000000	55.210800
1366.000000	55.241624
1365.000000	55.244715
1364.000000	55.264370
1363.000000	55.284227
1362.000000	55.297865
1361.000000	55.313908
1360.000000	55.331857
1359.000000	55.360020
1358.000000	55.400775
1357.000000	55.414888
1356.000000	55.424738
1355.000000	55.430706
1354.000000	55.456018
1353.000000	55.507715
1352.000000	55.523217
1351.000000	55.528499
1350.000000	55.563370
1349.000000	55.581102
1348.000000	55.580908
1347.000000	55.597509
1346.000000	55.608971
1345.000000	55.645401
1344.000000	55.683288
1343.000000	55.680783
1342.000000	55.707448
1341.000000	55.728678
1340.000000	55.728586
1339.000000	55.745690
1338.000000	55.746329
1337.000000	55.765346
1336.000000	55.770193
1335.000000	55.789366
1334.000000	55.822380
1333.000000	55.833285
1332.000000	55.844519
1331.000000	55.844308
1330.000000	55.854074
1329.000000	55.863871
1328.000000	55.877902
1327.000000	55.883133
1326.000000	55.893562
1325.000000	55.886932
1324.000000	55.910935
1323.000000	55.921918
1322.000000	55.915860
1321.000000	55.946380
1320.000000	55.936080
1319.000000	55.925272
1318.000000	55.944432
1317.000000	55.942098
1316.000000	55.954053
1315.000000	55.963202
1314.000000	55.949881
1313.000000	55.934552
1312.000000	55.958574
1311.000000	55.962589
1310.000000	55.975608
1309.000000	55.992379
1308.000000	55.975624
1307.000000	55.951849
1306.000000	55.956316
1305.000000	55.993212
1304.000000	55.991199
1303.000000	55.974503
1302.000000	55.979146
1301.000000	55.962292
1300.000000	55.968811
1299.000000	55.984489
1298.000000	56.001767
1297.000000	55.982896
1296.000000	55.973447
1295.000000	55.985296
1294.000000	55.961338
1293.000000	55.960187
1292.000000	55.963826
1291.000000	55.961218
1290.000000	55.956843
1289.000000	55.952805
1288.000000	55.922649
1287.000000	55.898888
1286.000000	55.923888
1285.000000	55.916326
1284.000000	55.920473
1283.000000	55.923245
1282.000000	55.917508
1281.000000	55.905405
1280.000000	55.901771
1279.000000	55.900064
1278.000000	55.887128
1277.000000	55.870689
1276.000000	55.856127
1275.000000	55.869622
1274.000000	55.882386
1273.000000	55.876825
1272.000000	55.869530
1271.000000	55.861936
1270.000000	55.864758
1269.000000	55.869091
1268.000000	55.865109
1267.000000	55.886463
1266.000000	55.906023
1265.000000	55.870022
1264.000000	55.885910
1263.000000	55.894832
1262.000000	55.887336
1261.000000	55.874573
1260.000000	55.898227
1259.000000	55.907303
1258.000000	55.877371
1257.000000	55.878719
1256.000000	55.903208
1255.000000	55.862987
1254.000000	55.860229
1253.000000	55.885758
1252.000000	55.877880
1251.000000	55.867498
1250.000000	55.867641
1249.000000	55.878588
1248.000000	55.848048
1247.000000	55.853418
1246.000000	55.844073
1245.000000	55.849544
1244.000000	55.846732
1243.000000	55.840005
1242.000000	55.791626
1241.000000	55.800099
1240.000000	55.800091
1239.000000	55.775667
1238.000000	55.759679
1237.000000	55.749573
1236.000000	55.732214
1235.000000	55.734670
1234.000000	55.702619
1233.000000	55.710444
1232.000000	55.717004
1231.000000	55.697863
1230.000000	55.690164
1229.000000	55.658607
1228.000000	55.652448
1227.000000	55.638137
1226.000000	55.623769
1225.000000	55.633560
1224.000000	55.624486
1223.000000	55.578732
1222.000000	55.564660
1221.000000	55.568537
1220.000000	55.563851
1219.000000	55.553101
1218.000000	55.545289
1217.000000	55.536065
1216.000000	55.530296
1215.000000	55.537231
1214.000000	55.520891
1213.000000	55.503534
1212.000000	55.506958
1211.000000	55.506058
1210.000000	55.517696
1209.000000	55.474833
1208.000000	55.452544
1207.000000	55.447308
1206.000000	55.435596
1205.000000	55.411788
1204.000000	55.397850
1203.000000	55.397552
1202.000000	55.372607
1201.000000	55.372909
1200.000000	55.357296
1199.000000	55.343906
1198.000000	55.311386
1197.000000	55.306410
1196.000000	55.291948
1195.000000	55.291255
1194.000000	55.293694
1193.000000	55.275623
1192.000000	55.262497
1191.000000	55.248666
1190.000000	55.219754
1189.000000	55.176972
1188.000000	55.174503
1187.000000	55.180498
1186.000000	55.178021
1185.000000	55.163981
1184.000000	55.152862
1183.000000	55.156395
1182.000000	55.167437
1181.000000	55.171013
1180.000000	55.168800
1179.000000	55.187894
1178.000000	55.193173
1177.000000	55.201218
1176.000000	55.217250
1175.000000	55.235391
1174.000000	55.248272
1173.000000	55.250600
1172.000000	55.266823
1171.000000	55.281575
1170.000000	55.305823
1169.000000	55.324115
1168.000000	55.330909
1167.000000	55.344756
1166.000000	55.357292
1165.000000	55.379371
1164.000000	55.411757
1163.000000	55.411096
1162.000000	55.406615
1161.000000	55.432244
1160.000000	55.448127
1159.000000	55.472514
1158.000000	55.498676
1157.000000	55.506326
1156.000000	55.532261
1155.000000	55.562571
1154.000000	55.567340
1153.000000	55.569013
1152.000000	55.591904
1151.000000	55.609190
1150.000000	55.616911
1149.000000	55.624133
1148.000000	55.635143
1147.000000	55.641370
1146.000000	55.651290
1145.000000	55.668130
1144.000000	55.679702
1143.000000	55.693977
1142.000000	55.673939
1141.000000	55.664735
1140.000000	55.679530
1139.000000	55.684627
1138.000000	55.697319
1137.000000	55.703116
1136.000000	55.708078
1135.000000	55.716860
1134.000000	55.728433
1133.000000	55.738897
1132.000000	55.746263
1131.000000	55.743812
1130.000000	55.756491
1129.000000	55.754405
1128.000000	55.752627
1127.000000	55.739152
1126.000000	55.726910
1125.000000	55.735542
1124.000000	55.758503
1123.000000	55.765929
1122.000000	55.778211
1121.000000	55.768522
1120.000000	55.741600
1119.000000	55.738701
1118.000000	55.745403
1117.000000	55.744473
1116.000000	55.747919
1115.000000	55.756631
1114.000000	55.748620
1113.000000	55.731142
1112.000000	55.730352
1111.000000	55.732906
1110.000000	55.718951
1109.000000	55.711476
1108.000000	55.718778
1107.000000	55.690324
1106.000000	55.705209
1105.000000	55.692490
1104.000000	55.688089
1103.000000	55.682328
1102.000000	55.672584
1101.000000	55.664657
1100.000000	55.671750
1099.000000	55.655979
1098.000000	55.666942
1097.000000	55.640636
1096.000000	55.636619
1095.000000	55.647909
1094.000000	55.631747
1093.000000	55.628389
1092.000000	55.627387
1091.000000	55.613496
1090.000000	55.611479
1089.000000	55.578424
1088.000000	55.584151
1087.000000	55.584229
1086.000000	55.567882
1085.000000	55.583967
1084.000000	55.580275
1083.000000	55.567600
1082.000000	55.536033
1081.000000	55.533671
1080.000000	55.531317
1079.000000	55.507773
1078.000000	55.514005
1077.000000	55.517500
1076.000000	55.489517
1075.000000	55.480005
1074.000000	55.492571
1073.000000	55.483141
1072.000000	55.480563
1071.000000	55.466324
1070.000000	55.474937
1069.000000	55.462818
1068.000000	55.424180
1067.000000	55.426227
1066.000000	55.420586
1065.000000	55.430930
1064.000000	55.426197
1063.000000	55.417826
1062.000000	55.376528
1061.000000	55.372040
1060.000000	55.374845
1059.000000	55.348703
1058.000000	55.369668
1057.000000	55.354007
1056.000000	55.329719
1055.000000	55.324157
1054.000000	55.318401
1053.000000	55.315466
1052.000000	55.289556
1051.000000	55.304789
1050.000000	55.268660
1049.000000	55.273835
1048.000000	55.252341
1047.000000	55.282728
1046.000000	55.257885
1045.000000	55.227090
1044.000000	55.237383
1043.000000	55.228944
1042.000000	55.219145
1041.000000	55.194121
1040.000000	55.197456
1039.000000	55.191615
1038.000000	55.175101
1037.000000	55.137516
1036.000000	55.135177
1035.000000	55.139403
1034.000000	55.153253
1033.000000	55.126117
1032.000000	55.111175
1031.000000	55.106890
1030.000000	55.102571
1029.000000	55.078417
1028.000000	55.072015
1027.000000	55.054282
1026.000000	55.061106
1025.000000	55.051152
1024.000000	55.047717
1023.000000	55.034572
1022.000000	55.010577
1021.000000	55.000393
1020.000000	55.008289
1019.000000	55.016955
1018.000000	54.981517
1017.000000	54.965711
1016.000000	54.940667
1015.000000	54.941914
1014.000000	54.957599
1013.000000	54.940781
1012.000000	54.926391
1011.000000	54.919770
1010.000000	54.914283
1009.000000	54.882201
1008.000000	54.865891
1007.000000	54.867182
1006.000000	54.856471
1005.000000	54.847449
1004.000000	54.833475
1003.000000	54.831419
1002.000000	54.836274
1001.000000	54.810285
1000.000000	54.802081
999.000000	54.798444
998.000000	54.787604
997.000000	54.798145
996.000000	54.791890
995.000000	54.789486
994.000000	54.803105
993.000000	54.802766
992.000000	54.809375
991.000000	54.787046
990.000000	54.773755
989.000000	54.776066
988.000000	54.763977
987.000000	54.771309
986.000000	54.756831
985.000000	54.745833
984.000000	54.736724
983.000000	54.731212
982.000000	54.734978
981.000000	54.717527
980.000000	54.705811
979.000000	54.713291
978.000000	54.707137
977.000000	54.697952
976.000000	54.690830
975.000000	54.684223
974.000000	54.673897
973.000000	54.675386
972.000000	54.669951
971.000000	54.653874
970.000000	54.630741
969.000000	54.632063
968.000000	54.635424
967.000000	54.623709
966.000000	54.609517
965.000000	54.605800
964.000000	54.603493
963.000000	54.607135
962.000000	54.598164
961.000000	54.580843
960.000000	54.573213
959.000000	54.582248
958.000000	54.568870
957.000000	54.556829
956.000000	54.543456
955.000000	54.543978
954.000000	54.523455
953.000000	54.517938
952.000000	54.519500
951.000000	54.512470
950.000000	54.502247
949.000000	54.497145
948.000000	54.500582
947.000000	54.489585
946.000000	54.466334
945.000000	54.450715
944.000000	54.456272
943.000000	54.452128
942.000000	54.431827
941.000000	54.432466
940.000000	54.426738
939.000000	54.406470
938.000000	54.386524
937.000000	54.380838
936.000000	54.384845
935.000000	54.379357
934.000000	54.377800
933.000000	54.382872
932.000000	54.353236
931.000000	54.330704
930.000000	54.341458
929.000000	54.296247
928.000000	54.274615
927.000000	54.282359
926.000000	54.268012
925.000000	54.268867
924.000000	54.266312
923.000000	54.243221
922.000000	54.194489
921.000000	54.196931
920.000000	54.201057
919.000000	54.207157
918.000000	54.202209
917.000000	54.206133
916.000000	54.186945
915.000000	54.167974
914.000000	54.152779
913.000000	54.129079
912.000000	54.138254
911.000000	54.152666
910.000000	54.104127
909.000000	54.078510
908.000000	54.074663
907.000000	54.045091
906.000000	54.083466
905.000000	54.101351
904.000000	54.066593
903.000000	54.060615
902.000000	54.041226
901.000000	54.021360
900.000000	53.996837
899.000000	53.955600
898.000000	53.986785
897.000000	53.998277
896.000000	54.029863
895.000000	54.011115
894.000000	53.996925
893.000000	53.949851
892.000000	53.956887
891.000000	53.945651
890.000000	53.925694
889.000000	53.968757
888.000000	53.979208
887.000000	53.940110
886.000000	53.941225
885.000000	53.913278
884.000000	53.827082
883.000000	53.828481
882.000000	53.781788
881.000000	53.802279
880.000000	53.773923
879.000000	53.807404
878.000000	53.782843
877.000000	53.727524
876.000000	53.784616
875.000000	53.839174
874.000000	53.713574
873.000000	53.765446
872.000000	53.747254
871.000000	53.786366
870.000000	53.779302
869.000000	53.632717
868.000000	53.649978
867.000000	53.593953
866.000000	53.610493
865.000000	53.692488
864.000000	53.784209
863.000000	53.567514
862.000000	53.415314
861.000000	53.499158
860.000000	53.509010
859.000000	53.295658
858.000000	53.650084
857.000000	53.606615
856.000000	53.639311
855.000000	53.269882
854.000000	53.267830
853.000000	53.251341
852.000000	53.231091
851.000000	53.237067
850.000000	53.342575
849.000000	53.508610
848.000000	53.321023
847.000000	53.191206
846.000000	53.191231
845.000000	53.167426
844.000000	53.177308
843.000000	52.962192
842.000000	53.098562
841.000000	53.156835
840.000000	53.350420
839.000000	53.112440
838.000000	53.077736
837.000000	52.953058
836.000000	53.086458
835.000000	53.026602
834.000000	53.000954
833.000000	52.976029
832.000000	52.890735
831.000000	52.640223
830.000000	52.808703
829.000000	52.908516
828.000000	52.849232
827.000000	52.849969
826.000000	52.860106
825.000000	52.777941
824.000000	52.780399
823.000000	52.779722
822.000000	52.709349
821.000000	52.725266
820.000000	52.575542
819.000000	52.679123
818.000000	52.578840
817.000000	52.578027
816.000000	52.611623
815.000000	52.535618
814.000000	52.470936
813.000000	52.562225
812.000000	52.469053
811.000000	52.474514
810.000000	52.538415
809.000000	52.395800
808.000000	52.392420
807.000000	52.459635
806.000000	52.294979
805.000000	52.303307
804.000000	52.292478
803.000000	52.322397
802.000000	52.204542
801.000000	52.216997
800.000000	52.239891
799.000000	52.235263
798.000000	52.130595
797.000000	52.110673
796.000000	52.205788
795.000000	52.123897
794.000000	52.089710
793.000000	52.126582
792.000000	51.989713
791.000000	52.018937
790.000000	52.041606
789.000000	51.945070
788.000000	51.924830
787.000000	51.779084
786.000000	51.886755
785.000000	51.743879
784.000000	51.821309
783.000000	51.749311
782.000000	51.825773
781.000000	51.758968
780.000000	51.660428
779.000000	51.671422
778.000000	51.631498
777.000000	51.586913
776.000000	51.582750
775.000000	51.619269
774.000000	51.534402
773.000000	51.503652
772.000000	51.535843
771.000000	51.463453
770.000000	51.338679
769.000000	51.400729
768.000000	51.306530
767.000000	51.285717
766.000000	51.286856
765.000000	51.270355
764.000000	51.158943
763.000000	51.190853
762.000000	51.174731
761.000000	51.157613
760.000000	51.104088
759.000000	50.986176
758.000000	51.007081
757.000000	50.983210
756.000000	50.912960
755.000000	50.878049
754.000000	50.820705
753.000000	50.777872
752.000000	50.805498
751.000000	50.829236
750.000000	50.734212
749.000000	50.706332
748.000000	50.714312
747.000000	50.596602
746.000000	50.546223
745.000000	50.552236
744.000000	50.525163
743.000000	50.521957
742.000000	50.487631
741.000000	50.409846
740.000000	50.428585
739.000000	50.347578
738.000000	50.301421
737.000000	50.297620
736.000000	50.239117
735.000000	50.161197
734.000000	50.158660
733.000000	50.108559
732.000000	50.035142
731.000000	50.020727
730.000000	49.981905
729.000000	49.899289
728.000000	49.873657
727.000000	49.803842
726.000000	49.771127
725.000000	49.758521
724.000000	49.706861
723.000000	49.645080
722.000000	49.623890
721.000000	49.611386
720.000000	49.534231
719.000000	49.456366
718.000000	49.439012
717.000000	49.360428
716.000000	49.312730
715.000000	49.325084
714.000000	49.276426
713.000000	49.164702
712.000000	49.102173
711.000000	49.103626
710.000000	49.053522
709.000000	49.052800
708.000000	49.003244
707.000000	48.910447
706.000000	48.856294
705.000000	48.814629
704.000000	48.782890
703.000000	48.739885
702.000000	48.650799
701.000000	48.585852
700.000000	48.523188
699.000000	48.470261
698.000000	48.457087
697.000000	48.390817
696.000000	48.337832
695.000000	48.294519
694.000000	48.205153
693.000000	48.145490
692.000000	48.111163
691.000000	48.057937
690.000000	47.986382
689.000000	47.866343
688.000000	47.773483
687.000000	47.709195
686.000000	47.626962
685.000000	47.581584
684.000000	47.553303
683.000000	47.528861
682.000000	47.387840
681.000000	47.328093
680.000000	47.299623
679.000000	47.252967
678.000000	47.185224
677.000000	47.142577
676.000000	47.072223
675.000000	47.023841
674.000000	46.938734
673.000000	46.917645
672.000000	46.834349
671.000000	46.742947
670.000000	46.668657
669.000000	46.604552
668.000000	46.573206
667.000000	46.537351
666.000000	46.452951
665.000000	46.359105
664.000000	46.303615
663.000000	46.233630
662.000000	46.199182
661.000000	46.153960
660.000000	46.056796
659.000000	46.017113
658.000000	45.915746
657.000000	45.877588
656.000000	45.785054
655.000000	45.751978
654.000000	45.678897
653.000000	45.608007
652.000000	45.512863
651.000000	45.419533
650.000000	45.408814
649.000000	45.326563
648.000000	45.261549
647.000000	45.193396
646.000000	45.119807
645.000000	45.099339
644.000000	45.002597
643.000000	44.952184
642.000000	44.887104
641.000000	44.810022
640.000000	44.715068
639.000000	44.707246
638.000000	44.607214
637.000000	44.503626
636.000000	44.461412
635.000000	44.425950
634.000000	44.318134
633.000000	44.256434
632.000000	44.178480
631.000000	44.099810
630.000000	44.023428
629.000000	43.971803
628.000000	43.896185
627.000000	43.825794
626.000000	43.734349
625.000000	43.682071
624.000000	43.564816
623.000000	43.531978
622.000000	43.448175
621.000000	43.398653
620.000000	43.278980
619.000000	43.246001
618.000000	43.137082
617.000000	43.075341
616.000000	42.978036
615.000000	42.912571
614.000000	42.838353
613.000000	42.761266
612.000000	42.672286
611.000000	42.605987
610.000000	42.537003
609.000000	42.476264
608.000000	42.418654
607.000000	42.324965
606.000000	42.204286
605.000000	42.119572
604.000000	42.055793
603.000000	41.948328
602.000000	41.886096
601.000000	41.780621
600.000000	41.711448
599.000000	41.634317
598.000000	41.549747
597.000000	41.474150
596.000000	41.366023
595.000000	41.284678
594.000000	41.195942
593.000000	41.191050
592.000000	41.009794
591.000000	40.980189
590.000000	40.849701
589.000000	40.728072
588.000000	40.698551
587.000000	40.594402
586.000000	40.494584
585.000000	40.425542
584.000000	40.328725
583.000000	40.233971
582.000000	40.140498
581.000000	40.035406
580.000000	39.918733
579.000000	39.879754
578.000000	39.767226
577.000000	39.679216
576.000000	39.564514
575.000000	39.427898
574.000000	39.385042
573.000000	39.285798
572.000000	39.169681
571.000000	39.083309
570.000000	38.995647
569.000000	38.905295
568.000000	38.779848
567.000000	38.674874
566.000000	38.546699
565.000000	38.465901
564.000000	38.376710
563.000000	38.254620
562.000000	38.149953
561.000000	38.060071
560.000000	37.950924
559.000000	37.846651
558.000000	37.746933
557.000000	37.651614
556.000000	37.506637
555.000000	37.434144
554.000000	37.304771
553.000000	37.203038
552.000000	37.115705
551.000000	36.981763
550.000000	36.889384
549.000000	36.765562
548.000000	36.632388
547.000000	36.542279
546.000000	36.424475
545.000000	36.308726
544.000000	36.213911
543.000000	36.072231
542.000000	35.948286
541.000000	35.818141
540.000000	35.727993
539.000000	35.612248
538.000000	35.484555
537.000000	35.403292
536.000000	35.253964
535.000000	35.148406
534.000000	35.024611
533.000000	34.887106
532.000000	34.786074
531.000000	34.659140
530.000000	34.527083
529.000000	34.431756
528.000000	34.322681
527.000000	34.172220
526.000000	34.057061
525.000000	33.927770
524.000000	33.797361
523.000000	33.685283
522.000000	33.580916
521.000000	33.448745
520.000000	33.330464
519.000000	33.202010
518.000000	33.098763
517.000000	32.950786
516.000000	32.817192
515.000000	32.721426
514.000000	32.598463
513.000000	32.463357
512.000000	32.359466
511.000000	32.245862
510.000000	32.107212
509.000000	31.973642
508.000000	31.860303
507.000000	31.711722
506.000000	31.591949
505.000000	31.461968
504.000000	31.338124
503.000000	31.220720
502.000000	31.098796
501.000000	30.974724
500.000000	30.860869
499.000000	30.763919
498.000000	30.622594
497.000000	30.487244
496.000000	30.359551
495.000000	30.238077
494.000000	30.115983
493.000000	30.014366
492.000000	29.866373
491.000000	29.746848
490.000000	29.622395
489.000000	29.498074
488.000000	29.378395
487.000000	29.261503
486.000000	29.107278
485.000000	28.995692
484.000000	28.914581
483.000000	28.847997
482.000000	28.728214
481.000000	28.596461
480.000000	28.488587
479.000000	28.358950
478.000000	28.217517
477.000000	28.091562
476.000000	27.981999
475.000000	27.866115
474.000000	27.741928
473.000000	27.617619
472.000000	27.477807
471.000000	27.344091
470.000000	27.237046
469.000000	27.119705
468.000000	27.015226
467.000000	26.910427
466.000000	26.792710
465.000000	26.658370
464.000000	26.535758
463.000000	26.397835
462.000000	26.265872
461.000000	26.161559
460.000000	26.035465
459.000000	25.905869
458.000000	25.789866
457.000000	25.648733
456.000000	25.510297
455.000000	25.393684
454.000000	25.256864
453.000000	25.143622
452.000000	25.043038
451.000000	24.910616
450.000000	24.739030
449.000000	24.598515
448.000000	24.461895
447.000000	24.313876
446.000000	24.190162
445.000000	24.062242
444.000000	23.899858
443.000000	23.748273
442.000000	23.595094
441.000000	23.457683
440.000000	23.295828
439.000000	23.131562
438.000000	22.983322
437.000000	22.846824
436.000000	22.711687
435.000000	22.543894
434.000000	22.355563
433.000000	22.172025
432.000000	22.040991
431.000000	21.910527
430.000000	21.772150
429.000000	21.607780
428.000000	21.437810
427.000000	21.262395
426.000000	21.111569
425.000000	20.952391
424.000000	20.802506
423.000000	20.664966
422.000000	20.518452
421.000000	20.352616
420.000000	20.167669
419.000000	20.033296
418.000000	19.880285
417.000000	19.717565
416.000000	19.561202
415.000000	19.433323
414.000000	19.284533
413.000000	19.127342
412.000000	18.991195
411.000000	18.848215
410.000000	18.683517
409.000000	18.539551
408.000000	18.386831
407.000000	18.248489
406.000000	18.094110
405.000000	17.961961
404.000000	17.789372
403.000000	17.660959
402.000000	17.515290
401.000000	17.342777
400.000000	17.184597
399.000000	17.066688
398.000000	16.961404
397.000000	16.809954
396.000000	16.647880
395.000000	16.514757
394.000000	16.356888
393.000000	16.217715
392.000000	16.058136
391.000000	15.908304
390.000000	15.758374
389.000000	15.617575
388.000000	15.496846
387.000000	15.380775
386.000000	15.191195
385.000000	15.069597
384.000000	14.927318
383.000000	14.769587
382.000000	14.644173
381.000000	14.508186
380.000000	14.363070
379.000000	14.212305
378.000000	14.024757
377.000000	13.918939
376.000000	13.759624
375.000000	13.638674
374.000000	13.526125
373.000000	13.385462
372.000000	13.253526
371.000000	13.175940
370.000000	12.995480
369.000000	12.886089
368.000000	12.744059
367.000000	12.629076
366.000000	12.511752
365.000000	12.433821
364.000000	12.300097
363.000000	12.184398
362.000000	12.103527
361.000000	12.039344
360.000000	11.927127
359.000000	11.836730
358.000000	11.716114
357.000000	11.601229
356.000000	11.489633
355.000000	11.413321
354.000000	11.303595
353.000000	11.185242
352.000000	11.117609
351.000000	11.039917
350.000000	10.950027
349.000000	10.812954
348.000000	10.772211
347.000000	10.724122
346.000000	10.657533
345.000000	10.468192
344.000000	10.395644
343.000000	10.398961
342.000000	10.275623
341.000000	10.210196
340.000000	10.096386
339.000000	10.043654
338.000000	9.949494
337.000000	9.883715
336.000000	9.781938
335.000000	9.770265
334.000000	9.672516
333.000000	9.604370
332.000000	9.451818
331.000000	9.443782
330.000000	9.394611
329.000000	9.333191
328.000000	9.327296
327.000000	9.254229
326.000000	9.156713
325.000000	9.087918
324.000000	9.016386
323.000000	9.023652
322.000000	8.927703
321.000000	8.804911
320.000000	8.872670
319.000000	8.895480
318.000000	8.962777
317.000000	8.945153
316.000000	8.904439
315.000000	8.810488
314.000000	8.787331
313.000000	8.779079
312.000000	8.817129
311.000000	8.804890
310.000000	8.728055
309.000000	8.680646
308.000000	8.631465
307.000000	8.654000
306.000000	8.588730
305.000000	8.583831
304.000000	8.576827
303.000000	8.552003
302.000000	8.513581
301.000000	8.510457
300.000000	8.504942
299.000000	8.530019
298.000000	8.488784
297.000000	8.464744
296.000000	8.408010
295.000000	8.363798
294.000000	8.335716
293.000000	8.314919
292.000000	8.307160
291.000000	8.298152
290.000000	8.294700
289.000000	8.257901
288.000000	8.230400
287.000000	8.189040
286.000000	8.199016
285.000000	8.210007
284.000000	8.190019
283.000000	8.215278
282.000000	8.221091
281.000000	8.236925
280.000000	8.184483
279.000000	8.211346
278.000000	8.232387
277.000000	8.258281
276.000000	8.279738
275.000000	8.303577
274.000000	8.340569
273.000000	8.356199
272.000000	8.399318
271.000000	8.412518
270.000000	8.412755
269.000000	8.480032
268.000000	8.558591
267.000000	8.578845
266.000000	8.609063
265.000000	8.660150
264.000000	8.720267
263.000000	8.759278
262.000000	8.848224
261.000000	8.903434
260.000000	8.953169
259.000000	8.983333
258.000000	9.063634
257.000000	9.157725
256.000000	9.235673
255.000000	9.239368
254.000000	9.321610
253.000000	9.450795
252.000000	9.543793
251.000000	9.590779
250.000000	9.618783
249.000000	9.713533
248.000000	9.828081
247.000000	9.895035
246.000000	9.971748
245.000000	10.061350
244.000000	10.072373
243.000000	10.148716
242.000000	10.228665
241.000000	10.225038
240.000000	10.244465
239.000000	10.253068
238.000000	10.287710
237.000000	10.318149
236.000000	10.327613
235.000000	10.335514
234.000000	10.324737
233.000000	10.267788
232.000000	10.281384
231.000000	10.339580
230.000000	10.375925
229.000000	10.388379
228.000000	10.373775
227.000000	10.408633
226.000000	10.480586
225.000000	10.486611
224.000000	10.522725
223.000000	10.593092
222.000000	10.634192
221.000000	10.679140
220.000000	10.733861
219.000000	10.759887
218.000000	10.909918
217.000000	11.033751
216.000000	11.087431
215.000000	11.219134
214.000000	11.351356
213.000000	11.477010
212.000000	11.656900
211.000000	11.841547
210.000000	12.054541
209.000000	12.267431
208.000000	12.524447
207.000000	12.683039
206.000000	12.915519
205.000000	13.233875
204.000000	13.614708
203.000000	14.048985
202.000000	14.629327
201.000000	15.097534
200.000000	15.629781
