PE UV       SUBTECH     SPECTRUM    ASCII       PEDS        4.00        
   -1
Empty Chamber.Sample.asc
18/03/08
09:00:45.00
18/03/08
09:00:45.00
Administrator

200.000000
1
Lambda 750
750N8071901
PerkinElmer UV WinLab 6.0.4.0738 / 1.61.00 Lambda 900

0
0
3350/servo 860.8/2
0
0
UV/VIS
1
1
1
CommonBeamDepol,150mm sphere / downward view
0
0
0
0
Program
Program
3350/servo 860.8/2
3350/0.2 860.8/0.2
3350/0.2 860.8/0.2
0
1
 
 
 
0
 
860.8
319.2
860.8
Front
100
on
 
 
0
0
0
 
0
 
 
 
0
 
 
0
0
0
0
0
 
 
 
 
0
0


0
0
#HDR
-1
-1
#GR
nm
%T
1.0
0.0
2350.000000
-1.000000
2151
8
100.581447
99.354305
#DATA
2350.000000	100.087029
2349.000000	99.877435
2348.000000	100.055852
2347.000000	100.154813
2346.000000	100.060315
2345.000000	99.875326
2344.000000	99.694764
2343.000000	99.999899
2342.000000	100.232648
2341.000000	100.212815
2340.000000	99.487374
2339.000000	99.769399
2338.000000	100.061760
2337.000000	99.890235
2336.000000	99.986973
2335.000000	99.947108
2334.000000	99.831994
2333.000000	100.172686
2332.000000	99.755165
2331.000000	99.846650
2330.000000	99.915518
2329.000000	99.836401
2328.000000	99.622302
2327.000000	99.693528
2326.000000	99.784005
2325.000000	100.463588
2324.000000	100.193740
2323.000000	100.190020
2322.000000	100.381382
2321.000000	100.137015
2320.000000	99.985143
2319.000000	100.132772
2318.000000	100.025687
2317.000000	100.076160
2316.000000	99.920000
2315.000000	99.762808
2314.000000	100.136204
2313.000000	99.896335
2312.000000	99.827610
2311.000000	100.185450
2310.000000	99.819141
2309.000000	99.972347
2308.000000	100.225338
2307.000000	100.025459
2306.000000	99.954580
2305.000000	99.853553
2304.000000	99.937087
2303.000000	100.232957
2302.000000	100.135480
2301.000000	99.968885
2300.000000	100.211413
2299.000000	100.202254
2298.000000	100.009124
2297.000000	100.162259
2296.000000	100.281172
2295.000000	100.180940
2294.000000	100.102417
2293.000000	99.763239
2292.000000	99.782138
2291.000000	99.886558
2290.000000	100.082911
2289.000000	99.986624
2288.000000	100.029271
2287.000000	100.160866
2286.000000	99.951758
2285.000000	99.807011
2284.000000	100.045753
2283.000000	99.967446
2282.000000	100.086608
2281.000000	100.277449
2280.000000	100.412622
2279.000000	100.268467
2278.000000	99.959018
2277.000000	99.833878
2276.000000	100.073313
2275.000000	100.027160
2274.000000	99.910256
2273.000000	100.107765
2272.000000	100.098592
2271.000000	99.809855
2270.000000	100.016639
2269.000000	100.162051
2268.000000	99.959546
2267.000000	100.010855
2266.000000	100.113114
2265.000000	100.015006
2264.000000	100.052728
2263.000000	99.998682
2262.000000	99.785019
2261.000000	99.891588
2260.000000	100.089260
2259.000000	100.002533
2258.000000	100.015208
2257.000000	100.040477
2256.000000	99.898213
2255.000000	100.041297
2254.000000	99.967943
2253.000000	99.844531
2252.000000	99.991488
2251.000000	100.079504
2250.000000	100.057708
2249.000000	100.181296
2248.000000	100.211415
2247.000000	99.946943
2246.000000	99.939874
2245.000000	100.048861
2244.000000	100.010030
2243.000000	100.062459
2242.000000	100.041462
2241.000000	99.902005
2240.000000	99.956179
2239.000000	100.050306
2238.000000	100.085606
2237.000000	100.036936
2236.000000	100.056420
2235.000000	100.068303
2234.000000	99.941161
2233.000000	99.976381
2232.000000	100.095075
2231.000000	99.979637
2230.000000	99.930784
2229.000000	99.995235
2228.000000	100.191924
2227.000000	100.127759
2226.000000	99.892655
2225.000000	99.968363
2224.000000	99.964511
2223.000000	99.964628
2222.000000	100.135907
2221.000000	100.120563
2220.000000	99.993715
2219.000000	100.013484
2218.000000	100.082500
2217.000000	100.026069
2216.000000	100.008615
2215.000000	99.879326
2214.000000	100.016520
2213.000000	100.108369
2212.000000	99.971416
2211.000000	99.921907
2210.000000	100.070040
2209.000000	99.962305
2208.000000	100.018244
2207.000000	100.109650
2206.000000	100.033158
2205.000000	100.063920
2204.000000	100.106692
2203.000000	100.033866
2202.000000	100.093066
2201.000000	100.023704
2200.000000	99.968092
2199.000000	99.921932
2198.000000	100.075274
2197.000000	100.025735
2196.000000	100.019754
2195.000000	99.896649
2194.000000	99.844451
2193.000000	99.905811
2192.000000	100.027252
2191.000000	100.184825
2190.000000	100.015495
2189.000000	100.120338
2188.000000	100.126605
2187.000000	99.945292
2186.000000	100.020638
2185.000000	99.991499
2184.000000	99.997975
2183.000000	99.967751
2182.000000	99.902633
2181.000000	100.047354
2180.000000	100.006679
2179.000000	99.826581
2178.000000	99.813418
2177.000000	100.039555
2176.000000	99.971476
2175.000000	100.012034
2174.000000	100.193255
2173.000000	99.848485
2172.000000	100.097176
2171.000000	99.983631
2170.000000	99.837118
2169.000000	100.068627
2168.000000	99.934788
2167.000000	100.014657
2166.000000	100.130766
2165.000000	100.085245
2164.000000	99.811548
2163.000000	100.056622
2162.000000	100.001819
2161.000000	100.157557
2160.000000	100.239021
2159.000000	100.153096
2158.000000	99.754873
2157.000000	100.062773
2156.000000	100.008980
2155.000000	100.017047
2154.000000	99.935147
2153.000000	100.242267
2152.000000	99.843153
2151.000000	99.950997
2150.000000	100.020278
2149.000000	99.822492
2148.000000	99.931148
2147.000000	100.032773
2146.000000	99.836661
2145.000000	99.835188
2144.000000	99.990919
2143.000000	99.801141
2142.000000	99.660616
2141.000000	100.064514
2140.000000	100.042769
2139.000000	100.060905
2138.000000	100.076748
2137.000000	99.870829
2136.000000	100.047152
2135.000000	100.133805
2134.000000	99.984082
2133.000000	99.919721
2132.000000	100.173069
2131.000000	100.097228
2130.000000	99.973983
2129.000000	99.739189
2128.000000	99.894168
2127.000000	99.971847
2126.000000	99.852037
2125.000000	99.939249
2124.000000	100.018772
2123.000000	100.127156
2122.000000	99.789442
2121.000000	100.088514
2120.000000	99.896651
2119.000000	99.863277
2118.000000	99.934504
2117.000000	100.000706
2116.000000	100.181766
2115.000000	100.050393
2114.000000	99.894335
2113.000000	99.991518
2112.000000	100.121876
2111.000000	99.891868
2110.000000	100.015061
2109.000000	100.113778
2108.000000	100.052677
2107.000000	100.111204
2106.000000	100.110695
2105.000000	100.198452
2104.000000	99.990201
2103.000000	100.046080
2102.000000	100.001314
2101.000000	99.976250
2100.000000	99.992416
2099.000000	100.116331
2098.000000	100.042064
2097.000000	100.100873
2096.000000	100.009003
2095.000000	99.992318
2094.000000	100.099628
2093.000000	100.159822
2092.000000	100.029549
2091.000000	100.007484
2090.000000	99.851158
2089.000000	99.936905
2088.000000	100.010920
2087.000000	100.052795
2086.000000	100.011732
2085.000000	99.979478
2084.000000	99.902404
2083.000000	99.993220
2082.000000	99.918590
2081.000000	99.983307
2080.000000	100.014366
2079.000000	100.005465
2078.000000	99.925024
2077.000000	99.949922
2076.000000	100.028239
2075.000000	100.008400
2074.000000	99.937601
2073.000000	99.944582
2072.000000	100.047253
2071.000000	100.062034
2070.000000	99.937890
2069.000000	99.906074
2068.000000	99.975697
2067.000000	100.036668
2066.000000	99.945861
2065.000000	99.953670
2064.000000	100.061864
2063.000000	100.064640
2062.000000	99.907764
2061.000000	99.945916
2060.000000	99.939037
2059.000000	99.912130
2058.000000	100.040502
2057.000000	100.099762
2056.000000	99.985219
2055.000000	100.062796
2054.000000	100.015092
2053.000000	100.057059
2052.000000	100.036479
2051.000000	99.936606
2050.000000	99.961211
2049.000000	100.026351
2048.000000	100.113161
2047.000000	100.113086
2046.000000	100.007601
2045.000000	99.896802
2044.000000	99.941948
2043.000000	100.045595
2042.000000	100.031807
2041.000000	99.979732
2040.000000	99.959562
2039.000000	99.961790
2038.000000	100.014901
2037.000000	99.990370
2036.000000	99.922280
2035.000000	100.012064
2034.000000	100.077610
2033.000000	100.056605
2032.000000	100.044327
2031.000000	100.055269
2030.000000	99.966150
2029.000000	99.947793
2028.000000	100.009634
2027.000000	100.006896
2026.000000	100.017450
2025.000000	100.029223
2024.000000	99.982859
2023.000000	100.021304
2022.000000	100.019682
2021.000000	99.983362
2020.000000	100.002029
2019.000000	100.019689
2018.000000	100.034012
2017.000000	99.991068
2016.000000	99.987008
2015.000000	100.025280
2014.000000	99.998274
2013.000000	99.941645
2012.000000	99.933620
2011.000000	99.960301
2010.000000	99.953702
2009.000000	99.977459
2008.000000	100.027123
2007.000000	99.979280
2006.000000	99.989742
2005.000000	100.007009
2004.000000	100.033016
2003.000000	100.029668
2002.000000	100.018696
2001.000000	100.023675
2000.000000	99.999085
1999.000000	99.964036
1998.000000	99.962618
1997.000000	99.974295
1996.000000	99.969932
1995.000000	100.013210
1994.000000	99.991159
1993.000000	100.028761
1992.000000	99.993903
1991.000000	99.990244
1990.000000	100.035889
1989.000000	100.055213
1988.000000	100.020331
1987.000000	100.029891
1986.000000	100.037114
1985.000000	99.944507
1984.000000	99.977231
1983.000000	100.044736
1982.000000	100.032740
1981.000000	100.044843
1980.000000	100.003355
1979.000000	100.023281
1978.000000	99.957518
1977.000000	99.984955
1976.000000	100.021352
1975.000000	100.029181
1974.000000	99.940034
1973.000000	99.971943
1972.000000	100.013726
1971.000000	99.976821
1970.000000	99.997153
1969.000000	99.961690
1968.000000	99.979061
1967.000000	100.001728
1966.000000	99.998272
1965.000000	100.005896
1964.000000	100.058468
1963.000000	100.051974
1962.000000	100.013013
1961.000000	100.013214
1960.000000	100.030802
1959.000000	100.049828
1958.000000	100.014639
1957.000000	99.992073
1956.000000	100.002846
1955.000000	99.977946
1954.000000	99.973783
1953.000000	100.028449
1952.000000	100.033635
1951.000000	100.015344
1950.000000	100.028148
1949.000000	100.069599
1948.000000	100.052642
1947.000000	100.018901
1946.000000	100.033213
1945.000000	100.043790
1944.000000	99.965778
1943.000000	99.973092
1942.000000	99.996345
1941.000000	99.907365
1940.000000	99.967214
1939.000000	100.005379
1938.000000	99.952329
1937.000000	99.921821
1936.000000	100.044159
1935.000000	99.949363
1934.000000	99.991174
1933.000000	100.046682
1932.000000	99.959541
1931.000000	100.015209
1930.000000	100.019474
1929.000000	100.028699
1928.000000	100.040371
1927.000000	100.029819
1926.000000	100.021296
1925.000000	99.988134
1924.000000	99.935358
1923.000000	99.986520
1922.000000	99.938680
1921.000000	99.984895
1920.000000	99.913953
1919.000000	100.011659
1918.000000	100.049180
1917.000000	99.932813
1916.000000	99.935848
1915.000000	100.054751
1914.000000	100.047510
1913.000000	100.017348
1912.000000	100.000203
1911.000000	99.958636
1910.000000	100.006390
1909.000000	99.937379
1908.000000	100.021191
1907.000000	100.032560
1906.000000	100.044340
1905.000000	100.057321
1904.000000	100.007000
1903.000000	100.033986
1902.000000	99.943606
1901.000000	99.975453
1900.000000	99.980825
1899.000000	99.877181
1898.000000	100.019483
1897.000000	99.966625
1896.000000	100.043334
1895.000000	100.006089
1894.000000	99.981730
1893.000000	99.972701
1892.000000	99.913336
1891.000000	99.981628
1890.000000	100.014520
1889.000000	99.992286
1888.000000	99.987718
1887.000000	99.965010
1886.000000	99.991784
1885.000000	99.988235
1884.000000	99.988846
1883.000000	99.992802
1882.000000	100.004156
1881.000000	100.034976
1880.000000	99.997567
1879.000000	100.000709
1878.000000	100.013783
1877.000000	100.033546
1876.000000	99.973855
1875.000000	99.956845
1874.000000	99.972754
1873.000000	99.991794
1872.000000	99.999494
1871.000000	99.992606
1870.000000	99.980153
1869.000000	100.013471
1868.000000	100.064443
1867.000000	100.003951
1866.000000	99.986525
1865.000000	99.963113
1864.000000	99.990677
1863.000000	100.033141
1862.000000	99.965848
1861.000000	99.950448
1860.000000	100.001925
1859.000000	100.005980
1858.000000	99.988445
1857.000000	99.933227
1856.000000	99.980433
1855.000000	99.977802
1854.000000	99.999899
1853.000000	100.028482
1852.000000	100.016829
1851.000000	100.042470
1850.000000	100.006485
1849.000000	100.013379
1848.000000	99.989866
1847.000000	100.009327
1846.000000	100.050696
1845.000000	100.022495
1844.000000	100.026249
1843.000000	100.001014
1842.000000	99.985306
1841.000000	99.955312
1840.000000	99.972741
1839.000000	100.018548
1838.000000	100.035078
1837.000000	100.012673
1836.000000	100.006084
1835.000000	99.996958
1834.000000	100.051724
1833.000000	100.038959
1832.000000	100.029325
1831.000000	99.990971
1830.000000	99.995840
1829.000000	100.015423
1828.000000	100.011870
1827.000000	99.977579
1826.000000	99.980516
1825.000000	100.004263
1824.000000	100.012790
1823.000000	99.991776
1822.000000	99.969433
1821.000000	99.966282
1820.000000	99.984664
1819.000000	99.966589
1818.000000	99.982427
1817.000000	100.000305
1816.000000	100.008739
1815.000000	100.005387
1814.000000	100.002033
1813.000000	100.000102
1812.000000	100.001728
1811.000000	99.992684
1810.000000	99.982928
1809.000000	99.992784
1808.000000	99.994917
1807.000000	100.000407
1806.000000	99.990646
1805.000000	99.982207
1804.000000	100.000610
1803.000000	99.997661
1802.000000	99.993595
1801.000000	100.007728
1800.000000	99.980377
1799.000000	99.982610
1798.000000	100.000000
1797.000000	100.000915
1796.000000	99.994509
1795.000000	99.983528
1794.000000	100.007933
1793.000000	99.999898
1792.000000	99.997762
1791.000000	100.046502
1790.000000	100.039580
1789.000000	100.001119
1788.000000	100.006511
1787.000000	100.004679
1786.000000	100.015258
1785.000000	100.035919
1784.000000	100.043648
1783.000000	100.024720
1782.000000	99.973045
1781.000000	99.960542
1780.000000	99.998576
1779.000000	100.005493
1778.000000	99.971218
1777.000000	99.990947
1776.000000	99.995219
1775.000000	99.975893
1774.000000	99.996541
1773.000000	100.017502
1772.000000	99.982095
1771.000000	99.961454
1770.000000	99.997457
1769.000000	99.986574
1768.000000	99.961056
1767.000000	99.968575
1766.000000	99.989728
1765.000000	99.978237
1764.000000	99.965114
1763.000000	99.971215
1762.000000	99.997864
1761.000000	100.015466
1760.000000	99.999084
1759.000000	99.986574
1758.000000	99.993286
1757.000000	99.998779
1756.000000	99.988812
1755.000000	99.982098
1754.000000	99.980877
1753.000000	99.992576
1752.000000	100.008035
1751.000000	100.014850
1750.000000	99.992270
1749.000000	100.028892
1748.000000	99.977220
1747.000000	99.959022
1746.000000	100.000305
1745.000000	99.978844
1744.000000	99.982711
1743.000000	100.006306
1742.000000	100.002339
1741.000000	100.025127
1740.000000	100.024517
1739.000000	100.013427
1738.000000	100.023596
1737.000000	100.001423
1736.000000	99.999288
1735.000000	100.012814
1734.000000	100.024407
1733.000000	100.004474
1732.000000	100.025829
1731.000000	100.039977
1730.000000	100.000000
1729.000000	100.018914
1728.000000	100.008441
1727.000000	100.027057
1726.000000	99.984747
1725.000000	100.004475
1724.000000	99.977628
1723.000000	100.000407
1722.000000	99.980886
1721.000000	99.989120
1720.000000	99.979967
1719.000000	99.978038
1718.000000	100.025119
1717.000000	100.002441
1716.000000	99.997356
1715.000000	99.993085
1714.000000	100.013327
1713.000000	99.977935
1712.000000	100.009356
1711.000000	99.977123
1710.000000	100.016272
1709.000000	100.008746
1708.000000	99.980983
1707.000000	99.986682
1706.000000	99.966751
1705.000000	99.982308
1704.000000	100.001729
1703.000000	99.959030
1702.000000	100.016267
1701.000000	99.996441
1700.000000	100.009761
1699.000000	100.002847
1698.000000	100.000203
1697.000000	99.986479
1696.000000	100.008744
1695.000000	99.990037
1694.000000	100.001932
1693.000000	99.992781
1692.000000	99.989426
1691.000000	99.986379
1690.000000	100.002542
1689.000000	100.013016
1688.000000	99.989833
1687.000000	100.036711
1686.000000	99.988006
1685.000000	99.993291
1684.000000	99.984142
1683.000000	99.951318
1682.000000	100.018300
1681.000000	99.999593
1680.000000	100.025214
1679.000000	100.011591
1678.000000	99.986580
1677.000000	99.979159
1676.000000	100.005592
1675.000000	100.004982
1674.000000	100.012913
1673.000000	100.006201
1672.000000	100.008439
1671.000000	99.991256
1670.000000	99.996238
1669.000000	100.022254
1668.000000	99.991262
1667.000000	99.993700
1666.000000	100.008740
1665.000000	100.011992
1664.000000	100.008232
1663.000000	99.987096
1662.000000	100.013313
1661.000000	99.984148
1660.000000	100.002643
1659.000000	100.030796
1658.000000	100.000610
1657.000000	100.005792
1656.000000	100.008535
1655.000000	99.985368
1654.000000	99.990143
1653.000000	100.014632
1652.000000	100.003658
1651.000000	99.977649
1650.000000	99.984150
1649.000000	99.980290
1648.000000	100.000508
1647.000000	100.010263
1646.000000	99.996952
1645.000000	99.995123
1644.000000	99.973992
1643.000000	100.004369
1642.000000	99.997765
1641.000000	99.995123
1640.000000	99.997257
1639.000000	100.014529
1638.000000	100.031297
1637.000000	100.027335
1636.000000	100.015547
1635.000000	100.032518
1634.000000	100.031808
1633.000000	100.030792
1632.000000	100.034248
1631.000000	100.015752
1630.000000	100.001016
1629.000000	100.009553
1628.000000	100.020324
1627.000000	99.986184
1626.000000	99.981613
1625.000000	99.985574
1624.000000	100.009449
1623.000000	100.021847
1622.000000	99.995225
1621.000000	100.007721
1620.000000	100.023675
1619.000000	100.011075
1618.000000	100.024588
1617.000000	100.004572
1616.000000	99.985878
1615.000000	99.991262
1614.000000	99.997562
1613.000000	100.011684
1612.000000	99.991771
1611.000000	99.983746
1610.000000	100.004572
1609.000000	100.014427
1608.000000	99.997054
1607.000000	99.995327
1606.000000	99.997562
1605.000000	99.984661
1604.000000	99.997460
1603.000000	99.998375
1602.000000	100.019609
1601.000000	100.015341
1600.000000	100.016663
1599.000000	100.026621
1598.000000	99.998476
1597.000000	99.975623
1596.000000	99.970241
1595.000000	99.990858
1594.000000	99.992585
1593.000000	99.982936
1592.000000	99.998578
1591.000000	100.008839
1590.000000	100.010872
1589.000000	99.993701
1588.000000	99.986896
1587.000000	99.998171
1586.000000	100.003149
1585.000000	99.997257
1584.000000	100.002641
1583.000000	99.997765
1582.000000	99.987100
1581.000000	99.996242
1580.000000	99.987913
1579.000000	100.002946
1578.000000	100.003251
1577.000000	99.997867
1576.000000	100.007313
1575.000000	100.015947
1574.000000	99.998070
1573.000000	99.990250
1572.000000	99.993195
1571.000000	99.991062
1570.000000	100.003250
1569.000000	100.014018
1568.000000	100.008837
1567.000000	99.997664
1566.000000	99.983345
1565.000000	99.990149
1564.000000	100.009242
1563.000000	100.012798
1562.000000	100.018487
1561.000000	100.016049
1560.000000	100.000102
1559.000000	100.005383
1558.000000	100.017164
1557.000000	100.007617
1556.000000	100.002031
1555.000000	100.000711
1554.000000	99.994009
1553.000000	99.986597
1552.000000	99.993704
1551.000000	99.999289
1550.000000	99.992283
1549.000000	99.998071
1548.000000	99.996344
1547.000000	100.006297
1546.000000	100.009748
1545.000000	100.015030
1544.000000	100.006296
1543.000000	100.004062
1542.000000	99.987715
1541.000000	100.012388
1540.000000	100.026609
1539.000000	100.032397
1538.000000	100.018075
1537.000000	100.011372
1536.000000	99.992284
1535.000000	100.003655
1534.000000	100.013402
1533.000000	100.028432
1532.000000	100.020105
1531.000000	100.020916
1530.000000	99.995735
1529.000000	100.008734
1528.000000	100.015539
1527.000000	100.008226
1526.000000	100.017773
1525.000000	99.999797
1524.000000	100.005078
1523.000000	100.017162
1522.000000	100.025894
1521.000000	100.002031
1520.000000	100.003148
1519.000000	100.032801
1518.000000	100.018177
1517.000000	99.985883
1516.000000	99.983955
1515.000000	99.994618
1514.000000	99.993196
1513.000000	99.991975
1512.000000	99.976339
1511.000000	99.974513
1510.000000	100.023869
1509.000000	100.001930
1508.000000	100.008836
1507.000000	100.002641
1506.000000	100.009143
1505.000000	100.014119
1504.000000	100.016964
1503.000000	100.017371
1502.000000	100.013510
1501.000000	100.027835
1500.000000	100.003149
1499.000000	100.010359
1498.000000	100.014829
1497.000000	99.992688
1496.000000	100.008329
1495.000000	100.009040
1494.000000	100.014525
1493.000000	99.991977
1492.000000	99.997055
1491.000000	100.007007
1490.000000	99.984971
1489.000000	99.994313
1488.000000	100.010764
1487.000000	99.992790
1486.000000	100.002640
1485.000000	99.998173
1484.000000	99.970561
1483.000000	100.016856
1482.000000	100.006497
1481.000000	100.002843
1480.000000	99.987108
1479.000000	100.030152
1478.000000	100.005278
1477.000000	99.976758
1476.000000	100.002030
1475.000000	99.988734
1474.000000	99.999289
1473.000000	100.013297
1472.000000	100.012384
1471.000000	100.003350
1470.000000	100.015124
1469.000000	100.014618
1468.000000	100.010252
1467.000000	100.001522
1466.000000	99.988631
1465.000000	99.988936
1464.000000	100.006496
1463.000000	99.996549
1462.000000	99.978484
1461.000000	100.009646
1460.000000	100.016345
1459.000000	100.025988
1458.000000	100.000101
1457.000000	99.971986
1456.000000	100.038785
1455.000000	99.987416
1454.000000	100.000710
1453.000000	100.000913
1452.000000	100.001319
1451.000000	99.988836
1450.000000	100.012483
1449.000000	100.008728
1448.000000	99.995637
1447.000000	100.018165
1446.000000	99.998681
1445.000000	99.996143
1444.000000	99.983866
1443.000000	100.014209
1442.000000	100.007712
1441.000000	100.026286
1440.000000	100.018470
1439.000000	100.019791
1438.000000	100.001116
1437.000000	100.020904
1436.000000	100.013904
1435.000000	100.012585
1434.000000	100.012888
1433.000000	100.011975
1432.000000	100.013089
1431.000000	99.985795
1430.000000	100.012278
1429.000000	100.012987
1428.000000	99.997869
1427.000000	99.996855
1426.000000	100.003956
1425.000000	100.028304
1424.000000	100.015925
1423.000000	100.001318
1422.000000	99.984082
1421.000000	100.000710
1420.000000	100.007706
1419.000000	99.998277
1418.000000	100.009224
1417.000000	100.011149
1416.000000	99.986826
1415.000000	99.992604
1414.000000	99.982374
1413.000000	99.991086
1412.000000	99.995949
1411.000000	100.008406
1410.000000	100.001215
1409.000000	99.995242
1408.000000	100.004555
1407.000000	100.018423
1406.000000	100.004554
1405.000000	99.996256
1404.000000	99.999494
1403.000000	100.018213
1402.000000	100.017300
1401.000000	100.012848
1400.000000	100.011735
1399.000000	99.993830
1398.000000	99.998989
1397.000000	100.001618
1396.000000	100.011530
1395.000000	100.001820
1394.000000	99.998483
1393.000000	99.985947
1392.000000	99.981501
1391.000000	99.973920
1390.000000	100.000505
1389.000000	100.022545
1388.000000	100.014961
1387.000000	100.011826
1386.000000	100.017082
1385.000000	100.008188
1384.000000	100.001921
1383.000000	100.011018
1382.000000	100.002831
1381.000000	99.984533
1380.000000	99.987872
1379.000000	99.991712
1378.000000	100.000101
1377.000000	100.012234
1376.000000	100.002022
1375.000000	100.004246
1374.000000	100.004145
1373.000000	99.994137
1372.000000	99.994340
1371.000000	100.009097
1370.000000	100.003841
1369.000000	99.998181
1368.000000	100.007479
1367.000000	100.011521
1366.000000	100.004446
1365.000000	100.004750
1364.000000	100.008488
1363.000000	99.999192
1362.000000	100.000606
1361.000000	100.012940
1360.000000	100.011526
1359.000000	100.001719
1358.000000	100.006471
1357.000000	100.021849
1356.000000	100.009408
1355.000000	99.998685
1354.000000	100.014675
1353.000000	100.009918
1352.000000	100.011643
1351.000000	100.024605
1350.000000	100.018128
1349.000000	100.003545
1348.000000	99.988658
1347.000000	99.986326
1346.000000	100.005875
1345.000000	100.028669
1344.000000	100.014384
1343.000000	100.028672
1342.000000	100.003546
1341.000000	99.986932
1340.000000	99.987339
1339.000000	99.985009
1338.000000	100.008509
1337.000000	100.013371
1336.000000	100.017020
1335.000000	99.992505
1334.000000	99.996556
1333.000000	100.002431
1332.000000	100.004658
1331.000000	100.011849
1330.000000	100.003038
1329.000000	100.005672
1328.000000	100.001316
1327.000000	100.011545
1326.000000	100.007394
1325.000000	100.002329
1324.000000	100.005164
1323.000000	99.997367
1322.000000	99.985723
1321.000000	99.994735
1320.000000	99.985721
1319.000000	100.016814
1318.000000	100.055215
1317.000000	100.001317
1316.000000	100.004557
1315.000000	100.013976
1314.000000	99.981868
1313.000000	99.984301
1312.000000	100.015498
1311.000000	100.029279
1310.000000	100.013068
1309.000000	100.037485
1308.000000	100.013980
1307.000000	99.989057
1306.000000	100.018037
1305.000000	100.005269
1304.000000	99.992909
1303.000000	100.009524
1302.000000	99.974369
1301.000000	100.019253
1300.000000	100.012868
1299.000000	100.011754
1298.000000	100.022497
1297.000000	100.022496
1296.000000	100.011754
1295.000000	100.005066
1294.000000	100.005877
1293.000000	99.983184
1292.000000	99.986727
1291.000000	99.998379
1290.000000	99.996150
1289.000000	99.970221
1288.000000	99.991491
1287.000000	99.986630
1286.000000	99.980352
1285.000000	99.987442
1284.000000	99.978938
1283.000000	99.988254
1282.000000	99.979040
1281.000000	100.001013
1280.000000	99.983599
1279.000000	99.988863
1278.000000	99.979654
1277.000000	100.002328
1276.000000	99.995547
1275.000000	99.985428
1274.000000	100.011942
1273.000000	100.004959
1272.000000	100.018418
1271.000000	100.008905
1270.000000	100.010725
1269.000000	99.978447
1268.000000	99.984218
1267.000000	99.990691
1266.000000	100.031066
1265.000000	100.014871
1264.000000	99.998685
1263.000000	99.969357
1262.000000	99.998786
1261.000000	100.001315
1260.000000	100.005260
1259.000000	100.008295
1258.000000	99.990189
1257.000000	99.956111
1256.000000	99.968644
1255.000000	100.027524
1254.000000	99.997370
1253.000000	100.002732
1252.000000	100.001517
1251.000000	100.010925
1250.000000	100.015075
1249.000000	99.998584
1248.000000	99.994639
1247.000000	100.014872
1246.000000	100.009609
1245.000000	99.980580
1244.000000	100.000910
1243.000000	100.007788
1242.000000	100.020735
1241.000000	100.006068
1240.000000	100.003337
1239.000000	99.987866
1238.000000	100.001314
1237.000000	99.985240
1236.000000	99.993227
1235.000000	99.994945
1234.000000	100.006975
1233.000000	99.977770
1232.000000	100.016777
1231.000000	100.004446
1230.000000	100.032131
1229.000000	100.006971
1228.000000	99.998283
1227.000000	99.996162
1226.000000	99.996768
1225.000000	100.003939
1224.000000	99.995355
1223.000000	99.999495
1222.000000	99.975675
1221.000000	99.997981
1220.000000	100.012514
1219.000000	100.006457
1218.000000	99.979721
1217.000000	99.991624
1216.000000	100.021392
1215.000000	100.014429
1214.000000	100.008777
1213.000000	100.024819
1212.000000	100.010595
1211.000000	99.994250
1210.000000	99.987391
1209.000000	100.006255
1208.000000	100.002320
1207.000000	99.990923
1206.000000	100.009280
1205.000000	99.993544
1204.000000	100.006859
1203.000000	100.000303
1202.000000	100.001715
1201.000000	99.991527
1200.000000	99.987997
1199.000000	99.999899
1198.000000	100.003631
1197.000000	99.996873
1196.000000	100.006153
1195.000000	100.013921
1194.000000	100.015938
1193.000000	100.012407
1192.000000	100.002017
1191.000000	100.001614
1190.000000	99.993342
1189.000000	100.004742
1188.000000	99.999395
1187.000000	99.999798
1186.000000	100.002925
1185.000000	99.995966
1184.000000	100.002219
1183.000000	100.002924
1182.000000	100.006150
1181.000000	100.005041
1180.000000	99.998488
1179.000000	100.009577
1178.000000	100.001008
1177.000000	99.992039
1176.000000	99.987707
1175.000000	99.984080
1174.000000	99.994861
1173.000000	99.996776
1172.000000	100.002519
1171.000000	100.012694
1170.000000	100.010880
1169.000000	100.004835
1168.000000	99.996778
1167.000000	100.004633
1166.000000	100.013193
1165.000000	100.005739
1164.000000	99.992147
1163.000000	99.990034
1162.000000	99.998490
1161.000000	99.994163
1160.000000	99.994163
1159.000000	99.995070
1158.000000	99.996881
1157.000000	99.999799
1156.000000	99.983505
1155.000000	99.985519
1154.000000	99.995576
1153.000000	99.990047
1152.000000	100.008043
1151.000000	100.010354
1150.000000	99.998995
1149.000000	100.003417
1148.000000	99.983721
1147.000000	99.980508
1146.000000	100.002010
1145.000000	99.999096
1144.000000	99.996484
1143.000000	99.986241
1142.000000	100.003816
1141.000000	100.012653
1140.000000	100.005222
1139.000000	99.991969
1138.000000	99.986852
1137.000000	99.988861
1136.000000	99.992876
1135.000000	99.986256
1134.000000	100.007123
1133.000000	100.014346
1132.000000	99.996891
1131.000000	99.997593
1130.000000	100.002005
1129.000000	100.012232
1128.000000	100.006417
1127.000000	100.009123
1126.000000	99.993385
1125.000000	99.976852
1124.000000	99.980662
1123.000000	99.981366
1122.000000	100.001403
1121.000000	100.005309
1120.000000	99.989784
1119.000000	100.000401
1118.000000	100.015024
1117.000000	100.001402
1116.000000	100.001001
1115.000000	99.992691
1114.000000	100.000801
1113.000000	100.003203
1112.000000	100.014914
1111.000000	99.989693
1110.000000	99.989592
1109.000000	100.010106
1108.000000	100.013207
1107.000000	99.989798
1106.000000	99.995299
1105.000000	100.001500
1104.000000	99.991501
1103.000000	100.019697
1102.000000	100.005598
1101.000000	100.007196
1100.000000	100.023987
1099.000000	100.018887
1098.000000	100.001998
1097.000000	99.988413
1096.000000	100.000200
1095.000000	99.979132
1094.000000	99.983328
1093.000000	99.981235
1092.000000	99.999401
1091.000000	100.026946
1090.000000	100.007484
1089.000000	99.998703
1088.000000	99.991222
1087.000000	99.993219
1086.000000	100.015754
1085.000000	100.025124
1084.000000	100.027810
1083.000000	100.004086
1082.000000	100.004983
1081.000000	100.000598
1080.000000	99.984265
1079.000000	100.014839
1078.000000	100.007567
1077.000000	100.012742
1076.000000	99.994525
1075.000000	99.991841
1074.000000	100.000696
1073.000000	99.991247
1072.000000	100.011536
1071.000000	99.977730
1070.000000	100.012129
1069.000000	100.012425
1068.000000	100.000994
1067.000000	100.014904
1066.000000	100.001291
1065.000000	100.000199
1064.000000	100.007448
1063.000000	99.962781
1062.000000	100.011216
1061.000000	100.027591
1060.000000	99.982242
1059.000000	100.010712
1058.000000	100.002479
1057.000000	100.000099
1056.000000	100.015661
1055.000000	100.006441
1054.000000	100.008125
1053.000000	100.003962
1052.000000	99.974354
1051.000000	99.992179
1050.000000	100.000099
1049.000000	100.012174
1048.000000	100.024142
1047.000000	100.010188
1046.000000	100.011967
1045.000000	99.998121
1044.000000	99.982705
1043.000000	99.987056
1042.000000	99.999802
1041.000000	99.993876
1040.000000	99.994174
1039.000000	99.993781
1038.000000	99.988651
1037.000000	100.011051
1036.000000	99.999605
1035.000000	99.991322
1034.000000	99.978410
1033.000000	99.999310
1032.000000	99.982165
1031.000000	100.020590
1030.000000	100.019112
1029.000000	100.023929
1028.000000	100.002363
1027.000000	100.006888
1026.000000	100.009248
1025.000000	99.985052
1024.000000	100.005112
1023.000000	100.015332
1022.000000	99.990274
1021.000000	99.989295
1020.000000	100.009328
1019.000000	100.014723
1018.000000	100.016290
1017.000000	100.008241
1016.000000	100.019715
1015.000000	100.013727
1014.000000	100.012448
1013.000000	100.011071
1012.000000	99.991871
1011.000000	100.007442
1010.000000	99.995008
1009.000000	99.995891
1008.000000	99.996185
1007.000000	100.003813
1006.000000	100.003812
1005.000000	99.997850
1004.000000	100.000879
1003.000000	100.004784
1002.000000	100.011224
1001.000000	100.001951
1000.000000	100.013459
999.000000	99.998733
998.000000	100.005068
997.000000	100.011203
996.000000	99.999124
995.000000	100.020932
994.000000	100.015084
993.000000	100.000389
992.000000	100.001167
991.000000	100.017205
990.000000	99.994657
989.000000	100.001068
988.000000	100.007669
987.000000	100.022903
986.000000	100.014745
985.000000	100.015418
984.000000	100.022101
983.000000	100.023350
982.000000	100.015206
981.000000	100.008615
980.000000	100.020224
979.000000	100.007545
978.000000	100.012860
977.000000	100.024935
976.000000	100.023380
975.000000	99.999034
974.000000	99.978865
973.000000	100.009745
972.000000	100.013692
971.000000	100.004433
970.000000	100.013102
969.000000	99.994801
968.000000	99.987779
967.000000	99.997018
966.000000	100.012212
965.000000	100.011340
964.000000	100.001441
963.000000	99.997504
962.000000	99.995298
961.000000	100.014002
960.000000	100.014955
959.000000	100.004312
958.000000	100.007181
957.000000	99.995120
956.000000	99.992445
955.000000	99.998471
954.000000	99.992739
953.000000	100.001623
952.000000	99.986736
951.000000	99.990750
950.000000	100.005720
949.000000	100.006479
948.000000	99.993049
947.000000	99.994101
946.000000	100.004565
945.000000	100.008270
944.000000	99.996391
943.000000	99.996204
942.000000	100.016697
941.000000	100.012703
940.000000	100.002937
939.000000	99.991668
938.000000	99.984485
937.000000	99.981848
936.000000	100.002551
935.000000	100.015676
934.000000	100.008588
933.000000	99.995002
932.000000	99.998303
931.000000	100.002072
930.000000	99.999153
929.000000	99.980630
928.000000	99.973126
927.000000	99.965067
926.000000	99.980948
925.000000	100.000000
924.000000	99.992504
923.000000	99.992323
922.000000	100.004770
921.000000	100.006168
920.000000	99.996919
919.000000	99.998694
918.000000	100.024153
917.000000	100.028330
916.000000	99.993669
915.000000	99.998884
914.000000	100.024818
913.000000	99.998142
912.000000	99.971881
911.000000	99.989059
910.000000	99.990922
909.000000	100.000926
908.000000	99.976045
907.000000	99.959993
906.000000	99.985507
905.000000	99.976016
904.000000	99.955392
903.000000	99.995211
902.000000	100.088915
901.000000	100.012962
900.000000	99.998990
899.000000	99.977797
898.000000	100.013387
897.000000	100.028397
896.000000	99.991397
895.000000	99.975953
894.000000	99.970319
893.000000	99.969803
892.000000	99.958998
891.000000	100.007467
890.000000	100.005643
889.000000	99.968922
888.000000	100.001271
887.000000	100.000817
886.000000	100.083728
885.000000	100.030156
884.000000	99.923969
883.000000	99.939371
882.000000	99.924958
881.000000	99.997294
880.000000	100.057241
879.000000	100.041975
878.000000	99.954046
877.000000	99.932356
876.000000	99.901822
875.000000	100.007267
874.000000	100.072267
873.000000	99.989528
872.000000	99.910724
871.000000	100.043517
870.000000	99.929969
869.000000	99.981272
868.000000	100.101223
867.000000	99.922312
866.000000	99.983459
865.000000	100.080596
864.000000	99.986859
863.000000	99.978971
862.000000	99.922858
861.000000	99.938366
860.000000	100.014253
859.000000	100.052321
858.000000	99.665594
857.000000	99.961216
856.000000	100.098252
855.000000	100.018255
854.000000	100.277762
853.000000	99.775963
852.000000	99.354305
851.000000	99.464524
850.000000	100.115626
849.000000	100.013713
848.000000	100.348033
847.000000	99.871106
846.000000	99.793072
845.000000	100.152401
844.000000	100.132004
843.000000	100.274220
842.000000	99.745042
841.000000	100.015194
840.000000	99.896775
839.000000	100.218764
838.000000	99.633437
837.000000	99.793213
836.000000	100.168271
835.000000	100.150787
834.000000	100.109617
833.000000	99.842241
832.000000	100.031856
831.000000	100.013274
830.000000	100.081743
829.000000	100.215301
828.000000	100.271008
827.000000	99.953609
826.000000	99.853539
825.000000	100.069838
824.000000	100.067295
823.000000	100.035907
822.000000	100.001934
821.000000	100.013784
820.000000	99.992528
819.000000	100.061301
818.000000	100.084033
817.000000	99.913980
816.000000	100.017553
815.000000	100.033291
814.000000	99.983320
813.000000	99.642449
812.000000	100.034534
811.000000	100.011156
810.000000	100.008615
809.000000	100.189404
808.000000	100.094852
807.000000	100.304873
806.000000	99.851716
805.000000	100.028922
804.000000	100.249192
803.000000	100.140056
802.000000	99.977628
801.000000	99.958953
800.000000	99.754658
799.000000	99.794410
798.000000	100.058942
797.000000	99.936816
796.000000	100.050114
795.000000	100.164208
794.000000	100.131609
793.000000	100.022985
792.000000	100.000177
791.000000	99.860669
790.000000	99.941717
789.000000	100.121448
788.000000	99.976255
787.000000	100.066453
786.000000	100.051030
785.000000	100.003279
784.000000	99.835547
783.000000	99.854295
782.000000	99.964947
781.000000	100.069636
780.000000	99.996271
779.000000	99.963491
778.000000	100.039935
777.000000	99.967948
776.000000	99.914588
775.000000	99.943379
774.000000	99.985923
773.000000	99.962916
772.000000	99.996075
771.000000	100.011695
770.000000	99.838505
769.000000	99.960744
768.000000	100.045896
767.000000	100.002146
766.000000	99.987113
765.000000	99.934238
764.000000	99.837250
763.000000	100.010310
762.000000	100.134592
761.000000	100.034776
760.000000	99.993636
759.000000	100.020890
758.000000	100.002154
757.000000	99.971360
756.000000	99.895229
755.000000	99.924708
754.000000	99.842669
753.000000	99.936225
752.000000	99.906742
751.000000	99.868503
750.000000	99.915317
749.000000	99.975298
748.000000	99.917526
747.000000	99.878858
746.000000	99.916250
745.000000	99.939637
744.000000	100.017618
743.000000	99.965691
742.000000	99.930445
741.000000	99.942498
740.000000	99.830202
739.000000	99.817802
738.000000	99.864786
737.000000	99.984886
736.000000	99.997826
735.000000	100.004349
734.000000	100.072328
733.000000	100.093233
732.000000	100.021958
731.000000	99.947919
730.000000	99.937128
729.000000	99.961606
728.000000	99.911258
727.000000	99.991639
726.000000	100.095374
725.000000	99.982640
724.000000	99.871012
723.000000	99.895747
722.000000	100.010563
721.000000	100.000729
720.000000	99.998269
719.000000	100.042019
718.000000	100.112271
717.000000	100.063020
716.000000	99.944315
715.000000	99.954966
714.000000	100.061592
713.000000	99.985216
712.000000	99.945142
711.000000	100.026576
710.000000	99.956192
709.000000	99.944955
708.000000	99.949936
707.000000	99.987476
706.000000	99.974307
705.000000	99.899515
704.000000	99.963405
703.000000	100.065178
702.000000	100.036063
701.000000	99.894982
700.000000	99.848938
699.000000	99.934799
698.000000	99.955017
697.000000	99.940725
696.000000	99.949324
695.000000	99.950206
694.000000	99.967429
693.000000	99.920767
692.000000	99.945507
691.000000	99.943738
690.000000	99.921709
689.000000	99.987249
688.000000	100.031560
687.000000	100.053323
686.000000	100.075305
685.000000	100.050508
684.000000	99.979720
683.000000	99.977429
682.000000	99.945926
681.000000	99.892903
680.000000	99.924129
679.000000	99.930926
678.000000	100.006802
677.000000	100.029604
676.000000	99.965895
675.000000	99.911264
674.000000	100.021897
673.000000	100.042788
672.000000	99.997975
671.000000	99.978833
670.000000	99.949948
669.000000	99.987753
668.000000	99.959569
667.000000	99.953215
666.000000	100.025979
665.000000	100.049567
664.000000	100.007095
663.000000	99.970591
662.000000	100.051182
661.000000	100.042891
660.000000	99.981379
659.000000	100.056885
658.000000	100.006178
657.000000	100.025294
656.000000	100.000277
655.000000	99.947888
654.000000	100.020946
653.000000	100.054938
652.000000	99.962336
651.000000	99.977936
650.000000	99.969714
649.000000	99.946178
648.000000	99.946801
647.000000	100.022539
646.000000	100.060536
645.000000	100.028200
644.000000	99.964685
643.000000	99.933092
642.000000	100.036249
641.000000	100.060878
640.000000	100.034050
639.000000	100.046646
638.000000	99.937457
637.000000	99.908334
636.000000	99.912754
635.000000	99.957816
634.000000	99.973898
633.000000	99.983240
632.000000	99.995926
631.000000	99.961564
630.000000	100.049121
629.000000	99.964811
628.000000	99.968040
627.000000	99.995551
626.000000	99.988604
625.000000	99.927756
624.000000	100.008806
623.000000	99.925015
622.000000	99.947076
621.000000	99.905171
620.000000	99.904892
619.000000	99.957983
618.000000	100.063743
617.000000	100.105584
616.000000	99.887768
615.000000	100.016334
614.000000	99.994617
613.000000	99.929736
612.000000	99.944596
611.000000	99.910608
610.000000	100.030845
609.000000	99.953768
608.000000	99.955150
607.000000	99.953097
606.000000	99.986071
605.000000	100.048784
604.000000	99.974731
603.000000	99.982434
602.000000	99.939527
601.000000	100.039500
600.000000	100.061646
599.000000	99.952899
598.000000	99.993957
597.000000	100.017487
596.000000	100.122628
595.000000	100.084637
594.000000	100.065299
593.000000	99.945796
592.000000	99.916394
591.000000	99.911588
590.000000	99.983728
589.000000	99.972371
588.000000	100.026155
587.000000	100.058919
586.000000	99.951912
585.000000	99.966127
584.000000	100.020092
583.000000	99.948481
582.000000	99.968354
581.000000	100.027743
580.000000	99.946578
579.000000	99.978585
578.000000	99.934801
577.000000	99.945003
576.000000	100.031374
575.000000	99.989574
574.000000	99.906498
573.000000	99.923538
572.000000	100.009963
571.000000	99.948242
570.000000	99.961932
569.000000	100.050982
568.000000	99.946457
567.000000	99.892884
566.000000	99.962345
565.000000	99.981548
564.000000	100.019658
563.000000	99.929389
562.000000	99.940550
561.000000	99.932425
560.000000	100.022930
559.000000	99.957592
558.000000	99.926009
557.000000	99.959541
556.000000	100.047083
555.000000	99.959912
554.000000	99.963338
553.000000	100.008397
552.000000	100.003730
551.000000	99.962514
550.000000	99.981165
549.000000	99.978841
548.000000	99.988339
547.000000	99.983021
546.000000	99.932381
545.000000	100.015114
544.000000	100.002520
543.000000	99.930784
542.000000	99.932529
541.000000	99.970310
540.000000	99.986934
539.000000	99.969491
538.000000	99.997573
537.000000	100.013820
536.000000	99.953397
535.000000	100.045584
534.000000	99.974229
533.000000	99.978903
532.000000	99.971530
531.000000	100.038778
530.000000	99.987576
529.000000	100.048504
528.000000	99.952827
527.000000	99.963017
526.000000	99.989630
525.000000	100.018878
524.000000	100.015231
523.000000	100.047862
522.000000	100.021966
521.000000	100.045613
520.000000	100.008504
519.000000	99.948795
518.000000	99.954497
517.000000	100.000093
516.000000	99.947392
515.000000	99.948502
514.000000	100.001776
513.000000	99.925898
512.000000	99.941947
511.000000	100.033203
510.000000	100.003926
509.000000	100.021038
508.000000	99.990747
507.000000	99.984945
506.000000	99.909788
505.000000	99.895095
504.000000	99.955111
503.000000	100.031892
502.000000	100.027500
501.000000	99.995791
500.000000	100.008796
499.000000	100.025357
498.000000	100.017400
497.000000	100.026104
496.000000	99.952766
495.000000	99.907712
494.000000	99.890954
493.000000	99.976143
492.000000	99.971106
491.000000	99.981763
490.000000	99.994669
489.000000	99.988497
488.000000	99.937529
487.000000	99.913585
486.000000	99.998129
485.000000	100.086297
484.000000	100.045794
483.000000	99.916936
482.000000	99.964969
481.000000	100.043773
480.000000	100.062065
479.000000	100.012844
478.000000	100.061709
477.000000	100.049352
476.000000	99.993995
475.000000	100.003097
474.000000	99.985270
473.000000	99.992587
472.000000	100.051915
471.000000	100.017461
470.000000	99.968540
469.000000	100.047440
468.000000	100.036909
467.000000	99.981871
466.000000	100.002912
465.000000	100.007423
464.000000	100.011092
463.000000	100.019831
462.000000	99.974442
461.000000	100.018522
460.000000	100.020962
459.000000	99.968144
458.000000	100.023224
457.000000	100.052834
456.000000	100.037986
455.000000	100.021727
454.000000	100.026708
453.000000	99.959482
452.000000	100.004139
451.000000	100.035186
450.000000	99.995579
449.000000	100.050422
448.000000	100.040731
447.000000	100.078017
446.000000	99.996424
445.000000	99.960940
444.000000	99.988048
443.000000	99.980048
442.000000	99.983245
441.000000	99.927727
440.000000	99.933126
439.000000	99.975038
438.000000	99.910659
437.000000	99.943305
436.000000	100.057580
435.000000	100.010367
434.000000	99.925090
433.000000	99.968429
432.000000	100.030917
431.000000	100.038649
430.000000	100.024701
429.000000	99.978227
428.000000	99.885996
427.000000	99.922464
426.000000	99.969912
425.000000	99.954914
424.000000	99.996792
423.000000	99.990849
422.000000	99.979242
421.000000	100.050977
420.000000	100.050897
419.000000	100.088511
418.000000	100.045794
417.000000	99.954868
416.000000	100.067545
415.000000	100.033528
414.000000	100.017379
413.000000	100.070943
412.000000	99.981487
411.000000	99.940481
410.000000	100.005575
409.000000	99.979589
408.000000	99.903855
407.000000	99.960412
406.000000	100.009636
405.000000	99.999622
404.000000	99.996974
403.000000	100.046716
402.000000	100.003687
401.000000	100.015510
400.000000	100.086615
399.000000	99.949684
398.000000	99.923169
397.000000	99.943058
396.000000	99.991387
395.000000	100.085632
394.000000	99.967728
393.000000	100.010978
392.000000	99.924377
391.000000	100.087818
390.000000	100.072766
389.000000	100.306748
388.000000	100.147325
387.000000	100.061446
386.000000	99.981065
385.000000	99.972267
384.000000	99.892809
383.000000	99.996971
382.000000	99.866021
381.000000	99.938228
380.000000	99.826376
379.000000	99.951047
378.000000	100.168018
377.000000	100.095381
376.000000	100.344070
375.000000	100.331073
374.000000	99.889865
373.000000	100.001511
372.000000	100.408157
371.000000	100.230132
370.000000	99.836888
369.000000	100.207338
368.000000	100.034892
367.000000	99.934180
366.000000	99.945412
365.000000	99.983538
364.000000	100.010792
363.000000	100.182865
362.000000	99.975820
361.000000	99.802172
360.000000	99.917079
359.000000	100.180665
358.000000	100.056007
357.000000	100.013220
356.000000	99.971981
355.000000	99.811948
354.000000	100.126386
353.000000	100.248430
352.000000	99.740828
351.000000	99.948158
350.000000	100.065035
349.000000	100.023693
348.000000	99.817157
347.000000	99.936650
346.000000	99.992536
345.000000	99.888181
344.000000	100.276927
343.000000	100.022437
342.000000	99.910512
341.000000	99.731904
340.000000	100.212877
339.000000	99.780487
338.000000	100.142290
337.000000	100.120625
336.000000	100.001036
335.000000	99.772552
334.000000	99.692880
333.000000	99.884957
332.000000	100.313689
331.000000	99.609861
330.000000	99.788492
329.000000	99.924091
328.000000	99.932287
327.000000	99.961881
326.000000	100.233194
325.000000	99.928375
324.000000	100.008093
323.000000	100.087723
322.000000	99.835680
321.000000	100.182497
320.000000	100.297089
319.000000	99.756046
318.000000	99.781412
317.000000	100.155325
316.000000	100.026881
315.000000	99.843834
314.000000	100.178417
313.000000	100.200009
312.000000	100.047615
311.000000	99.633980
310.000000	99.830878
309.000000	100.031665
308.000000	100.121081
307.000000	99.802376
306.000000	100.161370
305.000000	99.799774
304.000000	99.940380
303.000000	99.697053
302.000000	99.759372
301.000000	99.543222
300.000000	99.869921
299.000000	99.951220
298.000000	100.045892
297.000000	99.745538
296.000000	99.556014
295.000000	100.050382
294.000000	100.293011
293.000000	100.129903
292.000000	100.060024
291.000000	100.080011
290.000000	100.394757
289.000000	100.370973
288.000000	100.173494
287.000000	100.109473
286.000000	100.186402
285.000000	99.972619
284.000000	99.866100
283.000000	100.069086
282.000000	99.917694
281.000000	100.122027
280.000000	100.116516
279.000000	99.841080
278.000000	99.971986
277.000000	100.173068
276.000000	100.011315
275.000000	100.034458
274.000000	100.015788
273.000000	100.048540
272.000000	99.942606
271.000000	100.010316
270.000000	100.052787
269.000000	99.829211
268.000000	99.982840
267.000000	99.769433
266.000000	100.028401
265.000000	100.111402
264.000000	100.099508
263.000000	100.236635
262.000000	100.219951
261.000000	99.940590
260.000000	99.947156
259.000000	99.732920
258.000000	99.943331
257.000000	99.958343
256.000000	99.910948
255.000000	100.137823
254.000000	100.199783
253.000000	100.072623
252.000000	99.915638
251.000000	99.756915
250.000000	99.853136
249.000000	99.785228
248.000000	99.909512
247.000000	100.098217
246.000000	100.109442
245.000000	99.958957
244.000000	99.937680
243.000000	99.992345
242.000000	99.998951
241.000000	100.063721
240.000000	100.021245
239.000000	100.092261
238.000000	100.414467
237.000000	100.105679
236.000000	100.281142
235.000000	100.260489
234.000000	100.000622
233.000000	100.106827
232.000000	100.252945
231.000000	99.919479
230.000000	99.891958
229.000000	99.974837
228.000000	99.977432
227.000000	100.065938
226.000000	100.040193
225.000000	99.877345
224.000000	99.886144
223.000000	99.996041
222.000000	100.095831
221.000000	99.976604
220.000000	100.078879
219.000000	100.171198
218.000000	99.997894
217.000000	99.615352
216.000000	99.482632
215.000000	99.640523
214.000000	99.869458
213.000000	99.856450
212.000000	100.009984
211.000000	99.928103
210.000000	100.287943
209.000000	100.581447
208.000000	100.026092
207.000000	99.868667
206.000000	100.010701
205.000000	100.231985
204.000000	100.555439
203.000000	100.316318
202.000000	99.996333
201.000000	99.676339
200.000000	99.642200
