PE UV       SUBTECH     SPECTRUM    ASCII       PEDS        4.00        
   -1
chevre_side1_humidity.Sample.asc
24/02/16
16:36:26.00
24/02/16
16:36:26.00
Administrator

250.000000
1
Lambda 750
750N8071901
PerkinElmer UV WinLab 6.0.4.0738 / 1.61.00 Lambda 900

0
0
3350/servo 860.8/2
0
0
UV/VIS
1
1
1
CommonBeamDepol,150mm sphere / downward view
0
0
0
0
Program
Program
3350/servo 860.8/2
3350/0.2 860.8/0.2
3350/0.2 860.8/0.2
0
1
 
 
 
0
 
860.8
319.2
860.8
Front
100
on
 
 
0
0
0
 
0
 
 
 
0
 
 
0
0
0
0
0
 
 
 
 
0
0


0
0
#HDR
-1
-1
#GR
nm
%R
1.0
0.0
2500.000000
-10.000000
226
8
56.642582
10.181891
#DATA
2500.000000	17.256450
2490.000000	17.062836
2480.000000	24.493515
2470.000000	28.778602
2460.000000	29.581086
2450.000000	27.674726
2440.000000	21.713780
2430.000000	26.052367
2420.000000	27.931647
2410.000000	26.746749
2400.000000	27.346809
2390.000000	27.549855
2380.000000	25.713432
2370.000000	26.604634
2360.000000	28.625370
2350.000000	29.114126
2340.000000	29.285103
2330.000000	25.624791
2320.000000	25.429021
2310.000000	28.809635
2300.000000	26.955058
2290.000000	28.873336
2280.000000	27.252446
2270.000000	29.750992
2260.000000	29.483079
2250.000000	32.332089
2240.000000	33.411490
2230.000000	30.180320
2220.000000	31.014744
2210.000000	28.766644
2200.000000	30.883227
2190.000000	30.956602
2180.000000	32.078001
2170.000000	32.006101
2160.000000	31.846128
2150.000000	35.087386
2140.000000	33.015098
2130.000000	33.079269
2120.000000	33.522984
2110.000000	33.144748
2100.000000	33.621174
2090.000000	32.565169
2080.000000	30.941181
2070.000000	29.952778
2060.000000	30.097264
2050.000000	29.844357
2040.000000	29.795508
2030.000000	30.979172
2020.000000	29.746597
2010.000000	28.199643
2000.000000	27.821572
1990.000000	26.537033
1980.000000	25.241810
1970.000000	24.435546
1960.000000	23.544881
1950.000000	24.698421
1940.000000	26.367921
1930.000000	29.210010
1920.000000	33.547388
1910.000000	37.098876
1900.000000	40.650059
1890.000000	43.121793
1880.000000	44.241237
1870.000000	45.883931
1860.000000	44.718349
1850.000000	44.904934
1840.000000	45.117831
1830.000000	44.768909
1820.000000	44.361981
1810.000000	44.224995
1800.000000	43.859428
1790.000000	43.832201
1780.000000	43.175743
1770.000000	43.558193
1760.000000	43.034311
1750.000000	42.881427
1740.000000	42.902788
1730.000000	43.369186
1720.000000	44.202259
1710.000000	44.479017
1700.000000	44.791377
1690.000000	45.807414
1680.000000	46.734671
1670.000000	47.053962
1660.000000	47.161645
1650.000000	46.850271
1640.000000	46.685255
1630.000000	46.205584
1620.000000	45.770290
1610.000000	45.195184
1600.000000	44.815420
1590.000000	44.606616
1580.000000	44.255141
1570.000000	44.114647
1560.000000	43.497662
1550.000000	42.991125
1540.000000	42.640142
1530.000000	42.163253
1520.000000	41.887339
1510.000000	41.808317
1500.000000	41.605015
1490.000000	41.657924
1480.000000	41.782480
1470.000000	42.076491
1460.000000	42.621443
1450.000000	43.389676
1440.000000	44.132952
1430.000000	45.065897
1420.000000	46.919544
1410.000000	49.002739
1400.000000	51.067812
1390.000000	51.659990
1380.000000	51.749052
1370.000000	52.178317
1360.000000	52.604253
1350.000000	52.439466
1340.000000	52.777666
1330.000000	53.676319
1320.000000	54.144468
1310.000000	54.459884
1300.000000	54.172661
1290.000000	53.970317
1280.000000	53.801735
1270.000000	53.509802
1260.000000	53.472227
1250.000000	53.534914
1240.000000	53.706168
1230.000000	53.741150
1220.000000	53.105407
1210.000000	53.063780
1200.000000	53.175278
1190.000000	53.557165
1180.000000	53.797525
1170.000000	54.136617
1160.000000	54.566972
1150.000000	54.825329
1140.000000	55.129540
1130.000000	55.007209
1120.000000	55.203407
1110.000000	55.122536
1100.000000	55.205656
1090.000000	55.075786
1080.000000	54.985615
1070.000000	55.045791
1060.000000	55.090959
1050.000000	55.240016
1040.000000	55.014062
1030.000000	54.802382
1020.000000	54.666277
1010.000000	55.185400
1000.000000	55.290360
990.000000	55.200540
980.000000	55.037683
970.000000	55.258785
960.000000	55.525283
950.000000	55.702501
940.000000	55.751349
930.000000	55.479965
920.000000	55.458507
910.000000	55.988856
900.000000	56.642582
890.000000	55.933782
880.000000	55.782872
870.000000	55.850231
860.000000	55.321877
850.000000	55.964014
840.000000	55.420159
830.000000	55.551028
820.000000	55.670485
810.000000	55.757895
800.000000	55.510530
790.000000	55.263560
780.000000	55.735106
770.000000	55.620203
760.000000	55.623359
750.000000	55.560057
740.000000	55.642077
730.000000	55.649636
720.000000	55.503663
710.000000	55.549253
700.000000	55.260137
690.000000	55.374132
680.000000	55.284578
670.000000	55.176487
660.000000	55.185869
650.000000	55.108690
640.000000	54.775453
630.000000	54.872096
620.000000	54.859222
610.000000	54.567438
600.000000	54.358906
590.000000	54.330168
580.000000	53.982641
570.000000	53.738218
560.000000	53.605942
550.000000	53.329678
540.000000	53.086099
530.000000	52.695498
520.000000	52.365173
510.000000	52.039832
500.000000	51.481684
490.000000	51.186184
480.000000	50.528667
470.000000	50.046129
460.000000	49.347242
450.000000	48.347317
440.000000	47.562460
430.000000	46.365274
420.000000	44.946843
410.000000	43.670929
400.000000	41.862402
390.000000	40.073529
380.000000	37.967290
370.000000	35.838485
360.000000	33.450590
350.000000	30.950280
340.000000	30.762860
330.000000	25.680764
320.000000	24.186609
310.000000	21.735842
300.000000	18.079477
290.000000	13.554606
280.000000	10.674408
270.000000	10.393053
260.000000	10.181891
250.000000	10.948728
