PE UV       SUBTECH     SPECTRUM    ASCII       PEDS        4.00        
   -1
18-1G-XXX-NR008-C001.Sample.asc
24/01/19
18:00:33.00
24/01/19
18:00:33.00
Administrator

250.000000
1
Lambda 750
750N8071901
PerkinElmer UV WinLab 6.0.4.0738 / 1.61.00 Lambda 900

0
0
3350/servo 860.8/2
0
0
UV/VIS
1
1
1
CommonBeamDepol,150mm sphere / downward view
0
0
0
0
Program
Program
3350/servo 860.8/2
3350/0.2 860.8/0.2
3350/0.2 860.8/0.2
0
1
 
 
 
0
 
860.8
319.2
860.8
Front
100
on
 
 
0
0
0
 
0
 
 
 
0
 
 
0
0
0
0
0
 
 
 
 
0
0


0
0
#HDR
-1
-1
#GR
nm
%R
1.0
0.0
2500.000000
-10.000000
226
8
62.973868
14.688378
#DATA
2500.000000	15.095862
2490.000000	14.939228
2480.000000	16.938386
2470.000000	15.220748
2460.000000	14.688378
2450.000000	16.164202
2440.000000	19.513494
2430.000000	17.360856
2420.000000	18.462667
2410.000000	19.704061
2400.000000	20.183084
2390.000000	17.025726
2380.000000	18.594206
2370.000000	18.185968
2360.000000	18.929001
2350.000000	19.180621
2340.000000	17.783030
2330.000000	18.747646
2320.000000	17.912005
2310.000000	18.537667
2300.000000	17.025650
2290.000000	17.750719
2280.000000	18.147683
2270.000000	19.781246
2260.000000	21.404773
2250.000000	22.108554
2240.000000	23.098196
2230.000000	21.964132
2220.000000	22.293573
2210.000000	21.160408
2200.000000	20.826749
2190.000000	20.010825
2180.000000	21.350674
2170.000000	23.425042
2160.000000	24.156845
2150.000000	25.017999
2140.000000	26.098752
2130.000000	25.513772
2120.000000	26.679810
2110.000000	26.168517
2100.000000	26.601184
2090.000000	25.504979
2080.000000	24.171626
2070.000000	23.130198
2060.000000	22.443687
2050.000000	22.791019
2040.000000	23.729094
2030.000000	24.107370
2020.000000	23.128031
2010.000000	22.440541
2000.000000	21.314508
1990.000000	20.467302
1980.000000	19.466927
1970.000000	18.893262
1960.000000	18.639903
1950.000000	19.694184
1940.000000	21.165525
1930.000000	24.888165
1920.000000	29.276102
1910.000000	34.521738
1900.000000	39.435794
1890.000000	42.701654
1880.000000	44.508655
1870.000000	45.376097
1860.000000	45.284821
1850.000000	44.859942
1840.000000	44.590310
1830.000000	44.105744
1820.000000	43.731320
1810.000000	43.423482
1800.000000	43.046173
1790.000000	42.534171
1780.000000	42.130891
1770.000000	41.343359
1760.000000	40.827291
1750.000000	40.354025
1740.000000	40.690502
1730.000000	41.819510
1720.000000	42.577312
1710.000000	42.752605
1700.000000	43.956629
1690.000000	45.989397
1680.000000	47.800906
1670.000000	48.434713
1660.000000	48.563309
1650.000000	48.216811
1640.000000	47.656071
1630.000000	46.907556
1620.000000	46.136613
1610.000000	45.376269
1600.000000	44.761974
1590.000000	44.145160
1580.000000	43.659228
1570.000000	43.403066
1560.000000	42.902088
1550.000000	41.914977
1540.000000	40.982351
1530.000000	40.389794
1520.000000	40.087888
1510.000000	40.070836
1500.000000	40.464620
1490.000000	41.047875
1480.000000	41.657890
1470.000000	42.362371
1460.000000	43.159439
1450.000000	44.366928
1440.000000	45.859888
1430.000000	47.929409
1420.000000	50.231393
1410.000000	52.612310
1400.000000	54.377232
1390.000000	55.515742
1380.000000	56.230459
1370.000000	56.856746
1360.000000	57.596297
1350.000000	58.543929
1340.000000	59.328442
1330.000000	59.790431
1320.000000	59.764578
1310.000000	59.595880
1300.000000	59.419490
1290.000000	59.260950
1280.000000	59.441278
1270.000000	59.661202
1260.000000	59.585874
1250.000000	59.520956
1240.000000	59.267072
1230.000000	58.925241
1220.000000	58.477996
1210.000000	58.145277
1200.000000	58.054171
1190.000000	58.396862
1180.000000	59.122854
1170.000000	59.995963
1160.000000	60.673940
1150.000000	61.204327
1140.000000	61.459598
1130.000000	61.649499
1120.000000	61.701797
1110.000000	61.761303
1100.000000	61.833338
1090.000000	61.828392
1080.000000	61.717464
1070.000000	61.641346
1060.000000	61.592018
1050.000000	61.589071
1040.000000	61.558667
1030.000000	61.520548
1020.000000	61.432343
1010.000000	61.678653
1000.000000	61.853991
990.000000	61.968543
980.000000	62.073971
970.000000	62.198638
960.000000	62.363493
950.000000	62.473702
940.000000	62.413157
930.000000	62.621323
920.000000	62.581071
910.000000	62.657046
900.000000	62.723628
890.000000	62.925653
880.000000	62.973868
870.000000	62.947832
860.000000	62.965584
850.000000	62.781697
840.000000	62.182751
830.000000	62.458441
820.000000	62.325444
810.000000	62.470905
800.000000	62.616286
790.000000	62.550130
780.000000	62.618957
770.000000	62.618167
760.000000	62.595086
750.000000	62.610322
740.000000	62.432263
730.000000	62.528404
720.000000	62.611039
710.000000	62.719492
700.000000	62.524783
690.000000	62.560072
680.000000	62.330606
670.000000	62.363739
660.000000	62.286921
650.000000	62.205392
640.000000	62.172170
630.000000	61.842669
620.000000	61.733661
610.000000	61.627326
600.000000	61.450668
590.000000	61.212598
580.000000	61.027592
570.000000	60.719550
560.000000	60.494547
550.000000	60.177426
540.000000	59.889238
530.000000	59.424133
520.000000	59.014937
510.000000	58.601795
500.000000	57.979249
490.000000	57.439102
480.000000	56.587091
470.000000	55.680564
460.000000	54.764073
450.000000	53.646334
440.000000	52.257541
430.000000	50.647771
420.000000	49.121598
410.000000	47.514309
400.000000	45.750643
390.000000	44.171980
380.000000	42.091326
370.000000	39.829152
360.000000	37.849871
350.000000	35.938259
340.000000	33.491174
330.000000	31.460654
320.000000	28.838045
310.000000	27.490541
300.000000	25.655956
290.000000	20.208012
280.000000	17.593987
270.000000	18.474567
260.000000	20.068464
250.000000	19.537318
