PE UV       SUBTECH     SPECTRUM    ASCII       PEDS        4.00        
   -1
18-3C-XXX-NR007-C001.Sample.asc
24/01/19
18:17:40.00
24/01/19
18:17:40.00
Administrator

250.000000
1
Lambda 750
750N8071901
PerkinElmer UV WinLab 6.0.4.0738 / 1.61.00 Lambda 900

0
0
3350/servo 860.8/2
0
0
UV/VIS
1
1
1
CommonBeamDepol,150mm sphere / downward view
0
0
0
0
Program
Program
3350/servo 860.8/2
3350/0.2 860.8/0.2
3350/0.2 860.8/0.2
0
1
 
 
 
0
 
860.8
319.2
860.8
Front
100
on
 
 
0
0
0
 
0
 
 
 
0
 
 
0
0
0
0
0
 
 
 
 
0
0


0
0
#HDR
-1
-1
#GR
nm
%R
1.0
0.0
2500.000000
-10.000000
226
8
58.453879
8.860715
#DATA
2500.000000	8.860715
2490.000000	8.880787
2480.000000	12.618496
2470.000000	13.860631
2460.000000	12.851390
2450.000000	13.130931
2440.000000	14.726420
2430.000000	14.171574
2420.000000	12.149226
2410.000000	16.649390
2400.000000	17.288267
2390.000000	15.613890
2380.000000	14.805390
2370.000000	14.539700
2360.000000	15.903084
2350.000000	15.131357
2340.000000	14.604767
2330.000000	15.940684
2320.000000	14.937489
2310.000000	15.146921
2300.000000	13.226085
2290.000000	14.377881
2280.000000	14.518750
2270.000000	15.719606
2260.000000	17.356524
2250.000000	19.540926
2240.000000	19.097324
2230.000000	19.015475
2220.000000	18.822186
2210.000000	18.108588
2200.000000	17.110855
2190.000000	17.274596
2180.000000	17.350127
2170.000000	19.121139
2160.000000	20.121131
2150.000000	20.952778
2140.000000	22.135573
2130.000000	22.750638
2120.000000	22.705300
2110.000000	22.732865
2100.000000	22.591942
2090.000000	21.874323
2080.000000	20.229825
2070.000000	19.262630
2060.000000	18.184682
2050.000000	18.674856
2040.000000	19.658291
2030.000000	20.164618
2020.000000	19.369845
2010.000000	18.401189
2000.000000	17.227613
1990.000000	16.144092
1980.000000	15.438127
1970.000000	14.728430
1960.000000	14.380909
1950.000000	15.382010
1940.000000	16.965554
1930.000000	20.171199
1920.000000	24.723204
1910.000000	30.034364
1900.000000	35.228405
1890.000000	38.626286
1880.000000	40.593655
1870.000000	41.392573
1860.000000	41.422889
1850.000000	41.214810
1840.000000	40.771944
1830.000000	40.367171
1820.000000	39.931678
1810.000000	39.495118
1800.000000	39.161524
1790.000000	38.598426
1780.000000	38.199116
1770.000000	37.427016
1760.000000	36.832661
1750.000000	36.388632
1740.000000	36.840311
1730.000000	37.978923
1720.000000	38.552423
1710.000000	38.930535
1700.000000	40.189466
1690.000000	42.241705
1680.000000	44.081791
1670.000000	44.802750
1660.000000	44.887155
1650.000000	44.493648
1640.000000	43.930164
1630.000000	43.145585
1620.000000	42.250609
1610.000000	41.521139
1600.000000	40.843737
1590.000000	40.133802
1580.000000	39.654814
1570.000000	39.448733
1560.000000	38.864646
1550.000000	37.892315
1540.000000	36.908173
1530.000000	36.325608
1520.000000	36.004120
1510.000000	35.885479
1500.000000	36.189663
1490.000000	36.706800
1480.000000	37.200561
1470.000000	37.900491
1460.000000	38.644116
1450.000000	39.879499
1440.000000	41.381849
1430.000000	43.635719
1420.000000	46.081768
1410.000000	48.705795
1400.000000	50.704727
1390.000000	51.936848
1380.000000	52.634305
1370.000000	53.381269
1360.000000	54.175310
1350.000000	55.017690
1340.000000	55.936329
1330.000000	56.543898
1320.000000	56.619894
1310.000000	56.385708
1300.000000	56.032863
1290.000000	55.893085
1280.000000	56.051512
1270.000000	56.118811
1260.000000	56.183089
1250.000000	56.044889
1240.000000	55.749965
1230.000000	55.407020
1220.000000	54.897737
1210.000000	54.424959
1200.000000	54.250559
1190.000000	54.724528
1180.000000	55.463828
1170.000000	56.365655
1160.000000	57.063131
1150.000000	57.616463
1140.000000	57.928808
1130.000000	58.058056
1120.000000	58.179811
1110.000000	58.202778
1100.000000	58.176639
1090.000000	58.047778
1080.000000	58.005300
1070.000000	57.883828
1060.000000	57.715798
1050.000000	57.712530
1040.000000	57.623092
1030.000000	57.523863
1020.000000	57.472241
1010.000000	57.618070
1000.000000	57.768787
990.000000	57.841899
980.000000	57.965079
970.000000	57.998796
960.000000	58.082284
950.000000	58.219637
940.000000	58.128592
930.000000	58.337786
920.000000	58.186411
910.000000	58.226274
900.000000	58.192395
890.000000	58.453879
880.000000	58.426270
870.000000	57.910230
860.000000	58.320322
850.000000	57.473874
840.000000	58.005390
830.000000	57.561319
820.000000	57.772098
810.000000	57.826782
800.000000	57.709849
790.000000	57.387999
780.000000	57.586951
770.000000	57.433894
760.000000	57.290673
750.000000	57.171814
740.000000	56.977021
730.000000	56.817991
720.000000	56.791520
710.000000	56.696507
700.000000	56.364463
690.000000	56.059889
680.000000	55.676695
670.000000	55.424751
660.000000	55.034681
650.000000	54.710145
640.000000	54.354555
630.000000	54.040950
620.000000	53.849096
610.000000	53.470311
600.000000	53.143004
590.000000	52.802642
580.000000	52.512874
570.000000	52.336009
560.000000	51.992130
550.000000	51.671504
540.000000	51.414298
530.000000	51.096135
520.000000	50.701447
510.000000	50.075282
500.000000	49.369799
490.000000	48.667569
480.000000	47.588367
470.000000	46.414742
460.000000	45.067309
450.000000	43.418909
440.000000	41.563135
430.000000	39.749347
420.000000	38.022629
410.000000	36.448957
400.000000	35.351707
390.000000	34.295319
380.000000	32.689627
370.000000	30.935686
360.000000	28.438530
350.000000	26.759043
340.000000	24.303523
330.000000	22.626520
320.000000	20.200833
310.000000	17.294115
300.000000	15.301005
290.000000	11.490353
280.000000	10.468351
270.000000	11.135235
260.000000	11.880198
250.000000	11.375217
