PE UV       SUBTECH     SPECTRUM    ASCII       PEDS        4.00        
   -1
TTgVeauUK 42.Sample.asc
18/03/08
09:47:58.00
18/03/08
09:47:58.00
Administrator

200.000000
1
Lambda 750
750N8071901
PerkinElmer UV WinLab 6.0.4.0738 / 1.61.00 Lambda 900

0
0
3350/servo 860.8/2
0
0
UV/VIS
1
1
1
CommonBeamDepol,150mm sphere / downward view
0
0
0
0
Program
Program
3350/servo 860.8/2
3350/0.2 860.8/0.2
3350/0.2 860.8/0.2
0
1
 
 
 
0
 
860.8
319.2
860.8
Front
100
on
 
 
0
0
0
 
0
 
 
 
0
 
 
0
0
0
0
0
 
 
 
 
0
0


0
0
#HDR
-1
-1
#GR
nm
%T
1.0
0.0
2350.000000
-1.000000
2151
8
56.074767
0.134041
#DATA
2350.000000	17.225807
2349.000000	17.156608
2348.000000	17.413498
2347.000000	17.937043
2346.000000	17.498510
2345.000000	17.371906
2344.000000	17.238774
2343.000000	17.217803
2342.000000	17.037120
2341.000000	17.260502
2340.000000	17.333720
2339.000000	17.836787
2338.000000	17.754601
2337.000000	17.707209
2336.000000	17.578587
2335.000000	17.955320
2334.000000	18.130205
2333.000000	18.096164
2332.000000	18.286939
2331.000000	18.131315
2330.000000	17.992159
2329.000000	17.917016
2328.000000	17.731427
2327.000000	17.970614
2326.000000	17.747705
2325.000000	17.850865
2324.000000	17.792151
2323.000000	17.777683
2322.000000	17.750851
2321.000000	17.829927
2320.000000	17.740097
2319.000000	17.742322
2318.000000	17.645250
2317.000000	17.637044
2316.000000	17.312988
2315.000000	17.240235
2314.000000	17.174065
2313.000000	17.290817
2312.000000	17.028317
2311.000000	16.962706
2310.000000	17.029499
2309.000000	16.881355
2308.000000	16.868304
2307.000000	16.837947
2306.000000	16.778764
2305.000000	16.490971
2304.000000	16.461804
2303.000000	16.326545
2302.000000	16.239151
2301.000000	16.090678
2300.000000	15.928516
2299.000000	15.668771
2298.000000	15.718694
2297.000000	15.565710
2296.000000	15.658328
2295.000000	15.454411
2294.000000	15.352385
2293.000000	15.165864
2292.000000	15.157132
2291.000000	15.061219
2290.000000	14.944106
2289.000000	15.018072
2288.000000	15.034973
2287.000000	14.857005
2286.000000	14.666032
2285.000000	14.662011
2284.000000	14.728550
2283.000000	14.620008
2282.000000	14.714929
2281.000000	14.886002
2280.000000	14.782896
2279.000000	14.780423
2278.000000	14.830467
2277.000000	14.792276
2276.000000	14.826097
2275.000000	14.806336
2274.000000	14.842942
2273.000000	14.960044
2272.000000	14.991129
2271.000000	15.063026
2270.000000	15.122148
2269.000000	15.117002
2268.000000	15.196000
2267.000000	15.276458
2266.000000	15.432959
2265.000000	15.596956
2264.000000	15.679727
2263.000000	15.796741
2262.000000	16.024000
2261.000000	16.198669
2260.000000	16.363005
2259.000000	16.649324
2258.000000	16.888787
2257.000000	17.115780
2256.000000	17.182211
2255.000000	17.381224
2254.000000	17.614859
2253.000000	17.842797
2252.000000	18.201173
2251.000000	18.451187
2250.000000	18.661225
2249.000000	19.007707
2248.000000	19.199568
2247.000000	19.461352
2246.000000	19.703444
2245.000000	19.956795
2244.000000	20.223182
2243.000000	20.376073
2242.000000	20.539596
2241.000000	20.770377
2240.000000	21.043550
2239.000000	21.097252
2238.000000	21.161342
2237.000000	21.264231
2236.000000	21.371651
2235.000000	21.593682
2234.000000	21.723768
2233.000000	21.732383
2232.000000	21.791546
2231.000000	21.912801
2230.000000	21.936663
2229.000000	22.038998
2228.000000	22.096798
2227.000000	22.048776
2226.000000	21.972269
2225.000000	21.962999
2224.000000	21.938263
2223.000000	21.934393
2222.000000	21.798035
2221.000000	21.801358
2220.000000	21.809457
2219.000000	21.819734
2218.000000	21.771757
2217.000000	21.718019
2216.000000	21.626379
2215.000000	21.527787
2214.000000	21.474511
2213.000000	21.458476
2212.000000	21.428550
2211.000000	21.305232
2210.000000	21.219877
2209.000000	21.196845
2208.000000	20.978340
2207.000000	20.913593
2206.000000	20.887730
2205.000000	20.815574
2204.000000	20.736762
2203.000000	20.541406
2202.000000	20.605333
2201.000000	20.344112
2200.000000	20.302505
2199.000000	20.304860
2198.000000	20.123336
2197.000000	19.994346
2196.000000	19.925075
2195.000000	19.853568
2194.000000	19.847388
2193.000000	19.611354
2192.000000	19.487093
2191.000000	19.472479
2190.000000	19.354247
2189.000000	19.214123
2188.000000	19.179742
2187.000000	19.095644
2186.000000	19.039954
2185.000000	19.006919
2184.000000	19.033210
2183.000000	18.878635
2182.000000	18.781268
2181.000000	18.750013
2180.000000	18.804607
2179.000000	18.671748
2178.000000	18.564327
2177.000000	18.665717
2176.000000	18.615509
2175.000000	18.718587
2174.000000	18.693617
2173.000000	18.493517
2172.000000	18.728076
2171.000000	18.936465
2170.000000	18.847805
2169.000000	19.142164
2168.000000	19.085537
2167.000000	19.114337
2166.000000	19.039901
2165.000000	19.256066
2164.000000	19.498773
2163.000000	19.648480
2162.000000	19.725913
2161.000000	19.822413
2160.000000	19.959071
2159.000000	19.963884
2158.000000	20.209971
2157.000000	20.370585
2156.000000	20.459228
2155.000000	20.641231
2154.000000	20.914475
2153.000000	21.076560
2152.000000	21.286328
2151.000000	21.460412
2150.000000	21.477118
2149.000000	21.607275
2148.000000	21.944259
2147.000000	22.010433
2146.000000	22.268283
2145.000000	22.380897
2144.000000	22.499740
2143.000000	22.642149
2142.000000	22.837180
2141.000000	23.105285
2140.000000	23.055740
2139.000000	23.336644
2138.000000	23.433620
2137.000000	23.557203
2136.000000	23.624257
2135.000000	23.777386
2134.000000	23.997086
2133.000000	23.843109
2132.000000	24.294050
2131.000000	24.293459
2130.000000	24.388357
2129.000000	24.210338
2128.000000	24.403170
2127.000000	24.544171
2126.000000	24.704403
2125.000000	24.646850
2124.000000	24.751140
2123.000000	24.715313
2122.000000	24.746484
2121.000000	24.821305
2120.000000	24.919032
2119.000000	24.909979
2118.000000	24.991119
2117.000000	25.187173
2116.000000	25.241512
2115.000000	25.262948
2114.000000	25.193340
2113.000000	25.222916
2112.000000	25.168338
2111.000000	25.292870
2110.000000	25.185023
2109.000000	25.356681
2108.000000	25.294069
2107.000000	25.297369
2106.000000	25.316782
2105.000000	25.309765
2104.000000	25.326471
2103.000000	25.439152
2102.000000	25.420552
2101.000000	25.471061
2100.000000	25.569971
2099.000000	25.549966
2098.000000	25.398169
2097.000000	25.359101
2096.000000	25.399937
2095.000000	25.329405
2094.000000	25.316383
2093.000000	25.358209
2092.000000	25.312214
2091.000000	25.365391
2090.000000	25.276642
2089.000000	25.445581
2088.000000	25.329083
2087.000000	25.257503
2086.000000	25.204796
2085.000000	25.149037
2084.000000	25.084954
2083.000000	24.980267
2082.000000	24.877253
2081.000000	24.810735
2080.000000	24.706306
2079.000000	24.659038
2078.000000	24.574607
2077.000000	24.447293
2076.000000	24.293489
2075.000000	24.100001
2074.000000	23.990716
2073.000000	23.880256
2072.000000	23.732755
2071.000000	23.646754
2070.000000	23.509234
2069.000000	23.279754
2068.000000	23.072421
2067.000000	22.886954
2066.000000	22.750814
2065.000000	22.563197
2064.000000	22.387080
2063.000000	22.162220
2062.000000	22.002719
2061.000000	21.784989
2060.000000	21.636221
2059.000000	21.492572
2058.000000	21.289612
2057.000000	21.093214
2056.000000	20.937802
2055.000000	20.817909
2054.000000	20.613831
2053.000000	20.406207
2052.000000	20.212246
2051.000000	20.036112
2050.000000	19.926817
2049.000000	19.832955
2048.000000	19.752060
2047.000000	19.655852
2046.000000	19.515374
2045.000000	19.432078
2044.000000	19.441833
2043.000000	19.431537
2042.000000	19.434925
2041.000000	19.481149
2040.000000	19.503652
2039.000000	19.523218
2038.000000	19.549902
2037.000000	19.623784
2036.000000	19.715789
2035.000000	19.822855
2034.000000	19.956335
2033.000000	20.100286
2032.000000	20.282255
2031.000000	20.364027
2030.000000	20.498933
2029.000000	20.699111
2028.000000	20.814522
2027.000000	20.924942
2026.000000	21.075079
2025.000000	21.223461
2024.000000	21.344756
2023.000000	21.465005
2022.000000	21.515734
2021.000000	21.544093
2020.000000	21.600424
2019.000000	21.662380
2018.000000	21.721456
2017.000000	21.714845
2016.000000	21.722153
2015.000000	21.738817
2014.000000	21.714113
2013.000000	21.666876
2012.000000	21.611472
2011.000000	21.611858
2010.000000	21.572193
2009.000000	21.480508
2008.000000	21.412151
2007.000000	21.311624
2006.000000	21.189716
2005.000000	21.120703
2004.000000	21.023797
2003.000000	20.904657
2002.000000	20.801327
2001.000000	20.671650
2000.000000	20.521747
1999.000000	20.407168
1998.000000	20.297820
1997.000000	20.204926
1996.000000	20.062839
1995.000000	19.929151
1994.000000	19.789700
1993.000000	19.664399
1992.000000	19.524321
1991.000000	19.384889
1990.000000	19.252288
1989.000000	19.118356
1988.000000	18.982806
1987.000000	18.851410
1986.000000	18.684351
1985.000000	18.579677
1984.000000	18.460463
1983.000000	18.338458
1982.000000	18.234090
1981.000000	18.081676
1980.000000	17.941289
1979.000000	17.809818
1978.000000	17.672186
1977.000000	17.552944
1976.000000	17.439627
1975.000000	17.276935
1974.000000	17.155829
1973.000000	17.069610
1972.000000	16.978069
1971.000000	16.853758
1970.000000	16.684865
1969.000000	16.623377
1968.000000	16.510469
1967.000000	16.391868
1966.000000	16.289829
1965.000000	16.196817
1964.000000	16.041979
1963.000000	15.912008
1962.000000	15.846820
1961.000000	15.715161
1960.000000	15.617442
1959.000000	15.570348
1958.000000	15.464991
1957.000000	15.342486
1956.000000	15.302740
1955.000000	15.194366
1954.000000	15.114943
1953.000000	15.093728
1952.000000	15.029128
1951.000000	15.029825
1950.000000	14.986043
1949.000000	14.912777
1948.000000	14.890696
1947.000000	14.861473
1946.000000	14.857696
1945.000000	14.858913
1944.000000	14.869656
1943.000000	14.886723
1942.000000	14.996426
1941.000000	14.953206
1940.000000	15.054167
1939.000000	15.173771
1938.000000	15.272116
1937.000000	15.407773
1936.000000	15.583497
1935.000000	15.713414
1934.000000	15.720270
1933.000000	16.005602
1932.000000	16.199304
1931.000000	16.356091
1930.000000	16.612098
1929.000000	16.771001
1928.000000	17.035046
1927.000000	17.342606
1926.000000	17.599528
1925.000000	17.907195
1924.000000	18.190624
1923.000000	18.571960
1922.000000	18.850178
1921.000000	19.247371
1920.000000	19.501494
1919.000000	19.959488
1918.000000	20.320980
1917.000000	20.738532
1916.000000	21.028575
1915.000000	21.580142
1914.000000	22.024347
1913.000000	22.493758
1912.000000	22.889513
1911.000000	23.410038
1910.000000	23.909211
1909.000000	24.403807
1908.000000	24.957135
1907.000000	25.507297
1906.000000	26.016200
1905.000000	26.647458
1904.000000	27.168583
1903.000000	27.754889
1902.000000	28.297093
1901.000000	28.886085
1900.000000	29.434885
1899.000000	30.052545
1898.000000	30.701853
1897.000000	31.266427
1896.000000	31.796566
1895.000000	32.363126
1894.000000	32.880197
1893.000000	33.470977
1892.000000	34.037438
1891.000000	34.536744
1890.000000	35.101093
1889.000000	35.562043
1888.000000	36.042067
1887.000000	36.495649
1886.000000	36.957373
1885.000000	37.404868
1884.000000	37.847407
1883.000000	38.304273
1882.000000	38.685010
1881.000000	39.067130
1880.000000	39.427514
1879.000000	39.774879
1878.000000	40.131934
1877.000000	40.429896
1876.000000	40.720950
1875.000000	41.051439
1874.000000	41.320232
1873.000000	41.594438
1872.000000	41.770986
1871.000000	42.022830
1870.000000	42.214574
1869.000000	42.402543
1868.000000	42.583261
1867.000000	42.716225
1866.000000	42.807615
1865.000000	42.912068
1864.000000	43.014447
1863.000000	43.117883
1862.000000	43.170058
1861.000000	43.265326
1860.000000	43.320870
1859.000000	43.378727
1858.000000	43.425039
1857.000000	43.501248
1856.000000	43.548206
1855.000000	43.563120
1854.000000	43.585550
1853.000000	43.636292
1852.000000	43.649449
1851.000000	43.629243
1850.000000	43.611445
1849.000000	43.652420
1848.000000	43.640369
1847.000000	43.680491
1846.000000	43.643811
1845.000000	43.601724
1844.000000	43.622391
1843.000000	43.572476
1842.000000	43.541167
1841.000000	43.492544
1840.000000	43.452826
1839.000000	43.433435
1838.000000	43.357797
1837.000000	43.279000
1836.000000	43.231988
1835.000000	43.183915
1834.000000	43.134222
1833.000000	43.101694
1832.000000	43.052051
1831.000000	42.999242
1830.000000	42.940075
1829.000000	42.882118
1828.000000	42.808299
1827.000000	42.747836
1826.000000	42.708734
1825.000000	42.655668
1824.000000	42.607526
1823.000000	42.574203
1822.000000	42.535835
1821.000000	42.479888
1820.000000	42.437784
1819.000000	42.393891
1818.000000	42.346115
1817.000000	42.298779
1816.000000	42.252013
1815.000000	42.217572
1814.000000	42.180064
1813.000000	42.126313
1812.000000	42.068288
1811.000000	42.014874
1810.000000	41.977810
1809.000000	41.941913
1808.000000	41.896434
1807.000000	41.844408
1806.000000	41.797045
1805.000000	41.754419
1804.000000	41.705542
1803.000000	41.662769
1802.000000	41.630615
1801.000000	41.590000
1800.000000	41.539184
1799.000000	41.512013
1798.000000	41.482313
1797.000000	41.450157
1796.000000	41.416030
1795.000000	41.357922
1794.000000	41.331253
1793.000000	41.318378
1792.000000	41.280887
1791.000000	41.268917
1790.000000	41.246090
1789.000000	41.193434
1788.000000	41.147045
1787.000000	41.129383
1786.000000	41.113665
1785.000000	41.085334
1784.000000	41.038080
1783.000000	40.990667
1782.000000	40.947739
1781.000000	40.909373
1780.000000	40.869245
1779.000000	40.826607
1778.000000	40.767259
1777.000000	40.697244
1776.000000	40.662322
1775.000000	40.624062
1774.000000	40.545019
1773.000000	40.499350
1772.000000	40.421185
1771.000000	40.343335
1770.000000	40.291016
1769.000000	40.225032
1768.000000	40.145668
1767.000000	40.102533
1766.000000	40.041698
1765.000000	39.969958
1764.000000	39.929638
1763.000000	39.838049
1762.000000	39.769442
1761.000000	39.727358
1760.000000	39.661944
1759.000000	39.585143
1758.000000	39.519514
1757.000000	39.463374
1756.000000	39.402431
1755.000000	39.339398
1754.000000	39.281083
1753.000000	39.221234
1752.000000	39.152179
1751.000000	39.076451
1750.000000	39.001608
1749.000000	38.950477
1748.000000	38.869453
1747.000000	38.801232
1746.000000	38.735213
1745.000000	38.631347
1744.000000	38.572647
1743.000000	38.518252
1742.000000	38.453878
1741.000000	38.387927
1740.000000	38.324329
1739.000000	38.272120
1738.000000	38.235151
1737.000000	38.165866
1736.000000	38.144346
1735.000000	38.130325
1734.000000	38.121596
1733.000000	38.095427
1732.000000	38.083181
1731.000000	38.107634
1730.000000	38.113962
1729.000000	38.132988
1728.000000	38.180960
1727.000000	38.246076
1726.000000	38.278429
1725.000000	38.385419
1724.000000	38.490951
1723.000000	38.560282
1722.000000	38.643986
1721.000000	38.787582
1720.000000	38.881494
1719.000000	38.997379
1718.000000	39.076002
1717.000000	39.191787
1716.000000	39.300989
1715.000000	39.371915
1714.000000	39.484176
1713.000000	39.553466
1712.000000	39.649595
1711.000000	39.735181
1710.000000	39.806201
1709.000000	39.836431
1708.000000	39.903898
1707.000000	39.949045
1706.000000	40.014967
1705.000000	40.014845
1704.000000	40.063673
1703.000000	40.070086
1702.000000	40.080727
1701.000000	40.087593
1700.000000	40.111497
1699.000000	40.114122
1698.000000	40.147288
1697.000000	40.181855
1696.000000	40.226517
1695.000000	40.231934
1694.000000	40.239652
1693.000000	40.332888
1692.000000	40.392085
1691.000000	40.444153
1690.000000	40.531739
1689.000000	40.657676
1688.000000	40.740564
1687.000000	40.869759
1686.000000	41.006797
1685.000000	41.143451
1684.000000	41.317516
1683.000000	41.464538
1682.000000	41.677401
1681.000000	41.855486
1680.000000	42.058704
1679.000000	42.260173
1678.000000	42.460403
1677.000000	42.646190
1676.000000	42.838478
1675.000000	43.044736
1674.000000	43.251201
1673.000000	43.437608
1672.000000	43.629722
1671.000000	43.817072
1670.000000	43.999593
1669.000000	44.169537
1668.000000	44.299935
1667.000000	44.473493
1666.000000	44.595482
1665.000000	44.701604
1664.000000	44.800998
1663.000000	44.881311
1662.000000	45.009446
1661.000000	45.086124
1660.000000	45.140730
1659.000000	45.228031
1658.000000	45.285912
1657.000000	45.323783
1656.000000	45.365634
1655.000000	45.392426
1654.000000	45.409058
1653.000000	45.440264
1652.000000	45.441797
1651.000000	45.420704
1650.000000	45.423954
1649.000000	45.413287
1648.000000	45.405610
1647.000000	45.401975
1646.000000	45.365406
1645.000000	45.346201
1644.000000	45.330342
1643.000000	45.306660
1642.000000	45.265565
1641.000000	45.231980
1640.000000	45.176259
1639.000000	45.145968
1638.000000	45.132084
1637.000000	45.086800
1636.000000	45.027863
1635.000000	44.982217
1634.000000	44.937750
1633.000000	44.883725
1632.000000	44.831024
1631.000000	44.776602
1630.000000	44.718844
1629.000000	44.678983
1628.000000	44.599158
1627.000000	44.526350
1626.000000	44.464310
1625.000000	44.409960
1624.000000	44.364999
1623.000000	44.308460
1622.000000	44.232965
1621.000000	44.159918
1620.000000	44.105493
1619.000000	44.046078
1618.000000	43.966056
1617.000000	43.889809
1616.000000	43.825525
1615.000000	43.767660
1614.000000	43.678249
1613.000000	43.597470
1612.000000	43.523773
1611.000000	43.445501
1610.000000	43.383175
1609.000000	43.311514
1608.000000	43.233510
1607.000000	43.151595
1606.000000	43.065168
1605.000000	42.979779
1604.000000	42.906672
1603.000000	42.829440
1602.000000	42.752671
1601.000000	42.672393
1600.000000	42.602136
1599.000000	42.525033
1598.000000	42.440140
1597.000000	42.364373
1596.000000	42.285082
1595.000000	42.226766
1594.000000	42.156802
1593.000000	42.088617
1592.000000	42.025777
1591.000000	41.950612
1590.000000	41.882879
1589.000000	41.816207
1588.000000	41.747940
1587.000000	41.690075
1586.000000	41.638728
1585.000000	41.580823
1584.000000	41.517964
1583.000000	41.458127
1582.000000	41.403359
1581.000000	41.348389
1580.000000	41.287193
1579.000000	41.225234
1578.000000	41.171051
1577.000000	41.108818
1576.000000	41.043021
1575.000000	40.982115
1574.000000	40.927268
1573.000000	40.876452
1572.000000	40.819616
1571.000000	40.756691
1570.000000	40.704410
1569.000000	40.650210
1568.000000	40.596423
1567.000000	40.549774
1566.000000	40.506548
1565.000000	40.463302
1564.000000	40.431539
1563.000000	40.407035
1562.000000	40.358403
1561.000000	40.319545
1560.000000	40.290036
1559.000000	40.257743
1558.000000	40.227375
1557.000000	40.197453
1556.000000	40.159667
1555.000000	40.133150
1554.000000	40.095892
1553.000000	40.057879
1552.000000	40.013384
1551.000000	39.978594
1550.000000	39.929471
1549.000000	39.876366
1548.000000	39.835229
1547.000000	39.774666
1546.000000	39.702195
1545.000000	39.621561
1544.000000	39.546666
1543.000000	39.467516
1542.000000	39.373602
1541.000000	39.285326
1540.000000	39.192316
1539.000000	39.085666
1538.000000	38.976545
1537.000000	38.877404
1536.000000	38.775709
1535.000000	38.678442
1534.000000	38.578567
1533.000000	38.461179
1532.000000	38.355139
1531.000000	38.269093
1530.000000	38.189264
1529.000000	38.143102
1528.000000	38.091026
1527.000000	38.041197
1526.000000	37.961197
1525.000000	37.874009
1524.000000	37.772472
1523.000000	37.663923
1522.000000	37.587519
1521.000000	37.512045
1520.000000	37.471303
1519.000000	37.441290
1518.000000	37.400914
1517.000000	37.332503
1516.000000	37.278216
1515.000000	37.208880
1514.000000	37.166221
1513.000000	37.140605
1512.000000	37.094152
1511.000000	37.075357
1510.000000	37.041849
1509.000000	37.009362
1508.000000	36.956784
1507.000000	36.929013
1506.000000	36.925626
1505.000000	36.922281
1504.000000	36.889116
1503.000000	36.877756
1502.000000	36.842635
1501.000000	36.816618
1500.000000	36.793076
1499.000000	36.769502
1498.000000	36.779438
1497.000000	36.781161
1496.000000	36.786766
1495.000000	36.795376
1494.000000	36.811875
1493.000000	36.834392
1492.000000	36.850330
1491.000000	36.876821
1490.000000	36.886925
1489.000000	36.931558
1488.000000	36.963491
1487.000000	36.993154
1486.000000	37.040993
1485.000000	37.093259
1484.000000	37.131662
1483.000000	37.197070
1482.000000	37.239749
1481.000000	37.312072
1480.000000	37.366444
1479.000000	37.407602
1478.000000	37.461909
1477.000000	37.506508
1476.000000	37.559059
1475.000000	37.618589
1474.000000	37.657227
1473.000000	37.711120
1472.000000	37.764354
1471.000000	37.813515
1470.000000	37.853283
1469.000000	37.902768
1468.000000	37.940023
1467.000000	37.988596
1466.000000	38.051665
1465.000000	38.116385
1464.000000	38.183736
1463.000000	38.224983
1462.000000	38.244231
1461.000000	38.334518
1460.000000	38.392331
1459.000000	38.423337
1458.000000	38.454129
1457.000000	38.530684
1456.000000	38.622184
1455.000000	38.678658
1454.000000	38.743089
1453.000000	38.795056
1452.000000	38.862901
1451.000000	38.959771
1450.000000	39.029447
1449.000000	39.104140
1448.000000	39.170295
1447.000000	39.262656
1446.000000	39.338919
1445.000000	39.435636
1444.000000	39.539065
1443.000000	39.653290
1442.000000	39.726250
1441.000000	39.837313
1440.000000	39.934339
1439.000000	40.040760
1438.000000	40.138020
1437.000000	40.258482
1436.000000	40.391089
1435.000000	40.513601
1434.000000	40.660931
1433.000000	40.804058
1432.000000	40.918878
1431.000000	41.043571
1430.000000	41.195248
1429.000000	41.340771
1428.000000	41.499202
1427.000000	41.660368
1426.000000	41.823138
1425.000000	42.008887
1424.000000	42.182151
1423.000000	42.334466
1422.000000	42.512973
1421.000000	42.742793
1420.000000	42.962144
1419.000000	43.161386
1418.000000	43.354927
1417.000000	43.578493
1416.000000	43.791884
1415.000000	44.018558
1414.000000	44.246177
1413.000000	44.465446
1412.000000	44.714440
1411.000000	44.955358
1410.000000	45.183939
1409.000000	45.415946
1408.000000	45.653098
1407.000000	45.898564
1406.000000	46.127852
1405.000000	46.347592
1404.000000	46.578826
1403.000000	46.815977
1402.000000	47.030245
1401.000000	47.247694
1400.000000	47.455400
1399.000000	47.652536
1398.000000	47.869352
1397.000000	48.081622
1396.000000	48.281749
1395.000000	48.478527
1394.000000	48.667766
1393.000000	48.839685
1392.000000	49.008306
1391.000000	49.189901
1390.000000	49.363023
1389.000000	49.530448
1388.000000	49.686519
1387.000000	49.826351
1386.000000	49.979431
1385.000000	50.137834
1384.000000	50.277890
1383.000000	50.403510
1382.000000	50.523338
1381.000000	50.633683
1380.000000	50.722953
1379.000000	50.807584
1378.000000	50.897447
1377.000000	50.991197
1376.000000	51.061750
1375.000000	51.145083
1374.000000	51.220065
1373.000000	51.281893
1372.000000	51.336001
1371.000000	51.390482
1370.000000	51.453594
1369.000000	51.517586
1368.000000	51.575587
1367.000000	51.632750
1366.000000	51.700951
1365.000000	51.765978
1364.000000	51.832267
1363.000000	51.899520
1362.000000	51.970894
1361.000000	52.065070
1360.000000	52.145164
1359.000000	52.201751
1358.000000	52.244082
1357.000000	52.322597
1356.000000	52.401854
1355.000000	52.456415
1354.000000	52.541040
1353.000000	52.622513
1352.000000	52.691715
1351.000000	52.744769
1350.000000	52.797256
1349.000000	52.875612
1348.000000	52.950636
1347.000000	53.019883
1346.000000	53.074282
1345.000000	53.140550
1344.000000	53.219876
1343.000000	53.302304
1342.000000	53.357879
1341.000000	53.416234
1340.000000	53.477268
1339.000000	53.547542
1338.000000	53.607367
1337.000000	53.650588
1336.000000	53.711066
1335.000000	53.758912
1334.000000	53.820823
1333.000000	53.876561
1332.000000	53.913481
1331.000000	53.952629
1330.000000	53.992272
1329.000000	54.029199
1328.000000	54.070016
1327.000000	54.099563
1326.000000	54.126992
1325.000000	54.158704
1324.000000	54.194289
1323.000000	54.213473
1322.000000	54.210363
1321.000000	54.251986
1320.000000	54.268424
1319.000000	54.295111
1318.000000	54.351442
1317.000000	54.337610
1316.000000	54.340264
1315.000000	54.367131
1314.000000	54.387170
1313.000000	54.412641
1312.000000	54.422376
1311.000000	54.431801
1310.000000	54.441207
1309.000000	54.468964
1308.000000	54.475785
1307.000000	54.506049
1306.000000	54.525944
1305.000000	54.535424
1304.000000	54.532221
1303.000000	54.539569
1302.000000	54.522614
1301.000000	54.542682
1300.000000	54.533047
1299.000000	54.548550
1298.000000	54.570927
1297.000000	54.567951
1296.000000	54.567313
1295.000000	54.544598
1294.000000	54.541328
1293.000000	54.534679
1292.000000	54.518991
1291.000000	54.516991
1290.000000	54.469274
1289.000000	54.452931
1288.000000	54.446152
1287.000000	54.448898
1286.000000	54.430257
1285.000000	54.423465
1284.000000	54.430177
1283.000000	54.419834
1282.000000	54.443368
1281.000000	54.384638
1280.000000	54.386437
1279.000000	54.396379
1278.000000	54.356303
1277.000000	54.374636
1276.000000	54.380932
1275.000000	54.378009
1274.000000	54.395835
1273.000000	54.400351
1272.000000	54.390125
1271.000000	54.382193
1270.000000	54.389366
1269.000000	54.395063
1268.000000	54.386668
1267.000000	54.419448
1266.000000	54.455816
1265.000000	54.421735
1264.000000	54.427891
1263.000000	54.420181
1262.000000	54.445552
1261.000000	54.455389
1260.000000	54.495492
1259.000000	54.487157
1258.000000	54.469405
1257.000000	54.456537
1256.000000	54.463983
1255.000000	54.497517
1254.000000	54.485042
1253.000000	54.517247
1252.000000	54.522269
1251.000000	54.505431
1250.000000	54.492732
1249.000000	54.471831
1248.000000	54.472235
1247.000000	54.449609
1246.000000	54.428526
1245.000000	54.424068
1244.000000	54.394586
1243.000000	54.344552
1242.000000	54.335240
1241.000000	54.315177
1240.000000	54.283348
1239.000000	54.233768
1238.000000	54.211779
1237.000000	54.173941
1236.000000	54.148314
1235.000000	54.124145
1234.000000	54.069533
1233.000000	54.030297
1232.000000	54.018378
1231.000000	53.972460
1230.000000	53.968734
1229.000000	53.933533
1228.000000	53.903637
1227.000000	53.890482
1226.000000	53.862531
1225.000000	53.829007
1224.000000	53.780881
1223.000000	53.786955
1222.000000	53.750281
1221.000000	53.725529
1220.000000	53.696151
1219.000000	53.662947
1218.000000	53.630406
1217.000000	53.619867
1216.000000	53.591628
1215.000000	53.562441
1214.000000	53.519396
1213.000000	53.470216
1212.000000	53.425018
1211.000000	53.362425
1210.000000	53.345143
1209.000000	53.300994
1208.000000	53.230790
1207.000000	53.175333
1206.000000	53.120464
1205.000000	53.060234
1204.000000	53.012179
1203.000000	52.974027
1202.000000	52.937057
1201.000000	52.871741
1200.000000	52.825262
1199.000000	52.769022
1198.000000	52.710257
1197.000000	52.662528
1196.000000	52.628032
1195.000000	52.602569
1194.000000	52.576864
1193.000000	52.531472
1192.000000	52.490866
1191.000000	52.454914
1190.000000	52.404596
1189.000000	52.362476
1188.000000	52.340111
1187.000000	52.334197
1186.000000	52.329704
1185.000000	52.331310
1184.000000	52.327588
1183.000000	52.329280
1182.000000	52.361104
1181.000000	52.393833
1180.000000	52.420958
1179.000000	52.460651
1178.000000	52.506444
1177.000000	52.535807
1176.000000	52.580910
1175.000000	52.641830
1174.000000	52.707607
1173.000000	52.782742
1172.000000	52.863697
1171.000000	52.951565
1170.000000	53.032373
1169.000000	53.102612
1168.000000	53.187039
1167.000000	53.293030
1166.000000	53.398162
1165.000000	53.483387
1164.000000	53.572238
1163.000000	53.665365
1162.000000	53.758555
1161.000000	53.860182
1160.000000	53.950375
1159.000000	54.041902
1158.000000	54.135509
1157.000000	54.219820
1156.000000	54.307505
1155.000000	54.393274
1154.000000	54.467250
1153.000000	54.552072
1152.000000	54.617606
1151.000000	54.669242
1150.000000	54.735401
1149.000000	54.800557
1148.000000	54.865132
1147.000000	54.918624
1146.000000	54.984416
1145.000000	55.049581
1144.000000	55.105376
1143.000000	55.155700
1142.000000	55.215090
1141.000000	55.281054
1140.000000	55.333135
1139.000000	55.378716
1138.000000	55.424802
1137.000000	55.465073
1136.000000	55.525420
1135.000000	55.566290
1134.000000	55.612071
1133.000000	55.657158
1132.000000	55.697856
1131.000000	55.744483
1130.000000	55.780880
1129.000000	55.818092
1128.000000	55.857223
1127.000000	55.909781
1126.000000	55.931388
1125.000000	55.934148
1124.000000	55.946262
1123.000000	55.967324
1122.000000	55.990871
1121.000000	56.010278
1120.000000	56.006286
1119.000000	56.015286
1118.000000	56.044699
1117.000000	56.050087
1116.000000	56.040677
1115.000000	56.018976
1114.000000	56.010402
1113.000000	56.020732
1112.000000	56.030726
1111.000000	56.030049
1110.000000	56.043488
1109.000000	56.060186
1108.000000	56.070793
1107.000000	56.057086
1106.000000	56.057364
1105.000000	56.065601
1104.000000	56.067413
1103.000000	56.074767
1102.000000	56.064129
1101.000000	56.070856
1100.000000	56.074323
1099.000000	56.061454
1098.000000	56.045359
1097.000000	56.037209
1096.000000	56.035831
1095.000000	56.032970
1094.000000	56.034810
1093.000000	56.033263
1092.000000	56.048423
1091.000000	56.026220
1090.000000	56.029001
1089.000000	56.015973
1088.000000	56.008862
1087.000000	56.009433
1086.000000	56.001308
1085.000000	56.014624
1084.000000	55.990172
1083.000000	55.971624
1082.000000	55.982334
1081.000000	55.968417
1080.000000	55.948308
1079.000000	55.950854
1078.000000	55.923019
1077.000000	55.911523
1076.000000	55.922766
1075.000000	55.887217
1074.000000	55.904183
1073.000000	55.894789
1072.000000	55.876769
1071.000000	55.858352
1070.000000	55.834313
1069.000000	55.847745
1068.000000	55.821820
1067.000000	55.819072
1066.000000	55.811313
1065.000000	55.786953
1064.000000	55.798461
1063.000000	55.773353
1062.000000	55.755970
1061.000000	55.750920
1060.000000	55.725376
1059.000000	55.713265
1058.000000	55.700603
1057.000000	55.701001
1056.000000	55.670732
1055.000000	55.658305
1054.000000	55.657799
1053.000000	55.650762
1052.000000	55.619335
1051.000000	55.607355
1050.000000	55.588321
1049.000000	55.584500
1048.000000	55.570474
1047.000000	55.564645
1046.000000	55.543423
1045.000000	55.524247
1044.000000	55.509853
1043.000000	55.507841
1042.000000	55.512072
1041.000000	55.485788
1040.000000	55.484333
1039.000000	55.481398
1038.000000	55.463843
1037.000000	55.454474
1036.000000	55.441992
1035.000000	55.434880
1034.000000	55.449335
1033.000000	55.449931
1032.000000	55.420071
1031.000000	55.433288
1030.000000	55.433066
1029.000000	55.414739
1028.000000	55.395768
1027.000000	55.403931
1026.000000	55.399698
1025.000000	55.373789
1024.000000	55.377678
1023.000000	55.387196
1022.000000	55.393005
1021.000000	55.367627
1020.000000	55.381896
1019.000000	55.380816
1018.000000	55.361590
1017.000000	55.369159
1016.000000	55.385062
1015.000000	55.402294
1014.000000	55.386932
1013.000000	55.391965
1012.000000	55.381731
1011.000000	55.385598
1010.000000	55.394712
1009.000000	55.386108
1008.000000	55.393467
1007.000000	55.403581
1006.000000	55.404633
1005.000000	55.403750
1004.000000	55.417684
1003.000000	55.429583
1002.000000	55.396538
1001.000000	55.408959
1000.000000	55.424238
999.000000	55.436808
998.000000	55.439894
997.000000	55.428902
996.000000	55.443620
995.000000	55.457517
994.000000	55.454088
993.000000	55.447396
992.000000	55.453153
991.000000	55.480806
990.000000	55.484550
989.000000	55.491692
988.000000	55.486437
987.000000	55.497780
986.000000	55.505243
985.000000	55.518439
984.000000	55.533896
983.000000	55.553725
982.000000	55.570955
981.000000	55.587273
980.000000	55.596811
979.000000	55.603953
978.000000	55.624692
977.000000	55.634550
976.000000	55.635313
975.000000	55.641351
974.000000	55.646496
973.000000	55.665791
972.000000	55.659843
971.000000	55.672925
970.000000	55.692531
969.000000	55.690541
968.000000	55.700983
967.000000	55.723080
966.000000	55.730025
965.000000	55.727129
964.000000	55.737735
963.000000	55.749057
962.000000	55.755383
961.000000	55.751746
960.000000	55.758396
959.000000	55.762993
958.000000	55.772039
957.000000	55.777675
956.000000	55.787456
955.000000	55.787503
954.000000	55.795166
953.000000	55.798923
952.000000	55.789910
951.000000	55.810997
950.000000	55.831253
949.000000	55.833595
948.000000	55.835408
947.000000	55.838716
946.000000	55.841535
945.000000	55.852401
944.000000	55.853560
943.000000	55.839343
942.000000	55.844896
941.000000	55.838819
940.000000	55.840846
939.000000	55.842300
938.000000	55.820899
937.000000	55.831560
936.000000	55.855323
935.000000	55.847140
934.000000	55.837740
933.000000	55.833899
932.000000	55.821513
931.000000	55.804218
930.000000	55.797472
929.000000	55.799994
928.000000	55.797361
927.000000	55.781984
926.000000	55.772109
925.000000	55.765115
924.000000	55.758518
923.000000	55.737202
922.000000	55.724196
921.000000	55.707616
920.000000	55.691918
919.000000	55.693156
918.000000	55.679740
917.000000	55.685992
916.000000	55.701381
915.000000	55.696364
914.000000	55.702460
913.000000	55.697942
912.000000	55.680943
911.000000	55.659724
910.000000	55.641549
909.000000	55.665979
908.000000	55.673644
907.000000	55.669531
906.000000	55.647701
905.000000	55.650404
904.000000	55.666092
903.000000	55.674563
902.000000	55.712308
901.000000	55.681850
900.000000	55.663875
899.000000	55.638923
898.000000	55.688036
897.000000	55.673318
896.000000	55.689984
895.000000	55.684567
894.000000	55.682803
893.000000	55.684676
892.000000	55.685021
891.000000	55.708254
890.000000	55.717797
889.000000	55.690984
888.000000	55.690100
887.000000	55.734336
886.000000	55.748089
885.000000	55.666721
884.000000	55.675252
883.000000	55.678430
882.000000	55.719054
881.000000	55.697782
880.000000	55.753849
879.000000	55.773466
878.000000	55.699762
877.000000	55.720768
876.000000	55.697378
875.000000	55.762662
874.000000	55.819986
873.000000	55.707812
872.000000	55.669049
871.000000	55.738021
870.000000	55.647938
869.000000	55.712329
868.000000	55.772182
867.000000	55.693756
866.000000	55.704070
865.000000	55.611972
864.000000	55.631994
863.000000	55.665283
862.000000	55.576320
861.000000	55.639712
860.000000	55.754952
859.000000	55.716130
858.000000	56.066552
857.000000	55.919668
856.000000	55.773982
855.000000	56.025426
854.000000	55.948829
853.000000	55.835536
852.000000	55.638963
851.000000	55.505715
850.000000	55.934869
849.000000	55.927387
848.000000	55.979402
847.000000	55.848731
846.000000	55.720276
845.000000	55.595234
844.000000	55.765528
843.000000	55.954678
842.000000	55.679015
841.000000	55.865215
840.000000	55.700103
839.000000	55.861068
838.000000	55.616200
837.000000	55.706421
836.000000	55.548561
835.000000	55.681192
834.000000	55.871092
833.000000	55.601882
832.000000	55.791012
831.000000	55.659461
830.000000	55.687213
829.000000	55.752194
828.000000	55.732877
827.000000	55.636895
826.000000	55.492773
825.000000	55.438857
824.000000	55.582829
823.000000	55.453824
822.000000	55.670506
821.000000	55.587533
820.000000	55.560830
819.000000	55.583825
818.000000	55.467858
817.000000	55.479833
816.000000	55.554073
815.000000	55.489882
814.000000	55.556736
813.000000	55.465417
812.000000	55.464772
811.000000	55.308825
810.000000	55.453252
809.000000	55.614550
808.000000	55.465548
807.000000	55.597147
806.000000	55.307389
805.000000	55.329513
804.000000	55.451775
803.000000	55.403031
802.000000	55.347546
801.000000	55.335984
800.000000	55.286514
799.000000	55.274813
798.000000	55.292789
797.000000	55.386976
796.000000	55.300915
795.000000	55.322923
794.000000	55.351282
793.000000	55.291682
792.000000	55.245922
791.000000	55.235083
790.000000	55.183936
789.000000	55.230799
788.000000	55.174647
787.000000	55.265317
786.000000	55.203474
785.000000	55.213014
784.000000	55.130659
783.000000	55.065514
782.000000	55.161863
781.000000	55.167060
780.000000	55.104219
779.000000	55.086668
778.000000	55.078861
777.000000	55.080931
776.000000	54.980902
775.000000	55.014712
774.000000	55.015854
773.000000	55.025906
772.000000	55.009349
771.000000	54.999272
770.000000	54.945037
769.000000	54.936147
768.000000	54.913812
767.000000	54.953155
766.000000	54.965665
765.000000	54.877186
764.000000	54.867345
763.000000	54.914765
762.000000	54.900092
761.000000	54.839973
760.000000	54.797970
759.000000	54.768223
758.000000	54.745773
757.000000	54.761182
756.000000	54.717813
755.000000	54.728154
754.000000	54.679637
753.000000	54.682939
752.000000	54.601122
751.000000	54.614104
750.000000	54.680677
749.000000	54.660381
748.000000	54.589982
747.000000	54.550994
746.000000	54.487946
745.000000	54.560162
744.000000	54.618056
743.000000	54.496765
742.000000	54.450680
741.000000	54.506241
740.000000	54.442084
739.000000	54.410242
738.000000	54.387120
737.000000	54.404619
736.000000	54.378447
735.000000	54.326241
734.000000	54.345081
733.000000	54.385825
732.000000	54.346088
731.000000	54.306008
730.000000	54.252942
729.000000	54.225604
728.000000	54.200032
727.000000	54.234107
726.000000	54.215229
725.000000	54.151927
724.000000	54.114213
723.000000	54.110314
722.000000	54.168822
721.000000	54.150930
720.000000	54.106547
719.000000	54.095115
718.000000	54.049053
717.000000	54.011592
716.000000	53.942016
715.000000	53.934735
714.000000	53.954773
713.000000	53.927874
712.000000	53.917926
711.000000	53.870081
710.000000	53.764274
709.000000	53.786945
708.000000	53.799210
707.000000	53.756698
706.000000	53.715514
705.000000	53.696914
704.000000	53.662060
703.000000	53.641985
702.000000	53.594066
701.000000	53.516969
700.000000	53.499682
699.000000	53.509590
698.000000	53.515465
697.000000	53.462296
696.000000	53.420469
695.000000	53.405399
694.000000	53.403716
693.000000	53.350672
692.000000	53.291433
691.000000	53.283257
690.000000	53.231655
689.000000	53.124659
688.000000	53.088076
687.000000	53.072564
686.000000	53.074921
685.000000	53.012396
684.000000	52.922127
683.000000	52.897383
682.000000	52.864826
681.000000	52.844637
680.000000	52.794934
679.000000	52.788203
678.000000	52.752180
677.000000	52.706986
676.000000	52.664364
675.000000	52.640198
674.000000	52.613227
673.000000	52.579333
672.000000	52.552704
671.000000	52.478969
670.000000	52.410990
669.000000	52.398518
668.000000	52.347048
667.000000	52.317072
666.000000	52.283732
665.000000	52.242799
664.000000	52.211491
663.000000	52.187546
662.000000	52.119480
661.000000	52.102688
660.000000	52.003602
659.000000	51.954477
658.000000	51.909533
657.000000	51.905044
656.000000	51.833924
655.000000	51.743348
654.000000	51.731991
653.000000	51.732295
652.000000	51.647214
651.000000	51.549689
650.000000	51.516738
649.000000	51.466295
648.000000	51.426809
647.000000	51.385225
646.000000	51.341587
645.000000	51.292978
644.000000	51.244588
643.000000	51.164555
642.000000	51.114479
641.000000	51.067346
640.000000	51.028855
639.000000	50.973728
638.000000	50.881702
637.000000	50.841876
636.000000	50.774847
635.000000	50.692427
634.000000	50.668749
633.000000	50.657618
632.000000	50.547835
631.000000	50.515641
630.000000	50.530234
629.000000	50.385178
628.000000	50.309684
627.000000	50.243753
626.000000	50.226763
625.000000	50.187141
624.000000	50.152860
623.000000	50.083281
622.000000	49.989017
621.000000	49.945540
620.000000	49.896873
619.000000	49.842551
618.000000	49.839205
617.000000	49.846639
616.000000	49.720487
615.000000	49.678653
614.000000	49.593577
613.000000	49.528013
612.000000	49.491524
611.000000	49.427539
610.000000	49.397262
609.000000	49.306890
608.000000	49.243495
607.000000	49.206965
606.000000	49.124868
605.000000	49.118257
604.000000	49.063061
603.000000	49.000821
602.000000	48.893657
601.000000	48.885436
600.000000	48.835977
599.000000	48.752012
598.000000	48.754770
597.000000	48.703281
596.000000	48.626719
595.000000	48.561131
594.000000	48.517898
593.000000	48.402899
592.000000	48.385207
591.000000	48.286518
590.000000	48.230532
589.000000	48.216392
588.000000	48.168098
587.000000	48.124048
586.000000	47.999222
585.000000	47.993151
584.000000	47.864068
583.000000	47.853658
582.000000	47.775619
581.000000	47.753824
580.000000	47.662866
579.000000	47.631910
578.000000	47.506985
577.000000	47.498551
576.000000	47.412839
575.000000	47.365981
574.000000	47.270958
573.000000	47.206237
572.000000	47.168604
571.000000	47.071358
570.000000	47.061682
569.000000	47.039169
568.000000	46.900072
567.000000	46.870124
566.000000	46.861138
565.000000	46.802041
564.000000	46.702648
563.000000	46.650731
562.000000	46.580125
561.000000	46.539308
560.000000	46.480122
559.000000	46.422809
558.000000	46.349432
557.000000	46.300172
556.000000	46.245380
555.000000	46.183672
554.000000	46.125243
553.000000	46.090667
552.000000	45.994067
551.000000	45.937869
550.000000	45.844907
549.000000	45.747640
548.000000	45.710069
547.000000	45.641683
546.000000	45.546779
545.000000	45.520677
544.000000	45.444271
543.000000	45.363170
542.000000	45.296418
541.000000	45.257046
540.000000	45.134718
539.000000	45.070534
538.000000	45.013615
537.000000	44.940543
536.000000	44.857688
535.000000	44.806688
534.000000	44.692708
533.000000	44.590083
532.000000	44.520988
531.000000	44.518087
530.000000	44.409954
529.000000	44.363075
528.000000	44.244835
527.000000	44.187473
526.000000	44.171605
525.000000	44.111548
524.000000	43.974968
523.000000	43.918410
522.000000	43.849766
521.000000	43.776832
520.000000	43.687064
519.000000	43.585084
518.000000	43.512089
517.000000	43.439232
516.000000	43.337034
515.000000	43.279075
514.000000	43.216382
513.000000	43.114236
512.000000	43.044388
511.000000	42.987655
510.000000	42.868653
509.000000	42.792934
508.000000	42.691703
507.000000	42.619149
506.000000	42.489228
505.000000	42.419426
504.000000	42.332129
503.000000	42.219895
502.000000	42.125832
501.000000	42.014316
500.000000	41.915793
499.000000	41.817722
498.000000	41.715303
497.000000	41.629476
496.000000	41.474230
495.000000	41.315637
494.000000	41.208917
493.000000	41.150071
492.000000	41.020443
491.000000	40.903726
490.000000	40.762143
489.000000	40.637438
488.000000	40.506954
487.000000	40.398126
486.000000	40.289346
485.000000	40.146331
484.000000	40.021876
483.000000	39.913190
482.000000	39.790640
481.000000	39.669240
480.000000	39.515496
479.000000	39.344782
478.000000	39.194488
477.000000	39.064085
476.000000	38.905790
475.000000	38.742719
474.000000	38.580803
473.000000	38.454479
472.000000	38.305512
471.000000	38.123561
470.000000	37.979537
469.000000	37.821911
468.000000	37.650677
467.000000	37.483115
466.000000	37.305024
465.000000	37.126288
464.000000	36.956317
463.000000	36.770603
462.000000	36.554276
461.000000	36.396219
460.000000	36.202634
459.000000	35.987976
458.000000	35.809601
457.000000	35.610149
456.000000	35.416931
455.000000	35.218340
454.000000	35.012240
453.000000	34.787926
452.000000	34.585409
451.000000	34.359591
450.000000	34.159051
449.000000	33.964957
448.000000	33.718159
447.000000	33.482402
446.000000	33.273851
445.000000	33.058153
444.000000	32.826571
443.000000	32.584238
442.000000	32.337839
441.000000	32.088195
440.000000	31.884461
439.000000	31.634503
438.000000	31.386947
437.000000	31.123484
436.000000	30.875119
435.000000	30.645851
434.000000	30.398030
433.000000	30.130289
432.000000	29.854380
431.000000	29.586715
430.000000	29.335891
429.000000	29.048652
428.000000	28.772373
427.000000	28.481711
426.000000	28.229047
425.000000	27.967749
424.000000	27.680209
423.000000	27.367462
422.000000	27.094976
421.000000	26.848024
420.000000	26.596317
419.000000	26.301854
418.000000	26.045535
417.000000	25.764527
416.000000	25.510038
415.000000	25.273514
414.000000	25.045076
413.000000	24.835915
412.000000	24.630894
411.000000	24.474057
410.000000	24.320382
409.000000	24.147443
408.000000	23.994322
407.000000	23.869101
406.000000	23.772816
405.000000	23.659553
404.000000	23.591106
403.000000	23.505075
402.000000	23.400574
401.000000	23.322782
400.000000	23.238088
399.000000	23.125624
398.000000	23.030224
397.000000	22.936883
396.000000	22.846842
395.000000	22.748567
394.000000	22.644059
393.000000	22.519486
392.000000	22.414766
391.000000	22.321208
390.000000	22.189735
389.000000	22.093001
388.000000	21.945625
387.000000	21.758498
386.000000	21.620644
385.000000	21.453566
384.000000	21.261851
383.000000	21.102621
382.000000	20.932935
381.000000	20.713017
380.000000	20.529027
379.000000	20.351647
378.000000	20.175828
377.000000	19.967028
376.000000	19.795169
375.000000	19.542862
374.000000	19.264501
373.000000	19.127489
372.000000	18.879891
371.000000	18.663777
370.000000	18.371706
369.000000	18.254160
368.000000	17.948010
367.000000	17.762706
366.000000	17.503343
365.000000	17.314207
364.000000	17.137069
363.000000	16.956289
362.000000	16.708683
361.000000	16.496257
360.000000	16.252817
359.000000	16.048528
358.000000	15.827064
357.000000	15.596673
356.000000	15.345204
355.000000	15.143265
354.000000	14.910670
353.000000	14.799386
352.000000	14.527565
351.000000	14.303076
350.000000	14.194142
349.000000	13.969149
348.000000	13.733427
347.000000	13.597223
346.000000	13.404258
345.000000	13.186058
344.000000	13.094437
343.000000	12.848067
342.000000	12.682097
341.000000	12.535057
340.000000	12.303908
339.000000	12.144432
338.000000	11.977872
337.000000	11.857021
336.000000	11.624046
335.000000	11.468329
334.000000	11.244391
333.000000	11.173852
332.000000	11.046399
331.000000	10.849455
330.000000	10.710573
329.000000	10.568097
328.000000	10.466949
327.000000	10.279028
326.000000	10.234428
325.000000	10.052858
324.000000	9.943417
323.000000	9.828912
322.000000	9.645524
321.000000	9.539627
320.000000	9.379618
319.000000	9.267333
318.000000	9.174907
317.000000	9.050532
316.000000	8.904243
315.000000	8.735461
314.000000	8.532237
313.000000	8.402921
312.000000	8.201254
311.000000	8.062538
310.000000	7.802045
309.000000	7.644745
308.000000	7.434505
307.000000	7.202586
306.000000	6.981113
305.000000	6.831891
304.000000	6.636994
303.000000	6.422930
302.000000	6.157427
301.000000	5.917535
300.000000	5.647501
299.000000	5.351240
298.000000	5.087097
297.000000	4.737845
296.000000	4.355395
295.000000	3.958657
294.000000	3.527711
293.000000	3.085089
292.000000	2.674101
291.000000	2.289489
290.000000	2.016467
289.000000	1.812521
288.000000	1.676205
287.000000	1.596465
286.000000	1.561328
285.000000	1.527724
284.000000	1.543654
283.000000	1.557111
282.000000	1.581611
281.000000	1.593328
280.000000	1.602402
279.000000	1.633269
278.000000	1.654048
277.000000	1.683682
276.000000	1.717457
275.000000	1.757939
274.000000	1.803232
273.000000	1.865994
272.000000	1.906891
271.000000	1.910169
270.000000	1.915377
269.000000	1.934320
268.000000	1.976699
267.000000	2.018212
266.000000	2.055671
265.000000	2.092965
264.000000	2.142321
263.000000	2.217895
262.000000	2.266470
261.000000	2.285316
260.000000	2.311832
259.000000	2.329231
258.000000	2.384101
257.000000	2.446144
256.000000	2.489022
255.000000	2.503387
254.000000	2.491545
253.000000	2.443205
252.000000	2.417675
251.000000	2.364984
250.000000	2.290745
249.000000	2.168354
248.000000	2.021067
247.000000	1.902640
246.000000	1.753780
245.000000	1.571739
244.000000	1.413903
243.000000	1.272770
242.000000	1.148246
241.000000	1.016600
240.000000	0.902141
239.000000	0.818959
238.000000	0.768067
237.000000	0.710361
236.000000	0.657042
235.000000	0.617310
234.000000	0.595144
233.000000	0.560765
232.000000	0.514898
231.000000	0.490361
230.000000	0.455432
229.000000	0.423218
228.000000	0.393388
227.000000	0.338490
226.000000	0.318019
225.000000	0.297092
224.000000	0.270032
223.000000	0.251213
222.000000	0.235299
221.000000	0.225605
220.000000	0.213036
219.000000	0.202239
218.000000	0.189446
217.000000	0.167915
216.000000	0.180637
215.000000	0.178998
214.000000	0.179323
213.000000	0.162648
212.000000	0.134041
211.000000	0.136158
210.000000	0.148812
209.000000	0.168811
208.000000	0.171247
207.000000	0.167685
206.000000	0.154409
205.000000	0.174257
204.000000	0.162475
203.000000	0.143791
202.000000	0.152389
201.000000	0.238937
200.000000	0.274461
