PE UV       SUBTECH     SPECTRUM    ASCII       PEDS        4.00        
   -1
TTgVeauUK 62.Sample.asc
18/03/08
10:07:57.00
18/03/08
10:07:57.00
Administrator

200.000000
1
Lambda 750
750N8071901
PerkinElmer UV WinLab 6.0.4.0738 / 1.61.00 Lambda 900

0
0
3350/servo 860.8/2
0
0
UV/VIS
1
1
1
CommonBeamDepol,150mm sphere / downward view
0
0
0
0
Program
Program
3350/servo 860.8/2
3350/0.2 860.8/0.2
3350/0.2 860.8/0.2
0
1
 
 
 
0
 
860.8
319.2
860.8
Front
100
on
 
 
0
0
0
 
0
 
 
 
0
 
 
0
0
0
0
0
 
 
 
 
0
0


0
0
#HDR
-1
-1
#GR
nm
%T
1.0
0.0
2350.000000
-1.000000
2151
8
49.398834
0.069768
#DATA
2350.000000	12.923242
2349.000000	12.986970
2348.000000	12.914635
2347.000000	13.060033
2346.000000	12.902028
2345.000000	12.356660
2344.000000	12.480986
2343.000000	12.559834
2342.000000	12.723098
2341.000000	12.530194
2340.000000	12.908371
2339.000000	13.239245
2338.000000	13.250300
2337.000000	13.314190
2336.000000	13.447807
2335.000000	13.673608
2334.000000	13.508265
2333.000000	13.714807
2332.000000	13.676258
2331.000000	13.666259
2330.000000	13.622663
2329.000000	13.655556
2328.000000	13.214192
2327.000000	13.076454
2326.000000	13.179256
2325.000000	13.416081
2324.000000	13.393867
2323.000000	13.330677
2322.000000	13.118566
2321.000000	13.144230
2320.000000	13.251177
2319.000000	13.048939
2318.000000	12.854441
2317.000000	13.155067
2316.000000	13.038395
2315.000000	12.884767
2314.000000	12.855434
2313.000000	12.628316
2312.000000	12.344338
2311.000000	12.556779
2310.000000	12.550512
2309.000000	12.485882
2308.000000	12.361536
2307.000000	12.592123
2306.000000	12.552644
2305.000000	12.142613
2304.000000	12.072010
2303.000000	12.210604
2302.000000	12.124654
2301.000000	12.065652
2300.000000	11.901001
2299.000000	11.629379
2298.000000	11.382667
2297.000000	11.374372
2296.000000	11.540254
2295.000000	11.320489
2294.000000	11.368573
2293.000000	11.373234
2292.000000	11.266717
2291.000000	11.400502
2290.000000	11.174403
2289.000000	11.089089
2288.000000	11.234045
2287.000000	11.150285
2286.000000	10.888370
2285.000000	10.723917
2284.000000	10.911461
2283.000000	10.886612
2282.000000	10.794247
2281.000000	10.878962
2280.000000	10.883197
2279.000000	10.777580
2278.000000	10.818882
2277.000000	10.813350
2276.000000	10.822061
2275.000000	10.746372
2274.000000	10.885485
2273.000000	11.066108
2272.000000	10.990813
2271.000000	10.922271
2270.000000	11.088453
2269.000000	11.040667
2268.000000	11.135061
2267.000000	11.225182
2266.000000	11.372407
2265.000000	11.501630
2264.000000	11.590179
2263.000000	11.746451
2262.000000	11.817088
2261.000000	11.932886
2260.000000	12.130714
2259.000000	12.312035
2258.000000	12.570856
2257.000000	12.813908
2256.000000	12.868916
2255.000000	12.933057
2254.000000	13.141527
2253.000000	13.272206
2252.000000	13.507110
2251.000000	13.802618
2250.000000	13.993535
2249.000000	14.215354
2248.000000	14.409556
2247.000000	14.551783
2246.000000	14.705948
2245.000000	14.975579
2244.000000	15.272301
2243.000000	15.412702
2242.000000	15.531998
2241.000000	15.575857
2240.000000	15.637734
2239.000000	15.810997
2238.000000	15.852039
2237.000000	16.013597
2236.000000	16.277427
2235.000000	16.380329
2234.000000	16.459884
2233.000000	16.497688
2232.000000	16.420921
2231.000000	16.534289
2230.000000	16.637497
2229.000000	16.801085
2228.000000	16.894973
2227.000000	16.772693
2226.000000	16.658237
2225.000000	16.558997
2224.000000	16.551597
2223.000000	16.558355
2222.000000	16.601502
2221.000000	16.576566
2220.000000	16.564742
2219.000000	16.523413
2218.000000	16.476415
2217.000000	16.411099
2216.000000	16.372642
2215.000000	16.362212
2214.000000	16.400628
2213.000000	16.298875
2212.000000	16.190210
2211.000000	16.138249
2210.000000	15.976383
2209.000000	15.916962
2208.000000	15.803967
2207.000000	15.765834
2206.000000	15.804385
2205.000000	15.741371
2204.000000	15.526609
2203.000000	15.503925
2202.000000	15.476582
2201.000000	15.421504
2200.000000	15.375250
2199.000000	15.384857
2198.000000	15.219596
2197.000000	15.133072
2196.000000	14.958394
2195.000000	14.756584
2194.000000	14.658167
2193.000000	14.648812
2192.000000	14.674408
2191.000000	14.590122
2190.000000	14.583869
2189.000000	14.505940
2188.000000	14.346470
2187.000000	14.311544
2186.000000	14.276147
2185.000000	14.244007
2184.000000	14.215962
2183.000000	14.172851
2182.000000	14.213726
2181.000000	14.165565
2180.000000	14.089440
2179.000000	13.985292
2178.000000	13.808299
2177.000000	13.879711
2176.000000	13.969117
2175.000000	14.001574
2174.000000	13.979715
2173.000000	13.980693
2172.000000	14.064537
2171.000000	14.159279
2170.000000	14.132298
2169.000000	14.220504
2168.000000	14.466583
2167.000000	14.316471
2166.000000	14.434094
2165.000000	14.543354
2164.000000	14.606179
2163.000000	14.712591
2162.000000	14.844808
2161.000000	14.877623
2160.000000	15.057622
2159.000000	15.078160
2158.000000	15.121167
2157.000000	15.502112
2156.000000	15.447191
2155.000000	15.447031
2154.000000	15.779908
2153.000000	15.958244
2152.000000	15.921449
2151.000000	15.912883
2150.000000	16.185065
2149.000000	16.414760
2148.000000	16.489999
2147.000000	16.553506
2146.000000	16.834674
2145.000000	17.002373
2144.000000	17.047123
2143.000000	17.133378
2142.000000	17.317254
2141.000000	17.563926
2140.000000	17.645000
2139.000000	17.633493
2138.000000	17.902101
2137.000000	18.032770
2136.000000	17.975889
2135.000000	18.392944
2134.000000	18.170516
2133.000000	18.151371
2132.000000	18.356823
2131.000000	18.421257
2130.000000	18.557006
2129.000000	18.670335
2128.000000	18.658892
2127.000000	18.647382
2126.000000	18.682821
2125.000000	18.758893
2124.000000	18.891341
2123.000000	18.978955
2122.000000	18.871741
2121.000000	18.972005
2120.000000	19.133930
2119.000000	19.005839
2118.000000	19.102230
2117.000000	19.056259
2116.000000	19.209065
2115.000000	19.414813
2114.000000	19.314965
2113.000000	19.339138
2112.000000	19.337079
2111.000000	19.231022
2110.000000	19.350998
2109.000000	19.388957
2108.000000	19.316539
2107.000000	19.481406
2106.000000	19.427358
2105.000000	19.410734
2104.000000	19.407519
2103.000000	19.452150
2102.000000	19.452963
2101.000000	19.458739
2100.000000	19.486973
2099.000000	19.462431
2098.000000	19.470355
2097.000000	19.465767
2096.000000	19.414764
2095.000000	19.397287
2094.000000	19.453390
2093.000000	19.440531
2092.000000	19.521384
2091.000000	19.479391
2090.000000	19.297581
2089.000000	19.325695
2088.000000	19.355899
2087.000000	19.306220
2086.000000	19.294025
2085.000000	19.230213
2084.000000	19.151105
2083.000000	19.124278
2082.000000	19.006030
2081.000000	18.908427
2080.000000	18.840521
2079.000000	18.788133
2078.000000	18.740672
2077.000000	18.594308
2076.000000	18.447979
2075.000000	18.361279
2074.000000	18.242002
2073.000000	18.129489
2072.000000	18.036638
2071.000000	17.971262
2070.000000	17.849943
2069.000000	17.703006
2068.000000	17.462156
2067.000000	17.392894
2066.000000	17.224312
2065.000000	17.017814
2064.000000	16.892928
2063.000000	16.748970
2062.000000	16.612753
2061.000000	16.492614
2060.000000	16.335775
2059.000000	16.124921
2058.000000	16.025128
2057.000000	15.897163
2056.000000	15.706338
2055.000000	15.561574
2054.000000	15.436824
2053.000000	15.278760
2052.000000	15.172788
2051.000000	15.056857
2050.000000	14.937619
2049.000000	14.842183
2048.000000	14.736881
2047.000000	14.666456
2046.000000	14.594216
2045.000000	14.505319
2044.000000	14.498527
2043.000000	14.530438
2042.000000	14.518480
2041.000000	14.542838
2040.000000	14.608888
2039.000000	14.606813
2038.000000	14.594078
2037.000000	14.672983
2036.000000	14.721028
2035.000000	14.805732
2034.000000	14.914218
2033.000000	14.979554
2032.000000	15.129731
2031.000000	15.215165
2030.000000	15.295453
2029.000000	15.452130
2028.000000	15.594591
2027.000000	15.708767
2026.000000	15.848614
2025.000000	15.937889
2024.000000	15.974030
2023.000000	16.071110
2022.000000	16.154936
2021.000000	16.202301
2020.000000	16.235272
2019.000000	16.238640
2018.000000	16.270558
2017.000000	16.325161
2016.000000	16.323359
2015.000000	16.319900
2014.000000	16.354909
2013.000000	16.295801
2012.000000	16.219870
2011.000000	16.224377
2010.000000	16.181048
2009.000000	16.086088
2008.000000	16.048142
2007.000000	15.979122
2006.000000	15.881979
2005.000000	15.844463
2004.000000	15.737498
2003.000000	15.616719
2002.000000	15.516253
2001.000000	15.425423
2000.000000	15.328157
1999.000000	15.245385
1998.000000	15.139661
1997.000000	15.042773
1996.000000	14.911619
1995.000000	14.829493
1994.000000	14.722842
1993.000000	14.630079
1992.000000	14.528345
1991.000000	14.420202
1990.000000	14.316171
1989.000000	14.205182
1988.000000	14.080731
1987.000000	13.994821
1986.000000	13.901820
1985.000000	13.781948
1984.000000	13.679559
1983.000000	13.579298
1982.000000	13.528617
1981.000000	13.438700
1980.000000	13.270875
1979.000000	13.155203
1978.000000	13.045643
1977.000000	12.965058
1976.000000	12.877207
1975.000000	12.796619
1974.000000	12.691726
1973.000000	12.598008
1972.000000	12.533412
1971.000000	12.460352
1970.000000	12.319512
1969.000000	12.227994
1968.000000	12.143193
1967.000000	12.056046
1966.000000	11.993653
1965.000000	11.929435
1964.000000	11.808621
1963.000000	11.758454
1962.000000	11.678958
1961.000000	11.546237
1960.000000	11.495433
1959.000000	11.437570
1958.000000	11.347791
1957.000000	11.250174
1956.000000	11.201862
1955.000000	11.150543
1954.000000	11.131908
1953.000000	11.082267
1952.000000	11.033250
1951.000000	11.046855
1950.000000	11.020650
1949.000000	10.966335
1948.000000	10.954607
1947.000000	10.936338
1946.000000	10.925228
1945.000000	10.910530
1944.000000	10.937946
1943.000000	10.993416
1942.000000	11.026877
1941.000000	11.095407
1940.000000	11.085589
1939.000000	11.173580
1938.000000	11.233963
1937.000000	11.370041
1936.000000	11.454115
1935.000000	11.566582
1934.000000	11.664457
1933.000000	11.776168
1932.000000	11.866186
1931.000000	12.030677
1930.000000	12.277718
1929.000000	12.395966
1928.000000	12.618045
1927.000000	12.841604
1926.000000	13.023346
1925.000000	13.299190
1924.000000	13.530858
1923.000000	13.681380
1922.000000	13.979315
1921.000000	14.296518
1920.000000	14.529811
1919.000000	14.777702
1918.000000	15.130282
1917.000000	15.503306
1916.000000	15.763881
1915.000000	16.201405
1914.000000	16.570278
1913.000000	16.990511
1912.000000	17.318043
1911.000000	17.724276
1910.000000	18.151517
1909.000000	18.574771
1908.000000	18.962593
1907.000000	19.423591
1906.000000	19.948577
1905.000000	20.509603
1904.000000	20.884638
1903.000000	21.386984
1902.000000	21.912459
1901.000000	22.473559
1900.000000	23.022816
1899.000000	23.475182
1898.000000	24.015136
1897.000000	24.520655
1896.000000	25.011163
1895.000000	25.560102
1894.000000	26.080813
1893.000000	26.552019
1892.000000	27.073143
1891.000000	27.537759
1890.000000	28.083900
1889.000000	28.516485
1888.000000	29.010065
1887.000000	29.360637
1886.000000	29.836149
1885.000000	30.283773
1884.000000	30.723540
1883.000000	31.102394
1882.000000	31.450205
1881.000000	31.838094
1880.000000	32.253741
1879.000000	32.565767
1878.000000	32.928652
1877.000000	33.227324
1876.000000	33.514287
1875.000000	33.792909
1874.000000	33.987882
1873.000000	34.293452
1872.000000	34.542865
1871.000000	34.763897
1870.000000	34.961232
1869.000000	35.182719
1868.000000	35.346425
1867.000000	35.426067
1866.000000	35.530076
1865.000000	35.672737
1864.000000	35.767951
1863.000000	35.868936
1862.000000	35.933633
1861.000000	35.983961
1860.000000	36.103782
1859.000000	36.134023
1858.000000	36.172751
1857.000000	36.225946
1856.000000	36.261683
1855.000000	36.289829
1854.000000	36.337116
1853.000000	36.401435
1852.000000	36.420990
1851.000000	36.417403
1850.000000	36.431800
1849.000000	36.401967
1848.000000	36.382108
1847.000000	36.410243
1846.000000	36.406682
1845.000000	36.370269
1844.000000	36.345624
1843.000000	36.314975
1842.000000	36.245205
1841.000000	36.223216
1840.000000	36.201010
1839.000000	36.142737
1838.000000	36.113941
1837.000000	36.032257
1836.000000	35.992436
1835.000000	35.938314
1834.000000	35.858961
1833.000000	35.816589
1832.000000	35.775899
1831.000000	35.726655
1830.000000	35.657913
1829.000000	35.591743
1828.000000	35.543602
1827.000000	35.489484
1826.000000	35.454965
1825.000000	35.408471
1824.000000	35.348134
1823.000000	35.300341
1822.000000	35.247607
1821.000000	35.203370
1820.000000	35.174563
1819.000000	35.116658
1818.000000	35.071971
1817.000000	35.043237
1816.000000	34.999436
1815.000000	34.966324
1814.000000	34.925483
1813.000000	34.862500
1812.000000	34.807034
1811.000000	34.766200
1810.000000	34.734843
1809.000000	34.699961
1808.000000	34.650262
1807.000000	34.599399
1806.000000	34.553982
1805.000000	34.498073
1804.000000	34.461020
1803.000000	34.430031
1802.000000	34.376738
1801.000000	34.330515
1800.000000	34.298865
1799.000000	34.266799
1798.000000	34.238448
1797.000000	34.219609
1796.000000	34.189549
1795.000000	34.159148
1794.000000	34.159446
1793.000000	34.113641
1792.000000	34.075274
1791.000000	34.058604
1790.000000	34.025527
1789.000000	34.008028
1788.000000	33.980709
1787.000000	33.952279
1786.000000	33.921226
1785.000000	33.885691
1784.000000	33.867933
1783.000000	33.827494
1782.000000	33.776277
1781.000000	33.721747
1780.000000	33.706131
1779.000000	33.673904
1778.000000	33.595765
1777.000000	33.548734
1776.000000	33.485792
1775.000000	33.423930
1774.000000	33.353814
1773.000000	33.317934
1772.000000	33.261135
1771.000000	33.180573
1770.000000	33.128017
1769.000000	33.038837
1768.000000	32.971958
1767.000000	32.924233
1766.000000	32.862954
1765.000000	32.802875
1764.000000	32.731663
1763.000000	32.667235
1762.000000	32.610849
1761.000000	32.549711
1760.000000	32.484464
1759.000000	32.420244
1758.000000	32.357591
1757.000000	32.270896
1756.000000	32.227978
1755.000000	32.184016
1754.000000	32.112963
1753.000000	32.054034
1752.000000	31.976375
1751.000000	31.907090
1750.000000	31.860676
1749.000000	31.818149
1748.000000	31.704179
1747.000000	31.637828
1746.000000	31.585191
1745.000000	31.507670
1744.000000	31.449106
1743.000000	31.401613
1742.000000	31.334075
1741.000000	31.274338
1740.000000	31.217491
1739.000000	31.161980
1738.000000	31.093063
1737.000000	31.022152
1736.000000	30.997523
1735.000000	30.996163
1734.000000	30.993303
1733.000000	30.964896
1732.000000	30.971274
1731.000000	30.966477
1730.000000	30.985838
1729.000000	31.026295
1728.000000	31.082315
1727.000000	31.118288
1726.000000	31.166956
1725.000000	31.260267
1724.000000	31.331118
1723.000000	31.420061
1722.000000	31.507469
1721.000000	31.586815
1720.000000	31.699551
1719.000000	31.809798
1718.000000	31.903065
1717.000000	32.009060
1716.000000	32.108421
1715.000000	32.218220
1714.000000	32.330557
1713.000000	32.395639
1712.000000	32.467507
1711.000000	32.533941
1710.000000	32.597741
1709.000000	32.655626
1708.000000	32.708182
1707.000000	32.750852
1706.000000	32.804102
1705.000000	32.828477
1704.000000	32.859364
1703.000000	32.832407
1702.000000	32.891334
1701.000000	32.897197
1700.000000	32.908434
1699.000000	32.928626
1698.000000	32.957964
1697.000000	32.983105
1696.000000	33.019116
1695.000000	33.026481
1694.000000	33.108748
1693.000000	33.148712
1692.000000	33.190546
1691.000000	33.272478
1690.000000	33.365700
1689.000000	33.458710
1688.000000	33.569777
1687.000000	33.698275
1686.000000	33.829983
1685.000000	33.971543
1684.000000	34.133032
1683.000000	34.293180
1682.000000	34.485490
1681.000000	34.650325
1680.000000	34.854206
1679.000000	35.059701
1678.000000	35.270291
1677.000000	35.464955
1676.000000	35.668619
1675.000000	35.879306
1674.000000	36.072526
1673.000000	36.260355
1672.000000	36.438236
1671.000000	36.617983
1670.000000	36.798292
1669.000000	37.009928
1668.000000	37.157898
1667.000000	37.303020
1666.000000	37.416795
1665.000000	37.531047
1664.000000	37.652936
1663.000000	37.715440
1662.000000	37.820589
1661.000000	37.906170
1660.000000	37.989619
1659.000000	38.071169
1658.000000	38.099651
1657.000000	38.158047
1656.000000	38.207404
1655.000000	38.239415
1654.000000	38.240223
1653.000000	38.261582
1652.000000	38.292865
1651.000000	38.262158
1650.000000	38.267445
1649.000000	38.252425
1648.000000	38.243709
1647.000000	38.237670
1646.000000	38.201249
1645.000000	38.174366
1644.000000	38.148067
1643.000000	38.116365
1642.000000	38.093589
1641.000000	38.060341
1640.000000	38.013749
1639.000000	37.975642
1638.000000	37.958068
1637.000000	37.923634
1636.000000	37.857584
1635.000000	37.809426
1634.000000	37.755775
1633.000000	37.706744
1632.000000	37.645454
1631.000000	37.583955
1630.000000	37.528412
1629.000000	37.480196
1628.000000	37.424863
1627.000000	37.350940
1626.000000	37.284330
1625.000000	37.220843
1624.000000	37.162006
1623.000000	37.107980
1622.000000	37.039487
1621.000000	36.968711
1620.000000	36.922303
1619.000000	36.852314
1618.000000	36.762388
1617.000000	36.698026
1616.000000	36.639547
1615.000000	36.557041
1614.000000	36.479529
1613.000000	36.420513
1612.000000	36.342413
1611.000000	36.261152
1610.000000	36.182805
1609.000000	36.105645
1608.000000	36.024218
1607.000000	35.954634
1606.000000	35.873469
1605.000000	35.785703
1604.000000	35.711405
1603.000000	35.635771
1602.000000	35.565386
1601.000000	35.486313
1600.000000	35.408289
1599.000000	35.328622
1598.000000	35.250732
1597.000000	35.176629
1596.000000	35.106240
1595.000000	35.042660
1594.000000	34.966548
1593.000000	34.899691
1592.000000	34.845426
1591.000000	34.772188
1590.000000	34.705796
1589.000000	34.646385
1588.000000	34.574209
1587.000000	34.518242
1586.000000	34.461560
1585.000000	34.402366
1584.000000	34.344971
1583.000000	34.275376
1582.000000	34.215410
1581.000000	34.160832
1580.000000	34.097546
1579.000000	34.042957
1578.000000	33.992270
1577.000000	33.929275
1576.000000	33.871099
1575.000000	33.817680
1574.000000	33.746400
1573.000000	33.685555
1572.000000	33.638452
1571.000000	33.573314
1570.000000	33.520741
1569.000000	33.470292
1568.000000	33.428542
1567.000000	33.382049
1566.000000	33.321756
1565.000000	33.285162
1564.000000	33.257974
1563.000000	33.229731
1562.000000	33.184964
1561.000000	33.142942
1560.000000	33.117044
1559.000000	33.079564
1558.000000	33.052787
1557.000000	33.018970
1556.000000	32.979611
1555.000000	32.954896
1554.000000	32.922748
1553.000000	32.885807
1552.000000	32.836218
1551.000000	32.784247
1550.000000	32.734488
1549.000000	32.685647
1548.000000	32.637122
1547.000000	32.573791
1546.000000	32.493270
1545.000000	32.429836
1544.000000	32.348885
1543.000000	32.270113
1542.000000	32.185367
1541.000000	32.096956
1540.000000	32.003002
1539.000000	31.899829
1538.000000	31.802165
1537.000000	31.698677
1536.000000	31.596094
1535.000000	31.495878
1534.000000	31.386832
1533.000000	31.280679
1532.000000	31.179854
1531.000000	31.082025
1530.000000	31.011832
1529.000000	30.977756
1528.000000	30.936156
1527.000000	30.898057
1526.000000	30.819283
1525.000000	30.722244
1524.000000	30.623282
1523.000000	30.529509
1522.000000	30.453184
1521.000000	30.393926
1520.000000	30.356390
1519.000000	30.302169
1518.000000	30.240996
1517.000000	30.198467
1516.000000	30.168856
1515.000000	30.111198
1514.000000	30.064461
1513.000000	30.055199
1512.000000	30.032526
1511.000000	29.973385
1510.000000	29.946055
1509.000000	29.906080
1508.000000	29.873336
1507.000000	29.824830
1506.000000	29.833457
1505.000000	29.837802
1504.000000	29.809210
1503.000000	29.784001
1502.000000	29.744159
1501.000000	29.728958
1500.000000	29.716367
1499.000000	29.714732
1498.000000	29.709586
1497.000000	29.701283
1496.000000	29.714681
1495.000000	29.728105
1494.000000	29.718519
1493.000000	29.740836
1492.000000	29.761576
1491.000000	29.793569
1490.000000	29.811560
1489.000000	29.865037
1488.000000	29.893990
1487.000000	29.918157
1486.000000	29.958331
1485.000000	30.007117
1484.000000	30.044767
1483.000000	30.109220
1482.000000	30.148567
1481.000000	30.204010
1480.000000	30.251627
1479.000000	30.303055
1478.000000	30.347054
1477.000000	30.390134
1476.000000	30.460867
1475.000000	30.503506
1474.000000	30.549485
1473.000000	30.592602
1472.000000	30.641595
1471.000000	30.694983
1470.000000	30.722461
1469.000000	30.769200
1468.000000	30.807179
1467.000000	30.841534
1466.000000	30.908692
1465.000000	30.968605
1464.000000	31.033440
1463.000000	31.063914
1462.000000	31.102636
1461.000000	31.201946
1460.000000	31.255914
1459.000000	31.279973
1458.000000	31.316999
1457.000000	31.379996
1456.000000	31.471661
1455.000000	31.524123
1454.000000	31.578253
1453.000000	31.636091
1452.000000	31.710033
1451.000000	31.824867
1450.000000	31.892940
1449.000000	31.959551
1448.000000	32.015501
1447.000000	32.093196
1446.000000	32.177984
1445.000000	32.275126
1444.000000	32.389431
1443.000000	32.495397
1442.000000	32.568011
1441.000000	32.663436
1440.000000	32.750743
1439.000000	32.874175
1438.000000	32.967838
1437.000000	33.075346
1436.000000	33.213748
1435.000000	33.340709
1434.000000	33.469420
1433.000000	33.629930
1432.000000	33.777427
1431.000000	33.906838
1430.000000	34.044600
1429.000000	34.195138
1428.000000	34.337090
1427.000000	34.500649
1426.000000	34.673462
1425.000000	34.846610
1424.000000	35.012725
1423.000000	35.193449
1422.000000	35.379588
1421.000000	35.584603
1420.000000	35.803223
1419.000000	36.018341
1418.000000	36.212816
1417.000000	36.434318
1416.000000	36.653449
1415.000000	36.898520
1414.000000	37.124542
1413.000000	37.348260
1412.000000	37.585799
1411.000000	37.819879
1410.000000	38.065252
1409.000000	38.313823
1408.000000	38.550689
1407.000000	38.799249
1406.000000	39.025600
1405.000000	39.245870
1404.000000	39.479066
1403.000000	39.723472
1402.000000	39.946682
1401.000000	40.177491
1400.000000	40.394029
1399.000000	40.608728
1398.000000	40.819208
1397.000000	41.022521
1396.000000	41.233674
1395.000000	41.434273
1394.000000	41.612474
1393.000000	41.792970
1392.000000	41.982641
1391.000000	42.157993
1390.000000	42.346371
1389.000000	42.556678
1388.000000	42.722707
1387.000000	42.868666
1386.000000	43.005421
1385.000000	43.158474
1384.000000	43.318116
1383.000000	43.446293
1382.000000	43.570265
1381.000000	43.671813
1380.000000	43.775103
1379.000000	43.874017
1378.000000	43.975152
1377.000000	44.074204
1376.000000	44.144808
1375.000000	44.217164
1374.000000	44.290612
1373.000000	44.373296
1372.000000	44.434887
1371.000000	44.489267
1370.000000	44.560960
1369.000000	44.628664
1368.000000	44.689982
1367.000000	44.744105
1366.000000	44.810644
1365.000000	44.882549
1364.000000	44.946513
1363.000000	45.018220
1362.000000	45.088153
1361.000000	45.169202
1360.000000	45.260316
1359.000000	45.325594
1358.000000	45.372955
1357.000000	45.451759
1356.000000	45.539631
1355.000000	45.624956
1354.000000	45.688622
1353.000000	45.747930
1352.000000	45.821172
1351.000000	45.897528
1350.000000	45.998712
1349.000000	46.064688
1348.000000	46.116689
1347.000000	46.198584
1346.000000	46.277211
1345.000000	46.352723
1344.000000	46.424983
1343.000000	46.499932
1342.000000	46.561372
1341.000000	46.637052
1340.000000	46.705554
1339.000000	46.760684
1338.000000	46.808556
1337.000000	46.866634
1336.000000	46.931456
1335.000000	46.978274
1334.000000	47.038321
1333.000000	47.097631
1332.000000	47.140511
1331.000000	47.173713
1330.000000	47.213183
1329.000000	47.249267
1328.000000	47.299314
1327.000000	47.337864
1326.000000	47.363245
1325.000000	47.395601
1324.000000	47.430914
1323.000000	47.458892
1322.000000	47.460660
1321.000000	47.507802
1320.000000	47.526643
1319.000000	47.557892
1318.000000	47.584828
1317.000000	47.577072
1316.000000	47.588911
1315.000000	47.629171
1314.000000	47.652272
1313.000000	47.675782
1312.000000	47.679012
1311.000000	47.691500
1310.000000	47.706258
1309.000000	47.731933
1308.000000	47.743594
1307.000000	47.767113
1306.000000	47.797142
1305.000000	47.795612
1304.000000	47.796190
1303.000000	47.798254
1302.000000	47.797223
1301.000000	47.807420
1300.000000	47.812836
1299.000000	47.837467
1298.000000	47.863705
1297.000000	47.852549
1296.000000	47.846012
1295.000000	47.841211
1294.000000	47.829598
1293.000000	47.790049
1292.000000	47.816572
1291.000000	47.797209
1290.000000	47.760627
1289.000000	47.731271
1288.000000	47.728785
1287.000000	47.737036
1286.000000	47.720156
1285.000000	47.722743
1284.000000	47.697754
1283.000000	47.684449
1282.000000	47.711207
1281.000000	47.677268
1280.000000	47.645930
1279.000000	47.657151
1278.000000	47.650880
1277.000000	47.655086
1276.000000	47.651950
1275.000000	47.643412
1274.000000	47.667858
1273.000000	47.652805
1272.000000	47.661565
1271.000000	47.644701
1270.000000	47.653922
1269.000000	47.657417
1268.000000	47.679473
1267.000000	47.686313
1266.000000	47.724380
1265.000000	47.691108
1264.000000	47.685638
1263.000000	47.709333
1262.000000	47.734399
1261.000000	47.717043
1260.000000	47.754125
1259.000000	47.736998
1258.000000	47.740341
1257.000000	47.745186
1256.000000	47.732884
1255.000000	47.769507
1254.000000	47.755152
1253.000000	47.785207
1252.000000	47.796859
1251.000000	47.771310
1250.000000	47.778397
1249.000000	47.750580
1248.000000	47.746155
1247.000000	47.739229
1246.000000	47.705323
1245.000000	47.699740
1244.000000	47.690526
1243.000000	47.623647
1242.000000	47.609357
1241.000000	47.585475
1240.000000	47.556013
1239.000000	47.537030
1238.000000	47.478595
1237.000000	47.445088
1236.000000	47.410242
1235.000000	47.359057
1234.000000	47.334469
1233.000000	47.309262
1232.000000	47.296186
1231.000000	47.261371
1230.000000	47.209418
1229.000000	47.183002
1228.000000	47.148651
1227.000000	47.123192
1226.000000	47.115108
1225.000000	47.088262
1224.000000	47.028990
1223.000000	46.988992
1222.000000	46.960804
1221.000000	46.941812
1220.000000	46.926846
1219.000000	46.878976
1218.000000	46.839537
1217.000000	46.814767
1216.000000	46.798982
1215.000000	46.772745
1214.000000	46.726650
1213.000000	46.659328
1212.000000	46.612217
1211.000000	46.562020
1210.000000	46.523618
1209.000000	46.482494
1208.000000	46.423128
1207.000000	46.374952
1206.000000	46.329509
1205.000000	46.261440
1204.000000	46.214626
1203.000000	46.181929
1202.000000	46.120417
1201.000000	46.056791
1200.000000	46.010482
1199.000000	45.950430
1198.000000	45.891190
1197.000000	45.845254
1196.000000	45.800313
1195.000000	45.787439
1194.000000	45.750484
1193.000000	45.706302
1192.000000	45.664739
1191.000000	45.633204
1190.000000	45.589833
1189.000000	45.534026
1188.000000	45.514956
1187.000000	45.511843
1186.000000	45.505037
1185.000000	45.504136
1184.000000	45.509766
1183.000000	45.508965
1182.000000	45.535196
1181.000000	45.573566
1180.000000	45.603647
1179.000000	45.643392
1178.000000	45.700251
1177.000000	45.739157
1176.000000	45.793842
1175.000000	45.863365
1174.000000	45.928161
1173.000000	46.003655
1172.000000	46.077969
1171.000000	46.148266
1170.000000	46.241014
1169.000000	46.331546
1168.000000	46.420925
1167.000000	46.512504
1166.000000	46.612916
1165.000000	46.715071
1164.000000	46.817893
1163.000000	46.916286
1162.000000	47.011635
1161.000000	47.105090
1160.000000	47.209082
1159.000000	47.307075
1158.000000	47.404712
1157.000000	47.493559
1156.000000	47.574008
1155.000000	47.660738
1154.000000	47.733849
1153.000000	47.815679
1152.000000	47.874281
1151.000000	47.922581
1150.000000	47.997941
1149.000000	48.071807
1148.000000	48.131887
1147.000000	48.203481
1146.000000	48.280016
1145.000000	48.342995
1144.000000	48.404790
1143.000000	48.466597
1142.000000	48.525547
1141.000000	48.572987
1140.000000	48.624052
1139.000000	48.676980
1138.000000	48.731030
1137.000000	48.792385
1136.000000	48.844284
1135.000000	48.868503
1134.000000	48.914605
1133.000000	48.966501
1132.000000	49.003594
1131.000000	49.053501
1130.000000	49.104012
1129.000000	49.137676
1128.000000	49.180685
1127.000000	49.223645
1126.000000	49.236965
1125.000000	49.255964
1124.000000	49.279274
1123.000000	49.297157
1122.000000	49.315167
1121.000000	49.341274
1120.000000	49.339412
1119.000000	49.335908
1118.000000	49.358081
1117.000000	49.346418
1116.000000	49.343534
1115.000000	49.343585
1114.000000	49.334013
1113.000000	49.347913
1112.000000	49.356979
1111.000000	49.358192
1110.000000	49.368041
1109.000000	49.368050
1108.000000	49.377673
1107.000000	49.366400
1106.000000	49.376615
1105.000000	49.387279
1104.000000	49.377915
1103.000000	49.386904
1102.000000	49.380922
1101.000000	49.392290
1100.000000	49.398834
1099.000000	49.392915
1098.000000	49.352183
1097.000000	49.341962
1096.000000	49.366021
1095.000000	49.364572
1094.000000	49.361567
1093.000000	49.349401
1092.000000	49.352448
1091.000000	49.320651
1090.000000	49.320133
1089.000000	49.325252
1088.000000	49.307122
1087.000000	49.306502
1086.000000	49.323328
1085.000000	49.314771
1084.000000	49.293236
1083.000000	49.277693
1082.000000	49.281506
1081.000000	49.275281
1080.000000	49.257899
1079.000000	49.260538
1078.000000	49.252516
1077.000000	49.212238
1076.000000	49.208168
1075.000000	49.192417
1074.000000	49.193003
1073.000000	49.196466
1072.000000	49.193336
1071.000000	49.177807
1070.000000	49.134116
1069.000000	49.114255
1068.000000	49.110573
1067.000000	49.106447
1066.000000	49.094214
1065.000000	49.087525
1064.000000	49.086680
1063.000000	49.054647
1062.000000	49.029993
1061.000000	49.010598
1060.000000	49.005005
1059.000000	48.992640
1058.000000	48.988558
1057.000000	48.976306
1056.000000	48.941461
1055.000000	48.919432
1054.000000	48.929793
1053.000000	48.908223
1052.000000	48.904492
1051.000000	48.866055
1050.000000	48.855232
1049.000000	48.849924
1048.000000	48.845378
1047.000000	48.831679
1046.000000	48.796348
1045.000000	48.765551
1044.000000	48.768802
1043.000000	48.779779
1042.000000	48.784794
1041.000000	48.747095
1040.000000	48.736854
1039.000000	48.723801
1038.000000	48.713569
1037.000000	48.705451
1036.000000	48.690201
1035.000000	48.705117
1034.000000	48.704581
1033.000000	48.690376
1032.000000	48.661905
1031.000000	48.658721
1030.000000	48.676769
1029.000000	48.649245
1028.000000	48.650947
1027.000000	48.648808
1026.000000	48.655376
1025.000000	48.615016
1024.000000	48.621135
1023.000000	48.623937
1022.000000	48.620458
1021.000000	48.607316
1020.000000	48.610327
1019.000000	48.597645
1018.000000	48.577858
1017.000000	48.595010
1016.000000	48.606114
1015.000000	48.616041
1014.000000	48.607701
1013.000000	48.613761
1012.000000	48.607910
1011.000000	48.608887
1010.000000	48.605210
1009.000000	48.609301
1008.000000	48.603215
1007.000000	48.634426
1006.000000	48.631677
1005.000000	48.606095
1004.000000	48.621199
1003.000000	48.635294
1002.000000	48.623158
1001.000000	48.632577
1000.000000	48.623033
999.000000	48.627065
998.000000	48.645058
997.000000	48.643164
996.000000	48.645059
995.000000	48.647851
994.000000	48.654664
993.000000	48.666832
992.000000	48.648341
991.000000	48.667963
990.000000	48.655688
989.000000	48.660992
988.000000	48.673592
987.000000	48.690044
986.000000	48.694951
985.000000	48.700072
984.000000	48.730374
983.000000	48.740335
982.000000	48.753858
981.000000	48.767510
980.000000	48.780542
979.000000	48.787780
978.000000	48.808246
977.000000	48.820783
976.000000	48.825308
975.000000	48.829496
974.000000	48.831076
973.000000	48.846851
972.000000	48.854339
971.000000	48.858765
970.000000	48.869297
969.000000	48.875294
968.000000	48.879414
967.000000	48.892245
966.000000	48.907573
965.000000	48.911601
964.000000	48.915825
963.000000	48.932867
962.000000	48.935343
961.000000	48.945518
960.000000	48.960292
959.000000	48.956386
958.000000	48.956836
957.000000	48.956451
956.000000	48.963715
955.000000	48.971102
954.000000	48.983376
953.000000	49.005303
952.000000	49.014253
951.000000	49.009249
950.000000	49.012045
949.000000	49.020000
948.000000	49.022647
947.000000	49.023352
946.000000	49.030873
945.000000	49.037678
944.000000	49.027359
943.000000	49.019500
942.000000	49.030151
941.000000	49.023214
940.000000	49.014550
939.000000	49.011868
938.000000	48.990101
937.000000	48.993858
936.000000	49.016443
935.000000	49.006637
934.000000	49.004512
933.000000	48.990211
932.000000	48.969780
931.000000	48.976657
930.000000	48.978993
929.000000	48.958419
928.000000	48.958436
927.000000	48.936702
926.000000	48.931939
925.000000	48.950544
924.000000	48.931543
923.000000	48.906145
922.000000	48.896893
921.000000	48.886868
920.000000	48.884419
919.000000	48.869375
918.000000	48.861963
917.000000	48.848488
916.000000	48.834810
915.000000	48.813976
914.000000	48.816639
913.000000	48.815733
912.000000	48.817781
911.000000	48.808472
910.000000	48.804254
909.000000	48.812670
908.000000	48.797310
907.000000	48.774696
906.000000	48.789228
905.000000	48.803079
904.000000	48.801308
903.000000	48.802260
902.000000	48.841154
901.000000	48.812240
900.000000	48.765265
899.000000	48.791643
898.000000	48.816016
897.000000	48.790734
896.000000	48.858379
895.000000	48.856357
894.000000	48.827420
893.000000	48.795992
892.000000	48.840509
891.000000	48.837987
890.000000	48.852491
889.000000	48.796503
888.000000	48.816068
887.000000	48.834567
886.000000	48.882095
885.000000	48.810836
884.000000	48.781831
883.000000	48.828352
882.000000	48.839610
881.000000	48.856817
880.000000	48.847301
879.000000	48.844568
878.000000	48.762798
877.000000	48.812367
876.000000	48.846273
875.000000	48.819134
874.000000	48.873230
873.000000	48.785205
872.000000	48.722974
871.000000	48.734088
870.000000	48.686460
869.000000	48.727542
868.000000	48.891850
867.000000	48.732926
866.000000	48.820199
865.000000	48.816968
864.000000	48.820060
863.000000	48.756122
862.000000	48.673131
861.000000	48.751818
860.000000	48.800301
859.000000	48.268134
858.000000	48.171576
857.000000	48.251070
856.000000	48.385610
855.000000	48.689800
854.000000	48.413304
853.000000	48.413891
852.000000	48.281673
851.000000	48.192435
850.000000	48.421193
849.000000	48.281948
848.000000	48.391855
847.000000	48.308536
846.000000	48.163777
845.000000	48.313032
844.000000	48.282495
843.000000	48.419743
842.000000	48.169156
841.000000	48.360330
840.000000	48.250292
839.000000	48.356043
838.000000	48.100523
837.000000	48.232639
836.000000	48.239040
835.000000	48.395792
834.000000	48.341245
833.000000	48.164639
832.000000	48.225891
831.000000	48.102935
830.000000	48.207334
829.000000	48.210856
828.000000	48.178498
827.000000	48.075582
826.000000	48.012201
825.000000	48.030936
824.000000	48.198943
823.000000	48.021692
822.000000	48.152766
821.000000	48.137547
820.000000	48.071375
819.000000	48.104093
818.000000	48.093962
817.000000	47.964754
816.000000	47.986193
815.000000	48.075555
814.000000	47.909470
813.000000	47.932721
812.000000	48.050084
811.000000	47.995685
810.000000	47.877535
809.000000	48.016456
808.000000	47.928904
807.000000	47.973724
806.000000	47.861258
805.000000	47.865531
804.000000	47.976022
803.000000	47.837722
802.000000	47.857512
801.000000	47.859581
800.000000	47.794124
799.000000	47.752070
798.000000	47.800851
797.000000	47.774524
796.000000	47.666771
795.000000	47.734012
794.000000	47.790788
793.000000	47.761764
792.000000	47.710660
791.000000	47.641927
790.000000	47.679878
789.000000	47.746971
788.000000	47.721210
787.000000	47.743511
786.000000	47.627013
785.000000	47.544469
784.000000	47.578922
783.000000	47.466202
782.000000	47.543039
781.000000	47.570775
780.000000	47.487271
779.000000	47.531439
778.000000	47.481182
777.000000	47.499777
776.000000	47.421401
775.000000	47.473303
774.000000	47.360595
773.000000	47.383327
772.000000	47.403574
771.000000	47.410127
770.000000	47.343537
769.000000	47.278504
768.000000	47.303638
767.000000	47.300954
766.000000	47.336679
765.000000	47.318736
764.000000	47.232846
763.000000	47.329362
762.000000	47.307755
761.000000	47.220492
760.000000	47.205707
759.000000	47.164833
758.000000	47.194456
757.000000	47.191018
756.000000	47.144282
755.000000	47.065911
754.000000	47.055409
753.000000	47.079454
752.000000	47.037325
751.000000	47.061338
750.000000	47.025867
749.000000	46.988940
748.000000	46.954584
747.000000	46.947962
746.000000	46.921746
745.000000	46.944493
744.000000	46.982328
743.000000	46.851573
742.000000	46.871412
741.000000	46.840799
740.000000	46.712434
739.000000	46.713963
738.000000	46.720095
737.000000	46.752341
736.000000	46.730973
735.000000	46.753122
734.000000	46.720082
733.000000	46.684636
732.000000	46.673121
731.000000	46.597884
730.000000	46.575918
729.000000	46.556162
728.000000	46.546600
727.000000	46.551049
726.000000	46.545490
725.000000	46.478315
724.000000	46.448735
723.000000	46.428874
722.000000	46.418971
721.000000	46.394547
720.000000	46.368515
719.000000	46.361629
718.000000	46.326704
717.000000	46.264837
716.000000	46.225494
715.000000	46.213585
714.000000	46.202081
713.000000	46.149606
712.000000	46.129812
711.000000	46.115124
710.000000	46.028734
709.000000	46.027108
708.000000	46.055896
707.000000	46.004335
706.000000	45.965194
705.000000	45.914861
704.000000	45.879313
703.000000	45.849678
702.000000	45.812728
701.000000	45.783489
700.000000	45.749400
699.000000	45.740324
698.000000	45.693895
697.000000	45.641806
696.000000	45.638321
695.000000	45.627604
694.000000	45.569256
693.000000	45.512828
692.000000	45.508629
691.000000	45.506052
690.000000	45.444090
689.000000	45.340691
688.000000	45.292908
687.000000	45.295362
686.000000	45.268554
685.000000	45.212474
684.000000	45.114922
683.000000	45.075880
682.000000	45.085867
681.000000	45.041622
680.000000	44.957949
679.000000	44.901873
678.000000	44.888467
677.000000	44.870571
676.000000	44.805213
675.000000	44.754086
674.000000	44.755100
673.000000	44.713615
672.000000	44.647936
671.000000	44.589320
670.000000	44.508992
669.000000	44.494067
668.000000	44.461329
667.000000	44.399204
666.000000	44.402416
665.000000	44.368426
664.000000	44.273030
663.000000	44.238240
662.000000	44.218855
661.000000	44.155346
660.000000	44.072524
659.000000	44.027224
658.000000	43.952823
657.000000	43.939990
656.000000	43.893656
655.000000	43.798371
654.000000	43.793254
653.000000	43.751725
652.000000	43.656560
651.000000	43.557293
650.000000	43.507800
649.000000	43.452215
648.000000	43.421958
647.000000	43.379723
646.000000	43.308608
645.000000	43.259863
644.000000	43.211736
643.000000	43.130358
642.000000	43.095352
641.000000	43.082585
640.000000	43.019898
639.000000	42.953541
638.000000	42.825462
637.000000	42.761195
636.000000	42.719580
635.000000	42.630298
634.000000	42.567217
633.000000	42.515913
632.000000	42.471136
631.000000	42.425803
630.000000	42.346875
629.000000	42.286953
628.000000	42.207125
627.000000	42.156521
626.000000	42.083773
625.000000	42.010361
624.000000	41.973607
623.000000	41.886562
622.000000	41.827299
621.000000	41.795601
620.000000	41.698547
619.000000	41.655961
618.000000	41.622037
617.000000	41.600418
616.000000	41.451796
615.000000	41.433603
614.000000	41.380946
613.000000	41.337529
612.000000	41.263199
611.000000	41.191596
610.000000	41.190090
609.000000	41.075815
608.000000	41.025474
607.000000	40.991207
606.000000	40.944060
605.000000	40.886240
604.000000	40.801779
603.000000	40.785160
602.000000	40.661019
601.000000	40.654184
600.000000	40.583862
599.000000	40.474985
598.000000	40.450786
597.000000	40.449801
596.000000	40.362375
595.000000	40.284788
594.000000	40.245251
593.000000	40.169435
592.000000	40.077394
591.000000	40.021996
590.000000	39.941032
589.000000	39.949356
588.000000	39.881119
587.000000	39.825906
586.000000	39.700979
585.000000	39.668526
584.000000	39.550191
583.000000	39.524858
582.000000	39.489142
581.000000	39.427496
580.000000	39.342384
579.000000	39.306095
578.000000	39.203694
577.000000	39.126761
576.000000	39.082105
575.000000	39.032632
574.000000	38.928181
573.000000	38.876218
572.000000	38.826790
571.000000	38.741244
570.000000	38.692933
569.000000	38.697299
568.000000	38.528498
567.000000	38.514351
566.000000	38.455982
565.000000	38.390513
564.000000	38.315114
563.000000	38.241229
562.000000	38.158890
561.000000	38.087182
560.000000	38.063510
559.000000	37.972529
558.000000	37.924829
557.000000	37.855661
556.000000	37.789351
555.000000	37.731077
554.000000	37.675416
553.000000	37.613582
552.000000	37.535102
551.000000	37.442198
550.000000	37.353082
549.000000	37.287568
548.000000	37.225270
547.000000	37.141954
546.000000	37.057991
545.000000	36.992046
544.000000	36.919754
543.000000	36.857978
542.000000	36.768333
541.000000	36.700393
540.000000	36.596827
539.000000	36.518818
538.000000	36.476703
537.000000	36.412387
536.000000	36.324556
535.000000	36.264070
534.000000	36.185689
533.000000	36.096387
532.000000	36.012818
531.000000	35.973474
530.000000	35.880540
529.000000	35.841520
528.000000	35.741508
527.000000	35.668237
526.000000	35.599646
525.000000	35.539686
524.000000	35.451693
523.000000	35.397221
522.000000	35.313478
521.000000	35.250242
520.000000	35.154149
519.000000	35.050612
518.000000	34.966158
517.000000	34.893254
516.000000	34.808126
515.000000	34.743846
514.000000	34.659524
513.000000	34.567677
512.000000	34.486627
511.000000	34.399776
510.000000	34.281108
509.000000	34.214862
508.000000	34.114890
507.000000	34.018287
506.000000	33.904274
505.000000	33.816312
504.000000	33.709902
503.000000	33.612005
502.000000	33.525992
501.000000	33.390138
500.000000	33.291504
499.000000	33.167190
498.000000	33.035700
497.000000	32.929239
496.000000	32.809237
495.000000	32.725714
494.000000	32.606514
493.000000	32.469294
492.000000	32.340301
491.000000	32.233260
490.000000	32.081394
489.000000	31.984139
488.000000	31.850540
487.000000	31.718946
486.000000	31.590066
485.000000	31.491512
484.000000	31.379363
483.000000	31.230843
482.000000	31.109379
481.000000	30.990920
480.000000	30.823154
479.000000	30.674447
478.000000	30.538224
477.000000	30.412461
476.000000	30.286760
475.000000	30.123059
474.000000	29.941041
473.000000	29.781111
472.000000	29.646726
471.000000	29.480067
470.000000	29.339957
469.000000	29.189424
468.000000	29.002747
467.000000	28.849929
466.000000	28.679146
465.000000	28.512086
464.000000	28.341524
463.000000	28.151536
462.000000	27.976893
461.000000	27.823023
460.000000	27.621333
459.000000	27.420475
458.000000	27.244118
457.000000	27.047554
456.000000	26.858102
455.000000	26.665218
454.000000	26.464357
453.000000	26.256094
452.000000	26.082396
451.000000	25.887576
450.000000	25.646283
449.000000	25.439217
448.000000	25.246548
447.000000	25.034021
446.000000	24.815246
445.000000	24.588524
444.000000	24.360532
443.000000	24.149621
442.000000	23.931957
441.000000	23.714711
440.000000	23.518719
439.000000	23.269497
438.000000	23.014427
437.000000	22.783197
436.000000	22.576465
435.000000	22.361650
434.000000	22.112156
433.000000	21.882472
432.000000	21.642679
431.000000	21.400285
430.000000	21.150782
429.000000	20.889517
428.000000	20.650867
427.000000	20.416373
426.000000	20.156949
425.000000	19.909375
424.000000	19.663549
423.000000	19.400356
422.000000	19.163340
421.000000	18.932377
420.000000	18.698017
419.000000	18.462345
418.000000	18.211612
417.000000	17.978622
416.000000	17.776048
415.000000	17.575641
414.000000	17.391448
413.000000	17.208642
412.000000	17.035119
411.000000	16.873441
410.000000	16.741403
409.000000	16.624111
408.000000	16.520481
407.000000	16.423093
406.000000	16.336070
405.000000	16.268914
404.000000	16.185744
403.000000	16.118136
402.000000	16.059203
401.000000	15.984910
400.000000	15.924062
399.000000	15.835812
398.000000	15.757452
397.000000	15.678338
396.000000	15.616961
395.000000	15.540915
394.000000	15.446109
393.000000	15.382118
392.000000	15.278574
391.000000	15.210445
390.000000	15.077366
389.000000	14.993315
388.000000	14.889823
387.000000	14.722290
386.000000	14.657390
385.000000	14.517013
384.000000	14.368578
383.000000	14.222314
382.000000	14.060631
381.000000	13.911190
380.000000	13.773602
379.000000	13.651909
378.000000	13.410966
377.000000	13.343744
376.000000	13.184397
375.000000	13.055691
374.000000	12.781059
373.000000	12.608400
372.000000	12.525652
371.000000	12.344611
370.000000	12.091641
369.000000	11.952449
368.000000	11.814110
367.000000	11.596309
366.000000	11.405209
365.000000	11.328771
364.000000	11.143762
363.000000	10.969146
362.000000	10.747739
361.000000	10.571426
360.000000	10.467985
359.000000	10.320411
358.000000	10.117360
357.000000	9.883348
356.000000	9.787342
355.000000	9.635534
354.000000	9.489939
353.000000	9.329570
352.000000	9.170405
351.000000	9.023925
350.000000	8.834904
349.000000	8.761680
348.000000	8.611549
347.000000	8.465289
346.000000	8.325436
345.000000	8.189089
344.000000	8.079091
343.000000	7.935510
342.000000	7.765703
341.000000	7.692438
340.000000	7.522887
339.000000	7.446412
338.000000	7.303445
337.000000	7.224166
336.000000	7.082131
335.000000	6.945824
334.000000	6.814643
333.000000	6.748841
332.000000	6.646187
331.000000	6.498899
330.000000	6.400887
329.000000	6.353541
328.000000	6.270601
327.000000	6.182551
326.000000	6.120042
325.000000	6.013700
324.000000	5.873435
323.000000	5.820675
322.000000	5.759595
321.000000	5.686730
320.000000	5.597195
319.000000	5.466324
318.000000	5.334335
317.000000	5.263715
316.000000	5.157341
315.000000	5.050756
314.000000	4.953698
313.000000	4.876165
312.000000	4.744550
311.000000	4.645044
310.000000	4.529523
309.000000	4.420541
308.000000	4.309198
307.000000	4.181754
306.000000	4.048845
305.000000	3.897805
304.000000	3.805866
303.000000	3.711758
302.000000	3.553454
301.000000	3.418725
300.000000	3.250281
299.000000	3.146926
298.000000	2.990059
297.000000	2.803687
296.000000	2.595219
295.000000	2.412793
294.000000	2.209818
293.000000	1.968840
292.000000	1.759846
291.000000	1.568729
290.000000	1.451172
289.000000	1.321270
288.000000	1.239232
287.000000	1.179416
286.000000	1.179232
285.000000	1.173831
284.000000	1.168602
283.000000	1.187431
282.000000	1.214719
281.000000	1.216504
280.000000	1.227812
279.000000	1.243047
278.000000	1.251538
277.000000	1.278023
276.000000	1.314289
275.000000	1.332033
274.000000	1.375796
273.000000	1.410240
272.000000	1.450044
271.000000	1.456946
270.000000	1.450622
269.000000	1.457598
268.000000	1.493213
267.000000	1.543099
266.000000	1.577351
265.000000	1.594053
264.000000	1.631716
263.000000	1.681892
262.000000	1.714217
261.000000	1.727453
260.000000	1.763326
259.000000	1.782823
258.000000	1.823206
257.000000	1.872576
256.000000	1.924252
255.000000	1.941975
254.000000	1.911697
253.000000	1.895122
252.000000	1.880925
251.000000	1.837122
250.000000	1.794578
249.000000	1.717456
248.000000	1.617599
247.000000	1.502178
246.000000	1.374389
245.000000	1.254154
244.000000	1.115480
243.000000	1.006010
242.000000	0.898034
241.000000	0.797769
240.000000	0.710514
239.000000	0.650423
238.000000	0.598117
237.000000	0.553615
236.000000	0.509225
235.000000	0.478743
234.000000	0.452031
233.000000	0.419641
232.000000	0.395207
231.000000	0.371492
230.000000	0.350491
229.000000	0.316870
228.000000	0.288622
227.000000	0.259406
226.000000	0.238877
225.000000	0.226944
224.000000	0.212012
223.000000	0.184112
222.000000	0.176526
221.000000	0.162832
220.000000	0.143702
219.000000	0.145629
218.000000	0.134792
217.000000	0.125831
216.000000	0.116071
215.000000	0.105897
214.000000	0.112620
213.000000	0.100793
212.000000	0.105045
211.000000	0.120888
210.000000	0.134983
209.000000	0.159527
208.000000	0.128542
207.000000	0.078779
206.000000	0.069768
205.000000	0.104597
204.000000	0.105258
203.000000	0.122292
202.000000	0.081533
201.000000	0.186308
200.000000	0.272307
