PE UV       SUBTECH     SPECTRUM    ASCII       PEDS        4.00        
   -1
GGRAD1_1.Sample.asc
23/09/07
14:42:46.00
23/09/07
14:42:46.00
Administrator

250.000000
1
Lambda 750
750N8071901
PerkinElmer UV WinLab 6.0.4.0738 / 1.61.00 Lambda 900

0
0
3350/servo 860.8/2
0
0
UV/VIS
1
1
1
CommonBeamDepol,150mm sphere / downward view
0
0
0
0
Program
Program
3350/servo 860.8/2
3350/0.2 860.8/0.2
3350/0.2 860.8/0.2
0
1
 
 
 
0
 
860.8
319.2
860.8
Front
100
on
 
 
0
0
0
 
0
 
 
 
0
 
 
0
0
0
0
0
 
 
 
 
0
0


0
0
#HDR
-1
-1
#GR
nm
%R
1.0
0.0
2500.000000
-10.000000
226
8
77.032171
4.402271
#DATA
2500.000000	9.234080
2490.000000	8.060351
2480.000000	10.630322
2470.000000	11.117669
2460.000000	8.722919
2450.000000	11.007473
2440.000000	12.894818
2430.000000	8.961834
2420.000000	10.091803
2410.000000	11.399966
2400.000000	12.516232
2390.000000	10.074860
2380.000000	11.528001
2370.000000	10.660997
2360.000000	13.014965
2350.000000	12.321364
2340.000000	12.075731
2330.000000	12.029293
2320.000000	11.364728
2310.000000	12.260898
2300.000000	11.751338
2290.000000	12.538522
2280.000000	13.880587
2270.000000	12.902281
2260.000000	14.521573
2250.000000	14.837373
2240.000000	15.413313
2230.000000	15.288370
2220.000000	15.700838
2210.000000	14.710345
2200.000000	14.297017
2190.000000	14.436681
2180.000000	15.525479
2170.000000	15.807556
2160.000000	16.670486
2150.000000	17.186705
2140.000000	17.473250
2130.000000	18.004519
2120.000000	18.118051
2110.000000	18.161387
2100.000000	17.634021
2090.000000	17.344703
2080.000000	16.330879
2070.000000	15.726143
2060.000000	15.185920
2050.000000	15.512721
2040.000000	16.125418
2030.000000	16.127730
2020.000000	15.387694
2010.000000	15.170692
2000.000000	14.420771
1990.000000	13.872188
1980.000000	13.183310
1970.000000	12.994902
1960.000000	12.885227
1950.000000	13.296376
1940.000000	13.833065
1930.000000	15.957633
1920.000000	18.949611
1910.000000	23.605723
1900.000000	28.779105
1890.000000	33.732301
1880.000000	37.349141
1870.000000	38.675184
1860.000000	39.062897
1850.000000	38.561509
1840.000000	38.196352
1830.000000	37.579084
1820.000000	36.910038
1810.000000	36.572654
1800.000000	36.048741
1790.000000	35.421117
1780.000000	34.726981
1770.000000	34.154661
1760.000000	33.602327
1750.000000	32.900571
1740.000000	33.371664
1730.000000	34.844611
1720.000000	36.136949
1710.000000	36.771837
1700.000000	38.485598
1690.000000	41.437673
1680.000000	43.828678
1670.000000	44.815548
1660.000000	44.921605
1650.000000	44.469484
1640.000000	43.669000
1630.000000	42.675712
1620.000000	41.498386
1610.000000	40.353428
1600.000000	39.437570
1590.000000	38.551221
1580.000000	37.732857
1570.000000	37.335904
1560.000000	36.510132
1550.000000	35.314636
1540.000000	34.230552
1530.000000	33.647977
1520.000000	33.152877
1510.000000	32.865144
1500.000000	32.856672
1490.000000	32.996566
1480.000000	33.278255
1470.000000	33.776058
1460.000000	34.697266
1450.000000	36.210165
1440.000000	38.368540
1430.000000	41.616467
1420.000000	46.112452
1410.000000	51.129785
1400.000000	55.550587
1390.000000	58.577104
1380.000000	60.442226
1370.000000	62.367285
1360.000000	64.317833
1350.000000	66.009320
1340.000000	67.148969
1330.000000	68.279605
1320.000000	69.246768
1310.000000	69.718135
1300.000000	69.834569
1290.000000	69.772156
1280.000000	69.886259
1270.000000	69.897760
1260.000000	69.633072
1250.000000	68.869780
1240.000000	68.096221
1230.000000	67.282994
1220.000000	66.314533
1210.000000	65.565421
1200.000000	65.530865
1190.000000	66.553070
1180.000000	68.399318
1170.000000	70.640769
1160.000000	72.545816
1150.000000	74.188964
1140.000000	75.323362
1130.000000	75.776738
1120.000000	76.008210
1110.000000	76.099576
1100.000000	76.145976
1090.000000	76.017607
1080.000000	75.905247
1070.000000	75.559812
1060.000000	75.394007
1050.000000	75.202186
1040.000000	75.026367
1030.000000	74.864605
1020.000000	74.929647
1010.000000	75.194007
1000.000000	75.364751
990.000000	75.533833
980.000000	75.762543
970.000000	76.114318
960.000000	76.451573
950.000000	76.442230
940.000000	76.431346
930.000000	76.302722
920.000000	76.321440
910.000000	76.413135
900.000000	76.575576
890.000000	76.279709
880.000000	77.032171
870.000000	76.578597
860.000000	76.223658
850.000000	75.739619
840.000000	75.999427
830.000000	75.392015
820.000000	75.092676
810.000000	74.607847
800.000000	74.411679
790.000000	73.841501
780.000000	73.416054
770.000000	72.629937
760.000000	71.937028
750.000000	71.212290
740.000000	70.300600
730.000000	69.589133
720.000000	68.582135
710.000000	67.458249
700.000000	66.334414
690.000000	65.141214
680.000000	63.678017
670.000000	62.404349
660.000000	60.990825
650.000000	59.670085
640.000000	58.217771
630.000000	56.885652
620.000000	55.391669
610.000000	54.059434
600.000000	52.763631
590.000000	51.405004
580.000000	50.174305
570.000000	48.942165
560.000000	47.852826
550.000000	46.715145
540.000000	45.592816
530.000000	44.468834
520.000000	43.417310
510.000000	42.424917
500.000000	41.526640
490.000000	40.423256
480.000000	39.411994
470.000000	38.662346
460.000000	37.590272
450.000000	36.564562
440.000000	35.565714
430.000000	34.445834
420.000000	33.665098
410.000000	32.791554
400.000000	32.037438
390.000000	31.408560
380.000000	30.397977
370.000000	29.536040
360.000000	28.852012
350.000000	27.633433
340.000000	26.554591
330.000000	24.408159
320.000000	23.074974
310.000000	20.444735
300.000000	13.209723
290.000000	9.456776
280.000000	6.575752
270.000000	5.151522
260.000000	4.657532
250.000000	4.402271
