PE UV       SUBTECH     SPECTRUM    ASCII       PEDS        4.00        
   -1
Empty Chamber.Sample.asc
18/03/13
12:40:31.00
18/03/13
12:40:31.00
Administrator

200.000000
1
Lambda 750
750N8071901
PerkinElmer UV WinLab 6.0.4.0738 / 1.61.00 Lambda 900

0
0
3350/servo 860.8/2
0
0
UV/VIS
1
1
1
CommonBeamDepol,150mm sphere / downward view
0
0
0
0
Program
Program
3350/servo 860.8/2
3350/0.2 860.8/0.2
3350/0.2 860.8/0.2
0
1
 
 
 
0
 
860.8
319.2
860.8
Front
100
on
 
 
0
0
0
 
0
 
 
 
0
 
 
0
0
0
0
0
 
 
 
 
0
0


0
0
#HDR
-1
-1
#GR
nm
%T
1.0
0.0
2350.000000
-1.000000
2151
8
100.761872
99.323527
#DATA
2350.000000	100.032996
2349.000000	100.280527
2348.000000	100.016071
2347.000000	100.424010
2346.000000	99.632645
2345.000000	99.974496
2344.000000	99.936227
2343.000000	99.554528
2342.000000	99.896646
2341.000000	99.873990
2340.000000	100.218223
2339.000000	100.390003
2338.000000	99.963792
2337.000000	99.914543
2336.000000	100.055571
2335.000000	100.069462
2334.000000	99.837924
2333.000000	99.926909
2332.000000	100.482358
2331.000000	99.919642
2330.000000	100.028143
2329.000000	100.102551
2328.000000	99.706095
2327.000000	99.748582
2326.000000	100.094583
2325.000000	100.058299
2324.000000	100.199904
2323.000000	100.251081
2322.000000	99.656126
2321.000000	100.131706
2320.000000	100.085182
2319.000000	99.701715
2318.000000	100.173991
2317.000000	100.469912
2316.000000	100.099540
2315.000000	100.052528
2314.000000	100.081232
2313.000000	99.855011
2312.000000	100.069366
2311.000000	100.194816
2310.000000	100.151424
2309.000000	99.932735
2308.000000	99.693470
2307.000000	99.725306
2306.000000	100.017438
2305.000000	99.987395
2304.000000	100.084646
2303.000000	100.072578
2302.000000	100.337625
2301.000000	99.983641
2300.000000	99.744383
2299.000000	99.965936
2298.000000	99.983965
2297.000000	100.107408
2296.000000	100.372915
2295.000000	100.135251
2294.000000	100.071657
2293.000000	100.018678
2292.000000	100.035410
2291.000000	99.871526
2290.000000	100.009778
2289.000000	100.020165
2288.000000	100.026799
2287.000000	100.177252
2286.000000	99.981855
2285.000000	100.031780
2284.000000	99.845815
2283.000000	99.664996
2282.000000	99.991832
2281.000000	100.106570
2280.000000	100.011210
2279.000000	100.143263
2278.000000	100.049663
2277.000000	99.777815
2276.000000	99.916974
2275.000000	99.996473
2274.000000	99.992336
2273.000000	100.088179
2272.000000	100.140162
2271.000000	99.895806
2270.000000	99.900424
2269.000000	99.993742
2268.000000	99.795861
2267.000000	99.951064
2266.000000	100.163928
2265.000000	100.083437
2264.000000	100.088704
2263.000000	100.178354
2262.000000	100.127340
2261.000000	100.064980
2260.000000	100.081245
2259.000000	100.070953
2258.000000	100.131880
2257.000000	100.154783
2256.000000	99.968797
2255.000000	99.994044
2254.000000	100.097227
2253.000000	100.101625
2252.000000	100.037961
2251.000000	99.991921
2250.000000	100.098499
2249.000000	100.126153
2248.000000	100.061136
2247.000000	99.973574
2246.000000	99.936638
2245.000000	100.041389
2244.000000	100.166157
2243.000000	100.198820
2242.000000	100.190645
2241.000000	100.047376
2240.000000	99.991723
2239.000000	99.919164
2238.000000	99.939437
2237.000000	100.020903
2236.000000	100.020909
2235.000000	100.049289
2234.000000	99.932140
2233.000000	99.849027
2232.000000	99.975574
2231.000000	99.908231
2230.000000	99.897900
2229.000000	99.966117
2228.000000	100.066613
2227.000000	100.066431
2226.000000	99.960228
2225.000000	99.902801
2224.000000	99.890770
2223.000000	99.925295
2222.000000	100.029774
2221.000000	100.088255
2220.000000	100.021620
2219.000000	99.986270
2218.000000	100.052912
2217.000000	100.009081
2216.000000	100.028964
2215.000000	99.953889
2214.000000	99.923463
2213.000000	99.969717
2212.000000	99.864076
2211.000000	99.907153
2210.000000	100.100027
2209.000000	100.019278
2208.000000	100.172720
2207.000000	100.174846
2206.000000	100.163958
2205.000000	100.072793
2204.000000	99.987690
2203.000000	99.872921
2202.000000	99.812141
2201.000000	99.783527
2200.000000	100.047705
2199.000000	100.055240
2198.000000	100.140791
2197.000000	99.918937
2196.000000	99.958254
2195.000000	100.084945
2194.000000	99.970850
2193.000000	99.956270
2192.000000	100.112068
2191.000000	100.025834
2190.000000	100.175772
2189.000000	100.179682
2188.000000	100.106639
2187.000000	99.939549
2186.000000	99.874443
2185.000000	99.959027
2184.000000	99.897455
2183.000000	100.153505
2182.000000	99.990032
2181.000000	100.166411
2180.000000	100.055695
2179.000000	99.947352
2178.000000	100.120543
2177.000000	100.100396
2176.000000	100.026584
2175.000000	99.787296
2174.000000	99.859252
2173.000000	100.079025
2172.000000	99.874621
2171.000000	99.895695
2170.000000	99.967627
2169.000000	99.978396
2168.000000	100.123668
2167.000000	100.006033
2166.000000	100.030187
2165.000000	100.138588
2164.000000	99.972966
2163.000000	99.890744
2162.000000	99.991250
2161.000000	100.114332
2160.000000	99.762043
2159.000000	99.808546
2158.000000	100.203720
2157.000000	99.880227
2156.000000	99.750543
2155.000000	99.961163
2154.000000	99.765956
2153.000000	99.998292
2152.000000	99.890356
2151.000000	99.831124
2150.000000	99.935878
2149.000000	99.807169
2148.000000	100.143989
2147.000000	100.086536
2146.000000	99.957015
2145.000000	99.807621
2144.000000	100.123617
2143.000000	100.089863
2142.000000	99.801757
2141.000000	99.975541
2140.000000	100.027019
2139.000000	99.851340
2138.000000	100.160065
2137.000000	99.884797
2136.000000	100.018190
2135.000000	100.045986
2134.000000	100.018769
2133.000000	99.911530
2132.000000	99.650147
2131.000000	99.892944
2130.000000	100.170871
2129.000000	99.905168
2128.000000	100.272264
2127.000000	100.102301
2126.000000	99.886139
2125.000000	100.112038
2124.000000	100.291062
2123.000000	100.040683
2122.000000	100.161940
2121.000000	100.059691
2120.000000	99.878363
2119.000000	99.903525
2118.000000	100.051045
2117.000000	99.939128
2116.000000	99.871831
2115.000000	99.979293
2114.000000	99.873275
2113.000000	100.212124
2112.000000	100.083448
2111.000000	99.971844
2110.000000	99.864017
2109.000000	100.098341
2108.000000	100.079968
2107.000000	100.146472
2106.000000	100.022670
2105.000000	100.107521
2104.000000	99.827531
2103.000000	99.875118
2102.000000	99.929031
2101.000000	99.994670
2100.000000	99.934998
2099.000000	99.932459
2098.000000	100.014901
2097.000000	100.054831
2096.000000	100.086826
2095.000000	100.047923
2094.000000	100.073895
2093.000000	99.970122
2092.000000	100.035834
2091.000000	100.039881
2090.000000	100.118373
2089.000000	99.945913
2088.000000	99.955401
2087.000000	100.015613
2086.000000	100.059667
2085.000000	99.990124
2084.000000	99.930613
2083.000000	99.944745
2082.000000	99.913240
2081.000000	99.925698
2080.000000	100.024689
2079.000000	99.976316
2078.000000	99.938427
2077.000000	100.010177
2076.000000	100.101895
2075.000000	100.020456
2074.000000	99.992547
2073.000000	100.093246
2072.000000	100.032144
2071.000000	99.985089
2070.000000	100.005844
2069.000000	100.072089
2068.000000	99.945793
2067.000000	99.973198
2066.000000	100.026714
2065.000000	99.971785
2064.000000	99.931465
2063.000000	100.132173
2062.000000	100.057486
2061.000000	100.031553
2060.000000	99.967450
2059.000000	99.880838
2058.000000	100.040323
2057.000000	100.048390
2056.000000	100.003729
2055.000000	99.987298
2054.000000	100.005447
2053.000000	100.051553
2052.000000	99.997378
2051.000000	99.963105
2050.000000	100.005547
2049.000000	100.042699
2048.000000	100.008375
2047.000000	100.054483
2046.000000	100.050054
2045.000000	99.977815
2044.000000	99.934557
2043.000000	99.979724
2042.000000	99.976398
2041.000000	99.979518
2040.000000	100.044021
2039.000000	100.044941
2038.000000	100.095254
2037.000000	100.041883
2036.000000	100.047743
2035.000000	100.003332
2034.000000	99.944390
2033.000000	99.980322
2032.000000	100.005450
2031.000000	99.959935
2030.000000	99.918554
2029.000000	99.908454
2028.000000	99.900494
2027.000000	99.927436
2026.000000	100.002019
2025.000000	100.033539
2024.000000	100.003031
2023.000000	99.994645
2022.000000	99.954445
2021.000000	99.954656
2020.000000	100.009800
2019.000000	100.024963
2018.000000	100.019808
2017.000000	100.033345
2016.000000	99.980202
2015.000000	99.921935
2014.000000	100.006871
2013.000000	100.028499
2012.000000	100.006872
2011.000000	100.019911
2010.000000	100.048215
2009.000000	100.076321
2008.000000	100.019715
2007.000000	99.967047
2006.000000	99.963418
2005.000000	100.008997
2004.000000	100.042478
2003.000000	100.001416
2002.000000	100.005562
2001.000000	99.976641
2000.000000	99.950761
1999.000000	99.959859
1998.000000	99.961691
1997.000000	99.952884
1996.000000	100.004147
1995.000000	99.993728
1994.000000	100.032477
1993.000000	100.036732
1992.000000	99.960347
1991.000000	99.959431
1990.000000	100.003643
1989.000000	100.015580
1988.000000	100.017504
1987.000000	99.991804
1986.000000	99.993524
1985.000000	99.987046
1984.000000	100.004757
1983.000000	100.033809
1982.000000	100.054250
1981.000000	99.981180
1980.000000	99.998482
1979.000000	100.006984
1978.000000	99.989777
1977.000000	100.006579
1976.000000	100.027935
1975.000000	99.995446
1974.000000	100.010222
1973.000000	99.979557
1972.000000	100.004453
1971.000000	99.930804
1970.000000	99.960748
1969.000000	99.969445
1968.000000	99.938296
1967.000000	99.906651
1966.000000	99.979766
1965.000000	99.954369
1964.000000	100.001923
1963.000000	99.956594
1962.000000	99.960953
1961.000000	100.003238
1960.000000	100.007791
1959.000000	100.022061
1958.000000	99.999696
1957.000000	99.974606
1956.000000	99.927604
1955.000000	99.968957
1954.000000	100.010420
1953.000000	99.960576
1952.000000	99.951993
1951.000000	100.019013
1950.000000	99.937021
1949.000000	99.988979
1948.000000	99.963503
1947.000000	100.062706
1946.000000	99.987667
1945.000000	100.058529
1944.000000	100.058340
1943.000000	99.983831
1942.000000	99.953306
1941.000000	99.949805
1940.000000	100.027374
1939.000000	99.970713
1938.000000	100.004342
1937.000000	99.948617
1936.000000	99.983848
1935.000000	99.991218
1934.000000	99.991324
1933.000000	100.061188
1932.000000	99.962148
1931.000000	100.016146
1930.000000	100.120867
1929.000000	100.053394
1928.000000	100.024019
1927.000000	99.988396
1926.000000	99.966206
1925.000000	99.868155
1924.000000	99.915699
1923.000000	99.971060
1922.000000	99.953118
1921.000000	100.062172
1920.000000	99.943314
1919.000000	100.002826
1918.000000	99.981538
1917.000000	99.917613
1916.000000	99.943535
1915.000000	99.913580
1914.000000	99.935844
1913.000000	100.004844
1912.000000	100.062368
1911.000000	100.068844
1910.000000	99.943999
1909.000000	99.962143
1908.000000	99.987183
1907.000000	100.034043
1906.000000	100.089201
1905.000000	99.896950
1904.000000	99.982735
1903.000000	100.040597
1902.000000	100.016559
1901.000000	99.990609
1900.000000	99.920469
1899.000000	99.944264
1898.000000	100.001314
1897.000000	99.904572
1896.000000	99.930610
1895.000000	100.072152
1894.000000	99.947590
1893.000000	99.992525
1892.000000	100.013842
1891.000000	99.970491
1890.000000	99.981415
1889.000000	100.037991
1888.000000	99.970701
1887.000000	99.998586
1886.000000	99.901510
1885.000000	99.939253
1884.000000	100.062397
1883.000000	100.029470
1882.000000	99.960771
1881.000000	99.989106
1880.000000	100.022396
1879.000000	100.011298
1878.000000	99.936392
1877.000000	100.048606
1876.000000	100.025416
1875.000000	99.999092
1874.000000	100.033778
1873.000000	100.018346
1872.000000	99.956283
1871.000000	99.964630
1870.000000	100.030337
1869.000000	99.952542
1868.000000	100.002117
1867.000000	99.950320
1866.000000	100.013510
1865.000000	100.050928
1864.000000	99.970869
1863.000000	99.979938
1862.000000	100.021081
1861.000000	100.005749
1860.000000	100.006554
1859.000000	99.995159
1858.000000	99.969742
1857.000000	99.900600
1856.000000	99.929413
1855.000000	99.998386
1854.000000	100.035411
1853.000000	100.037119
1852.000000	99.970564
1851.000000	99.998992
1850.000000	100.046697
1849.000000	100.011393
1848.000000	99.982055
1847.000000	99.971669
1846.000000	99.972678
1845.000000	99.981953
1844.000000	99.996370
1843.000000	99.966526
1842.000000	99.983569
1841.000000	99.923702
1840.000000	99.962299
1839.000000	99.979838
1838.000000	99.964612
1837.000000	99.952502
1836.000000	99.990921
1835.000000	100.010091
1834.000000	99.994955
1833.000000	100.011407
1832.000000	100.014943
1831.000000	99.992831
1830.000000	100.003938
1829.000000	100.028886
1828.000000	100.004343
1827.000000	100.010707
1826.000000	99.979495
1825.000000	99.993029
1824.000000	100.007074
1823.000000	100.020819
1822.000000	99.981307
1821.000000	99.986355
1820.000000	100.017288
1819.000000	100.011020
1818.000000	100.028922
1817.000000	100.026904
1816.000000	99.996561
1815.000000	100.002124
1814.000000	99.999494
1813.000000	99.974314
1812.000000	99.968548
1811.000000	99.985939
1810.000000	99.991805
1809.000000	99.988162
1808.000000	100.005060
1807.000000	100.008298
1806.000000	100.011033
1805.000000	99.993118
1804.000000	99.980570
1803.000000	100.005770
1802.000000	100.023487
1801.000000	100.020243
1800.000000	99.989879
1799.000000	99.981677
1798.000000	100.000911
1797.000000	99.991094
1796.000000	99.970039
1795.000000	99.986942
1794.000000	99.981677
1793.000000	99.959612
1792.000000	99.983092
1791.000000	100.000810
1790.000000	99.985317
1789.000000	99.991595
1788.000000	100.015396
1787.000000	100.027855
1786.000000	100.034846
1785.000000	100.043860
1784.000000	100.013573
1783.000000	99.988557
1782.000000	99.976712
1781.000000	99.995848
1780.000000	99.994532
1779.000000	99.996861
1778.000000	99.989469
1777.000000	100.004861
1776.000000	100.015192
1775.000000	99.971245
1774.000000	99.987142
1773.000000	100.001013
1772.000000	99.981570
1771.000000	100.012760
1770.000000	100.009621
1769.000000	99.974278
1768.000000	99.983898
1767.000000	99.964766
1766.000000	99.985418
1765.000000	100.014987
1764.000000	99.976511
1763.000000	99.984711
1762.000000	100.019038
1761.000000	99.999291
1760.000000	99.974891
1759.000000	99.986331
1758.000000	99.981669
1757.000000	100.007799
1756.000000	100.018024
1755.000000	100.014685
1754.000000	100.010634
1753.000000	99.954138
1752.000000	99.967900
1751.000000	99.931776
1750.000000	99.966596
1749.000000	99.977926
1748.000000	99.968309
1747.000000	99.954351
1746.000000	99.977321
1745.000000	99.981573
1744.000000	100.010327
1743.000000	100.011440
1742.000000	99.995241
1741.000000	100.033825
1740.000000	100.021875
1739.000000	100.032907
1738.000000	100.011339
1737.000000	99.991092
1736.000000	99.988361
1735.000000	100.016400
1734.000000	100.009010
1733.000000	100.002835
1732.000000	99.980364
1731.000000	100.021568
1730.000000	100.000101
1729.000000	100.040601
1728.000000	99.989371
1727.000000	99.994330
1726.000000	99.999393
1725.000000	100.012655
1724.000000	99.968422
1723.000000	100.011338
1722.000000	99.991699
1721.000000	99.981987
1720.000000	100.027641
1719.000000	99.992104
1718.000000	99.962053
1717.000000	100.016501
1716.000000	100.011034
1715.000000	100.013970
1714.000000	100.024098
1713.000000	99.944348
1712.000000	99.982690
1711.000000	100.028754
1710.000000	100.030578
1709.000000	100.014071
1708.000000	99.990284
1707.000000	99.952133
1706.000000	99.982186
1705.000000	99.982288
1704.000000	100.005770
1703.000000	100.009819
1702.000000	100.019434
1701.000000	99.979350
1700.000000	100.002429
1699.000000	99.999798
1698.000000	99.999696
1697.000000	100.004858
1696.000000	99.964783
1695.000000	99.994029
1694.000000	100.015992
1693.000000	100.027028
1692.000000	99.995951
1691.000000	99.985831
1690.000000	99.975204
1689.000000	99.982186
1688.000000	100.008705
1687.000000	100.005568
1686.000000	99.956281
1685.000000	99.995345
1684.000000	99.982289
1683.000000	99.994232
1682.000000	99.977735
1681.000000	100.006376
1680.000000	100.017309
1679.000000	99.992207
1678.000000	100.011134
1677.000000	100.003037
1676.000000	99.984213
1675.000000	100.006984
1674.000000	100.017615
1673.000000	100.001316
1672.000000	99.990790
1671.000000	99.990284
1670.000000	100.005567
1669.000000	100.008094
1668.000000	100.002934
1667.000000	99.978757
1666.000000	99.991806
1665.000000	99.975722
1664.000000	99.997572
1663.000000	99.963085
1662.000000	99.988468
1661.000000	99.998685
1660.000000	99.971373
1659.000000	99.980478
1658.000000	99.994234
1657.000000	99.980277
1656.000000	99.964903
1655.000000	99.981693
1654.000000	99.998786
1653.000000	99.995954
1652.000000	100.014769
1651.000000	99.987154
1650.000000	100.003844
1649.000000	99.999595
1648.000000	99.991705
1647.000000	99.986750
1646.000000	99.986850
1645.000000	100.000202
1644.000000	100.000303
1643.000000	99.994741
1642.000000	99.992919
1641.000000	99.986145
1640.000000	99.996359
1639.000000	99.999090
1638.000000	99.988167
1637.000000	99.982301
1636.000000	99.994741
1635.000000	100.011835
1634.000000	99.998685
1633.000000	99.995853
1632.000000	100.012037
1631.000000	100.013353
1630.000000	100.018412
1629.000000	99.984523
1628.000000	100.009610
1627.000000	100.019321
1626.000000	99.988470
1625.000000	99.992920
1624.000000	99.992818
1623.000000	99.985537
1622.000000	100.009204
1621.000000	100.002933
1620.000000	99.998483
1619.000000	99.999697
1618.000000	99.984729
1617.000000	99.996966
1616.000000	100.016081
1615.000000	100.019623
1614.000000	100.023264
1613.000000	100.017295
1612.000000	99.999798
1611.000000	99.995145
1610.000000	100.016386
1609.000000	100.014667
1608.000000	100.006676
1607.000000	100.011329
1606.000000	100.021343
1605.000000	100.007586
1604.000000	99.986752
1603.000000	99.988977
1602.000000	100.004754
1601.000000	100.001821
1600.000000	100.001113
1599.000000	100.000607
1598.000000	99.988369
1597.000000	99.986954
1596.000000	99.997269
1595.000000	100.001517
1594.000000	99.991707
1593.000000	99.991403
1592.000000	100.006878
1591.000000	100.012542
1590.000000	100.011632
1589.000000	99.988572
1588.000000	99.997067
1587.000000	100.005158
1586.000000	99.989179
1585.000000	100.002023
1584.000000	100.006776
1583.000000	99.994034
1582.000000	99.994034
1581.000000	99.984530
1580.000000	99.978665
1579.000000	99.989686
1578.000000	100.010922
1577.000000	100.009809
1576.000000	100.004450
1575.000000	100.007990
1574.000000	99.992214
1573.000000	100.000910
1572.000000	100.024271
1571.000000	100.009101
1570.000000	100.002832
1569.000000	99.987563
1568.000000	99.989788
1567.000000	99.993731
1566.000000	99.995855
1565.000000	99.993732
1564.000000	99.990193
1563.000000	100.014357
1562.000000	100.009706
1561.000000	99.992216
1560.000000	100.000000
1559.000000	100.002831
1558.000000	99.987972
1557.000000	99.991610
1556.000000	100.006167
1555.000000	100.000101
1554.000000	100.003841
1553.000000	100.003437
1552.000000	99.996967
1551.000000	99.991813
1550.000000	99.987467
1549.000000	99.981505
1548.000000	100.004043
1547.000000	100.009805
1546.000000	100.009199
1545.000000	100.005156
1544.000000	99.984941
1543.000000	99.984032
1542.000000	99.997271
1541.000000	99.988780
1540.000000	100.001415
1539.000000	100.004548
1538.000000	99.981609
1537.000000	99.978880
1536.000000	99.991309
1535.000000	99.990096
1534.000000	99.977970
1533.000000	100.001314
1532.000000	100.007277
1531.000000	100.005255
1530.000000	100.009402
1529.000000	100.016378
1528.000000	99.996664
1527.000000	100.002831
1526.000000	100.008290
1525.000000	99.978469
1524.000000	100.001112
1523.000000	99.995957
1522.000000	99.968168
1521.000000	99.977866
1520.000000	99.986052
1519.000000	99.972005
1518.000000	100.010818
1517.000000	99.966948
1516.000000	99.986354
1515.000000	99.979481
1514.000000	99.966040
1513.000000	100.015573
1512.000000	100.021233
1511.000000	99.996664
1510.000000	99.989892
1509.000000	99.987365
1508.000000	100.001213
1507.000000	99.963810
1506.000000	99.986353
1505.000000	100.005561
1504.000000	99.972199
1503.000000	99.988880
1502.000000	99.989182
1501.000000	99.982005
1500.000000	99.983218
1499.000000	99.990599
1498.000000	100.002022
1497.000000	99.989993
1496.000000	99.993228
1495.000000	100.004650
1494.000000	99.978977
1493.000000	99.991005
1492.000000	99.995250
1491.000000	99.986051
1490.000000	100.022441
1489.000000	100.000000
1488.000000	99.993531
1487.000000	100.015059
1486.000000	100.003436
1485.000000	99.991511
1484.000000	100.003335
1483.000000	100.007275
1482.000000	99.992927
1481.000000	99.991715
1480.000000	100.002930
1479.000000	99.974847
1478.000000	99.978887
1477.000000	99.978886
1476.000000	99.981313
1475.000000	99.992424
1474.000000	99.982524
1473.000000	99.982221
1472.000000	100.011012
1471.000000	100.012224
1470.000000	100.000101
1469.000000	99.990807
1468.000000	99.992223
1467.000000	100.005354
1466.000000	100.006061
1465.000000	99.995353
1464.000000	99.996162
1463.000000	99.986767
1462.000000	99.999192
1461.000000	99.983941
1460.000000	100.000000
1459.000000	99.989596
1458.000000	99.996263
1457.000000	100.018079
1456.000000	100.016669
1455.000000	99.958792
1454.000000	99.995152
1453.000000	100.007374
1452.000000	100.015958
1451.000000	100.006969
1450.000000	100.000707
1449.000000	100.028683
1448.000000	100.012623
1447.000000	100.000202
1446.000000	100.005857
1445.000000	100.017168
1444.000000	100.023431
1443.000000	100.034037
1442.000000	99.966582
1441.000000	99.979704
1440.000000	99.982734
1439.000000	99.982734
1438.000000	99.967190
1437.000000	99.977082
1436.000000	99.989702
1435.000000	99.991116
1434.000000	99.998889
1433.000000	100.010197
1432.000000	100.002423
1431.000000	99.983750
1430.000000	100.012013
1429.000000	99.995861
1428.000000	99.980621
1427.000000	99.982842
1426.000000	99.980318
1425.000000	99.982340
1424.000000	99.991322
1423.000000	99.986379
1422.000000	100.002825
1421.000000	99.991627
1420.000000	99.977307
1419.000000	99.988603
1418.000000	99.987597
1417.000000	99.999093
1416.000000	99.987802
1415.000000	99.980546
1414.000000	100.000202
1413.000000	100.016125
1412.000000	100.006046
1411.000000	99.991839
1410.000000	99.988416
1409.000000	99.991137
1408.000000	99.991036
1407.000000	99.987412
1406.000000	99.991241
1405.000000	99.990839
1404.000000	99.978861
1403.000000	99.983995
1402.000000	100.003624
1401.000000	99.991244
1400.000000	99.994666
1399.000000	99.998189
1398.000000	100.012175
1397.000000	100.015093
1396.000000	99.999899
1395.000000	99.995976
1394.000000	99.980792
1393.000000	99.999095
1392.000000	100.014986
1391.000000	99.988838
1390.000000	99.983410
1389.000000	99.993264
1388.000000	99.985623
1387.000000	99.989243
1386.000000	100.007339
1385.000000	100.007843
1384.000000	100.001910
1383.000000	100.005026
1382.000000	99.999196
1381.000000	99.999598
1380.000000	100.001106
1379.000000	100.005429
1378.000000	100.005026
1377.000000	99.993968
1376.000000	99.996884
1375.000000	99.996884
1374.000000	99.993064
1373.000000	100.000302
1372.000000	100.007138
1371.000000	99.993667
1370.000000	99.981105
1369.000000	99.995075
1368.000000	100.003920
1367.000000	100.000100
1366.000000	99.995679
1365.000000	99.989952
1364.000000	99.995880
1363.000000	100.000000
1362.000000	99.994875
1361.000000	99.995477
1360.000000	99.991153
1359.000000	100.008949
1358.000000	100.006436
1357.000000	99.982899
1356.000000	99.995975
1355.000000	100.006140
1354.000000	100.005939
1353.000000	100.008659
1352.000000	100.035655
1351.000000	100.001007
1350.000000	99.953467
1349.000000	100.007255
1348.000000	100.042635
1347.000000	99.981053
1346.000000	99.968861
1345.000000	99.982262
1344.000000	100.016735
1343.000000	100.008266
1342.000000	99.985989
1341.000000	99.985482
1340.000000	99.991330
1339.000000	99.994657
1338.000000	99.988611
1337.000000	99.997380
1336.000000	100.007257
1335.000000	99.990020
1334.000000	100.006149
1333.000000	99.982264
1332.000000	99.976923
1331.000000	99.999295
1330.000000	100.002721
1329.000000	99.979642
1328.000000	99.989923
1327.000000	99.994256
1326.000000	99.983273
1325.000000	99.988209
1324.000000	99.985491
1323.000000	99.985990
1322.000000	99.994559
1321.000000	99.999799
1320.000000	100.000806
1319.000000	100.016025
1318.000000	100.032455
1317.000000	99.964629
1316.000000	99.986799
1315.000000	99.993048
1314.000000	99.997481
1313.000000	100.008770
1312.000000	100.004940
1311.000000	99.971277
1310.000000	100.005141
1309.000000	99.995867
1308.000000	99.996170
1307.000000	99.990826
1306.000000	99.987904
1305.000000	99.982463
1304.000000	99.986292
1303.000000	99.989012
1302.000000	100.021477
1301.000000	99.986792
1300.000000	99.991330
1299.000000	99.991734
1298.000000	99.979235
1297.000000	99.997883
1296.000000	99.999698
1295.000000	100.008165
1294.000000	100.007863
1293.000000	99.988004
1292.000000	99.997782
1291.000000	99.965026
1290.000000	99.973493
1289.000000	99.993347
1288.000000	99.998992
1287.000000	99.999395
1286.000000	99.988109
1285.000000	100.000101
1284.000000	100.005038
1283.000000	100.007457
1282.000000	100.003527
1281.000000	100.031947
1280.000000	100.014711
1279.000000	99.980761
1278.000000	99.992445
1277.000000	100.005742
1276.000000	100.019437
1275.000000	100.013393
1274.000000	99.984597
1273.000000	100.020643
1272.000000	100.009867
1271.000000	100.009464
1270.000000	99.987619
1269.000000	99.987413
1268.000000	100.009462
1267.000000	100.015402
1266.000000	99.981379
1265.000000	100.006743
1264.000000	99.985408
1263.000000	99.981887
1262.000000	99.993457
1261.000000	99.998189
1260.000000	100.027075
1259.000000	100.021437
1258.000000	99.976754
1257.000000	100.008755
1256.000000	100.032012
1255.000000	99.982086
1254.000000	99.993559
1253.000000	99.993258
1252.000000	99.989434
1251.000000	99.988628
1250.000000	100.002818
1249.000000	99.995170
1248.000000	100.009863
1247.000000	99.991548
1246.000000	99.992754
1245.000000	99.987725
1244.000000	100.006642
1243.000000	99.999597
1242.000000	100.000805
1241.000000	99.995170
1240.000000	99.992757
1239.000000	100.003420
1238.000000	100.010866
1237.000000	99.973850
1236.000000	100.015388
1235.000000	100.013980
1234.000000	100.010157
1233.000000	99.984518
1232.000000	100.006736
1231.000000	99.981806
1230.000000	99.989546
1229.000000	100.006634
1228.000000	99.991659
1227.000000	99.986034
1226.000000	99.994775
1225.000000	99.985736
1224.000000	99.991059
1223.000000	99.977705
1222.000000	99.992568
1221.000000	99.981223
1220.000000	99.981325
1219.000000	99.980121
1218.000000	99.977213
1217.000000	99.981531
1216.000000	99.982035
1215.000000	100.003011
1214.000000	100.002910
1213.000000	100.001505
1212.000000	99.984948
1211.000000	100.001004
1210.000000	100.024290
1209.000000	99.989163
1208.000000	100.010235
1207.000000	100.017660
1206.000000	99.992977
1205.000000	99.995785
1204.000000	99.994582
1203.000000	100.000301
1202.000000	100.003713
1201.000000	99.968998
1200.000000	99.982544
1199.000000	99.986859
1198.000000	99.989165
1197.000000	100.003010
1196.000000	100.003311
1195.000000	99.985856
1194.000000	99.989266
1193.000000	100.006320
1192.000000	99.988062
1191.000000	99.987059
1190.000000	100.004615
1189.000000	99.999599
1188.000000	100.008629
1187.000000	100.001304
1186.000000	100.006621
1185.000000	100.014044
1184.000000	100.015547
1183.000000	100.012538
1182.000000	100.004212
1181.000000	99.984959
1180.000000	99.984159
1179.000000	99.993684
1178.000000	99.992882
1177.000000	99.992582
1176.000000	99.985266
1175.000000	99.980558
1174.000000	99.979458
1173.000000	99.986572
1172.000000	100.014732
1171.000000	100.007916
1170.000000	100.004208
1169.000000	100.003807
1168.000000	99.988281
1167.000000	99.978967
1166.000000	99.984176
1165.000000	99.989084
1164.000000	100.004807
1163.000000	100.006809
1162.000000	99.979780
1161.000000	99.980582
1160.000000	99.996597
1159.000000	100.023823
1158.000000	100.019714
1157.000000	99.989897
1156.000000	99.981996
1155.000000	99.979797
1154.000000	99.975999
1153.000000	99.981201
1152.000000	99.991301
1151.000000	99.997101
1150.000000	100.003399
1149.000000	100.009197
1148.000000	100.009096
1147.000000	99.990207
1146.000000	99.984712
1145.000000	99.993106
1144.000000	99.983817
1143.000000	99.997902
1142.000000	99.993409
1141.000000	99.996705
1140.000000	99.997204
1139.000000	99.995208
1138.000000	99.995408
1137.000000	99.988522
1136.000000	99.988523
1135.000000	99.993713
1134.000000	99.986231
1133.000000	99.997506
1132.000000	99.986932
1131.000000	99.986635
1130.000000	100.001895
1129.000000	99.999900
1128.000000	99.998904
1127.000000	100.008074
1126.000000	99.991429
1125.000000	99.986845
1124.000000	99.972998
1123.000000	99.985453
1122.000000	99.998904
1121.000000	100.001594
1120.000000	100.003586
1119.000000	99.992032
1118.000000	99.987651
1117.000000	99.995220
1116.000000	99.984166
1115.000000	100.002191
1114.000000	99.988352
1113.000000	99.994027
1112.000000	99.993231
1111.000000	99.967259
1110.000000	99.967060
1109.000000	99.987858
1108.000000	100.003483
1107.000000	100.009752
1106.000000	99.989355
1105.000000	100.009151
1104.000000	99.992840
1103.000000	100.003878
1102.000000	100.001293
1101.000000	99.984692
1100.000000	100.005069
1099.000000	100.009143
1098.000000	100.005267
1097.000000	99.993343
1096.000000	99.975863
1095.000000	99.981725
1094.000000	100.000199
1093.000000	99.985307
1092.000000	100.000000
1091.000000	99.988190
1090.000000	100.004069
1089.000000	99.990177
1088.000000	99.999504
1087.000000	100.000694
1086.000000	100.015670
1085.000000	100.028961
1084.000000	99.981661
1083.000000	99.994944
1082.000000	99.990189
1081.000000	99.994054
1080.000000	99.988113
1079.000000	99.997326
1078.000000	100.018026
1077.000000	99.987524
1076.000000	99.988219
1075.000000	99.970998
1074.000000	99.976351
1073.000000	99.991394
1072.000000	100.020180
1071.000000	100.014144
1070.000000	99.991200
1069.000000	99.990609
1068.000000	100.011764
1067.000000	100.003756
1066.000000	100.001186
1065.000000	99.973035
1064.000000	100.002864
1063.000000	99.992101
1062.000000	99.996940
1061.000000	99.994966
1060.000000	99.980068
1059.000000	100.001973
1058.000000	100.012427
1057.000000	100.007297
1056.000000	99.956235
1055.000000	99.978021
1054.000000	99.980883
1053.000000	100.006306
1052.000000	100.005221
1051.000000	100.018911
1050.000000	99.982574
1049.000000	100.009253
1048.000000	99.987308
1047.000000	100.010724
1046.000000	99.988984
1045.000000	99.991247
1044.000000	99.995182
1043.000000	99.985750
1042.000000	99.996069
1041.000000	100.006288
1040.000000	99.980750
1039.000000	100.008641
1038.000000	100.005497
1037.000000	99.986851
1036.000000	99.987343
1035.000000	99.994311
1034.000000	99.990195
1033.000000	100.001961
1032.000000	99.994217
1031.000000	100.005781
1030.000000	100.013225
1029.000000	99.991285
1028.000000	100.009400
1027.000000	100.000098
1026.000000	100.003718
1025.000000	99.999217
1024.000000	99.986214
1023.000000	100.004692
1022.000000	99.997166
1021.000000	100.008597
1020.000000	99.990722
1019.000000	99.984868
1018.000000	99.999317
1017.000000	99.994244
1016.000000	99.965968
1015.000000	100.001170
1014.000000	100.012770
1013.000000	100.005652
1012.000000	100.014612
1011.000000	100.010516
1010.000000	100.011973
1009.000000	100.000097
1008.000000	100.003891
1007.000000	99.992222
1006.000000	99.994169
1005.000000	99.993685
1004.000000	99.993493
1003.000000	99.995631
1002.000000	100.006309
1001.000000	99.987680
1000.000000	99.982546
999.000000	99.988269
998.000000	99.997771
997.000000	99.996416
996.000000	100.008619
995.000000	100.009486
994.000000	99.998258
993.000000	99.997195
992.000000	99.997390
991.000000	99.989177
990.000000	99.973339
989.000000	99.984840
988.000000	99.979345
987.000000	99.998939
986.000000	100.024791
985.000000	100.000482
984.000000	100.011374
983.000000	100.028230
982.000000	100.006163
981.000000	100.006256
980.000000	100.004233
979.000000	100.002693
978.000000	100.006825
977.000000	99.994331
976.000000	99.994910
975.000000	100.008545
974.000000	100.012859
973.000000	99.983505
972.000000	99.975557
971.000000	99.999233
970.000000	99.990518
969.000000	99.985161
968.000000	99.987656
967.000000	99.998470
966.000000	99.984327
965.000000	99.977553
964.000000	99.985296
963.000000	99.979387
962.000000	99.998092
961.000000	99.999523
960.000000	99.998571
959.000000	100.008857
958.000000	100.003236
957.000000	100.009894
956.000000	99.998859
955.000000	100.009218
954.000000	99.998291
953.000000	99.992312
952.000000	99.991462
951.000000	99.985116
950.000000	100.005023
949.000000	100.007293
948.000000	100.003786
947.000000	100.008514
946.000000	100.006996
945.000000	99.993292
944.000000	99.968847
943.000000	99.983584
942.000000	99.990760
941.000000	99.991802
940.000000	100.002449
939.000000	99.987860
938.000000	99.967275
937.000000	99.958565
936.000000	99.977185
935.000000	99.987519
934.000000	99.972240
933.000000	99.973197
932.000000	100.001124
931.000000	100.010017
930.000000	100.001871
929.000000	100.018323
928.000000	99.995984
927.000000	99.951378
926.000000	99.990857
925.000000	100.001025
924.000000	99.987613
923.000000	99.978781
922.000000	100.011903
921.000000	99.976122
920.000000	99.965743
919.000000	99.987290
918.000000	99.965893
917.000000	99.975276
916.000000	99.977049
915.000000	99.981782
914.000000	99.986693
913.000000	99.961130
912.000000	99.963282
911.000000	100.014196
910.000000	100.041818
909.000000	99.973864
908.000000	99.964692
907.000000	99.944158
906.000000	99.948712
905.000000	99.993488
904.000000	99.999359
903.000000	100.010620
902.000000	99.976856
901.000000	99.959713
900.000000	99.992698
899.000000	100.028735
898.000000	100.037200
897.000000	99.989800
896.000000	99.982626
895.000000	99.993910
894.000000	99.972120
893.000000	99.962711
892.000000	99.981959
891.000000	100.003079
890.000000	99.983080
889.000000	99.998011
888.000000	99.949253
887.000000	99.956677
886.000000	99.885187
885.000000	99.928832
884.000000	99.986766
883.000000	99.999551
882.000000	100.046253
881.000000	100.081590
880.000000	100.106906
879.000000	100.006808
878.000000	100.017271
877.000000	100.064815
876.000000	99.985271
875.000000	99.895010
874.000000	99.870933
873.000000	99.977032
872.000000	100.027849
871.000000	99.965691
870.000000	100.011193
869.000000	99.971085
868.000000	100.012321
867.000000	100.043574
866.000000	100.039287
865.000000	100.024938
864.000000	100.006185
863.000000	99.923440
862.000000	100.011645
861.000000	100.084639
860.000000	99.977638
859.000000	99.323527
858.000000	99.456377
857.000000	100.222686
856.000000	99.712489
855.000000	99.946611
854.000000	99.946770
853.000000	100.077158
852.000000	100.269501
851.000000	99.782271
850.000000	99.715603
849.000000	100.026361
848.000000	100.154554
847.000000	100.060552
846.000000	100.074411
845.000000	99.959874
844.000000	99.922416
843.000000	100.115157
842.000000	99.986223
841.000000	100.369610
840.000000	99.929153
839.000000	100.249291
838.000000	100.145530
837.000000	99.886105
836.000000	100.168153
835.000000	99.976632
834.000000	100.249944
833.000000	99.969674
832.000000	99.960151
831.000000	100.156458
830.000000	100.156293
829.000000	99.785065
828.000000	100.128540
827.000000	99.840058
826.000000	100.049878
825.000000	99.922117
824.000000	99.918971
823.000000	99.852151
822.000000	99.876787
821.000000	100.117550
820.000000	99.922805
819.000000	99.845502
818.000000	100.077231
817.000000	99.869803
816.000000	100.100543
815.000000	99.930021
814.000000	100.125688
813.000000	100.029764
812.000000	99.939661
811.000000	99.950214
810.000000	99.983494
809.000000	99.916592
808.000000	99.731745
807.000000	100.111285
806.000000	100.145538
805.000000	100.038909
804.000000	100.081698
803.000000	99.754054
802.000000	99.794797
801.000000	100.198434
800.000000	99.723157
799.000000	100.045506
798.000000	100.003332
797.000000	100.023778
796.000000	100.206081
795.000000	100.010266
794.000000	99.857812
793.000000	99.905482
792.000000	99.802589
791.000000	99.924987
790.000000	99.771253
789.000000	99.883298
788.000000	99.938610
787.000000	100.005454
786.000000	99.964078
785.000000	99.997355
784.000000	99.993826
783.000000	99.983077
782.000000	99.862816
781.000000	99.803202
780.000000	99.907022
779.000000	99.973467
778.000000	100.096100
777.000000	100.071809
776.000000	100.033002
775.000000	100.027613
774.000000	100.051460
773.000000	100.140543
772.000000	99.941318
771.000000	99.925762
770.000000	99.912910
769.000000	99.965766
768.000000	99.962011
767.000000	99.993075
766.000000	99.962844
765.000000	100.013253
764.000000	100.027140
763.000000	99.922831
762.000000	100.048437
761.000000	99.917806
760.000000	99.937197
759.000000	100.096100
758.000000	100.068607
757.000000	100.044704
756.000000	100.007493
755.000000	100.125954
754.000000	100.043145
753.000000	100.103958
752.000000	99.899642
751.000000	99.990606
750.000000	100.119604
749.000000	100.072348
748.000000	100.121268
747.000000	100.041126
746.000000	99.881533
745.000000	99.977246
744.000000	99.991213
743.000000	99.985377
742.000000	100.000000
741.000000	99.991921
740.000000	100.008718
739.000000	99.988312
738.000000	99.979768
737.000000	100.109710
736.000000	100.022027
735.000000	100.011788
734.000000	99.959588
733.000000	99.989739
732.000000	99.927268
731.000000	99.981085
730.000000	99.998107
729.000000	100.028220
728.000000	99.940706
727.000000	100.001985
726.000000	99.992960
725.000000	99.941508
724.000000	99.976883
723.000000	100.069209
722.000000	99.995029
721.000000	99.977224
720.000000	100.018441
719.000000	99.987703
718.000000	100.001900
717.000000	99.964910
716.000000	99.880457
715.000000	99.935948
714.000000	100.032499
713.000000	100.010234
712.000000	99.912866
711.000000	99.968637
710.000000	100.027753
709.000000	100.022497
708.000000	100.062398
707.000000	100.001814
706.000000	99.944029
705.000000	99.940859
704.000000	99.935386
703.000000	99.971031
702.000000	100.012716
701.000000	99.985919
700.000000	100.041539
699.000000	100.053185
698.000000	99.983815
697.000000	99.970540
696.000000	99.932729
695.000000	99.953888
694.000000	99.970702
693.000000	99.939018
692.000000	99.930174
691.000000	100.001275
690.000000	100.004830
689.000000	99.961218
688.000000	99.906059
687.000000	99.947417
686.000000	99.977847
685.000000	99.958171
684.000000	99.933021
683.000000	99.952593
682.000000	99.973921
681.000000	99.950744
680.000000	100.057061
679.000000	100.089055
678.000000	100.039175
677.000000	99.957628
676.000000	100.014429
675.000000	99.975704
674.000000	99.943176
673.000000	99.914870
672.000000	99.994426
671.000000	100.055884
670.000000	99.999909
669.000000	99.966537
668.000000	99.996892
667.000000	99.940144
666.000000	99.949727
665.000000	99.951823
664.000000	99.981885
663.000000	100.037354
662.000000	100.000183
661.000000	100.053934
660.000000	100.028656
659.000000	99.998260
658.000000	99.925183
657.000000	99.973705
656.000000	99.960803
655.000000	100.042328
654.000000	100.041875
653.000000	99.950345
652.000000	99.900406
651.000000	99.867723
650.000000	99.945739
649.000000	99.930069
648.000000	100.042175
647.000000	100.001375
646.000000	100.026967
645.000000	100.012570
644.000000	99.988527
643.000000	99.957790
642.000000	100.019369
641.000000	99.966952
640.000000	99.981547
639.000000	99.996236
638.000000	100.020116
637.000000	99.963550
636.000000	99.981082
635.000000	99.871474
634.000000	99.953056
633.000000	99.983462
632.000000	99.894315
631.000000	99.955521
630.000000	99.965359
629.000000	99.941539
628.000000	99.954782
627.000000	99.922431
626.000000	99.929305
625.000000	100.052261
624.000000	99.982978
623.000000	99.917941
622.000000	99.988681
621.000000	99.953352
620.000000	100.009941
619.000000	99.936332
618.000000	99.973127
617.000000	99.928114
616.000000	100.011697
615.000000	99.953505
614.000000	99.982689
613.000000	99.900879
612.000000	99.941608
611.000000	99.975225
610.000000	100.050618
609.000000	100.007003
608.000000	99.980281
607.000000	100.019715
606.000000	99.992812
605.000000	99.930970
604.000000	99.980545
603.000000	99.960453
602.000000	99.978801
601.000000	99.952068
600.000000	100.048428
599.000000	99.926978
598.000000	100.040148
597.000000	100.020482
596.000000	99.997695
595.000000	100.061718
594.000000	100.022036
593.000000	100.020675
592.000000	99.983757
591.000000	99.907474
590.000000	99.995941
589.000000	100.034879
588.000000	100.002215
587.000000	99.955349
586.000000	100.042011
585.000000	99.954872
584.000000	99.982097
583.000000	100.097094
582.000000	99.998615
581.000000	99.909234
580.000000	99.912288
579.000000	99.864256
578.000000	99.940273
577.000000	99.987630
576.000000	100.074057
575.000000	99.919228
574.000000	100.039721
573.000000	99.859830
572.000000	99.958631
571.000000	99.971194
570.000000	99.991506
569.000000	100.025782
568.000000	99.967479
567.000000	99.977467
566.000000	99.920789
565.000000	100.034180
564.000000	99.909248
563.000000	99.949739
562.000000	99.995935
561.000000	100.007102
560.000000	99.906309
559.000000	100.041615
558.000000	100.000646
557.000000	99.970487
556.000000	100.013655
555.000000	100.005997
554.000000	99.956462
553.000000	99.966790
552.000000	99.977586
551.000000	99.970940
550.000000	100.002860
549.000000	100.035713
548.000000	99.989021
547.000000	100.005907
546.000000	99.941495
545.000000	99.963556
544.000000	100.015129
543.000000	100.007474
542.000000	99.949331
541.000000	100.003140
540.000000	99.901667
539.000000	99.951642
538.000000	99.934322
537.000000	100.039513
536.000000	99.945624
535.000000	99.899027
534.000000	99.910643
533.000000	99.956778
532.000000	100.036476
531.000000	99.900563
530.000000	99.940793
529.000000	99.986146
528.000000	99.939434
527.000000	99.989842
526.000000	99.978944
525.000000	99.954657
524.000000	99.953167
523.000000	99.957308
522.000000	99.914512
521.000000	99.972389
520.000000	100.019864
519.000000	100.013762
518.000000	99.905343
517.000000	99.941161
516.000000	100.025591
515.000000	100.026704
514.000000	100.024854
513.000000	100.031429
512.000000	99.973298
511.000000	99.951406
510.000000	99.934205
509.000000	99.965990
508.000000	99.953904
507.000000	99.989005
506.000000	99.965354
505.000000	99.959156
504.000000	99.964151
503.000000	99.953078
502.000000	99.996581
501.000000	99.943364
500.000000	99.946857
499.000000	100.007489
498.000000	99.986136
497.000000	99.978655
496.000000	100.004989
495.000000	99.944941
494.000000	99.977825
493.000000	99.969972
492.000000	99.914398
491.000000	99.943493
490.000000	99.973871
489.000000	99.947200
488.000000	99.924649
487.000000	99.992517
486.000000	100.008496
485.000000	99.985587
484.000000	100.036619
483.000000	99.981881
482.000000	99.912452
481.000000	99.910140
480.000000	99.957268
479.000000	99.968362
478.000000	99.969366
477.000000	99.987131
476.000000	99.943993
475.000000	99.916806
474.000000	99.937799
473.000000	99.992499
472.000000	99.936118
471.000000	99.900675
470.000000	99.952221
469.000000	99.954719
468.000000	99.991479
467.000000	100.013062
466.000000	99.991849
465.000000	99.970913
464.000000	99.997405
463.000000	99.969889
462.000000	99.981377
461.000000	99.988325
460.000000	99.957845
459.000000	100.017517
458.000000	100.040681
457.000000	100.018437
456.000000	100.046435
455.000000	100.032159
454.000000	99.969707
453.000000	99.940791
452.000000	100.003245
451.000000	99.990450
450.000000	100.004079
449.000000	100.032257
448.000000	99.954312
447.000000	99.947057
446.000000	99.976264
445.000000	99.962005
444.000000	100.050515
443.000000	100.007881
442.000000	99.956144
441.000000	99.888832
440.000000	99.919430
439.000000	99.962442
438.000000	99.980335
437.000000	99.979228
436.000000	100.001391
435.000000	100.021995
434.000000	100.037589
433.000000	99.994433
432.000000	100.009094
431.000000	100.003248
430.000000	100.020231
429.000000	99.962230
428.000000	100.007426
427.000000	99.989235
426.000000	100.005568
425.000000	99.992480
424.000000	99.900422
423.000000	99.973812
422.000000	100.045524
421.000000	100.086212
420.000000	99.912392
419.000000	99.931415
418.000000	100.017653
417.000000	99.993868
416.000000	99.915534
415.000000	99.932900
414.000000	99.991645
413.000000	100.058996
412.000000	100.001115
411.000000	100.022946
410.000000	100.041143
409.000000	99.950137
408.000000	99.949309
407.000000	99.936504
406.000000	99.889917
405.000000	99.884200
404.000000	99.923612
403.000000	100.043191
402.000000	100.103366
401.000000	99.986351
400.000000	99.910454
399.000000	99.981529
398.000000	100.025163
397.000000	100.126294
396.000000	100.048558
395.000000	99.982558
394.000000	99.896073
393.000000	99.915816
392.000000	100.066462
391.000000	99.924964
390.000000	99.976329
389.000000	99.864138
388.000000	99.826063
387.000000	99.937748
386.000000	100.011978
385.000000	99.958820
384.000000	99.979504
383.000000	100.053635
382.000000	99.976079
381.000000	99.852802
380.000000	100.092947
379.000000	99.894348
378.000000	99.955840
377.000000	100.309730
376.000000	100.122169
375.000000	100.246384
374.000000	100.034419
373.000000	99.919619
372.000000	100.186991
371.000000	100.023046
370.000000	100.040758
369.000000	100.213607
368.000000	100.149024
367.000000	99.827290
366.000000	100.100406
365.000000	100.074149
364.000000	100.015790
363.000000	99.900621
362.000000	100.084790
361.000000	100.036122
360.000000	99.960427
359.000000	99.977468
358.000000	99.816899
357.000000	100.222248
356.000000	99.718665
355.000000	99.925628
354.000000	99.772942
353.000000	99.938581
352.000000	100.157764
351.000000	99.879154
350.000000	100.330820
349.000000	100.082365
348.000000	100.068173
347.000000	99.657129
346.000000	99.837181
345.000000	100.478306
344.000000	100.029554
343.000000	100.306258
342.000000	100.026237
341.000000	99.991630
340.000000	99.664101
339.000000	99.887310
338.000000	99.990075
337.000000	100.178320
336.000000	99.857634
335.000000	100.159146
334.000000	99.935021
333.000000	100.055939
332.000000	100.297273
331.000000	100.290147
330.000000	100.121324
329.000000	100.399775
328.000000	100.296515
327.000000	99.757298
326.000000	100.125185
325.000000	100.004930
324.000000	99.745730
323.000000	100.206796
322.000000	100.108818
321.000000	100.020336
320.000000	100.506155
319.000000	99.457484
318.000000	100.094593
317.000000	99.999365
316.000000	100.014167
315.000000	99.830405
314.000000	99.931833
313.000000	100.150423
312.000000	100.031654
311.000000	99.788460
310.000000	100.015501
309.000000	100.047588
308.000000	100.104790
307.000000	99.857938
306.000000	100.103973
305.000000	99.915995
304.000000	99.756391
303.000000	99.734743
302.000000	100.135006
301.000000	100.129873
300.000000	100.106612
299.000000	99.982041
298.000000	100.004451
297.000000	100.038110
296.000000	99.858832
295.000000	99.734591
294.000000	100.255250
293.000000	99.989038
292.000000	99.841798
291.000000	100.030114
290.000000	99.786874
289.000000	99.665136
288.000000	99.960049
287.000000	100.359238
286.000000	100.099584
285.000000	99.997475
284.000000	99.796177
283.000000	99.798561
282.000000	99.779983
281.000000	100.064460
280.000000	99.898666
279.000000	99.982843
278.000000	100.197059
277.000000	100.180325
276.000000	100.291253
275.000000	100.177599
274.000000	99.951819
273.000000	100.002577
272.000000	99.898701
271.000000	100.102581
270.000000	99.901012
269.000000	100.046229
268.000000	99.915526
267.000000	99.810815
266.000000	100.038192
265.000000	100.244593
264.000000	99.874959
263.000000	100.324388
262.000000	100.093189
261.000000	99.920165
260.000000	100.078053
259.000000	100.071035
258.000000	100.093390
257.000000	99.927071
256.000000	100.021928
255.000000	99.953639
254.000000	99.821222
253.000000	100.105029
252.000000	99.932119
251.000000	100.261323
250.000000	100.155809
249.000000	99.758674
248.000000	99.897736
247.000000	100.199313
246.000000	99.983926
245.000000	99.873488
244.000000	99.935031
243.000000	99.934696
242.000000	99.763416
241.000000	99.907601
240.000000	100.183755
239.000000	99.942307
238.000000	99.610039
237.000000	99.819045
236.000000	100.043513
235.000000	100.103482
234.000000	100.090140
233.000000	99.982303
232.000000	100.008494
231.000000	100.105550
230.000000	100.182331
229.000000	100.100167
228.000000	99.870003
227.000000	100.106692
226.000000	100.131662
225.000000	99.976202
224.000000	100.107990
223.000000	100.075792
222.000000	100.086606
221.000000	100.321069
220.000000	100.326781
219.000000	99.722732
218.000000	99.788416
217.000000	100.304643
216.000000	100.278537
215.000000	99.697647
214.000000	99.749238
213.000000	99.694693
212.000000	99.664076
211.000000	99.693363
210.000000	99.535702
209.000000	99.664393
208.000000	100.087264
207.000000	100.128913
206.000000	100.062661
205.000000	100.033774
204.000000	100.442764
203.000000	100.233194
202.000000	100.180260
201.000000	100.761872
200.000000	99.486443
