PE UV       SUBTECH     SPECTRUM    ASCII       PEDS        4.00        
   -1
RDms159331.Sample.asc
18/03/13
14:33:14.00
18/03/13
14:33:14.00
Administrator

200.000000
1
Lambda 750
750N8071901
PerkinElmer UV WinLab 6.0.4.0738 / 1.61.00 Lambda 900

0
0
3350/servo 860.8/2
0
0
UV/VIS
1
1
1
CommonBeamDepol,150mm sphere / downward view
0
0
0
0
Program
Program
3350/servo 860.8/2
3350/0.2 860.8/0.2
3350/0.2 860.8/0.2
0
1
 
 
 
0
 
860.8
319.2
860.8
Front
100
on
 
 
0
0
0
 
0
 
 
 
0
 
 
0
0
0
0
0
 
 
 
 
0
0


0
0
#HDR
-1
-1
#GR
nm
%R
1.0
0.0
2350.000000
-1.000000
2151
8
54.004584
6.315720
#DATA
2350.000000	22.378920
2349.000000	21.889697
2348.000000	21.963630
2347.000000	22.350341
2346.000000	21.987032
2345.000000	22.038383
2344.000000	21.963250
2343.000000	22.101995
2342.000000	22.095711
2341.000000	22.017287
2340.000000	22.589490
2339.000000	22.903685
2338.000000	22.922504
2337.000000	22.774444
2336.000000	23.262930
2335.000000	23.314475
2334.000000	23.320539
2333.000000	23.266321
2332.000000	23.324392
2331.000000	23.335891
2330.000000	23.043581
2329.000000	23.207503
2328.000000	22.954208
2327.000000	22.818986
2326.000000	23.234327
2325.000000	22.925736
2324.000000	23.025293
2323.000000	22.788971
2322.000000	22.611386
2321.000000	22.595961
2320.000000	22.554011
2319.000000	22.637921
2318.000000	22.704367
2317.000000	22.440275
2316.000000	22.620426
2315.000000	22.401492
2314.000000	22.363537
2313.000000	22.332390
2312.000000	22.065923
2311.000000	22.033146
2310.000000	21.874874
2309.000000	21.892194
2308.000000	21.832212
2307.000000	21.730129
2306.000000	21.904969
2305.000000	21.703082
2304.000000	21.781042
2303.000000	21.829159
2302.000000	21.717127
2301.000000	21.541166
2300.000000	21.281113
2299.000000	21.422337
2298.000000	21.290088
2297.000000	21.183039
2296.000000	21.316199
2295.000000	21.094949
2294.000000	21.071547
2293.000000	21.282621
2292.000000	21.104400
2291.000000	20.947524
2290.000000	21.147726
2289.000000	21.144359
2288.000000	21.099120
2287.000000	20.939665
2286.000000	20.891961
2285.000000	20.835910
2284.000000	20.790819
2283.000000	20.902769
2282.000000	20.913156
2281.000000	20.829629
2280.000000	20.827085
2279.000000	20.942911
2278.000000	21.020347
2277.000000	20.924348
2276.000000	21.033614
2275.000000	21.137371
2274.000000	21.026758
2273.000000	21.249136
2272.000000	21.332175
2271.000000	21.319002
2270.000000	21.419434
2269.000000	21.498183
2268.000000	21.447905
2267.000000	21.456290
2266.000000	21.589866
2265.000000	21.835036
2264.000000	21.944581
2263.000000	22.001707
2262.000000	22.062811
2261.000000	22.095559
2260.000000	22.268614
2259.000000	22.552899
2258.000000	22.615057
2257.000000	22.882139
2256.000000	23.117044
2255.000000	23.211259
2254.000000	23.397579
2253.000000	23.714359
2252.000000	23.959781
2251.000000	24.091259
2250.000000	24.355085
2249.000000	24.662037
2248.000000	24.779189
2247.000000	24.928437
2246.000000	25.113028
2245.000000	25.282407
2244.000000	25.412011
2243.000000	25.690623
2242.000000	25.776573
2241.000000	25.959212
2240.000000	26.188527
2239.000000	26.265372
2238.000000	26.262335
2237.000000	26.350904
2236.000000	26.551807
2235.000000	26.704778
2234.000000	26.761213
2233.000000	26.810158
2232.000000	26.957425
2231.000000	26.937463
2230.000000	27.038931
2229.000000	27.183793
2228.000000	27.152301
2227.000000	27.116141
2226.000000	27.080290
2225.000000	27.111418
2224.000000	27.063160
2223.000000	26.974365
2222.000000	26.996756
2221.000000	27.091334
2220.000000	27.072595
2219.000000	26.979896
2218.000000	26.985364
2217.000000	27.011927
2216.000000	26.997586
2215.000000	26.903223
2214.000000	26.734074
2213.000000	26.879326
2212.000000	26.795875
2211.000000	26.611671
2210.000000	26.445449
2209.000000	26.396582
2208.000000	26.319625
2207.000000	26.333668
2206.000000	26.220340
2205.000000	26.163072
2204.000000	26.035465
2203.000000	25.965320
2202.000000	25.869278
2201.000000	25.833516
2200.000000	25.792354
2199.000000	25.828700
2198.000000	25.776622
2197.000000	25.659720
2196.000000	25.497393
2195.000000	25.454160
2194.000000	25.362455
2193.000000	25.262204
2192.000000	25.164038
2191.000000	25.213638
2190.000000	25.103425
2189.000000	25.071282
2188.000000	24.971196
2187.000000	24.813583
2186.000000	24.864677
2185.000000	24.931922
2184.000000	24.771563
2183.000000	24.806004
2182.000000	24.618007
2181.000000	24.659800
2180.000000	24.725452
2179.000000	24.660705
2178.000000	24.629475
2177.000000	24.641281
2176.000000	24.506135
2175.000000	24.578739
2174.000000	24.658216
2173.000000	24.772210
2172.000000	24.806297
2171.000000	24.687889
2170.000000	24.834189
2169.000000	25.009646
2168.000000	25.085612
2167.000000	25.062789
2166.000000	25.086410
2165.000000	25.165436
2164.000000	25.122557
2163.000000	25.138252
2162.000000	25.387495
2161.000000	25.551279
2160.000000	25.625953
2159.000000	25.675754
2158.000000	25.873005
2157.000000	26.098274
2156.000000	26.090059
2155.000000	26.215029
2154.000000	26.478649
2153.000000	26.544984
2152.000000	26.860377
2151.000000	26.856781
2150.000000	26.997419
2149.000000	27.012057
2148.000000	27.027079
2147.000000	27.383558
2146.000000	27.490544
2145.000000	27.735434
2144.000000	27.734177
2143.000000	27.890001
2142.000000	27.988127
2141.000000	28.076941
2140.000000	28.356337
2139.000000	28.502788
2138.000000	28.818205
2137.000000	28.591198
2136.000000	28.805009
2135.000000	28.773432
2134.000000	29.013036
2133.000000	28.854314
2132.000000	29.050508
2131.000000	29.366791
2130.000000	29.433225
2129.000000	29.357551
2128.000000	29.405908
2127.000000	29.641514
2126.000000	29.670004
2125.000000	29.582343
2124.000000	29.712437
2123.000000	29.701500
2122.000000	29.836090
2121.000000	29.828724
2120.000000	29.863026
2119.000000	29.827871
2118.000000	29.928617
2117.000000	30.081986
2116.000000	30.114067
2115.000000	30.209280
2114.000000	30.141729
2113.000000	30.184643
2112.000000	30.221645
2111.000000	30.234296
2110.000000	30.239523
2109.000000	30.270354
2108.000000	30.330543
2107.000000	30.487328
2106.000000	30.302246
2105.000000	30.292563
2104.000000	30.306567
2103.000000	30.429663
2102.000000	30.414835
2101.000000	30.468666
2100.000000	30.548627
2099.000000	30.587970
2098.000000	30.430978
2097.000000	30.602816
2096.000000	30.431783
2095.000000	30.474073
2094.000000	30.445240
2093.000000	30.334926
2092.000000	30.456179
2091.000000	30.412123
2090.000000	30.280733
2089.000000	30.307035
2088.000000	30.317238
2087.000000	30.409959
2086.000000	30.392934
2085.000000	30.292440
2084.000000	30.137978
2083.000000	30.046992
2082.000000	29.966524
2081.000000	29.946549
2080.000000	29.919574
2079.000000	29.779030
2078.000000	29.732064
2077.000000	29.634011
2076.000000	29.548283
2075.000000	29.480286
2074.000000	29.383039
2073.000000	29.225752
2072.000000	29.056328
2071.000000	28.939677
2070.000000	28.780369
2069.000000	28.649509
2068.000000	28.397421
2067.000000	28.212163
2066.000000	28.127791
2065.000000	28.021705
2064.000000	27.922648
2063.000000	27.759163
2062.000000	27.640354
2061.000000	27.392607
2060.000000	27.256209
2059.000000	27.121075
2058.000000	27.018031
2057.000000	26.859367
2056.000000	26.708742
2055.000000	26.573465
2054.000000	26.352220
2053.000000	26.235697
2052.000000	26.185454
2051.000000	26.089718
2050.000000	25.984355
2049.000000	25.881967
2048.000000	25.803128
2047.000000	25.733983
2046.000000	25.627940
2045.000000	25.580950
2044.000000	25.611651
2043.000000	25.618039
2042.000000	25.586938
2041.000000	25.605404
2040.000000	25.710841
2039.000000	25.713729
2038.000000	25.676750
2037.000000	25.716578
2036.000000	25.806087
2035.000000	25.874585
2034.000000	25.903311
2033.000000	26.005839
2032.000000	26.148919
2031.000000	26.233626
2030.000000	26.296141
2029.000000	26.438821
2028.000000	26.569260
2027.000000	26.658377
2026.000000	26.764059
2025.000000	26.830187
2024.000000	26.885703
2023.000000	26.945195
2022.000000	26.999323
2021.000000	26.998108
2020.000000	27.051499
2019.000000	27.107755
2018.000000	27.125223
2017.000000	27.132045
2016.000000	27.087165
2015.000000	27.070720
2014.000000	27.026964
2013.000000	26.996819
2012.000000	26.991565
2011.000000	26.948291
2010.000000	26.835316
2009.000000	26.746485
2008.000000	26.685498
2007.000000	26.578921
2006.000000	26.497026
2005.000000	26.424484
2004.000000	26.333654
2003.000000	26.241539
2002.000000	26.132793
2001.000000	25.998754
2000.000000	25.912722
1999.000000	25.816948
1998.000000	25.691979
1997.000000	25.565820
1996.000000	25.521011
1995.000000	25.417562
1994.000000	25.268340
1993.000000	25.114345
1992.000000	25.026705
1991.000000	24.881657
1990.000000	24.784338
1989.000000	24.631699
1988.000000	24.528250
1987.000000	24.427365
1986.000000	24.301583
1985.000000	24.167905
1984.000000	24.106155
1983.000000	24.059269
1982.000000	23.935200
1981.000000	23.797386
1980.000000	23.695823
1979.000000	23.552693
1978.000000	23.466765
1977.000000	23.320499
1976.000000	23.221931
1975.000000	23.109318
1974.000000	23.037047
1973.000000	22.948132
1972.000000	22.844298
1971.000000	22.687106
1970.000000	22.618291
1969.000000	22.560022
1968.000000	22.456843
1967.000000	22.306570
1966.000000	22.258002
1965.000000	22.213600
1964.000000	22.095582
1963.000000	21.982980
1962.000000	21.866901
1961.000000	21.774044
1960.000000	21.693984
1959.000000	21.573287
1958.000000	21.498007
1957.000000	21.443162
1956.000000	21.369175
1955.000000	21.319300
1954.000000	21.250173
1953.000000	21.177598
1952.000000	21.114894
1951.000000	21.160085
1950.000000	21.076260
1949.000000	20.978506
1948.000000	20.984720
1947.000000	20.908850
1946.000000	20.871126
1945.000000	20.845704
1944.000000	20.851482
1943.000000	20.829299
1942.000000	20.887090
1941.000000	20.896385
1940.000000	21.011414
1939.000000	20.982874
1938.000000	21.009736
1937.000000	21.137190
1936.000000	21.183109
1935.000000	21.248006
1934.000000	21.266855
1933.000000	21.423393
1932.000000	21.519445
1931.000000	21.593993
1930.000000	21.774265
1929.000000	21.845786
1928.000000	22.064987
1927.000000	22.296766
1926.000000	22.469308
1925.000000	22.594465
1924.000000	22.829899
1923.000000	23.092677
1922.000000	23.358817
1921.000000	23.650806
1920.000000	23.752977
1919.000000	24.089576
1918.000000	24.364364
1917.000000	24.716991
1916.000000	24.935771
1915.000000	25.337563
1914.000000	25.697036
1913.000000	26.131524
1912.000000	26.503803
1911.000000	26.876052
1910.000000	27.309703
1909.000000	27.698430
1908.000000	28.216088
1907.000000	28.688899
1906.000000	29.228062
1905.000000	29.630624
1904.000000	30.261414
1903.000000	30.747060
1902.000000	31.246012
1901.000000	31.858196
1900.000000	32.331654
1899.000000	32.958934
1898.000000	33.565270
1897.000000	34.105513
1896.000000	34.675944
1895.000000	35.281076
1894.000000	35.887333
1893.000000	36.373132
1892.000000	36.953043
1891.000000	37.486345
1890.000000	38.028801
1889.000000	38.523834
1888.000000	38.945079
1887.000000	39.520069
1886.000000	39.953964
1885.000000	40.369266
1884.000000	40.809300
1883.000000	41.249950
1882.000000	41.685323
1881.000000	42.053575
1880.000000	42.503004
1879.000000	42.860054
1878.000000	43.161962
1877.000000	43.483071
1876.000000	43.836118
1875.000000	44.157841
1874.000000	44.451615
1873.000000	44.663556
1872.000000	44.854117
1871.000000	45.101378
1870.000000	45.337960
1869.000000	45.547299
1868.000000	45.732940
1867.000000	45.887052
1866.000000	46.018216
1865.000000	46.109326
1864.000000	46.178852
1863.000000	46.314232
1862.000000	46.436406
1861.000000	46.518332
1860.000000	46.548028
1859.000000	46.604421
1858.000000	46.669403
1857.000000	46.725560
1856.000000	46.781381
1855.000000	46.805150
1854.000000	46.933278
1853.000000	46.915350
1852.000000	46.904093
1851.000000	46.946650
1850.000000	46.988116
1849.000000	46.957577
1848.000000	46.925474
1847.000000	46.925238
1846.000000	46.922663
1845.000000	46.931794
1844.000000	46.928006
1843.000000	46.879843
1842.000000	46.847452
1841.000000	46.827553
1840.000000	46.813411
1839.000000	46.776764
1838.000000	46.693969
1837.000000	46.642968
1836.000000	46.596255
1835.000000	46.576891
1834.000000	46.502166
1833.000000	46.475475
1832.000000	46.430836
1831.000000	46.356965
1830.000000	46.288613
1829.000000	46.264813
1828.000000	46.254751
1827.000000	46.217027
1826.000000	46.157817
1825.000000	46.123947
1824.000000	46.111372
1823.000000	46.069326
1822.000000	45.985500
1821.000000	45.934741
1820.000000	45.892938
1819.000000	45.841148
1818.000000	45.809126
1817.000000	45.747131
1816.000000	45.717285
1815.000000	45.694392
1814.000000	45.661812
1813.000000	45.617637
1812.000000	45.580932
1811.000000	45.563747
1810.000000	45.509545
1809.000000	45.466807
1808.000000	45.443148
1807.000000	45.399042
1806.000000	45.354716
1805.000000	45.312491
1804.000000	45.278958
1803.000000	45.253988
1802.000000	45.228461
1801.000000	45.188521
1800.000000	45.155475
1799.000000	45.116866
1798.000000	45.090168
1797.000000	45.064142
1796.000000	45.038504
1795.000000	45.018661
1794.000000	44.989862
1793.000000	44.949004
1792.000000	44.922093
1791.000000	44.916905
1790.000000	44.870733
1789.000000	44.852085
1788.000000	44.843241
1787.000000	44.805403
1786.000000	44.818225
1785.000000	44.800516
1784.000000	44.753057
1783.000000	44.723472
1782.000000	44.693624
1781.000000	44.630524
1780.000000	44.584278
1779.000000	44.556450
1778.000000	44.534210
1777.000000	44.460590
1776.000000	44.417279
1775.000000	44.329841
1774.000000	44.236283
1773.000000	44.183392
1772.000000	44.135976
1771.000000	44.105316
1770.000000	44.046708
1769.000000	43.967165
1768.000000	43.894159
1767.000000	43.827935
1766.000000	43.764816
1765.000000	43.723653
1764.000000	43.665518
1763.000000	43.610005
1762.000000	43.549014
1761.000000	43.489497
1760.000000	43.428079
1759.000000	43.372053
1758.000000	43.326885
1757.000000	43.293335
1756.000000	43.189979
1755.000000	43.167430
1754.000000	43.110242
1753.000000	43.032692
1752.000000	42.979655
1751.000000	42.919496
1750.000000	42.845661
1749.000000	42.829991
1748.000000	42.710679
1747.000000	42.642488
1746.000000	42.559085
1745.000000	42.469864
1744.000000	42.404502
1743.000000	42.356025
1742.000000	42.275418
1741.000000	42.209493
1740.000000	42.149888
1739.000000	42.088706
1738.000000	42.029132
1737.000000	41.986286
1736.000000	41.913313
1735.000000	41.886985
1734.000000	41.878421
1733.000000	41.854407
1732.000000	41.810927
1731.000000	41.856163
1730.000000	41.839624
1729.000000	41.873639
1728.000000	41.913043
1727.000000	41.948361
1726.000000	42.018707
1725.000000	42.049959
1724.000000	42.143596
1723.000000	42.224708
1722.000000	42.341572
1721.000000	42.411553
1720.000000	42.544572
1719.000000	42.652853
1718.000000	42.757629
1717.000000	42.888380
1716.000000	42.990675
1715.000000	43.093967
1714.000000	43.196783
1713.000000	43.248661
1712.000000	43.349891
1711.000000	43.474651
1710.000000	43.583297
1709.000000	43.623629
1708.000000	43.644803
1707.000000	43.738217
1706.000000	43.785932
1705.000000	43.825769
1704.000000	43.888730
1703.000000	43.887527
1702.000000	43.923065
1701.000000	43.946480
1700.000000	43.958499
1699.000000	43.950985
1698.000000	44.036014
1697.000000	44.092927
1696.000000	44.098074
1695.000000	44.136730
1694.000000	44.163915
1693.000000	44.227148
1692.000000	44.308929
1691.000000	44.357003
1690.000000	44.431344
1689.000000	44.529399
1688.000000	44.606964
1687.000000	44.729029
1686.000000	44.833857
1685.000000	44.988004
1684.000000	45.127687
1683.000000	45.271689
1682.000000	45.459155
1681.000000	45.600377
1680.000000	45.754786
1679.000000	45.931402
1678.000000	46.101322
1677.000000	46.279969
1676.000000	46.456762
1675.000000	46.650972
1674.000000	46.804487
1673.000000	46.982955
1672.000000	47.158833
1671.000000	47.281567
1670.000000	47.452366
1669.000000	47.649967
1668.000000	47.766804
1667.000000	47.910207
1666.000000	47.982447
1665.000000	48.097168
1664.000000	48.189145
1663.000000	48.263059
1662.000000	48.373555
1661.000000	48.446394
1660.000000	48.498137
1659.000000	48.551455
1658.000000	48.591348
1657.000000	48.663618
1656.000000	48.709855
1655.000000	48.748676
1654.000000	48.757354
1653.000000	48.795883
1652.000000	48.810130
1651.000000	48.808150
1650.000000	48.802111
1649.000000	48.816348
1648.000000	48.796473
1647.000000	48.805892
1646.000000	48.782469
1645.000000	48.776611
1644.000000	48.739113
1643.000000	48.718711
1642.000000	48.704815
1641.000000	48.690284
1640.000000	48.664265
1639.000000	48.630440
1638.000000	48.580719
1637.000000	48.534173
1636.000000	48.475608
1635.000000	48.454408
1634.000000	48.441627
1633.000000	48.380395
1632.000000	48.335044
1631.000000	48.290505
1630.000000	48.253312
1629.000000	48.209233
1628.000000	48.171843
1627.000000	48.111229
1626.000000	48.038705
1625.000000	47.998030
1624.000000	47.952706
1623.000000	47.888532
1622.000000	47.835625
1621.000000	47.766100
1620.000000	47.729512
1619.000000	47.688324
1618.000000	47.606661
1617.000000	47.548258
1616.000000	47.482255
1615.000000	47.410595
1614.000000	47.345455
1613.000000	47.276823
1612.000000	47.225209
1611.000000	47.161304
1610.000000	47.094855
1609.000000	47.038391
1608.000000	46.966816
1607.000000	46.895454
1606.000000	46.825046
1605.000000	46.756720
1604.000000	46.668103
1603.000000	46.589593
1602.000000	46.534481
1601.000000	46.472679
1600.000000	46.398911
1599.000000	46.329248
1598.000000	46.264445
1597.000000	46.213319
1596.000000	46.156942
1595.000000	46.077040
1594.000000	46.006748
1593.000000	45.959584
1592.000000	45.884226
1591.000000	45.802155
1590.000000	45.745728
1589.000000	45.679442
1588.000000	45.619287
1587.000000	45.565258
1586.000000	45.501306
1585.000000	45.453497
1584.000000	45.408704
1583.000000	45.353815
1582.000000	45.291298
1581.000000	45.247795
1580.000000	45.201903
1579.000000	45.144723
1578.000000	45.101954
1577.000000	45.037564
1576.000000	44.979637
1575.000000	44.938840
1574.000000	44.871879
1573.000000	44.819660
1572.000000	44.775982
1571.000000	44.709435
1570.000000	44.662920
1569.000000	44.605452
1568.000000	44.567671
1567.000000	44.526625
1566.000000	44.467700
1565.000000	44.426628
1564.000000	44.394019
1563.000000	44.363491
1562.000000	44.313433
1561.000000	44.270457
1560.000000	44.243387
1559.000000	44.205182
1558.000000	44.156426
1557.000000	44.128146
1556.000000	44.087650
1555.000000	44.065896
1554.000000	44.028791
1553.000000	43.983389
1552.000000	43.937908
1551.000000	43.899705
1550.000000	43.845009
1549.000000	43.804176
1548.000000	43.751522
1547.000000	43.686517
1546.000000	43.628956
1545.000000	43.544811
1544.000000	43.454448
1543.000000	43.374866
1542.000000	43.301693
1541.000000	43.184214
1540.000000	43.110567
1539.000000	43.022260
1538.000000	42.910368
1537.000000	42.817386
1536.000000	42.734163
1535.000000	42.634398
1534.000000	42.536315
1533.000000	42.465992
1532.000000	42.351379
1531.000000	42.262241
1530.000000	42.191635
1529.000000	42.092391
1528.000000	42.018805
1527.000000	41.935350
1526.000000	41.864472
1525.000000	41.778608
1524.000000	41.722679
1523.000000	41.656517
1522.000000	41.566598
1521.000000	41.532164
1520.000000	41.480081
1519.000000	41.438659
1518.000000	41.400938
1517.000000	41.333631
1516.000000	41.310244
1515.000000	41.253961
1514.000000	41.205531
1513.000000	41.201537
1512.000000	41.171457
1511.000000	41.113695
1510.000000	41.091681
1509.000000	41.045650
1508.000000	41.044606
1507.000000	41.018948
1506.000000	41.004264
1505.000000	40.996038
1504.000000	40.978010
1503.000000	40.956235
1502.000000	40.928342
1501.000000	40.920460
1500.000000	40.923019
1499.000000	40.891607
1498.000000	40.898641
1497.000000	40.904101
1496.000000	40.893405
1495.000000	40.905497
1494.000000	40.895203
1493.000000	40.909610
1492.000000	40.915504
1491.000000	40.931214
1490.000000	40.953784
1489.000000	40.969219
1488.000000	40.988887
1487.000000	40.995786
1486.000000	41.025874
1485.000000	41.053029
1484.000000	41.066341
1483.000000	41.121122
1482.000000	41.124399
1481.000000	41.169119
1480.000000	41.210739
1479.000000	41.211226
1478.000000	41.246084
1477.000000	41.275805
1476.000000	41.299012
1475.000000	41.327558
1474.000000	41.355578
1473.000000	41.363991
1472.000000	41.420026
1471.000000	41.440075
1470.000000	41.468825
1469.000000	41.493642
1468.000000	41.511134
1467.000000	41.533411
1466.000000	41.535086
1465.000000	41.607253
1464.000000	41.614875
1463.000000	41.665143
1462.000000	41.664663
1461.000000	41.672962
1460.000000	41.763586
1459.000000	41.771844
1458.000000	41.827113
1457.000000	41.857562
1456.000000	41.916547
1455.000000	41.958323
1454.000000	41.997487
1453.000000	42.055737
1452.000000	42.110244
1451.000000	42.131724
1450.000000	42.205771
1449.000000	42.264202
1448.000000	42.325221
1447.000000	42.379784
1446.000000	42.439392
1445.000000	42.506286
1444.000000	42.589838
1443.000000	42.683753
1442.000000	42.740779
1441.000000	42.812123
1440.000000	42.897633
1439.000000	42.981089
1438.000000	43.074109
1437.000000	43.184817
1436.000000	43.279703
1435.000000	43.380116
1434.000000	43.488997
1433.000000	43.598400
1432.000000	43.699517
1431.000000	43.827202
1430.000000	43.955778
1429.000000	44.084700
1428.000000	44.204364
1427.000000	44.348863
1426.000000	44.488406
1425.000000	44.639873
1424.000000	44.793988
1423.000000	44.955917
1422.000000	45.135502
1421.000000	45.296571
1420.000000	45.462449
1419.000000	45.626570
1418.000000	45.811288
1417.000000	45.990988
1416.000000	46.165672
1415.000000	46.361847
1414.000000	46.556769
1413.000000	46.744827
1412.000000	46.946783
1411.000000	47.124623
1410.000000	47.327461
1409.000000	47.504847
1408.000000	47.704728
1407.000000	47.908468
1406.000000	48.092608
1405.000000	48.273696
1404.000000	48.459201
1403.000000	48.653889
1402.000000	48.823005
1401.000000	48.990944
1400.000000	49.160239
1399.000000	49.324086
1398.000000	49.498307
1397.000000	49.668261
1396.000000	49.820211
1395.000000	49.961523
1394.000000	50.107859
1393.000000	50.258080
1392.000000	50.394864
1391.000000	50.524240
1390.000000	50.642585
1389.000000	50.754971
1388.000000	50.876719
1387.000000	50.975314
1386.000000	51.076668
1385.000000	51.193380
1384.000000	51.283183
1383.000000	51.363754
1382.000000	51.447333
1381.000000	51.544985
1380.000000	51.618239
1379.000000	51.680920
1378.000000	51.750905
1377.000000	51.806000
1376.000000	51.875700
1375.000000	51.929806
1374.000000	51.975525
1373.000000	52.035731
1372.000000	52.096795
1371.000000	52.131000
1370.000000	52.159204
1369.000000	52.202070
1368.000000	52.245095
1367.000000	52.273744
1366.000000	52.309156
1365.000000	52.353023
1364.000000	52.407925
1363.000000	52.451084
1362.000000	52.480622
1361.000000	52.521756
1360.000000	52.573760
1359.000000	52.616517
1358.000000	52.645768
1357.000000	52.691643
1356.000000	52.742770
1355.000000	52.794758
1354.000000	52.819694
1353.000000	52.866150
1352.000000	52.931022
1351.000000	52.962795
1350.000000	52.977756
1349.000000	53.036643
1348.000000	53.097370
1347.000000	53.121718
1346.000000	53.157493
1345.000000	53.200974
1344.000000	53.261828
1343.000000	53.290453
1342.000000	53.323536
1341.000000	53.385189
1340.000000	53.411068
1339.000000	53.438510
1338.000000	53.480993
1337.000000	53.512137
1336.000000	53.543562
1335.000000	53.587562
1334.000000	53.619602
1333.000000	53.623410
1332.000000	53.642398
1331.000000	53.678296
1330.000000	53.696638
1329.000000	53.705790
1328.000000	53.721068
1327.000000	53.734744
1326.000000	53.753731
1325.000000	53.812526
1324.000000	53.857315
1323.000000	53.910085
1322.000000	53.922712
1321.000000	53.908536
1320.000000	53.892203
1319.000000	53.912108
1318.000000	53.921260
1317.000000	53.943803
1316.000000	53.932259
1315.000000	53.941835
1314.000000	53.939731
1313.000000	53.966576
1312.000000	53.995019
1311.000000	53.974944
1310.000000	53.968425
1309.000000	53.971030
1308.000000	53.964351
1307.000000	53.982382
1306.000000	53.974942
1305.000000	53.984060
1304.000000	54.004584
1303.000000	54.003286
1302.000000	53.998609
1301.000000	53.996407
1300.000000	53.974458
1299.000000	53.972224
1298.000000	53.960747
1297.000000	53.961491
1296.000000	53.952989
1295.000000	53.944190
1294.000000	53.936555
1293.000000	53.921934
1292.000000	53.917143
1291.000000	53.896192
1290.000000	53.890415
1289.000000	53.877912
1288.000000	53.876028
1287.000000	53.870941
1286.000000	53.850324
1285.000000	53.830403
1284.000000	53.829916
1283.000000	53.818317
1282.000000	53.809583
1281.000000	53.809206
1280.000000	53.785506
1279.000000	53.766980
1278.000000	53.725002
1277.000000	53.711404
1276.000000	53.692127
1275.000000	53.678303
1274.000000	53.679389
1273.000000	53.675127
1272.000000	53.665641
1271.000000	53.648985
1270.000000	53.636661
1269.000000	53.653593
1268.000000	53.641044
1267.000000	53.664208
1266.000000	53.647150
1265.000000	53.644925
1264.000000	53.610672
1263.000000	53.607043
1262.000000	53.611905
1261.000000	53.608286
1260.000000	53.644924
1259.000000	53.609444
1258.000000	53.594876
1257.000000	53.585844
1256.000000	53.591184
1255.000000	53.564664
1254.000000	53.549490
1253.000000	53.553854
1252.000000	53.533663
1251.000000	53.536436
1250.000000	53.560379
1249.000000	53.537440
1248.000000	53.528151
1247.000000	53.492804
1246.000000	53.481630
1245.000000	53.445825
1244.000000	53.407219
1243.000000	53.400575
1242.000000	53.372289
1241.000000	53.353392
1240.000000	53.321068
1239.000000	53.261598
1238.000000	53.259846
1237.000000	53.224249
1236.000000	53.203970
1235.000000	53.139320
1234.000000	53.107282
1233.000000	53.083705
1232.000000	53.062236
1231.000000	53.005729
1230.000000	52.982117
1229.000000	52.958493
1228.000000	52.924620
1227.000000	52.905721
1226.000000	52.867069
1225.000000	52.817826
1224.000000	52.766022
1223.000000	52.748188
1222.000000	52.708595
1221.000000	52.683752
1220.000000	52.659734
1219.000000	52.622004
1218.000000	52.578439
1217.000000	52.538033
1216.000000	52.503588
1215.000000	52.491883
1214.000000	52.468006
1213.000000	52.414965
1212.000000	52.383361
1211.000000	52.377865
1210.000000	52.353327
1209.000000	52.300395
1208.000000	52.267559
1207.000000	52.225600
1206.000000	52.198894
1205.000000	52.165265
1204.000000	52.117003
1203.000000	52.109378
1202.000000	52.079376
1201.000000	52.029654
1200.000000	52.003732
1199.000000	51.976582
1198.000000	51.933717
1197.000000	51.911806
1196.000000	51.871731
1195.000000	51.829500
1194.000000	51.809116
1193.000000	51.825520
1192.000000	51.809435
1191.000000	51.780415
1190.000000	51.734185
1189.000000	51.657817
1188.000000	51.652501
1187.000000	51.649604
1186.000000	51.632806
1185.000000	51.618983
1184.000000	51.616479
1183.000000	51.630246
1182.000000	51.632569
1181.000000	51.629095
1180.000000	51.639071
1179.000000	51.662076
1178.000000	51.688677
1177.000000	51.707254
1176.000000	51.722289
1175.000000	51.748176
1174.000000	51.782658
1173.000000	51.818717
1172.000000	51.851265
1171.000000	51.883416
1170.000000	51.917323
1169.000000	51.944083
1168.000000	51.976806
1167.000000	52.019138
1166.000000	52.064421
1165.000000	52.108992
1164.000000	52.157702
1163.000000	52.210500
1162.000000	52.237176
1161.000000	52.273266
1160.000000	52.301790
1159.000000	52.333448
1158.000000	52.375225
1157.000000	52.398563
1156.000000	52.433784
1155.000000	52.475263
1154.000000	52.502670
1153.000000	52.539465
1152.000000	52.585611
1151.000000	52.626854
1150.000000	52.655040
1149.000000	52.686529
1148.000000	52.707711
1147.000000	52.726137
1146.000000	52.756533
1145.000000	52.757518
1144.000000	52.767419
1143.000000	52.800611
1142.000000	52.817187
1141.000000	52.838234
1140.000000	52.867631
1139.000000	52.886821
1138.000000	52.907161
1137.000000	52.918737
1136.000000	52.930885
1135.000000	52.937514
1134.000000	52.952745
1133.000000	52.973467
1132.000000	52.966520
1131.000000	52.959434
1130.000000	52.978314
1129.000000	52.976846
1128.000000	52.994025
1127.000000	53.000116
1126.000000	53.003761
1125.000000	53.003971
1124.000000	52.998580
1123.000000	53.000291
1122.000000	53.012501
1121.000000	53.017496
1120.000000	53.013002
1119.000000	52.991502
1118.000000	52.991558
1117.000000	52.984966
1116.000000	52.990038
1115.000000	52.983452
1114.000000	52.930834
1113.000000	52.936486
1112.000000	52.927621
1111.000000	52.897852
1110.000000	52.901692
1109.000000	52.904511
1108.000000	52.893931
1107.000000	52.892464
1106.000000	52.874335
1105.000000	52.858632
1104.000000	52.832104
1103.000000	52.849363
1102.000000	52.841191
1101.000000	52.838998
1100.000000	52.788671
1099.000000	52.784494
1098.000000	52.773099
1097.000000	52.753506
1096.000000	52.741737
1095.000000	52.728080
1094.000000	52.713622
1093.000000	52.667168
1092.000000	52.651557
1091.000000	52.654521
1090.000000	52.652394
1089.000000	52.653611
1088.000000	52.620144
1087.000000	52.571051
1086.000000	52.564717
1085.000000	52.573783
1084.000000	52.543712
1083.000000	52.533040
1082.000000	52.524778
1081.000000	52.480761
1080.000000	52.458856
1079.000000	52.465070
1078.000000	52.443666
1077.000000	52.416753
1076.000000	52.400610
1075.000000	52.381240
1074.000000	52.356780
1073.000000	52.331549
1072.000000	52.334907
1071.000000	52.298463
1070.000000	52.267649
1069.000000	52.253635
1068.000000	52.239278
1067.000000	52.216474
1066.000000	52.212038
1065.000000	52.184258
1064.000000	52.184618
1063.000000	52.152565
1062.000000	52.143291
1061.000000	52.126336
1060.000000	52.100194
1059.000000	52.090985
1058.000000	52.060900
1057.000000	52.032012
1056.000000	52.022352
1055.000000	51.986513
1054.000000	51.979161
1053.000000	51.981591
1052.000000	51.970034
1051.000000	51.937293
1050.000000	51.904402
1049.000000	51.902488
1048.000000	51.860838
1047.000000	51.874761
1046.000000	51.827961
1045.000000	51.815597
1044.000000	51.798466
1043.000000	51.749629
1042.000000	51.752941
1041.000000	51.740150
1040.000000	51.729347
1039.000000	51.698575
1038.000000	51.658594
1037.000000	51.649936
1036.000000	51.650772
1035.000000	51.631345
1034.000000	51.611869
1033.000000	51.605800
1032.000000	51.591691
1031.000000	51.548985
1030.000000	51.539114
1029.000000	51.507128
1028.000000	51.479095
1027.000000	51.462085
1026.000000	51.465143
1025.000000	51.439521
1024.000000	51.424965
1023.000000	51.416106
1022.000000	51.398589
1021.000000	51.377248
1020.000000	51.370727
1019.000000	51.347942
1018.000000	51.328972
1017.000000	51.315063
1016.000000	51.272893
1015.000000	51.269934
1014.000000	51.257477
1013.000000	51.237164
1012.000000	51.234974
1011.000000	51.210642
1010.000000	51.183895
1009.000000	51.174549
1008.000000	51.165286
1007.000000	51.158587
1006.000000	51.125696
1005.000000	51.116936
1004.000000	51.100335
1003.000000	51.096965
1002.000000	51.079746
1001.000000	51.058824
1000.000000	51.038505
999.000000	51.038388
998.000000	51.013753
997.000000	50.993821
996.000000	50.979560
995.000000	50.973333
994.000000	50.949077
993.000000	50.941407
992.000000	50.911423
991.000000	50.894345
990.000000	50.880920
989.000000	50.883624
988.000000	50.862042
987.000000	50.854291
986.000000	50.858240
985.000000	50.830446
984.000000	50.814218
983.000000	50.787977
982.000000	50.791239
981.000000	50.792610
980.000000	50.782125
979.000000	50.754194
978.000000	50.751806
977.000000	50.737914
976.000000	50.730602
975.000000	50.724960
974.000000	50.702236
973.000000	50.685939
972.000000	50.690498
971.000000	50.683351
970.000000	50.646705
969.000000	50.618114
968.000000	50.610100
967.000000	50.612769
966.000000	50.594600
965.000000	50.571778
964.000000	50.563587
963.000000	50.570482
962.000000	50.567929
961.000000	50.548409
960.000000	50.539468
959.000000	50.532900
958.000000	50.515189
957.000000	50.507398
956.000000	50.503016
955.000000	50.488982
954.000000	50.471808
953.000000	50.445009
952.000000	50.436318
951.000000	50.420603
950.000000	50.407456
949.000000	50.412456
948.000000	50.417445
947.000000	50.392586
946.000000	50.370074
945.000000	50.356966
944.000000	50.330878
943.000000	50.324878
942.000000	50.302171
941.000000	50.272138
940.000000	50.264062
939.000000	50.250886
938.000000	50.230155
937.000000	50.204451
936.000000	50.180738
935.000000	50.166847
934.000000	50.162855
933.000000	50.145215
932.000000	50.142879
931.000000	50.129944
930.000000	50.105671
929.000000	50.078014
928.000000	50.023257
927.000000	50.016285
926.000000	50.034474
925.000000	50.002843
924.000000	49.940439
923.000000	49.926153
922.000000	49.913748
921.000000	49.896359
920.000000	49.883072
919.000000	49.874338
918.000000	49.858012
917.000000	49.819567
916.000000	49.812692
915.000000	49.791741
914.000000	49.754656
913.000000	49.738804
912.000000	49.733381
911.000000	49.721926
910.000000	49.704692
909.000000	49.703075
908.000000	49.694456
907.000000	49.670642
906.000000	49.611577
905.000000	49.627250
904.000000	49.597301
903.000000	49.607565
902.000000	49.550574
901.000000	49.523686
900.000000	49.549716
899.000000	49.534727
898.000000	49.508056
897.000000	49.440278
896.000000	49.489601
895.000000	49.513099
894.000000	49.402172
893.000000	49.408590
892.000000	49.380565
891.000000	49.370521
890.000000	49.370109
889.000000	49.401436
888.000000	49.325484
887.000000	49.250831
886.000000	49.258669
885.000000	49.237246
884.000000	49.289134
883.000000	49.253852
882.000000	49.175485
881.000000	49.204477
880.000000	49.264887
879.000000	49.169370
878.000000	49.152154
877.000000	49.155790
876.000000	49.046781
875.000000	49.036867
874.000000	49.110607
873.000000	49.096131
872.000000	49.023427
871.000000	49.111697
870.000000	49.053241
869.000000	48.937301
868.000000	48.992125
867.000000	48.853429
866.000000	48.943279
865.000000	48.827264
864.000000	48.751619
863.000000	48.713425
862.000000	48.781613
861.000000	48.830437
860.000000	48.711542
859.000000	47.930248
858.000000	47.857504
857.000000	48.170045
856.000000	47.838545
855.000000	48.207558
854.000000	48.049640
853.000000	48.001768
852.000000	48.128703
851.000000	47.952327
850.000000	47.813607
849.000000	47.918878
848.000000	47.802411
847.000000	47.723286
846.000000	47.965138
845.000000	47.809717
844.000000	47.652586
843.000000	47.746184
842.000000	47.681212
841.000000	47.663691
840.000000	47.706546
839.000000	47.740229
838.000000	47.503174
837.000000	47.483846
836.000000	47.597770
835.000000	47.464050
834.000000	47.409213
833.000000	47.357073
832.000000	47.286161
831.000000	47.442050
830.000000	47.396259
829.000000	47.199131
828.000000	47.219640
827.000000	47.171133
826.000000	47.292567
825.000000	47.076759
824.000000	47.157431
823.000000	47.097734
822.000000	46.935585
821.000000	47.171064
820.000000	47.150740
819.000000	46.819108
818.000000	47.003927
817.000000	46.928206
816.000000	46.772465
815.000000	46.899405
814.000000	46.726334
813.000000	46.740614
812.000000	46.802051
811.000000	46.724150
810.000000	46.677834
809.000000	46.729778
808.000000	46.660086
807.000000	46.564550
806.000000	46.642857
805.000000	46.519156
804.000000	46.602944
803.000000	46.387742
802.000000	46.594302
801.000000	46.473895
800.000000	46.301232
799.000000	46.407710
798.000000	46.277441
797.000000	46.302919
796.000000	46.332342
795.000000	46.184981
794.000000	46.025220
793.000000	46.138812
792.000000	46.181142
791.000000	46.077123
790.000000	45.950348
789.000000	46.048225
788.000000	45.896776
787.000000	45.956845
786.000000	45.936556
785.000000	45.930191
784.000000	45.862494
783.000000	45.693925
782.000000	45.700741
781.000000	45.562707
780.000000	45.628124
779.000000	45.710553
778.000000	45.671282
777.000000	45.546341
776.000000	45.520904
775.000000	45.474499
774.000000	45.432266
773.000000	45.398304
772.000000	45.331975
771.000000	45.274342
770.000000	45.244303
769.000000	45.187468
768.000000	45.167535
767.000000	45.094521
766.000000	45.026267
765.000000	45.018608
764.000000	45.031941
763.000000	45.018571
762.000000	44.966063
761.000000	44.837713
760.000000	44.823323
759.000000	44.800237
758.000000	44.707830
757.000000	44.707047
756.000000	44.635834
755.000000	44.609378
754.000000	44.597550
753.000000	44.619834
752.000000	44.495840
751.000000	44.542756
750.000000	44.457207
749.000000	44.372823
748.000000	44.314204
747.000000	44.264967
746.000000	44.199203
745.000000	44.157576
744.000000	44.085815
743.000000	44.034612
742.000000	43.925660
741.000000	43.938564
740.000000	43.950365
739.000000	43.909191
738.000000	43.853101
737.000000	43.826584
736.000000	43.691954
735.000000	43.652019
734.000000	43.611089
733.000000	43.518917
732.000000	43.467980
731.000000	43.449638
730.000000	43.399446
729.000000	43.329565
728.000000	43.258414
727.000000	43.263368
726.000000	43.196741
725.000000	43.117947
724.000000	43.033487
723.000000	43.017155
722.000000	42.994791
721.000000	42.914315
720.000000	42.856562
719.000000	42.800542
718.000000	42.768345
717.000000	42.703981
716.000000	42.586768
715.000000	42.526130
714.000000	42.547017
713.000000	42.467755
712.000000	42.357551
711.000000	42.327749
710.000000	42.314271
709.000000	42.275559
708.000000	42.217740
707.000000	42.140347
706.000000	42.054100
705.000000	41.960060
704.000000	41.899620
703.000000	41.868858
702.000000	41.816950
701.000000	41.732725
700.000000	41.686891
699.000000	41.615437
698.000000	41.553957
697.000000	41.488796
696.000000	41.395203
695.000000	41.337931
694.000000	41.280313
693.000000	41.221219
692.000000	41.187486
691.000000	41.118607
690.000000	41.041578
689.000000	40.917901
688.000000	40.816925
687.000000	40.773379
686.000000	40.710795
685.000000	40.640145
684.000000	40.577881
683.000000	40.513395
682.000000	40.435101
681.000000	40.391986
680.000000	40.335028
679.000000	40.241354
678.000000	40.188862
677.000000	40.104817
676.000000	40.013571
675.000000	39.940923
674.000000	39.883082
673.000000	39.761928
672.000000	39.701821
671.000000	39.685477
670.000000	39.558170
669.000000	39.478578
668.000000	39.389316
667.000000	39.286595
666.000000	39.206961
665.000000	39.144330
664.000000	39.093687
663.000000	39.024375
662.000000	38.931070
661.000000	38.882596
660.000000	38.768554
659.000000	38.668442
658.000000	38.602354
657.000000	38.517715
656.000000	38.433662
655.000000	38.355042
654.000000	38.271598
653.000000	38.197236
652.000000	38.076935
651.000000	37.966163
650.000000	37.936417
649.000000	37.846468
648.000000	37.785887
647.000000	37.680654
646.000000	37.615345
645.000000	37.492006
644.000000	37.427253
643.000000	37.337628
642.000000	37.305680
641.000000	37.167924
640.000000	37.025265
639.000000	36.944305
638.000000	36.888462
637.000000	36.778255
636.000000	36.695574
635.000000	36.593030
634.000000	36.541650
633.000000	36.444854
632.000000	36.338899
631.000000	36.250777
630.000000	36.194083
629.000000	36.072370
628.000000	35.914443
627.000000	35.843310
626.000000	35.771184
625.000000	35.724150
624.000000	35.613939
623.000000	35.533910
622.000000	35.403772
621.000000	35.315491
620.000000	35.224416
619.000000	35.119340
618.000000	35.021420
617.000000	34.924777
616.000000	34.813583
615.000000	34.699930
614.000000	34.622368
613.000000	34.526592
612.000000	34.409532
611.000000	34.356681
610.000000	34.230689
609.000000	34.149126
608.000000	34.042432
607.000000	33.911738
606.000000	33.830230
605.000000	33.717683
604.000000	33.623863
603.000000	33.501906
602.000000	33.370907
601.000000	33.293175
600.000000	33.215845
599.000000	33.063004
598.000000	32.992954
597.000000	32.890240
596.000000	32.738094
595.000000	32.646805
594.000000	32.514379
593.000000	32.460596
592.000000	32.327936
591.000000	32.219849
590.000000	32.112221
589.000000	31.985498
588.000000	31.891313
587.000000	31.756754
586.000000	31.652132
585.000000	31.533241
584.000000	31.401625
583.000000	31.320755
582.000000	31.179847
581.000000	31.043131
580.000000	30.924201
579.000000	30.823811
578.000000	30.720617
577.000000	30.612017
576.000000	30.508839
575.000000	30.333333
574.000000	30.255057
573.000000	30.113087
572.000000	30.007184
571.000000	29.871867
570.000000	29.738421
569.000000	29.668377
568.000000	29.522447
567.000000	29.391464
566.000000	29.241065
565.000000	29.120840
564.000000	28.996396
563.000000	28.900380
562.000000	28.734891
561.000000	28.628137
560.000000	28.477000
559.000000	28.376563
558.000000	28.232036
557.000000	28.108575
556.000000	27.997339
555.000000	27.864505
554.000000	27.723842
553.000000	27.604177
552.000000	27.470350
551.000000	27.353014
550.000000	27.212456
549.000000	27.069816
548.000000	26.935383
547.000000	26.816685
546.000000	26.691176
545.000000	26.537572
544.000000	26.427653
543.000000	26.303091
542.000000	26.155574
541.000000	26.035579
540.000000	25.870835
539.000000	25.755569
538.000000	25.602054
537.000000	25.496749
536.000000	25.363991
535.000000	25.230374
534.000000	25.076203
533.000000	24.939531
532.000000	24.793885
531.000000	24.666996
530.000000	24.539785
529.000000	24.401545
528.000000	24.257443
527.000000	24.128165
526.000000	23.990329
525.000000	23.857263
524.000000	23.729247
523.000000	23.599560
522.000000	23.428425
521.000000	23.304531
520.000000	23.178686
519.000000	23.030408
518.000000	22.882011
517.000000	22.751692
516.000000	22.613907
515.000000	22.493222
514.000000	22.365629
513.000000	22.237228
512.000000	22.092231
511.000000	21.942608
510.000000	21.822379
509.000000	21.701866
508.000000	21.555135
507.000000	21.439104
506.000000	21.303674
505.000000	21.160841
504.000000	21.030963
503.000000	20.900437
502.000000	20.766037
501.000000	20.644023
500.000000	20.518309
499.000000	20.402102
498.000000	20.263328
497.000000	20.128885
496.000000	19.989099
495.000000	19.851673
494.000000	19.730282
493.000000	19.607416
492.000000	19.451221
491.000000	19.311336
490.000000	19.194732
489.000000	19.061012
488.000000	18.921871
487.000000	18.798771
486.000000	18.674804
485.000000	18.577668
484.000000	18.455024
483.000000	18.318849
482.000000	18.187642
481.000000	18.053567
480.000000	17.928343
479.000000	17.814169
478.000000	17.695185
477.000000	17.556277
476.000000	17.427464
475.000000	17.294274
474.000000	17.178533
473.000000	17.075043
472.000000	16.944028
471.000000	16.793900
470.000000	16.683010
469.000000	16.556318
468.000000	16.433343
467.000000	16.326688
466.000000	16.200734
465.000000	16.069379
464.000000	15.942568
463.000000	15.828396
462.000000	15.719067
461.000000	15.579906
460.000000	15.463673
459.000000	15.362728
458.000000	15.222863
457.000000	15.069525
456.000000	14.951674
455.000000	14.836340
454.000000	14.694450
453.000000	14.570112
452.000000	14.439519
451.000000	14.308099
450.000000	14.206155
449.000000	14.083721
448.000000	13.945402
447.000000	13.837957
446.000000	13.709156
445.000000	13.575841
444.000000	13.491997
443.000000	13.380209
442.000000	13.250516
441.000000	13.127154
440.000000	13.020299
439.000000	12.937811
438.000000	12.851239
437.000000	12.736647
436.000000	12.647288
435.000000	12.554141
434.000000	12.434184
433.000000	12.337683
432.000000	12.259325
431.000000	12.183372
430.000000	12.082662
429.000000	11.975363
428.000000	11.876653
427.000000	11.777895
426.000000	11.690727
425.000000	11.614454
424.000000	11.508411
423.000000	11.421606
422.000000	11.324993
421.000000	11.238995
420.000000	11.142799
419.000000	11.046105
418.000000	10.957950
417.000000	10.875750
416.000000	10.763894
415.000000	10.674163
414.000000	10.614117
413.000000	10.549714
412.000000	10.451661
411.000000	10.349726
410.000000	10.258372
409.000000	10.169756
408.000000	10.086156
407.000000	10.009803
406.000000	9.918886
405.000000	9.842188
404.000000	9.758137
403.000000	9.702642
402.000000	9.610078
401.000000	9.548211
400.000000	9.472822
399.000000	9.394451
398.000000	9.310129
397.000000	9.236755
396.000000	9.175508
395.000000	9.102650
394.000000	9.034812
393.000000	8.958140
392.000000	8.917615
391.000000	8.861618
390.000000	8.791948
389.000000	8.730518
388.000000	8.664040
387.000000	8.604144
386.000000	8.551309
385.000000	8.486762
384.000000	8.415193
383.000000	8.383481
382.000000	8.300712
381.000000	8.257995
380.000000	8.213903
379.000000	8.158722
378.000000	8.159199
377.000000	8.152572
376.000000	8.069900
375.000000	8.009970
374.000000	7.917038
373.000000	7.872295
372.000000	7.881769
371.000000	7.816674
370.000000	7.752411
369.000000	7.747333
368.000000	7.711682
367.000000	7.648111
366.000000	7.642517
365.000000	7.588766
364.000000	7.529189
363.000000	7.473520
362.000000	7.463678
361.000000	7.403404
360.000000	7.371986
359.000000	7.349394
358.000000	7.305777
357.000000	7.302497
356.000000	7.249092
355.000000	7.201259
354.000000	7.173224
353.000000	7.120698
352.000000	7.111739
351.000000	7.113756
350.000000	7.102060
349.000000	7.015878
348.000000	7.002886
347.000000	7.002627
346.000000	6.945784
345.000000	6.942484
344.000000	6.905095
343.000000	6.875500
342.000000	6.848401
341.000000	6.831138
340.000000	6.793154
339.000000	6.752094
338.000000	6.728639
337.000000	6.712694
336.000000	6.710518
335.000000	6.665190
334.000000	6.684833
333.000000	6.648185
332.000000	6.625952
331.000000	6.617157
330.000000	6.544275
329.000000	6.534644
328.000000	6.471314
327.000000	6.441198
326.000000	6.395234
325.000000	6.446759
324.000000	6.408287
323.000000	6.400718
322.000000	6.365100
321.000000	6.379969
320.000000	6.415831
319.000000	6.329682
318.000000	6.353419
317.000000	6.397133
316.000000	6.346325
315.000000	6.358213
314.000000	6.373258
313.000000	6.362777
312.000000	6.363318
311.000000	6.354527
310.000000	6.362165
309.000000	6.336594
308.000000	6.349535
307.000000	6.358492
306.000000	6.414538
305.000000	6.351869
304.000000	6.337998
303.000000	6.315720
302.000000	6.352911
301.000000	6.357970
300.000000	6.336520
299.000000	6.339733
298.000000	6.360840
297.000000	6.374633
296.000000	6.334806
295.000000	6.361309
294.000000	6.360906
293.000000	6.342409
292.000000	6.347875
291.000000	6.382705
290.000000	6.390078
289.000000	6.386696
288.000000	6.394585
287.000000	6.395932
286.000000	6.413225
285.000000	6.416958
284.000000	6.432089
283.000000	6.433481
282.000000	6.411316
281.000000	6.452496
280.000000	6.484290
279.000000	6.480559
278.000000	6.517604
277.000000	6.495885
276.000000	6.534315
275.000000	6.580523
274.000000	6.581887
273.000000	6.581410
272.000000	6.629815
271.000000	6.645652
270.000000	6.642447
269.000000	6.672732
268.000000	6.709235
267.000000	6.772433
266.000000	6.813063
265.000000	6.855731
264.000000	6.840359
263.000000	6.912495
262.000000	6.959622
261.000000	6.996209
260.000000	7.056550
259.000000	7.115948
258.000000	7.192471
257.000000	7.195093
256.000000	7.264643
255.000000	7.315912
254.000000	7.379866
253.000000	7.496585
252.000000	7.544693
251.000000	7.645152
250.000000	7.748184
249.000000	7.799233
248.000000	7.879851
247.000000	8.012353
246.000000	8.099532
245.000000	8.173471
244.000000	8.254054
243.000000	8.350546
242.000000	8.470587
241.000000	8.563071
240.000000	8.641350
239.000000	8.680274
238.000000	8.807722
237.000000	8.922330
236.000000	8.991167
235.000000	9.082154
234.000000	9.148218
233.000000	9.244918
232.000000	9.350706
231.000000	9.383740
230.000000	9.472147
229.000000	9.559108
228.000000	9.636720
227.000000	9.727382
226.000000	9.806409
225.000000	9.860009
224.000000	9.949334
223.000000	10.064482
222.000000	10.183572
221.000000	10.285846
220.000000	10.336685
219.000000	10.453928
218.000000	10.577609
217.000000	10.723200
216.000000	10.869509
215.000000	10.955234
214.000000	11.089365
213.000000	11.317249
212.000000	11.530288
211.000000	11.666598
210.000000	11.828735
209.000000	12.084797
208.000000	12.272068
207.000000	12.562854
206.000000	12.958835
205.000000	13.190688
204.000000	13.624797
203.000000	13.991819
202.000000	14.371167
201.000000	14.860461
200.000000	15.094600
