PE UV       SUBTECH     SPECTRUM    ASCII       PEDS        4.00        
   -1
RDms148361.Sample.asc
18/03/13
17:40:44.00
18/03/13
17:40:44.00
Administrator

200.000000
1
Lambda 750
750N8071901
PerkinElmer UV WinLab 6.0.4.0738 / 1.61.00 Lambda 900

0
0
3350/servo 860.8/2
0
0
UV/VIS
1
1
1
CommonBeamDepol,150mm sphere / downward view
0
0
0
0
Program
Program
3350/servo 860.8/2
3350/0.2 860.8/0.2
3350/0.2 860.8/0.2
0
1
 
 
 
0
 
860.8
319.2
860.8
Front
100
on
 
 
0
0
0
 
0
 
 
 
0
 
 
0
0
0
0
0
 
 
 
 
0
0


0
0
#HDR
-1
-1
#GR
nm
%R
1.0
0.0
2350.000000
-1.000000
2151
8
58.794909
8.117323
#DATA
2350.000000	38.637461
2349.000000	38.807562
2348.000000	38.172066
2347.000000	38.884308
2346.000000	38.304079
2345.000000	38.171354
2344.000000	38.525242
2343.000000	38.445144
2342.000000	38.879556
2341.000000	38.875419
2340.000000	38.770450
2339.000000	38.895712
2338.000000	39.133903
2337.000000	39.330154
2336.000000	39.360622
2335.000000	39.314471
2334.000000	39.169720
2333.000000	39.402180
2332.000000	39.373206
2331.000000	39.381041
2330.000000	39.389428
2329.000000	39.244413
2328.000000	39.183706
2327.000000	39.074825
2326.000000	39.383272
2325.000000	39.066364
2324.000000	38.882416
2323.000000	39.103181
2322.000000	38.711123
2321.000000	39.180437
2320.000000	38.864294
2319.000000	38.886884
2318.000000	38.900689
2317.000000	39.040846
2316.000000	38.850140
2315.000000	38.638487
2314.000000	38.650816
2313.000000	38.709954
2312.000000	38.478501
2311.000000	38.457565
2310.000000	38.253281
2309.000000	38.422247
2308.000000	38.336299
2307.000000	38.299878
2306.000000	38.165208
2305.000000	38.273866
2304.000000	38.382729
2303.000000	38.199691
2302.000000	38.160564
2301.000000	38.244085
2300.000000	38.132875
2299.000000	37.760694
2298.000000	37.818286
2297.000000	37.828204
2296.000000	37.846450
2295.000000	37.755981
2294.000000	37.793706
2293.000000	37.646700
2292.000000	37.550656
2291.000000	37.693492
2290.000000	37.791158
2289.000000	37.632015
2288.000000	37.711046
2287.000000	37.738657
2286.000000	37.653857
2285.000000	37.605568
2284.000000	37.561032
2283.000000	37.488446
2282.000000	37.532280
2281.000000	37.766538
2280.000000	37.660330
2279.000000	37.597723
2278.000000	37.659675
2277.000000	37.723520
2276.000000	37.749872
2275.000000	37.776676
2274.000000	37.847074
2273.000000	37.840420
2272.000000	37.932141
2271.000000	37.870077
2270.000000	38.065957
2269.000000	38.200598
2268.000000	38.177326
2267.000000	38.115254
2266.000000	38.172313
2265.000000	38.257048
2264.000000	38.505284
2263.000000	38.642288
2262.000000	38.725688
2261.000000	38.784171
2260.000000	38.911059
2259.000000	39.016850
2258.000000	39.235239
2257.000000	39.463634
2256.000000	39.476692
2255.000000	39.570797
2254.000000	39.794239
2253.000000	39.975755
2252.000000	40.048400
2251.000000	40.172230
2250.000000	40.310994
2249.000000	40.383181
2248.000000	40.545947
2247.000000	40.617593
2246.000000	40.810108
2245.000000	41.091572
2244.000000	41.339753
2243.000000	41.492808
2242.000000	41.601822
2241.000000	41.628845
2240.000000	41.641071
2239.000000	41.683470
2238.000000	41.758689
2237.000000	41.978693
2236.000000	42.063265
2235.000000	42.135203
2234.000000	42.174702
2233.000000	42.124294
2232.000000	42.202902
2231.000000	42.298605
2230.000000	42.340263
2229.000000	42.336580
2228.000000	42.342047
2227.000000	42.341995
2226.000000	42.186741
2225.000000	42.211503
2224.000000	42.418289
2223.000000	42.355175
2222.000000	42.371077
2221.000000	42.346511
2220.000000	42.303146
2219.000000	42.285610
2218.000000	42.087725
2217.000000	42.202069
2216.000000	42.308779
2215.000000	42.264515
2214.000000	42.290876
2213.000000	42.294387
2212.000000	42.027425
2211.000000	41.930356
2210.000000	42.030624
2209.000000	41.991934
2208.000000	41.928606
2207.000000	41.998598
2206.000000	41.976062
2205.000000	41.851527
2204.000000	41.771068
2203.000000	41.560104
2202.000000	41.554235
2201.000000	41.598129
2200.000000	41.780139
2199.000000	41.559480
2198.000000	41.550702
2197.000000	41.507910
2196.000000	41.428991
2195.000000	41.476658
2194.000000	41.517237
2193.000000	41.413430
2192.000000	41.330622
2191.000000	41.348110
2190.000000	41.283338
2189.000000	41.233833
2188.000000	41.159082
2187.000000	41.093243
2186.000000	41.070364
2185.000000	41.039985
2184.000000	41.020602
2183.000000	40.964682
2182.000000	41.060790
2181.000000	41.065653
2180.000000	41.124419
2179.000000	41.030238
2178.000000	41.171751
2177.000000	41.174573
2176.000000	40.938046
2175.000000	40.977532
2174.000000	40.987568
2173.000000	40.979875
2172.000000	41.023840
2171.000000	41.165122
2170.000000	41.327513
2169.000000	41.296593
2168.000000	41.354632
2167.000000	41.457990
2166.000000	41.374952
2165.000000	41.576950
2164.000000	41.621728
2163.000000	41.534038
2162.000000	41.918828
2161.000000	41.968885
2160.000000	42.012746
2159.000000	41.962155
2158.000000	42.200624
2157.000000	42.207603
2156.000000	42.296949
2155.000000	42.369927
2154.000000	42.541898
2153.000000	42.708610
2152.000000	42.675967
2151.000000	42.868861
2150.000000	42.795945
2149.000000	42.949708
2148.000000	43.103537
2147.000000	43.403969
2146.000000	43.247103
2145.000000	43.455742
2144.000000	43.533463
2143.000000	43.607641
2142.000000	43.689492
2141.000000	43.718512
2140.000000	44.019357
2139.000000	43.992914
2138.000000	44.130939
2137.000000	43.865373
2136.000000	44.068257
2135.000000	44.191676
2134.000000	44.271063
2133.000000	44.240810
2132.000000	44.385323
2131.000000	44.353898
2130.000000	44.576262
2129.000000	44.670948
2128.000000	44.688290
2127.000000	44.562762
2126.000000	44.558874
2125.000000	44.636579
2124.000000	44.725598
2123.000000	44.661842
2122.000000	44.657684
2121.000000	44.787653
2120.000000	44.686914
2119.000000	44.641868
2118.000000	44.894684
2117.000000	44.940213
2116.000000	44.898138
2115.000000	44.837863
2114.000000	44.853271
2113.000000	44.851206
2112.000000	44.849145
2111.000000	44.866512
2110.000000	44.797362
2109.000000	44.904110
2108.000000	44.822678
2107.000000	44.908722
2106.000000	44.906015
2105.000000	44.825882
2104.000000	44.745264
2103.000000	44.755550
2102.000000	44.858887
2101.000000	44.976985
2100.000000	44.959645
2099.000000	44.908397
2098.000000	44.849855
2097.000000	45.033080
2096.000000	44.962636
2095.000000	44.910920
2094.000000	44.820036
2093.000000	44.700862
2092.000000	44.770954
2091.000000	44.715879
2090.000000	44.668284
2089.000000	44.782808
2088.000000	44.783664
2087.000000	44.819326
2086.000000	44.855762
2085.000000	44.835137
2084.000000	44.726445
2083.000000	44.603736
2082.000000	44.493439
2081.000000	44.431423
2080.000000	44.543638
2079.000000	44.483605
2078.000000	44.326764
2077.000000	44.272869
2076.000000	44.264070
2075.000000	44.178913
2074.000000	44.114238
2073.000000	44.144174
2072.000000	44.090085
2071.000000	44.006851
2070.000000	43.944366
2069.000000	43.802277
2068.000000	43.582391
2067.000000	43.566202
2066.000000	43.480102
2065.000000	43.425148
2064.000000	43.297006
2063.000000	43.249540
2062.000000	43.178158
2061.000000	43.091464
2060.000000	42.906249
2059.000000	42.796317
2058.000000	42.766300
2057.000000	42.726302
2056.000000	42.531726
2055.000000	42.398890
2054.000000	42.330916
2053.000000	42.231710
2052.000000	42.211113
2051.000000	42.144254
2050.000000	42.070797
2049.000000	42.045616
2048.000000	41.920284
2047.000000	41.865219
2046.000000	41.808065
2045.000000	41.746903
2044.000000	41.766319
2043.000000	41.798973
2042.000000	41.807679
2041.000000	41.796966
2040.000000	41.755734
2039.000000	41.838562
2038.000000	41.894708
2037.000000	41.792997
2036.000000	41.768445
2035.000000	41.828627
2034.000000	41.890663
2033.000000	41.931138
2032.000000	41.990999
2031.000000	42.043496
2030.000000	42.117587
2029.000000	42.211779
2028.000000	42.276644
2027.000000	42.295085
2026.000000	42.324493
2025.000000	42.386439
2024.000000	42.424050
2023.000000	42.431287
2022.000000	42.477450
2021.000000	42.509233
2020.000000	42.544889
2019.000000	42.537522
2018.000000	42.516897
2017.000000	42.504901
2016.000000	42.468851
2015.000000	42.449144
2014.000000	42.464376
2013.000000	42.427066
2012.000000	42.386573
2011.000000	42.370576
2010.000000	42.319814
2009.000000	42.236091
2008.000000	42.138014
2007.000000	42.093846
2006.000000	42.002537
2005.000000	41.931763
2004.000000	41.902503
2003.000000	41.823391
2002.000000	41.746211
2001.000000	41.636837
2000.000000	41.568702
1999.000000	41.521025
1998.000000	41.476809
1997.000000	41.405044
1996.000000	41.323330
1995.000000	41.235786
1994.000000	41.170448
1993.000000	41.063977
1992.000000	40.924209
1991.000000	40.828050
1990.000000	40.763096
1989.000000	40.676589
1988.000000	40.574113
1987.000000	40.517602
1986.000000	40.449849
1985.000000	40.394876
1984.000000	40.297835
1983.000000	40.265330
1982.000000	40.153397
1981.000000	40.075788
1980.000000	40.022372
1979.000000	39.919386
1978.000000	39.798966
1977.000000	39.715186
1976.000000	39.645955
1975.000000	39.575085
1974.000000	39.491646
1973.000000	39.412462
1972.000000	39.324345
1971.000000	39.183462
1970.000000	39.153276
1969.000000	39.052297
1968.000000	39.047779
1967.000000	38.915892
1966.000000	38.893054
1965.000000	38.818075
1964.000000	38.750899
1963.000000	38.613711
1962.000000	38.566174
1961.000000	38.487341
1960.000000	38.424668
1959.000000	38.344762
1958.000000	38.293465
1957.000000	38.189634
1956.000000	38.175983
1955.000000	38.115515
1954.000000	38.112469
1953.000000	38.022551
1952.000000	37.990316
1951.000000	37.999660
1950.000000	37.982879
1949.000000	37.936780
1948.000000	37.867064
1947.000000	37.832847
1946.000000	37.813947
1945.000000	37.794349
1944.000000	37.794279
1943.000000	37.790718
1942.000000	37.824169
1941.000000	37.805527
1940.000000	37.900303
1939.000000	37.922920
1938.000000	37.984447
1937.000000	38.046638
1936.000000	38.110053
1935.000000	38.075347
1934.000000	38.169886
1933.000000	38.313237
1932.000000	38.447003
1931.000000	38.449724
1930.000000	38.695792
1929.000000	38.687101
1928.000000	38.815368
1927.000000	39.019668
1926.000000	39.134562
1925.000000	39.371423
1924.000000	39.442684
1923.000000	39.612742
1922.000000	39.879378
1921.000000	40.130299
1920.000000	40.180609
1919.000000	40.411249
1918.000000	40.565306
1917.000000	40.801843
1916.000000	41.096031
1915.000000	41.325910
1914.000000	41.627393
1913.000000	41.896477
1912.000000	42.136851
1911.000000	42.446732
1910.000000	42.742604
1909.000000	43.025169
1908.000000	43.223067
1907.000000	43.672695
1906.000000	43.945740
1905.000000	44.215915
1904.000000	44.537738
1903.000000	44.894392
1902.000000	45.188572
1901.000000	45.499361
1900.000000	45.906300
1899.000000	46.175081
1898.000000	46.581470
1897.000000	46.794665
1896.000000	47.136591
1895.000000	47.491595
1894.000000	47.720082
1893.000000	48.068500
1892.000000	48.334829
1891.000000	48.721667
1890.000000	48.886770
1889.000000	49.137566
1888.000000	49.429935
1887.000000	49.674559
1886.000000	49.919926
1885.000000	50.145510
1884.000000	50.400834
1883.000000	50.616447
1882.000000	50.750902
1881.000000	50.930233
1880.000000	51.153031
1879.000000	51.324394
1878.000000	51.489138
1877.000000	51.662082
1876.000000	51.775762
1875.000000	51.990412
1874.000000	52.112797
1873.000000	52.209847
1872.000000	52.356950
1871.000000	52.528742
1870.000000	52.683050
1869.000000	52.693546
1868.000000	52.760481
1867.000000	52.842836
1866.000000	52.923302
1865.000000	52.980418
1864.000000	52.962238
1863.000000	53.076052
1862.000000	53.088219
1861.000000	53.106057
1860.000000	53.142703
1859.000000	53.206059
1858.000000	53.211984
1857.000000	53.172419
1856.000000	53.256030
1855.000000	53.298526
1854.000000	53.311273
1853.000000	53.314525
1852.000000	53.273634
1851.000000	53.342571
1850.000000	53.342498
1849.000000	53.297798
1848.000000	53.337756
1847.000000	53.334886
1846.000000	53.358525
1845.000000	53.361698
1844.000000	53.341952
1843.000000	53.313236
1842.000000	53.318575
1841.000000	53.292890
1840.000000	53.280942
1839.000000	53.283117
1838.000000	53.278910
1837.000000	53.264860
1836.000000	53.272808
1835.000000	53.228152
1834.000000	53.198136
1833.000000	53.194432
1832.000000	53.195477
1831.000000	53.183390
1830.000000	53.161795
1829.000000	53.123034
1828.000000	53.096892
1827.000000	53.080522
1826.000000	53.058969
1825.000000	53.064227
1824.000000	53.057252
1823.000000	53.033531
1822.000000	52.972440
1821.000000	52.957223
1820.000000	52.976091
1819.000000	52.972804
1818.000000	52.954490
1817.000000	52.938124
1816.000000	52.944651
1815.000000	52.940480
1814.000000	52.911057
1813.000000	52.877787
1812.000000	52.866304
1811.000000	52.869464
1810.000000	52.852807
1809.000000	52.860982
1808.000000	52.838439
1807.000000	52.802026
1806.000000	52.806746
1805.000000	52.782203
1804.000000	52.764580
1803.000000	52.768752
1802.000000	52.740485
1801.000000	52.713362
1800.000000	52.712748
1799.000000	52.716384
1798.000000	52.709184
1797.000000	52.684443
1796.000000	52.660565
1795.000000	52.661968
1794.000000	52.661245
1793.000000	52.639171
1792.000000	52.626176
1791.000000	52.627246
1790.000000	52.614909
1789.000000	52.613400
1788.000000	52.624062
1787.000000	52.606288
1786.000000	52.600257
1785.000000	52.594196
1784.000000	52.580246
1783.000000	52.538135
1782.000000	52.503032
1781.000000	52.500220
1780.000000	52.485607
1779.000000	52.480472
1778.000000	52.456621
1777.000000	52.405771
1776.000000	52.384999
1775.000000	52.357255
1774.000000	52.347888
1773.000000	52.339241
1772.000000	52.300769
1771.000000	52.312260
1770.000000	52.285552
1769.000000	52.247408
1768.000000	52.252676
1767.000000	52.213378
1766.000000	52.169462
1765.000000	52.139642
1764.000000	52.123744
1763.000000	52.109714
1762.000000	52.094869
1761.000000	52.072279
1760.000000	52.018423
1759.000000	52.021454
1758.000000	52.020133
1757.000000	52.011032
1756.000000	51.969270
1755.000000	51.942867
1754.000000	51.927204
1753.000000	51.911403
1752.000000	51.914308
1751.000000	51.881686
1750.000000	51.857607
1749.000000	51.830588
1748.000000	51.805472
1747.000000	51.785644
1746.000000	51.744743
1745.000000	51.715504
1744.000000	51.679721
1743.000000	51.641187
1742.000000	51.619867
1741.000000	51.625873
1740.000000	51.589852
1739.000000	51.580862
1738.000000	51.565400
1737.000000	51.539841
1736.000000	51.538779
1735.000000	51.535924
1734.000000	51.526545
1733.000000	51.489691
1732.000000	51.484409
1731.000000	51.547275
1730.000000	51.531029
1729.000000	51.556017
1728.000000	51.548514
1727.000000	51.588317
1726.000000	51.633171
1725.000000	51.686633
1724.000000	51.708666
1723.000000	51.746907
1722.000000	51.821353
1721.000000	51.879352
1720.000000	51.930871
1719.000000	52.008847
1718.000000	51.996948
1717.000000	52.082167
1716.000000	52.107231
1715.000000	52.164538
1714.000000	52.245599
1713.000000	52.270414
1712.000000	52.303287
1711.000000	52.352734
1710.000000	52.395942
1709.000000	52.443854
1708.000000	52.464611
1707.000000	52.477886
1706.000000	52.553888
1705.000000	52.576611
1704.000000	52.588677
1703.000000	52.597130
1702.000000	52.619395
1701.000000	52.654046
1700.000000	52.634269
1699.000000	52.627217
1698.000000	52.674523
1697.000000	52.709711
1696.000000	52.733588
1695.000000	52.764827
1694.000000	52.726691
1693.000000	52.785550
1692.000000	52.791229
1691.000000	52.830809
1690.000000	52.859753
1689.000000	52.913771
1688.000000	52.973794
1687.000000	53.006018
1686.000000	53.062160
1685.000000	53.104423
1684.000000	53.199782
1683.000000	53.242590
1682.000000	53.334298
1681.000000	53.420939
1680.000000	53.480893
1679.000000	53.543843
1678.000000	53.595836
1677.000000	53.721853
1676.000000	53.776701
1675.000000	53.851954
1674.000000	53.917516
1673.000000	53.981111
1672.000000	54.037592
1671.000000	54.107126
1670.000000	54.198655
1669.000000	54.247076
1668.000000	54.315948
1667.000000	54.393790
1666.000000	54.404850
1665.000000	54.429252
1664.000000	54.473973
1663.000000	54.480506
1662.000000	54.568785
1661.000000	54.582922
1660.000000	54.615445
1659.000000	54.656069
1658.000000	54.663775
1657.000000	54.681256
1656.000000	54.724802
1655.000000	54.722037
1654.000000	54.766038
1653.000000	54.765332
1652.000000	54.778247
1651.000000	54.799615
1650.000000	54.785691
1649.000000	54.786912
1648.000000	54.783966
1647.000000	54.770767
1646.000000	54.779137
1645.000000	54.783985
1644.000000	54.760602
1643.000000	54.759080
1642.000000	54.744529
1641.000000	54.745560
1640.000000	54.749258
1639.000000	54.744961
1638.000000	54.718126
1637.000000	54.686329
1636.000000	54.663394
1635.000000	54.658321
1634.000000	54.647708
1633.000000	54.632355
1632.000000	54.631743
1631.000000	54.616935
1630.000000	54.589968
1629.000000	54.583362
1628.000000	54.567232
1627.000000	54.553474
1626.000000	54.541427
1625.000000	54.515294
1624.000000	54.485638
1623.000000	54.472558
1622.000000	54.450522
1621.000000	54.437459
1620.000000	54.417485
1619.000000	54.398754
1618.000000	54.362016
1617.000000	54.354461
1616.000000	54.333891
1615.000000	54.303470
1614.000000	54.276261
1613.000000	54.249427
1612.000000	54.236906
1611.000000	54.209296
1610.000000	54.189083
1609.000000	54.171906
1608.000000	54.155481
1607.000000	54.131521
1606.000000	54.097575
1605.000000	54.064480
1604.000000	54.017663
1603.000000	53.995334
1602.000000	53.994793
1601.000000	53.960637
1600.000000	53.923132
1599.000000	53.897096
1598.000000	53.865518
1597.000000	53.839977
1596.000000	53.826370
1595.000000	53.815850
1594.000000	53.792194
1593.000000	53.787966
1592.000000	53.767331
1591.000000	53.737531
1590.000000	53.715971
1589.000000	53.668973
1588.000000	53.652836
1587.000000	53.646851
1586.000000	53.629245
1585.000000	53.601512
1584.000000	53.580043
1583.000000	53.556856
1582.000000	53.528038
1581.000000	53.530546
1580.000000	53.511601
1579.000000	53.481705
1578.000000	53.486585
1577.000000	53.481912
1576.000000	53.456382
1575.000000	53.437972
1574.000000	53.387788
1573.000000	53.353281
1572.000000	53.356148
1571.000000	53.340385
1570.000000	53.321657
1569.000000	53.300067
1568.000000	53.276322
1567.000000	53.260972
1566.000000	53.247330
1565.000000	53.230079
1564.000000	53.230765
1563.000000	53.224582
1562.000000	53.201983
1561.000000	53.182315
1560.000000	53.175898
1559.000000	53.161145
1558.000000	53.144060
1557.000000	53.154256
1556.000000	53.152209
1555.000000	53.134942
1554.000000	53.117706
1553.000000	53.100729
1552.000000	53.087099
1551.000000	53.068215
1550.000000	53.045152
1549.000000	53.026486
1548.000000	53.029462
1547.000000	53.013602
1546.000000	52.985210
1545.000000	52.962501
1544.000000	52.906956
1543.000000	52.875855
1542.000000	52.838185
1541.000000	52.798069
1540.000000	52.760352
1539.000000	52.726988
1538.000000	52.691359
1537.000000	52.650274
1536.000000	52.618547
1535.000000	52.574987
1534.000000	52.535628
1533.000000	52.528854
1532.000000	52.468420
1531.000000	52.417383
1530.000000	52.408888
1529.000000	52.354979
1528.000000	52.306608
1527.000000	52.283245
1526.000000	52.241924
1525.000000	52.222882
1524.000000	52.177737
1523.000000	52.159116
1522.000000	52.132490
1521.000000	52.113902
1520.000000	52.090499
1519.000000	52.078522
1518.000000	52.083078
1517.000000	52.034196
1516.000000	52.012490
1515.000000	52.005216
1514.000000	51.998472
1513.000000	52.012151
1512.000000	51.986451
1511.000000	51.937308
1510.000000	51.941777
1509.000000	51.918215
1508.000000	51.911828
1507.000000	51.907875
1506.000000	51.888189
1505.000000	51.905262
1504.000000	51.901388
1503.000000	51.897327
1502.000000	51.872668
1501.000000	51.880084
1500.000000	51.879713
1499.000000	51.852410
1498.000000	51.876887
1497.000000	51.867800
1496.000000	51.877964
1495.000000	51.879334
1494.000000	51.869453
1493.000000	51.897379
1492.000000	51.869820
1491.000000	51.883179
1490.000000	51.911641
1489.000000	51.925196
1488.000000	51.930725
1487.000000	51.937470
1486.000000	51.947465
1485.000000	51.945806
1484.000000	51.969576
1483.000000	51.978187
1482.000000	51.977767
1481.000000	52.016243
1480.000000	52.039436
1479.000000	52.045950
1478.000000	52.069315
1477.000000	52.097466
1476.000000	52.077542
1475.000000	52.105164
1474.000000	52.142708
1473.000000	52.133344
1472.000000	52.149174
1471.000000	52.183207
1470.000000	52.188955
1469.000000	52.207773
1468.000000	52.232440
1467.000000	52.254053
1466.000000	52.262893
1465.000000	52.304627
1464.000000	52.289166
1463.000000	52.320612
1462.000000	52.343026
1461.000000	52.341913
1460.000000	52.396689
1459.000000	52.392078
1458.000000	52.420962
1457.000000	52.441787
1456.000000	52.482538
1455.000000	52.493304
1454.000000	52.512614
1453.000000	52.565025
1452.000000	52.607328
1451.000000	52.634003
1450.000000	52.676833
1449.000000	52.688078
1448.000000	52.719227
1447.000000	52.742704
1446.000000	52.766625
1445.000000	52.821264
1444.000000	52.870230
1443.000000	52.898471
1442.000000	52.931371
1441.000000	52.992584
1440.000000	53.027081
1439.000000	53.068224
1438.000000	53.109403
1437.000000	53.155367
1436.000000	53.218199
1435.000000	53.266582
1434.000000	53.315242
1433.000000	53.379123
1432.000000	53.420054
1431.000000	53.472218
1430.000000	53.545918
1429.000000	53.622735
1428.000000	53.660954
1427.000000	53.734252
1426.000000	53.798778
1425.000000	53.878385
1424.000000	53.954862
1423.000000	54.019546
1422.000000	54.090500
1421.000000	54.177322
1420.000000	54.246774
1419.000000	54.311908
1418.000000	54.395125
1417.000000	54.482896
1416.000000	54.559357
1415.000000	54.634642
1414.000000	54.728137
1413.000000	54.813673
1412.000000	54.889994
1411.000000	54.965076
1410.000000	55.061773
1409.000000	55.147365
1408.000000	55.242932
1407.000000	55.331902
1406.000000	55.403110
1405.000000	55.491989
1404.000000	55.567523
1403.000000	55.639475
1402.000000	55.724225
1401.000000	55.796888
1400.000000	55.885979
1399.000000	55.971225
1398.000000	56.048596
1397.000000	56.125346
1396.000000	56.188276
1395.000000	56.253162
1394.000000	56.303131
1393.000000	56.375269
1392.000000	56.444855
1391.000000	56.489426
1390.000000	56.538867
1389.000000	56.583900
1388.000000	56.630859
1387.000000	56.674089
1386.000000	56.718934
1385.000000	56.791076
1384.000000	56.833656
1383.000000	56.870539
1382.000000	56.925131
1381.000000	56.973371
1380.000000	57.014513
1379.000000	57.036582
1378.000000	57.061017
1377.000000	57.091401
1376.000000	57.109826
1375.000000	57.118947
1374.000000	57.135835
1373.000000	57.162431
1372.000000	57.186893
1371.000000	57.199363
1370.000000	57.216025
1369.000000	57.238229
1368.000000	57.255347
1367.000000	57.262623
1366.000000	57.277970
1365.000000	57.290077
1364.000000	57.309989
1363.000000	57.334964
1362.000000	57.355544
1361.000000	57.394917
1360.000000	57.433850
1359.000000	57.447645
1358.000000	57.465899
1357.000000	57.505075
1356.000000	57.521450
1355.000000	57.544804
1354.000000	57.569462
1353.000000	57.601081
1352.000000	57.624020
1351.000000	57.624386
1350.000000	57.622892
1349.000000	57.658790
1348.000000	57.681337
1347.000000	57.684013
1346.000000	57.695664
1345.000000	57.710759
1344.000000	57.744480
1343.000000	57.748317
1342.000000	57.754917
1341.000000	57.789114
1340.000000	57.805081
1339.000000	57.818919
1338.000000	57.826124
1337.000000	57.836519
1336.000000	57.861193
1335.000000	57.881748
1334.000000	57.900621
1333.000000	57.902613
1332.000000	57.917400
1331.000000	57.926089
1330.000000	57.937305
1329.000000	57.946119
1328.000000	57.963265
1327.000000	57.985014
1326.000000	58.034856
1325.000000	58.102580
1324.000000	58.149154
1323.000000	58.199940
1322.000000	58.187771
1321.000000	58.160250
1320.000000	58.151275
1319.000000	58.201670
1318.000000	58.231482
1317.000000	58.238145
1316.000000	58.260601
1315.000000	58.243474
1314.000000	58.231950
1313.000000	58.279865
1312.000000	58.343130
1311.000000	58.359410
1310.000000	58.347335
1309.000000	58.331855
1308.000000	58.313018
1307.000000	58.318716
1306.000000	58.351335
1305.000000	58.362897
1304.000000	58.369016
1303.000000	58.384108
1302.000000	58.392672
1301.000000	58.402768
1300.000000	58.430885
1299.000000	58.418691
1298.000000	58.399029
1297.000000	58.423550
1296.000000	58.429915
1295.000000	58.416901
1294.000000	58.398321
1293.000000	58.386389
1292.000000	58.405399
1291.000000	58.407254
1290.000000	58.404850
1289.000000	58.424402
1288.000000	58.397457
1287.000000	58.339322
1286.000000	58.317261
1285.000000	58.324524
1284.000000	58.316675
1283.000000	58.342856
1282.000000	58.343578
1281.000000	58.370236
1280.000000	58.371680
1279.000000	58.347251
1278.000000	58.348905
1277.000000	58.350055
1276.000000	58.329884
1275.000000	58.353582
1274.000000	58.335330
1273.000000	58.357358
1272.000000	58.352329
1271.000000	58.328988
1270.000000	58.325490
1269.000000	58.351249
1268.000000	58.344373
1267.000000	58.356839
1266.000000	58.342023
1265.000000	58.329878
1264.000000	58.328964
1263.000000	58.383361
1262.000000	58.426603
1261.000000	58.394645
1260.000000	58.414105
1259.000000	58.403785
1258.000000	58.388983
1257.000000	58.381965
1256.000000	58.402985
1255.000000	58.427216
1254.000000	58.434139
1253.000000	58.434553
1252.000000	58.433998
1251.000000	58.425717
1250.000000	58.409705
1249.000000	58.410107
1248.000000	58.415930
1247.000000	58.403810
1246.000000	58.418899
1245.000000	58.397955
1244.000000	58.402695
1243.000000	58.399337
1242.000000	58.324210
1241.000000	58.326876
1240.000000	58.336142
1239.000000	58.317623
1238.000000	58.254554
1237.000000	58.256946
1236.000000	58.263457
1235.000000	58.246937
1234.000000	58.238084
1233.000000	58.186452
1232.000000	58.193944
1231.000000	58.191406
1230.000000	58.168140
1229.000000	58.118356
1228.000000	58.110533
1227.000000	58.102171
1226.000000	58.099853
1225.000000	58.099197
1224.000000	58.110311
1223.000000	58.093116
1222.000000	58.086620
1221.000000	58.082484
1220.000000	58.070067
1219.000000	58.067110
1218.000000	58.044799
1217.000000	58.038091
1216.000000	58.036573
1215.000000	58.028775
1214.000000	57.996837
1213.000000	58.010731
1212.000000	58.036316
1211.000000	58.075606
1210.000000	58.057157
1209.000000	58.066785
1208.000000	58.063649
1207.000000	58.050831
1206.000000	58.037429
1205.000000	58.050664
1204.000000	58.041802
1203.000000	58.029060
1202.000000	58.033767
1201.000000	58.043518
1200.000000	58.043069
1199.000000	58.020940
1198.000000	58.025042
1197.000000	58.059586
1196.000000	58.052814
1195.000000	58.038515
1194.000000	58.029440
1193.000000	58.021974
1192.000000	58.010259
1191.000000	57.994615
1190.000000	57.962764
1189.000000	57.909096
1188.000000	57.911926
1187.000000	57.920046
1186.000000	57.917135
1185.000000	57.914055
1184.000000	57.912876
1183.000000	57.918830
1182.000000	57.924765
1181.000000	57.927488
1180.000000	57.940794
1179.000000	57.953453
1178.000000	57.977277
1177.000000	57.993620
1176.000000	58.002734
1175.000000	58.018921
1174.000000	58.034387
1173.000000	58.054731
1172.000000	58.074896
1171.000000	58.081072
1170.000000	58.102556
1169.000000	58.114516
1168.000000	58.119470
1167.000000	58.142453
1166.000000	58.166848
1165.000000	58.189906
1164.000000	58.207742
1163.000000	58.222288
1162.000000	58.203512
1161.000000	58.192878
1160.000000	58.221049
1159.000000	58.247073
1158.000000	58.271481
1157.000000	58.274431
1156.000000	58.280387
1155.000000	58.313638
1154.000000	58.332133
1153.000000	58.335841
1152.000000	58.352756
1151.000000	58.373949
1150.000000	58.394880
1149.000000	58.409865
1148.000000	58.426389
1147.000000	58.447233
1146.000000	58.418083
1145.000000	58.403837
1144.000000	58.428028
1143.000000	58.452774
1142.000000	58.459950
1141.000000	58.473460
1140.000000	58.477087
1139.000000	58.481666
1138.000000	58.502473
1137.000000	58.505084
1136.000000	58.514119
1135.000000	58.532640
1134.000000	58.539742
1133.000000	58.516729
1132.000000	58.497952
1131.000000	58.501398
1130.000000	58.512119
1129.000000	58.523257
1128.000000	58.532114
1127.000000	58.544718
1126.000000	58.548830
1125.000000	58.557982
1124.000000	58.553045
1123.000000	58.561470
1122.000000	58.565012
1121.000000	58.573948
1120.000000	58.578564
1119.000000	58.572039
1118.000000	58.570633
1117.000000	58.542104
1116.000000	58.538507
1115.000000	58.543466
1114.000000	58.538336
1113.000000	58.542056
1112.000000	58.547936
1111.000000	58.531544
1110.000000	58.531719
1109.000000	58.547829
1108.000000	58.548845
1107.000000	58.547434
1106.000000	58.553466
1105.000000	58.547945
1104.000000	58.546532
1103.000000	58.546298
1102.000000	58.552207
1101.000000	58.501885
1100.000000	58.502491
1099.000000	58.501168
1098.000000	58.508003
1097.000000	58.512101
1096.000000	58.503140
1095.000000	58.503449
1094.000000	58.456341
1093.000000	58.443094
1092.000000	58.448811
1091.000000	58.452157
1090.000000	58.468586
1089.000000	58.470928
1088.000000	58.454502
1087.000000	58.415276
1086.000000	58.424404
1085.000000	58.435349
1084.000000	58.421412
1083.000000	58.443796
1082.000000	58.426118
1081.000000	58.401987
1080.000000	58.390936
1079.000000	58.387696
1078.000000	58.400081
1077.000000	58.388435
1076.000000	58.349890
1075.000000	58.347059
1074.000000	58.352134
1073.000000	58.337587
1072.000000	58.364304
1071.000000	58.333309
1070.000000	58.312240
1069.000000	58.327320
1068.000000	58.341835
1067.000000	58.319413
1066.000000	58.312099
1065.000000	58.290384
1064.000000	58.298586
1063.000000	58.281285
1062.000000	58.298792
1061.000000	58.297530
1060.000000	58.290262
1059.000000	58.294045
1058.000000	58.284727
1057.000000	58.276453
1056.000000	58.254116
1055.000000	58.272235
1054.000000	58.273356
1053.000000	58.276729
1052.000000	58.252942
1051.000000	58.272142
1050.000000	58.258807
1049.000000	58.244281
1048.000000	58.225056
1047.000000	58.262528
1046.000000	58.224867
1045.000000	58.239548
1044.000000	58.229349
1043.000000	58.215581
1042.000000	58.206041
1041.000000	58.219496
1040.000000	58.188456
1039.000000	58.192710
1038.000000	58.204230
1037.000000	58.184521
1036.000000	58.180177
1035.000000	58.189389
1034.000000	58.166417
1033.000000	58.177622
1032.000000	58.179869
1031.000000	58.177161
1030.000000	58.173244
1029.000000	58.147166
1028.000000	58.157251
1027.000000	58.143693
1026.000000	58.133336
1025.000000	58.114900
1024.000000	58.118375
1023.000000	58.124735
1022.000000	58.123248
1021.000000	58.115043
1020.000000	58.114010
1019.000000	58.100883
1018.000000	58.089962
1017.000000	58.084223
1016.000000	58.068316
1015.000000	58.084872
1014.000000	58.083333
1013.000000	58.080934
1012.000000	58.068051
1011.000000	58.057053
1010.000000	58.053068
1009.000000	58.052532
1008.000000	58.042908
1007.000000	58.028729
1006.000000	58.035278
1005.000000	58.045323
1004.000000	58.025456
1003.000000	58.020870
1002.000000	58.017508
1001.000000	58.010425
1000.000000	58.003180
999.000000	57.997004
998.000000	57.980032
997.000000	57.994012
996.000000	57.976366
995.000000	57.981236
994.000000	57.965323
993.000000	57.963056
992.000000	57.952442
991.000000	57.959909
990.000000	57.961023
989.000000	57.955123
988.000000	57.958357
987.000000	57.953560
986.000000	57.946127
985.000000	57.952917
984.000000	57.948586
983.000000	57.937049
982.000000	57.932080
981.000000	57.925334
980.000000	57.926315
979.000000	57.916052
978.000000	57.914555
977.000000	57.922965
976.000000	57.922332
975.000000	57.936450
974.000000	57.919873
973.000000	57.896524
972.000000	57.897037
971.000000	57.896699
970.000000	57.901351
969.000000	57.889577
968.000000	57.881739
967.000000	57.862428
966.000000	57.858332
965.000000	57.862471
964.000000	57.881198
963.000000	57.879674
962.000000	57.851267
961.000000	57.832242
960.000000	57.839230
959.000000	57.833219
958.000000	57.823308
957.000000	57.819601
956.000000	57.820120
955.000000	57.815391
954.000000	57.787971
953.000000	57.787248
952.000000	57.804533
951.000000	57.790850
950.000000	57.785928
949.000000	57.791672
948.000000	57.795245
947.000000	57.778022
946.000000	57.765601
945.000000	57.765150
944.000000	57.764547
943.000000	57.751183
942.000000	57.717771
941.000000	57.718431
940.000000	57.725804
939.000000	57.714618
938.000000	57.705144
937.000000	57.674709
936.000000	57.672302
935.000000	57.679740
934.000000	57.667762
933.000000	57.675399
932.000000	57.672441
931.000000	57.662364
930.000000	57.660876
929.000000	57.650703
928.000000	57.623364
927.000000	57.586094
926.000000	57.613840
925.000000	57.620260
924.000000	57.596982
923.000000	57.579023
922.000000	57.578122
921.000000	57.571622
920.000000	57.542772
919.000000	57.518710
918.000000	57.502210
917.000000	57.495243
916.000000	57.527559
915.000000	57.556587
914.000000	57.533877
913.000000	57.527324
912.000000	57.494022
911.000000	57.499518
910.000000	57.486128
909.000000	57.441261
908.000000	57.496069
907.000000	57.469971
906.000000	57.387384
905.000000	57.389977
904.000000	57.373193
903.000000	57.379452
902.000000	57.390237
901.000000	57.435852
900.000000	57.472091
899.000000	57.453712
898.000000	57.389191
897.000000	57.397049
896.000000	57.416932
895.000000	57.351237
894.000000	57.325510
893.000000	57.380849
892.000000	57.326923
891.000000	57.310690
890.000000	57.295255
889.000000	57.342103
888.000000	57.344193
887.000000	57.315736
886.000000	57.309039
885.000000	57.338999
884.000000	57.393780
883.000000	57.347195
882.000000	57.296242
881.000000	57.272711
880.000000	57.243639
879.000000	57.231388
878.000000	57.200985
877.000000	57.206676
876.000000	57.207052
875.000000	57.170091
874.000000	57.196912
873.000000	57.150564
872.000000	57.131850
871.000000	57.203933
870.000000	57.230233
869.000000	57.232946
868.000000	57.174617
867.000000	57.141934
866.000000	57.201320
865.000000	57.198645
864.000000	57.206309
863.000000	57.035741
862.000000	57.215791
861.000000	57.047663
860.000000	56.959961
859.000000	57.913088
858.000000	58.355483
857.000000	58.634324
856.000000	58.221173
855.000000	58.760604
854.000000	58.717798
853.000000	58.794909
852.000000	58.483238
851.000000	58.458822
850.000000	58.318140
849.000000	58.610405
848.000000	58.369695
847.000000	58.456497
846.000000	58.323541
845.000000	58.276240
844.000000	58.354223
843.000000	58.262349
842.000000	58.302796
841.000000	58.232321
840.000000	58.164640
839.000000	58.393775
838.000000	58.132175
837.000000	58.191475
836.000000	58.265269
835.000000	58.124229
834.000000	58.220315
833.000000	58.024303
832.000000	57.873322
831.000000	58.121362
830.000000	58.019350
829.000000	57.995253
828.000000	58.065811
827.000000	57.818562
826.000000	57.917545
825.000000	57.986790
824.000000	57.945326
823.000000	57.915357
822.000000	57.683819
821.000000	58.016522
820.000000	57.880884
819.000000	57.706475
818.000000	57.805987
817.000000	57.665414
816.000000	57.656398
815.000000	57.805152
814.000000	57.579654
813.000000	57.625105
812.000000	57.649799
811.000000	57.658993
810.000000	57.607066
809.000000	57.496716
808.000000	57.555916
807.000000	57.499285
806.000000	57.480793
805.000000	57.566924
804.000000	57.569895
803.000000	57.364265
802.000000	57.254545
801.000000	57.481640
800.000000	57.466528
799.000000	57.320662
798.000000	57.344861
797.000000	57.329496
796.000000	57.326096
795.000000	57.197772
794.000000	57.112131
793.000000	57.274009
792.000000	57.342302
791.000000	57.072825
790.000000	57.060679
789.000000	57.069487
788.000000	57.112413
787.000000	57.032759
786.000000	57.013585
785.000000	57.081285
784.000000	57.072625
783.000000	56.838677
782.000000	56.891475
781.000000	56.835794
780.000000	56.913193
779.000000	56.950761
778.000000	56.822194
777.000000	56.817253
776.000000	56.743418
775.000000	56.676051
774.000000	56.669277
773.000000	56.693614
772.000000	56.626165
771.000000	56.676145
770.000000	56.686656
769.000000	56.608412
768.000000	56.547136
767.000000	56.508499
766.000000	56.415524
765.000000	56.398586
764.000000	56.402136
763.000000	56.397001
762.000000	56.376374
761.000000	56.260909
760.000000	56.210035
759.000000	56.177964
758.000000	56.213862
757.000000	56.175967
756.000000	56.172473
755.000000	56.092965
754.000000	56.058641
753.000000	56.051506
752.000000	55.881822
751.000000	55.931316
750.000000	55.906082
749.000000	55.915138
748.000000	55.845426
747.000000	55.771142
746.000000	55.759069
745.000000	55.649466
744.000000	55.632025
743.000000	55.660989
742.000000	55.534384
741.000000	55.536993
740.000000	55.555116
739.000000	55.469082
738.000000	55.395875
737.000000	55.445226
736.000000	55.242110
735.000000	55.255130
734.000000	55.271950
733.000000	55.204866
732.000000	55.192518
731.000000	55.126862
730.000000	55.090957
729.000000	55.040986
728.000000	54.951592
727.000000	54.917415
726.000000	54.915518
725.000000	54.857479
724.000000	54.767422
723.000000	54.715750
722.000000	54.720511
721.000000	54.693694
720.000000	54.623288
719.000000	54.561541
718.000000	54.542412
717.000000	54.441641
716.000000	54.366049
715.000000	54.364451
714.000000	54.339279
713.000000	54.236696
712.000000	54.152914
711.000000	54.130654
710.000000	54.072917
709.000000	54.032352
708.000000	53.957633
707.000000	53.850981
706.000000	53.830914
705.000000	53.789483
704.000000	53.726351
703.000000	53.686117
702.000000	53.636906
701.000000	53.581220
700.000000	53.542972
699.000000	53.487287
698.000000	53.419943
697.000000	53.389706
696.000000	53.317649
695.000000	53.229091
694.000000	53.151560
693.000000	53.121493
692.000000	53.086383
691.000000	53.031120
690.000000	53.002120
689.000000	52.835792
688.000000	52.765942
687.000000	52.774684
686.000000	52.737524
685.000000	52.660314
684.000000	52.554417
683.000000	52.505438
682.000000	52.493193
681.000000	52.423028
680.000000	52.365401
679.000000	52.311787
678.000000	52.247264
677.000000	52.180305
676.000000	52.099751
675.000000	52.012656
674.000000	51.915108
673.000000	51.806821
672.000000	51.781945
671.000000	51.769491
670.000000	51.697417
669.000000	51.539031
668.000000	51.420267
667.000000	51.352460
666.000000	51.314784
665.000000	51.263667
664.000000	51.228179
663.000000	51.157938
662.000000	51.071063
661.000000	50.981654
660.000000	50.897620
659.000000	50.839870
658.000000	50.740710
657.000000	50.632583
656.000000	50.577795
655.000000	50.526120
654.000000	50.447380
653.000000	50.338334
652.000000	50.260345
651.000000	50.142857
650.000000	50.064665
649.000000	50.033728
648.000000	49.987210
647.000000	49.855715
646.000000	49.782611
645.000000	49.732582
644.000000	49.636963
643.000000	49.563215
642.000000	49.493975
641.000000	49.396092
640.000000	49.359462
639.000000	49.240313
638.000000	49.117012
637.000000	49.068952
636.000000	49.003257
635.000000	48.886000
634.000000	48.781792
633.000000	48.709699
632.000000	48.637809
631.000000	48.552965
630.000000	48.466897
629.000000	48.371147
628.000000	48.248645
627.000000	48.179785
626.000000	48.075567
625.000000	48.003180
624.000000	47.960622
623.000000	47.886144
622.000000	47.757569
621.000000	47.653660
620.000000	47.577083
619.000000	47.514661
618.000000	47.381591
617.000000	47.321285
616.000000	47.221895
615.000000	47.075808
614.000000	47.015926
613.000000	46.926597
612.000000	46.877320
611.000000	46.769566
610.000000	46.723106
609.000000	46.540360
608.000000	46.478450
607.000000	46.388154
606.000000	46.268437
605.000000	46.225471
604.000000	46.090198
603.000000	45.980243
602.000000	45.845308
601.000000	45.803303
600.000000	45.712351
599.000000	45.640428
598.000000	45.496992
597.000000	45.447349
596.000000	45.291336
595.000000	45.213182
594.000000	45.058888
593.000000	45.027408
592.000000	44.944497
591.000000	44.781022
590.000000	44.681299
589.000000	44.619087
588.000000	44.534083
587.000000	44.382460
586.000000	44.295904
585.000000	44.188491
584.000000	44.043336
583.000000	43.970573
582.000000	43.856554
581.000000	43.755206
580.000000	43.665006
579.000000	43.562228
578.000000	43.431715
577.000000	43.341146
576.000000	43.234576
575.000000	43.108649
574.000000	43.015659
573.000000	42.903457
572.000000	42.768560
571.000000	42.669717
570.000000	42.585914
569.000000	42.460716
568.000000	42.362199
567.000000	42.235391
566.000000	42.096070
565.000000	41.982614
564.000000	41.862634
563.000000	41.764262
562.000000	41.615291
561.000000	41.461179
560.000000	41.350345
559.000000	41.229250
558.000000	41.089544
557.000000	41.006320
556.000000	40.895008
555.000000	40.770603
554.000000	40.646968
553.000000	40.510462
552.000000	40.385350
551.000000	40.268463
550.000000	40.169261
549.000000	40.042819
548.000000	39.917868
547.000000	39.817217
546.000000	39.683427
545.000000	39.559276
544.000000	39.433588
543.000000	39.332705
542.000000	39.198105
541.000000	39.094044
540.000000	38.928154
539.000000	38.839521
538.000000	38.696555
537.000000	38.586937
536.000000	38.440234
535.000000	38.320892
534.000000	38.209436
533.000000	38.096826
532.000000	37.971746
531.000000	37.831584
530.000000	37.721287
529.000000	37.570642
528.000000	37.447916
527.000000	37.308676
526.000000	37.197505
525.000000	37.078628
524.000000	36.925659
523.000000	36.823483
522.000000	36.647166
521.000000	36.549417
520.000000	36.430988
519.000000	36.284481
518.000000	36.140665
517.000000	36.018747
516.000000	35.865442
515.000000	35.762202
514.000000	35.634846
513.000000	35.507648
512.000000	35.362409
511.000000	35.206598
510.000000	35.072439
509.000000	34.951702
508.000000	34.804349
507.000000	34.667637
506.000000	34.520387
505.000000	34.396080
504.000000	34.272790
503.000000	34.124077
502.000000	33.980645
501.000000	33.860981
500.000000	33.743138
499.000000	33.627704
498.000000	33.470589
497.000000	33.366383
496.000000	33.234236
495.000000	33.056067
494.000000	32.936776
493.000000	32.795443
492.000000	32.646914
491.000000	32.547807
490.000000	32.411538
489.000000	32.255799
488.000000	32.126117
487.000000	32.019585
486.000000	31.879015
485.000000	31.771073
484.000000	31.671848
483.000000	31.532637
482.000000	31.408640
481.000000	31.272344
480.000000	31.141262
479.000000	30.992598
478.000000	30.851094
477.000000	30.712306
476.000000	30.557217
475.000000	30.420910
474.000000	30.296568
473.000000	30.173614
472.000000	30.035246
471.000000	29.896038
470.000000	29.752668
469.000000	29.583004
468.000000	29.468764
467.000000	29.363730
466.000000	29.209138
465.000000	29.061462
464.000000	28.916770
463.000000	28.778472
462.000000	28.652871
461.000000	28.513188
460.000000	28.353480
459.000000	28.209983
458.000000	28.050485
457.000000	27.904503
456.000000	27.808930
455.000000	27.673896
454.000000	27.493325
453.000000	27.346341
452.000000	27.211053
451.000000	27.067378
450.000000	26.901949
449.000000	26.759330
448.000000	26.600318
447.000000	26.439961
446.000000	26.301526
445.000000	26.122570
444.000000	25.981292
443.000000	25.833111
442.000000	25.674904
441.000000	25.527958
440.000000	25.366831
439.000000	25.209678
438.000000	25.083969
437.000000	24.919325
436.000000	24.738530
435.000000	24.561561
434.000000	24.405049
433.000000	24.232345
432.000000	24.094930
431.000000	23.960737
430.000000	23.790490
429.000000	23.597620
428.000000	23.452289
427.000000	23.287031
426.000000	23.150750
425.000000	22.994871
424.000000	22.827411
423.000000	22.688497
422.000000	22.536547
421.000000	22.384810
420.000000	22.217757
419.000000	22.041258
418.000000	21.898989
417.000000	21.746668
416.000000	21.600002
415.000000	21.433338
414.000000	21.289408
413.000000	21.167714
412.000000	20.977170
411.000000	20.830066
410.000000	20.667756
409.000000	20.510271
408.000000	20.379256
407.000000	20.190506
406.000000	20.036218
405.000000	19.897776
404.000000	19.742934
403.000000	19.594116
402.000000	19.449643
401.000000	19.291403
400.000000	19.143201
399.000000	18.986235
398.000000	18.833815
397.000000	18.669917
396.000000	18.545898
395.000000	18.373972
394.000000	18.221246
393.000000	18.065807
392.000000	17.880621
391.000000	17.770353
390.000000	17.648135
389.000000	17.461500
388.000000	17.289995
387.000000	17.155498
386.000000	17.019424
385.000000	16.888289
384.000000	16.737089
383.000000	16.572929
382.000000	16.410424
381.000000	16.260923
380.000000	16.111213
379.000000	15.941825
378.000000	15.783013
377.000000	15.743840
376.000000	15.542665
375.000000	15.408697
374.000000	15.287528
373.000000	15.102463
372.000000	15.013906
371.000000	14.826727
370.000000	14.731891
369.000000	14.617284
368.000000	14.492220
367.000000	14.301179
366.000000	14.170304
365.000000	14.068076
364.000000	13.950368
363.000000	13.758832
362.000000	13.654116
361.000000	13.553815
360.000000	13.431242
359.000000	13.344913
358.000000	13.209470
357.000000	13.085204
356.000000	12.958435
355.000000	12.900726
354.000000	12.666234
353.000000	12.575151
352.000000	12.514923
351.000000	12.372325
350.000000	12.277490
349.000000	12.177015
348.000000	12.073818
347.000000	11.923214
346.000000	11.892033
345.000000	11.824854
344.000000	11.588745
343.000000	11.498954
342.000000	11.416917
341.000000	11.336022
340.000000	11.214664
339.000000	11.147908
338.000000	11.095876
337.000000	10.952788
336.000000	10.756398
335.000000	10.767051
334.000000	10.612838
333.000000	10.545376
332.000000	10.469910
331.000000	10.310884
330.000000	10.188299
329.000000	10.141426
328.000000	10.095734
327.000000	9.965859
326.000000	9.895496
325.000000	9.850920
324.000000	9.671196
323.000000	9.666980
322.000000	9.659072
321.000000	9.473338
320.000000	9.440973
319.000000	9.380979
318.000000	9.373047
317.000000	9.342836
316.000000	9.293316
315.000000	9.195552
314.000000	9.220412
313.000000	9.132297
312.000000	9.053203
311.000000	9.002669
310.000000	8.980509
309.000000	8.895578
308.000000	8.902007
307.000000	8.831545
306.000000	8.819072
305.000000	8.767723
304.000000	8.676319
303.000000	8.686549
302.000000	8.680245
301.000000	8.654962
300.000000	8.595497
299.000000	8.552871
298.000000	8.523328
297.000000	8.431911
296.000000	8.415742
295.000000	8.398796
294.000000	8.389105
293.000000	8.355741
292.000000	8.283381
291.000000	8.273670
290.000000	8.177015
289.000000	8.159153
288.000000	8.183991
287.000000	8.144740
286.000000	8.170583
285.000000	8.135224
284.000000	8.128539
283.000000	8.117323
282.000000	8.154900
281.000000	8.171240
280.000000	8.147910
279.000000	8.157685
278.000000	8.178945
277.000000	8.143957
276.000000	8.185725
275.000000	8.246490
274.000000	8.213432
273.000000	8.261872
272.000000	8.312456
271.000000	8.369652
270.000000	8.355212
269.000000	8.401045
268.000000	8.436634
267.000000	8.468291
266.000000	8.561659
265.000000	8.578583
264.000000	8.634061
263.000000	8.722660
262.000000	8.747139
261.000000	8.791595
260.000000	8.831631
259.000000	8.915269
258.000000	8.972814
257.000000	9.057907
256.000000	9.134590
255.000000	9.175580
254.000000	9.189777
253.000000	9.257881
252.000000	9.363912
251.000000	9.418117
250.000000	9.493612
249.000000	9.578299
248.000000	9.620805
247.000000	9.695461
246.000000	9.746427
245.000000	9.814247
244.000000	9.853904
243.000000	9.830568
242.000000	9.860664
241.000000	9.908377
240.000000	9.924746
239.000000	9.844636
238.000000	9.814736
237.000000	9.809175
236.000000	9.752736
235.000000	9.771709
234.000000	9.741339
233.000000	9.689389
232.000000	9.652669
231.000000	9.572501
230.000000	9.525246
229.000000	9.507415
228.000000	9.480510
227.000000	9.450139
226.000000	9.421888
225.000000	9.363171
224.000000	9.363175
223.000000	9.404545
222.000000	9.374533
221.000000	9.417599
220.000000	9.466357
219.000000	9.483541
218.000000	9.554475
217.000000	9.609329
216.000000	9.677448
215.000000	9.754512
214.000000	9.914765
213.000000	10.027327
212.000000	10.134771
211.000000	10.222677
210.000000	10.281714
209.000000	10.493229
208.000000	10.652020
207.000000	10.923900
206.000000	11.149073
205.000000	11.268985
204.000000	11.578646
203.000000	11.752477
202.000000	12.121294
201.000000	12.681674
200.000000	12.838293
