PE UV       SUBTECH     SPECTRUM    ASCII       PEDS        4.00        
   -1
RDms148351.Sample.asc
18/03/13
16:41:01.00
18/03/13
16:41:01.00
Administrator

200.000000
1
Lambda 750
750N8071901
PerkinElmer UV WinLab 6.0.4.0738 / 1.61.00 Lambda 900

0
0
3350/servo 860.8/2
0
0
UV/VIS
1
1
1
CommonBeamDepol,150mm sphere / downward view
0
0
0
0
Program
Program
3350/servo 860.8/2
3350/0.2 860.8/0.2
3350/0.2 860.8/0.2
0
1
 
 
 
0
 
860.8
319.2
860.8
Front
100
on
 
 
0
0
0
 
0
 
 
 
0
 
 
0
0
0
0
0
 
 
 
 
0
0


0
0
#HDR
-1
-1
#GR
nm
%R
1.0
0.0
2350.000000
-1.000000
2151
8
65.994494
9.764572
#DATA
2350.000000	36.800844
2349.000000	36.899976
2348.000000	36.829164
2347.000000	37.430819
2346.000000	37.431611
2345.000000	37.103996
2344.000000	36.881565
2343.000000	36.962585
2342.000000	37.322210
2341.000000	37.299439
2340.000000	37.484710
2339.000000	37.875231
2338.000000	37.676323
2337.000000	37.606721
2336.000000	37.562455
2335.000000	37.852058
2334.000000	37.785652
2333.000000	37.994748
2332.000000	38.202830
2331.000000	38.183523
2330.000000	38.270566
2329.000000	38.115545
2328.000000	37.838039
2327.000000	37.685985
2326.000000	37.692267
2325.000000	37.445382
2324.000000	37.494800
2323.000000	37.706523
2322.000000	37.509428
2321.000000	37.655531
2320.000000	37.530447
2319.000000	37.293012
2318.000000	37.416217
2317.000000	37.135573
2316.000000	37.016572
2315.000000	37.126784
2314.000000	37.213186
2313.000000	36.793218
2312.000000	36.901470
2311.000000	36.726156
2310.000000	36.726704
2309.000000	36.657120
2308.000000	36.740611
2307.000000	36.706995
2306.000000	36.744424
2305.000000	36.602125
2304.000000	36.456115
2303.000000	36.510197
2302.000000	36.521680
2301.000000	36.456806
2300.000000	36.363737
2299.000000	35.952387
2298.000000	36.255698
2297.000000	36.301783
2296.000000	36.388644
2295.000000	36.175964
2294.000000	36.158611
2293.000000	35.963940
2292.000000	36.072526
2291.000000	36.021515
2290.000000	35.930732
2289.000000	35.943535
2288.000000	36.206348
2287.000000	36.145308
2286.000000	35.943967
2285.000000	35.995069
2284.000000	35.915885
2283.000000	35.778887
2282.000000	35.930323
2281.000000	36.096542
2280.000000	35.981519
2279.000000	36.042336
2278.000000	36.236516
2277.000000	36.087717
2276.000000	36.003805
2275.000000	36.108482
2274.000000	36.159174
2273.000000	36.279429
2272.000000	36.290863
2271.000000	36.403084
2270.000000	36.520150
2269.000000	36.458812
2268.000000	36.471732
2267.000000	36.674927
2266.000000	36.814228
2265.000000	36.932252
2264.000000	37.158456
2263.000000	37.220514
2262.000000	37.214685
2261.000000	37.296799
2260.000000	37.461573
2259.000000	37.668438
2258.000000	37.913210
2257.000000	38.062402
2256.000000	38.000945
2255.000000	38.195607
2254.000000	38.475673
2253.000000	38.664532
2252.000000	38.789123
2251.000000	38.927417
2250.000000	39.120218
2249.000000	39.380621
2248.000000	39.396064
2247.000000	39.519280
2246.000000	39.860886
2245.000000	40.122250
2244.000000	40.407518
2243.000000	40.524745
2242.000000	40.638393
2241.000000	40.676174
2240.000000	40.644547
2239.000000	40.877531
2238.000000	41.210695
2237.000000	41.256185
2236.000000	41.313384
2235.000000	41.438383
2234.000000	41.541541
2233.000000	41.563193
2232.000000	41.516463
2231.000000	41.556787
2230.000000	41.636346
2229.000000	41.843359
2228.000000	41.910476
2227.000000	41.859413
2226.000000	41.719772
2225.000000	41.690689
2224.000000	41.773508
2223.000000	41.714628
2222.000000	41.776597
2221.000000	41.807994
2220.000000	41.771548
2219.000000	41.695616
2218.000000	41.671598
2217.000000	41.745697
2216.000000	41.707101
2215.000000	41.696449
2214.000000	41.687960
2213.000000	41.711847
2212.000000	41.528197
2211.000000	41.333956
2210.000000	41.369091
2209.000000	41.327707
2208.000000	41.289715
2207.000000	41.350627
2206.000000	41.269719
2205.000000	41.151159
2204.000000	41.054758
2203.000000	40.951638
2202.000000	40.865585
2201.000000	40.784643
2200.000000	40.865269
2199.000000	40.878355
2198.000000	40.828289
2197.000000	40.666833
2196.000000	40.499495
2195.000000	40.581402
2194.000000	40.449894
2193.000000	40.340128
2192.000000	40.468303
2191.000000	40.413128
2190.000000	40.193491
2189.000000	40.289369
2188.000000	40.163318
2187.000000	39.986177
2186.000000	39.964316
2185.000000	39.989591
2184.000000	39.991024
2183.000000	40.099456
2182.000000	40.054191
2181.000000	39.982170
2180.000000	39.913224
2179.000000	39.906602
2178.000000	40.083836
2177.000000	40.093501
2176.000000	39.927660
2175.000000	39.986892
2174.000000	39.968732
2173.000000	40.015161
2172.000000	40.150012
2171.000000	40.272139
2170.000000	40.308167
2169.000000	40.288362
2168.000000	40.490367
2167.000000	40.335531
2166.000000	40.361579
2165.000000	40.435532
2164.000000	40.676046
2163.000000	40.597131
2162.000000	40.805422
2161.000000	41.087643
2160.000000	40.950823
2159.000000	41.074688
2158.000000	41.191780
2157.000000	41.349528
2156.000000	41.295112
2155.000000	41.636745
2154.000000	41.850200
2153.000000	41.864147
2152.000000	42.072525
2151.000000	42.206611
2150.000000	42.211922
2149.000000	42.302955
2148.000000	42.285822
2147.000000	42.596803
2146.000000	42.719538
2145.000000	42.811668
2144.000000	42.929748
2143.000000	43.043030
2142.000000	43.316594
2141.000000	43.305019
2140.000000	43.394902
2139.000000	43.538508
2138.000000	43.640791
2137.000000	43.713742
2136.000000	43.751495
2135.000000	43.877002
2134.000000	43.942858
2133.000000	43.762893
2132.000000	44.091375
2131.000000	44.253263
2130.000000	44.292749
2129.000000	44.142298
2128.000000	44.396514
2127.000000	44.352829
2126.000000	44.454853
2125.000000	44.427374
2124.000000	44.475857
2123.000000	44.370334
2122.000000	44.553644
2121.000000	44.483468
2120.000000	44.522187
2119.000000	44.563162
2118.000000	44.716629
2117.000000	44.622495
2116.000000	44.618495
2115.000000	44.720659
2114.000000	44.772574
2113.000000	44.768590
2112.000000	44.848038
2111.000000	44.775307
2110.000000	44.549115
2109.000000	44.785033
2108.000000	44.736374
2107.000000	44.827628
2106.000000	44.817149
2105.000000	44.797894
2104.000000	44.742451
2103.000000	44.704914
2102.000000	44.754645
2101.000000	44.869475
2100.000000	44.974839
2099.000000	44.883132
2098.000000	44.841498
2097.000000	44.934909
2096.000000	44.830382
2095.000000	44.813463
2094.000000	44.762752
2093.000000	44.599357
2092.000000	44.791891
2091.000000	44.865634
2090.000000	44.710862
2089.000000	44.713613
2088.000000	44.695775
2087.000000	44.712452
2086.000000	44.843062
2085.000000	44.705242
2084.000000	44.602979
2083.000000	44.493225
2082.000000	44.409798
2081.000000	44.344234
2080.000000	44.416161
2079.000000	44.408923
2078.000000	44.198781
2077.000000	44.196491
2076.000000	44.076304
2075.000000	43.998037
2074.000000	43.940512
2073.000000	43.877439
2072.000000	43.732164
2071.000000	43.635191
2070.000000	43.557939
2069.000000	43.516946
2068.000000	43.256039
2067.000000	43.080239
2066.000000	43.018809
2065.000000	42.876979
2064.000000	42.784303
2063.000000	42.674839
2062.000000	42.540364
2061.000000	42.318770
2060.000000	42.206170
2059.000000	42.125563
2058.000000	42.080804
2057.000000	41.933409
2056.000000	41.780348
2055.000000	41.688988
2054.000000	41.559357
2053.000000	41.397689
2052.000000	41.249803
2051.000000	41.139113
2050.000000	41.035509
2049.000000	41.081204
2048.000000	40.966287
2047.000000	40.855264
2046.000000	40.809415
2045.000000	40.681913
2044.000000	40.617585
2043.000000	40.617519
2042.000000	40.622961
2041.000000	40.666421
2040.000000	40.680360
2039.000000	40.693829
2038.000000	40.723079
2037.000000	40.765601
2036.000000	40.816806
2035.000000	40.874433
2034.000000	40.931565
2033.000000	40.984965
2032.000000	41.048004
2031.000000	41.065900
2030.000000	41.123486
2029.000000	41.245651
2028.000000	41.333559
2027.000000	41.408773
2026.000000	41.500447
2025.000000	41.571698
2024.000000	41.613474
2023.000000	41.646662
2022.000000	41.630287
2021.000000	41.649204
2020.000000	41.750862
2019.000000	41.763275
2018.000000	41.771670
2017.000000	41.766263
2016.000000	41.702499
2015.000000	41.689499
2014.000000	41.684054
2013.000000	41.649217
2012.000000	41.614413
2011.000000	41.565122
2010.000000	41.501771
2009.000000	41.399998
2008.000000	41.317482
2007.000000	41.258002
2006.000000	41.165788
2005.000000	41.071371
2004.000000	41.002781
2003.000000	40.947260
2002.000000	40.829601
2001.000000	40.704922
2000.000000	40.641749
1999.000000	40.558049
1998.000000	40.474217
1997.000000	40.353329
1996.000000	40.300070
1995.000000	40.220750
1994.000000	40.062890
1993.000000	39.962317
1992.000000	39.849317
1991.000000	39.745742
1990.000000	39.665485
1989.000000	39.535114
1988.000000	39.436956
1987.000000	39.324777
1986.000000	39.226512
1985.000000	39.155335
1984.000000	39.081718
1983.000000	38.960039
1982.000000	38.861832
1981.000000	38.770395
1980.000000	38.682081
1979.000000	38.549236
1978.000000	38.443592
1977.000000	38.355997
1976.000000	38.194451
1975.000000	38.138021
1974.000000	38.019355
1973.000000	37.897774
1972.000000	37.836013
1971.000000	37.737218
1970.000000	37.698029
1969.000000	37.610559
1968.000000	37.502554
1967.000000	37.398635
1966.000000	37.336575
1965.000000	37.236456
1964.000000	37.103692
1963.000000	37.043823
1962.000000	36.933291
1961.000000	36.803596
1960.000000	36.716538
1959.000000	36.691062
1958.000000	36.651939
1957.000000	36.618169
1956.000000	36.542724
1955.000000	36.482164
1954.000000	36.408810
1953.000000	36.285449
1952.000000	36.277123
1951.000000	36.322833
1950.000000	36.185912
1949.000000	36.191984
1948.000000	36.124832
1947.000000	36.127349
1946.000000	36.063507
1945.000000	36.084483
1944.000000	36.046806
1943.000000	36.095677
1942.000000	36.096886
1941.000000	36.090000
1940.000000	36.169394
1939.000000	36.220130
1938.000000	36.308757
1937.000000	36.334141
1936.000000	36.425536
1935.000000	36.511579
1934.000000	36.503816
1933.000000	36.649556
1932.000000	36.775868
1931.000000	36.890688
1930.000000	37.161281
1929.000000	37.196923
1928.000000	37.431336
1927.000000	37.527647
1926.000000	37.748893
1925.000000	37.894399
1924.000000	38.126133
1923.000000	38.286119
1922.000000	38.538061
1921.000000	38.842344
1920.000000	39.029333
1919.000000	39.192237
1918.000000	39.515017
1917.000000	39.834783
1916.000000	40.081673
1915.000000	40.359758
1914.000000	40.736175
1913.000000	41.089081
1912.000000	41.384092
1911.000000	41.738102
1910.000000	42.024483
1909.000000	42.468120
1908.000000	42.774154
1907.000000	43.313271
1906.000000	43.634092
1905.000000	44.054628
1904.000000	44.549551
1903.000000	44.922466
1902.000000	45.447055
1901.000000	45.803705
1900.000000	46.246933
1899.000000	46.635204
1898.000000	47.210287
1897.000000	47.596769
1896.000000	48.012799
1895.000000	48.465247
1894.000000	48.891472
1893.000000	49.330071
1892.000000	49.753675
1891.000000	50.145069
1890.000000	50.569922
1889.000000	50.947813
1888.000000	51.377704
1887.000000	51.759580
1886.000000	52.064305
1885.000000	52.453496
1884.000000	52.817648
1883.000000	53.178313
1882.000000	53.398722
1881.000000	53.754625
1880.000000	54.042090
1879.000000	54.335311
1878.000000	54.567311
1877.000000	54.899924
1876.000000	55.145847
1875.000000	55.380506
1874.000000	55.515515
1873.000000	55.740865
1872.000000	55.951025
1871.000000	56.196624
1870.000000	56.322436
1869.000000	56.455190
1868.000000	56.639608
1867.000000	56.687533
1866.000000	56.777754
1865.000000	56.913802
1864.000000	56.974148
1863.000000	56.997471
1862.000000	57.092641
1861.000000	57.157497
1860.000000	57.201717
1859.000000	57.251644
1858.000000	57.270749
1857.000000	57.319680
1856.000000	57.395458
1855.000000	57.419149
1854.000000	57.457842
1853.000000	57.496049
1852.000000	57.479201
1851.000000	57.522952
1850.000000	57.523381
1849.000000	57.503171
1848.000000	57.535016
1847.000000	57.547894
1846.000000	57.555068
1845.000000	57.559510
1844.000000	57.562049
1843.000000	57.515287
1842.000000	57.487498
1841.000000	57.463252
1840.000000	57.444177
1839.000000	57.442319
1838.000000	57.424984
1837.000000	57.343438
1836.000000	57.318525
1835.000000	57.312573
1834.000000	57.266455
1833.000000	57.222071
1832.000000	57.200828
1831.000000	57.154397
1830.000000	57.151209
1829.000000	57.154097
1828.000000	57.099251
1827.000000	57.070978
1826.000000	57.025746
1825.000000	56.985342
1824.000000	56.973519
1823.000000	56.940859
1822.000000	56.893627
1821.000000	56.871685
1820.000000	56.853258
1819.000000	56.807973
1818.000000	56.784895
1817.000000	56.771103
1816.000000	56.742305
1815.000000	56.724949
1814.000000	56.696813
1813.000000	56.653891
1812.000000	56.626150
1811.000000	56.611389
1810.000000	56.587012
1809.000000	56.582100
1808.000000	56.553135
1807.000000	56.504227
1806.000000	56.497587
1805.000000	56.475107
1804.000000	56.446369
1803.000000	56.436497
1802.000000	56.404117
1801.000000	56.369100
1800.000000	56.354947
1799.000000	56.325575
1798.000000	56.305064
1797.000000	56.305634
1796.000000	56.299016
1795.000000	56.289573
1794.000000	56.264204
1793.000000	56.233880
1792.000000	56.212856
1791.000000	56.196537
1790.000000	56.170816
1789.000000	56.147990
1788.000000	56.154381
1787.000000	56.147550
1786.000000	56.136182
1785.000000	56.115386
1784.000000	56.088472
1783.000000	56.065205
1782.000000	56.029006
1781.000000	56.014593
1780.000000	55.981636
1779.000000	55.949244
1778.000000	55.901834
1777.000000	55.863042
1776.000000	55.824477
1775.000000	55.773333
1774.000000	55.727471
1773.000000	55.683139
1772.000000	55.633137
1771.000000	55.599170
1770.000000	55.571894
1769.000000	55.529935
1768.000000	55.491732
1767.000000	55.435284
1766.000000	55.397049
1765.000000	55.326599
1764.000000	55.300072
1763.000000	55.249883
1762.000000	55.213527
1761.000000	55.197304
1760.000000	55.153072
1759.000000	55.119855
1758.000000	55.093122
1757.000000	55.054144
1756.000000	55.019978
1755.000000	55.011287
1754.000000	54.994303
1753.000000	54.941099
1752.000000	54.933840
1751.000000	54.855823
1750.000000	54.832773
1749.000000	54.826905
1748.000000	54.779662
1747.000000	54.675023
1746.000000	54.662285
1745.000000	54.599787
1744.000000	54.554990
1743.000000	54.509000
1742.000000	54.465203
1741.000000	54.456022
1740.000000	54.413476
1739.000000	54.375442
1738.000000	54.346094
1737.000000	54.270094
1736.000000	54.253706
1735.000000	54.218918
1734.000000	54.232405
1733.000000	54.181756
1732.000000	54.157469
1731.000000	54.203681
1730.000000	54.180885
1729.000000	54.219612
1728.000000	54.229083
1727.000000	54.277563
1726.000000	54.311808
1725.000000	54.387656
1724.000000	54.421055
1723.000000	54.507623
1722.000000	54.601211
1721.000000	54.661593
1720.000000	54.786805
1719.000000	54.884196
1718.000000	54.913872
1717.000000	55.027682
1716.000000	55.124590
1715.000000	55.189243
1714.000000	55.266427
1713.000000	55.316723
1712.000000	55.426670
1711.000000	55.544992
1710.000000	55.594548
1709.000000	55.643782
1708.000000	55.707846
1707.000000	55.736160
1706.000000	55.791592
1705.000000	55.816048
1704.000000	55.875830
1703.000000	55.867913
1702.000000	55.901927
1701.000000	55.938831
1700.000000	55.989073
1699.000000	56.006715
1698.000000	56.045256
1697.000000	56.084401
1696.000000	56.123451
1695.000000	56.126601
1694.000000	56.167369
1693.000000	56.227173
1692.000000	56.261666
1691.000000	56.308825
1690.000000	56.382461
1689.000000	56.451490
1688.000000	56.557207
1687.000000	56.611479
1686.000000	56.687406
1685.000000	56.795811
1684.000000	56.942990
1683.000000	57.027020
1682.000000	57.153816
1681.000000	57.290838
1680.000000	57.395115
1679.000000	57.506072
1678.000000	57.648870
1677.000000	57.784825
1676.000000	57.905064
1675.000000	58.031028
1674.000000	58.175939
1673.000000	58.282110
1672.000000	58.390813
1671.000000	58.503559
1670.000000	58.632382
1669.000000	58.755727
1668.000000	58.851441
1667.000000	58.954239
1666.000000	59.001906
1665.000000	59.065523
1664.000000	59.160708
1663.000000	59.209810
1662.000000	59.299471
1661.000000	59.335948
1660.000000	59.369171
1659.000000	59.421128
1658.000000	59.469376
1657.000000	59.514887
1656.000000	59.539875
1655.000000	59.554474
1654.000000	59.584982
1653.000000	59.610831
1652.000000	59.626646
1651.000000	59.609699
1650.000000	59.614879
1649.000000	59.630883
1648.000000	59.617598
1647.000000	59.616886
1646.000000	59.604855
1645.000000	59.604189
1644.000000	59.562723
1643.000000	59.557352
1642.000000	59.531287
1641.000000	59.498807
1640.000000	59.501246
1639.000000	59.481426
1638.000000	59.487226
1637.000000	59.451191
1636.000000	59.408307
1635.000000	59.398979
1634.000000	59.375680
1633.000000	59.339758
1632.000000	59.311785
1631.000000	59.307462
1630.000000	59.256164
1629.000000	59.224536
1628.000000	59.179127
1627.000000	59.151305
1626.000000	59.111124
1625.000000	59.079695
1624.000000	59.043193
1623.000000	59.018242
1622.000000	58.984382
1621.000000	58.918205
1620.000000	58.898789
1619.000000	58.868362
1618.000000	58.803017
1617.000000	58.761306
1616.000000	58.715216
1615.000000	58.670462
1614.000000	58.635970
1613.000000	58.602323
1612.000000	58.562564
1611.000000	58.509108
1610.000000	58.464696
1609.000000	58.418209
1608.000000	58.369631
1607.000000	58.320850
1606.000000	58.278045
1605.000000	58.237136
1604.000000	58.171499
1603.000000	58.104286
1602.000000	58.081221
1601.000000	58.034965
1600.000000	57.982860
1599.000000	57.942356
1598.000000	57.905399
1597.000000	57.847578
1596.000000	57.803684
1595.000000	57.774058
1594.000000	57.727293
1593.000000	57.690020
1592.000000	57.646124
1591.000000	57.614340
1590.000000	57.582599
1589.000000	57.520537
1588.000000	57.470524
1587.000000	57.435401
1586.000000	57.403768
1585.000000	57.372473
1584.000000	57.336719
1583.000000	57.290833
1582.000000	57.252634
1581.000000	57.237789
1580.000000	57.210316
1579.000000	57.165493
1578.000000	57.127139
1577.000000	57.085228
1576.000000	57.042767
1575.000000	57.022234
1574.000000	56.974424
1573.000000	56.932265
1572.000000	56.915618
1571.000000	56.878417
1570.000000	56.847687
1569.000000	56.799531
1568.000000	56.757336
1567.000000	56.731091
1566.000000	56.711842
1565.000000	56.685418
1564.000000	56.660543
1563.000000	56.640510
1562.000000	56.599354
1561.000000	56.564600
1560.000000	56.553696
1559.000000	56.546574
1558.000000	56.523330
1557.000000	56.498713
1556.000000	56.486701
1555.000000	56.461606
1554.000000	56.442396
1553.000000	56.427043
1552.000000	56.388199
1551.000000	56.359564
1550.000000	56.333285
1549.000000	56.276573
1548.000000	56.269601
1547.000000	56.234736
1546.000000	56.182711
1545.000000	56.143112
1544.000000	56.079117
1543.000000	56.010983
1542.000000	55.957313
1541.000000	55.906091
1540.000000	55.849128
1539.000000	55.763802
1538.000000	55.685014
1537.000000	55.619522
1536.000000	55.565651
1535.000000	55.498166
1534.000000	55.429503
1533.000000	55.367776
1532.000000	55.291522
1531.000000	55.239171
1530.000000	55.180505
1529.000000	55.139382
1528.000000	55.052017
1527.000000	54.986322
1526.000000	54.966303
1525.000000	54.914842
1524.000000	54.862391
1523.000000	54.822570
1522.000000	54.761306
1521.000000	54.729496
1520.000000	54.693578
1519.000000	54.663827
1518.000000	54.670587
1517.000000	54.610308
1516.000000	54.576836
1515.000000	54.557510
1514.000000	54.503106
1513.000000	54.522978
1512.000000	54.496095
1511.000000	54.463039
1510.000000	54.457900
1509.000000	54.428933
1508.000000	54.418303
1507.000000	54.404498
1506.000000	54.388891
1505.000000	54.402334
1504.000000	54.368300
1503.000000	54.353166
1502.000000	54.337542
1501.000000	54.326003
1500.000000	54.326620
1499.000000	54.311911
1498.000000	54.337918
1497.000000	54.316521
1496.000000	54.322481
1495.000000	54.323076
1494.000000	54.308187
1493.000000	54.336051
1492.000000	54.335759
1491.000000	54.351665
1490.000000	54.378988
1489.000000	54.402022
1488.000000	54.420833
1487.000000	54.431080
1486.000000	54.421197
1485.000000	54.448323
1484.000000	54.467562
1483.000000	54.503880
1482.000000	54.505902
1481.000000	54.532568
1480.000000	54.573184
1479.000000	54.561314
1478.000000	54.603972
1477.000000	54.623315
1476.000000	54.637928
1475.000000	54.670414
1474.000000	54.690946
1473.000000	54.710146
1472.000000	54.744751
1471.000000	54.759151
1470.000000	54.764468
1469.000000	54.804832
1468.000000	54.828098
1467.000000	54.857518
1466.000000	54.884972
1465.000000	54.931184
1464.000000	54.932714
1463.000000	54.954224
1462.000000	54.993727
1461.000000	55.022988
1460.000000	55.075145
1459.000000	55.092490
1458.000000	55.108237
1457.000000	55.154401
1456.000000	55.201066
1455.000000	55.246684
1454.000000	55.286195
1453.000000	55.356209
1452.000000	55.386915
1451.000000	55.436718
1450.000000	55.493264
1449.000000	55.525728
1448.000000	55.590787
1447.000000	55.670605
1446.000000	55.706732
1445.000000	55.768761
1444.000000	55.849687
1443.000000	55.912941
1442.000000	55.961886
1441.000000	56.031617
1440.000000	56.104548
1439.000000	56.175422
1438.000000	56.247779
1437.000000	56.341174
1436.000000	56.426705
1435.000000	56.512469
1434.000000	56.598531
1433.000000	56.703474
1432.000000	56.778535
1431.000000	56.867323
1430.000000	56.978071
1429.000000	57.092020
1428.000000	57.187166
1427.000000	57.304491
1426.000000	57.425164
1425.000000	57.534453
1424.000000	57.657153
1423.000000	57.780486
1422.000000	57.910036
1421.000000	58.041655
1420.000000	58.190567
1419.000000	58.319432
1418.000000	58.458547
1417.000000	58.597726
1416.000000	58.724646
1415.000000	58.879348
1414.000000	59.033297
1413.000000	59.188540
1412.000000	59.337092
1411.000000	59.479157
1410.000000	59.624979
1409.000000	59.777329
1408.000000	59.940839
1407.000000	60.083544
1406.000000	60.232578
1405.000000	60.392404
1404.000000	60.530716
1403.000000	60.669689
1402.000000	60.800413
1401.000000	60.941001
1400.000000	61.078220
1399.000000	61.205656
1398.000000	61.349481
1397.000000	61.476032
1396.000000	61.589989
1395.000000	61.710892
1394.000000	61.827717
1393.000000	61.953968
1392.000000	62.066188
1391.000000	62.163206
1390.000000	62.273974
1389.000000	62.371909
1388.000000	62.468243
1387.000000	62.558950
1386.000000	62.651844
1385.000000	62.754256
1384.000000	62.820469
1383.000000	62.877328
1382.000000	62.950096
1381.000000	63.021702
1380.000000	63.087182
1379.000000	63.146323
1378.000000	63.198432
1377.000000	63.257133
1376.000000	63.315881
1375.000000	63.347604
1374.000000	63.389605
1373.000000	63.449319
1372.000000	63.498040
1371.000000	63.535671
1370.000000	63.577605
1369.000000	63.619039
1368.000000	63.670995
1367.000000	63.703013
1366.000000	63.729881
1365.000000	63.764295
1364.000000	63.800388
1363.000000	63.840439
1362.000000	63.876743
1361.000000	63.922448
1360.000000	63.968460
1359.000000	63.996505
1358.000000	64.031776
1357.000000	64.073134
1356.000000	64.102347
1355.000000	64.157788
1354.000000	64.173861
1353.000000	64.212144
1352.000000	64.273182
1351.000000	64.298707
1350.000000	64.315175
1349.000000	64.378449
1348.000000	64.428120
1347.000000	64.450406
1346.000000	64.477426
1345.000000	64.521396
1344.000000	64.574716
1343.000000	64.591404
1342.000000	64.624445
1341.000000	64.688138
1340.000000	64.718354
1339.000000	64.739487
1338.000000	64.769464
1337.000000	64.808282
1336.000000	64.837339
1335.000000	64.874205
1334.000000	64.905641
1333.000000	64.913117
1332.000000	64.942705
1331.000000	64.980953
1330.000000	64.998801
1329.000000	65.005472
1328.000000	65.006152
1327.000000	65.032890
1326.000000	65.046160
1325.000000	65.082158
1324.000000	65.094487
1323.000000	65.141537
1322.000000	65.159767
1321.000000	65.155067
1320.000000	65.171819
1319.000000	65.193978
1318.000000	65.199520
1317.000000	65.186949
1316.000000	65.184216
1315.000000	65.171963
1314.000000	65.200898
1313.000000	65.239958
1312.000000	65.249090
1311.000000	65.221471
1310.000000	65.219092
1309.000000	65.241114
1308.000000	65.225677
1307.000000	65.268301
1306.000000	65.259212
1305.000000	65.252609
1304.000000	65.267900
1303.000000	65.289326
1302.000000	65.280962
1301.000000	65.287614
1300.000000	65.298915
1299.000000	65.295801
1298.000000	65.290558
1297.000000	65.295592
1296.000000	65.305162
1295.000000	65.296527
1294.000000	65.296214
1293.000000	65.300150
1292.000000	65.316729
1291.000000	65.291319
1290.000000	65.283135
1289.000000	65.300583
1288.000000	65.309274
1287.000000	65.300172
1286.000000	65.265962
1285.000000	65.266742
1284.000000	65.272410
1283.000000	65.286973
1282.000000	65.271989
1281.000000	65.306162
1280.000000	65.283436
1279.000000	65.272806
1278.000000	65.266830
1277.000000	65.262752
1276.000000	65.250061
1275.000000	65.271139
1274.000000	65.236638
1273.000000	65.251562
1272.000000	65.260935
1271.000000	65.257981
1270.000000	65.243577
1269.000000	65.239238
1268.000000	65.236596
1267.000000	65.244834
1266.000000	65.239641
1265.000000	65.235078
1264.000000	65.241263
1263.000000	65.225835
1262.000000	65.281259
1261.000000	65.266343
1260.000000	65.274180
1259.000000	65.262865
1258.000000	65.243630
1257.000000	65.246015
1256.000000	65.261413
1255.000000	65.264982
1254.000000	65.254251
1253.000000	65.253645
1252.000000	65.272087
1251.000000	65.267731
1250.000000	65.257014
1249.000000	65.243573
1248.000000	65.221019
1247.000000	65.237078
1246.000000	65.239859
1245.000000	65.227322
1244.000000	65.230719
1243.000000	65.222226
1242.000000	65.198999
1241.000000	65.193958
1240.000000	65.166081
1239.000000	65.157914
1238.000000	65.156372
1237.000000	65.114988
1236.000000	65.101669
1235.000000	65.114356
1234.000000	65.087902
1233.000000	65.039812
1232.000000	65.035217
1231.000000	65.035077
1230.000000	65.013113
1229.000000	64.999513
1228.000000	64.972597
1227.000000	64.950593
1226.000000	64.933859
1225.000000	64.909190
1224.000000	64.908509
1223.000000	64.875483
1222.000000	64.864887
1221.000000	64.836898
1220.000000	64.822191
1219.000000	64.803239
1218.000000	64.767754
1217.000000	64.747692
1216.000000	64.702972
1215.000000	64.695911
1214.000000	64.658025
1213.000000	64.652800
1212.000000	64.635612
1211.000000	64.650919
1210.000000	64.617143
1209.000000	64.578333
1208.000000	64.579332
1207.000000	64.538093
1206.000000	64.507000
1205.000000	64.516705
1204.000000	64.478094
1203.000000	64.458930
1202.000000	64.457590
1201.000000	64.443958
1200.000000	64.414481
1199.000000	64.383601
1198.000000	64.362853
1197.000000	64.366412
1196.000000	64.354488
1195.000000	64.335707
1194.000000	64.327010
1193.000000	64.332492
1192.000000	64.330866
1191.000000	64.314448
1190.000000	64.313048
1189.000000	64.318009
1188.000000	64.316439
1187.000000	64.315899
1186.000000	64.322053
1185.000000	64.329199
1184.000000	64.330945
1183.000000	64.336402
1182.000000	64.347333
1181.000000	64.358339
1180.000000	64.377668
1179.000000	64.403843
1178.000000	64.429501
1177.000000	64.453819
1176.000000	64.467807
1175.000000	64.493907
1174.000000	64.531819
1173.000000	64.559202
1172.000000	64.590152
1171.000000	64.616413
1170.000000	64.653619
1169.000000	64.701627
1168.000000	64.726887
1167.000000	64.766948
1166.000000	64.818005
1165.000000	64.862789
1164.000000	64.907430
1163.000000	64.943706
1162.000000	64.954530
1161.000000	64.988905
1160.000000	65.043788
1159.000000	65.091115
1158.000000	65.129016
1157.000000	65.150218
1156.000000	65.193246
1155.000000	65.239995
1154.000000	65.269928
1153.000000	65.307733
1152.000000	65.348139
1151.000000	65.376859
1150.000000	65.406008
1149.000000	65.441654
1148.000000	65.471835
1147.000000	65.494846
1146.000000	65.521600
1145.000000	65.537117
1144.000000	65.564228
1143.000000	65.605257
1142.000000	65.629700
1141.000000	65.655298
1140.000000	65.673797
1139.000000	65.690184
1138.000000	65.709608
1137.000000	65.734228
1136.000000	65.754008
1135.000000	65.778933
1134.000000	65.809702
1133.000000	65.828227
1132.000000	65.823849
1131.000000	65.831140
1130.000000	65.852698
1129.000000	65.858218
1128.000000	65.877424
1127.000000	65.901869
1126.000000	65.911025
1125.000000	65.918153
1124.000000	65.915755
1123.000000	65.928883
1122.000000	65.945210
1121.000000	65.956679
1120.000000	65.952924
1119.000000	65.951670
1118.000000	65.966444
1117.000000	65.960949
1116.000000	65.955021
1115.000000	65.963856
1114.000000	65.953977
1113.000000	65.969558
1112.000000	65.975193
1111.000000	65.970653
1110.000000	65.977517
1109.000000	65.988720
1108.000000	65.978071
1107.000000	65.990175
1106.000000	65.979433
1105.000000	65.988167
1104.000000	65.980439
1103.000000	65.991403
1102.000000	65.994494
1101.000000	65.994052
1100.000000	65.981688
1099.000000	65.971574
1098.000000	65.988260
1097.000000	65.987465
1096.000000	65.983269
1095.000000	65.982627
1094.000000	65.977723
1093.000000	65.972478
1092.000000	65.967215
1091.000000	65.955261
1090.000000	65.978972
1089.000000	65.967458
1088.000000	65.977817
1087.000000	65.956740
1086.000000	65.967951
1085.000000	65.986950
1084.000000	65.974234
1083.000000	65.978283
1082.000000	65.968789
1081.000000	65.964172
1080.000000	65.967306
1079.000000	65.963870
1078.000000	65.970915
1077.000000	65.961681
1076.000000	65.935183
1075.000000	65.940856
1074.000000	65.922764
1073.000000	65.921897
1072.000000	65.928873
1071.000000	65.920310
1070.000000	65.884517
1069.000000	65.910974
1068.000000	65.925744
1067.000000	65.892886
1066.000000	65.878092
1065.000000	65.885605
1064.000000	65.874924
1063.000000	65.875293
1062.000000	65.883253
1061.000000	65.870358
1060.000000	65.875295
1059.000000	65.856435
1058.000000	65.839322
1057.000000	65.818475
1056.000000	65.835495
1055.000000	65.832329
1054.000000	65.802937
1053.000000	65.821791
1052.000000	65.805238
1051.000000	65.814075
1050.000000	65.796868
1049.000000	65.789266
1048.000000	65.764830
1047.000000	65.768952
1046.000000	65.765694
1045.000000	65.762073
1044.000000	65.751513
1043.000000	65.722878
1042.000000	65.740308
1041.000000	65.752434
1040.000000	65.734232
1039.000000	65.720483
1038.000000	65.714631
1037.000000	65.713935
1036.000000	65.688664
1035.000000	65.697175
1034.000000	65.686184
1033.000000	65.695180
1032.000000	65.681140
1031.000000	65.670005
1030.000000	65.674943
1029.000000	65.652449
1028.000000	65.655929
1027.000000	65.642127
1026.000000	65.650636
1025.000000	65.654362
1024.000000	65.632574
1023.000000	65.633184
1022.000000	65.633853
1021.000000	65.613878
1020.000000	65.609063
1019.000000	65.587662
1018.000000	65.611856
1017.000000	65.602032
1016.000000	65.575198
1015.000000	65.595177
1014.000000	65.590371
1013.000000	65.581387
1012.000000	65.576185
1011.000000	65.577287
1010.000000	65.562931
1009.000000	65.553744
1008.000000	65.548765
1007.000000	65.542142
1006.000000	65.539075
1005.000000	65.552095
1004.000000	65.541534
1003.000000	65.549881
1002.000000	65.549957
1001.000000	65.523621
1000.000000	65.514841
999.000000	65.535772
998.000000	65.518621
997.000000	65.520391
996.000000	65.528147
995.000000	65.516026
994.000000	65.501243
993.000000	65.502920
992.000000	65.494485
991.000000	65.487865
990.000000	65.483059
989.000000	65.486828
988.000000	65.477803
987.000000	65.493650
986.000000	65.511896
985.000000	65.506762
984.000000	65.497702
983.000000	65.490105
982.000000	65.483251
981.000000	65.480109
980.000000	65.480089
979.000000	65.472703
978.000000	65.482120
977.000000	65.486677
976.000000	65.492664
975.000000	65.498659
974.000000	65.490644
973.000000	65.480742
972.000000	65.470705
971.000000	65.452896
970.000000	65.487011
969.000000	65.492763
968.000000	65.485985
967.000000	65.511833
966.000000	65.479569
965.000000	65.464176
964.000000	65.477619
963.000000	65.473248
962.000000	65.473636
961.000000	65.469730
960.000000	65.478213
959.000000	65.489343
958.000000	65.495890
957.000000	65.472194
956.000000	65.458210
955.000000	65.478400
954.000000	65.463593
953.000000	65.461310
952.000000	65.477635
951.000000	65.475092
950.000000	65.486422
949.000000	65.461961
948.000000	65.449639
947.000000	65.456714
946.000000	65.448906
945.000000	65.444471
944.000000	65.456216
943.000000	65.473354
942.000000	65.440444
941.000000	65.441103
940.000000	65.446147
939.000000	65.408062
938.000000	65.390399
937.000000	65.382491
936.000000	65.393708
935.000000	65.396172
934.000000	65.392872
933.000000	65.379054
932.000000	65.353452
931.000000	65.354780
930.000000	65.354170
929.000000	65.374745
928.000000	65.359182
927.000000	65.321927
926.000000	65.349855
925.000000	65.338074
924.000000	65.279976
923.000000	65.269119
922.000000	65.295502
921.000000	65.285349
920.000000	65.251769
919.000000	65.256691
918.000000	65.232603
917.000000	65.210736
916.000000	65.239835
915.000000	65.249115
914.000000	65.250723
913.000000	65.275959
912.000000	65.260567
911.000000	65.248165
910.000000	65.251260
909.000000	65.256567
908.000000	65.229824
907.000000	65.218050
906.000000	65.155576
905.000000	65.197464
904.000000	65.169702
903.000000	65.203798
902.000000	65.160652
901.000000	65.133247
900.000000	65.174756
899.000000	65.214064
898.000000	65.239599
897.000000	65.195083
896.000000	65.153329
895.000000	65.169831
894.000000	65.151133
893.000000	65.125381
892.000000	65.168569
891.000000	65.195074
890.000000	65.106665
889.000000	65.205541
888.000000	65.129305
887.000000	65.032704
886.000000	65.054442
885.000000	65.224637
884.000000	65.253458
883.000000	65.155526
882.000000	65.130321
881.000000	65.146260
880.000000	65.202390
879.000000	65.200690
878.000000	65.092319
877.000000	65.047561
876.000000	65.031595
875.000000	64.963927
874.000000	64.988207
873.000000	65.105023
872.000000	64.992749
871.000000	65.038851
870.000000	65.018571
869.000000	65.004404
868.000000	65.065383
867.000000	65.008511
866.000000	64.965000
865.000000	65.065966
864.000000	65.017945
863.000000	65.010712
862.000000	65.010273
861.000000	64.900324
860.000000	64.867932
859.000000	63.748817
858.000000	63.612217
857.000000	64.161895
856.000000	63.658994
855.000000	63.663843
854.000000	63.718130
853.000000	63.855672
852.000000	64.081210
851.000000	63.632062
850.000000	63.570187
849.000000	63.874263
848.000000	63.866312
847.000000	63.857031
846.000000	63.762565
845.000000	63.314184
844.000000	63.667348
843.000000	63.506455
842.000000	63.821292
841.000000	63.755209
840.000000	63.532532
839.000000	63.842604
838.000000	63.426349
837.000000	63.580876
836.000000	63.633044
835.000000	63.646779
834.000000	63.598674
833.000000	63.404718
832.000000	63.353520
831.000000	63.503479
830.000000	63.576828
829.000000	63.196356
828.000000	63.485049
827.000000	63.456662
826.000000	63.320443
825.000000	63.327946
824.000000	63.358593
823.000000	63.270318
822.000000	63.277069
821.000000	63.425300
820.000000	63.402922
819.000000	63.144319
818.000000	63.326359
817.000000	63.312213
816.000000	63.271981
815.000000	63.196827
814.000000	63.212228
813.000000	63.033702
812.000000	63.066905
811.000000	63.235506
810.000000	63.124606
809.000000	63.138009
808.000000	63.109001
807.000000	63.145260
806.000000	63.228207
805.000000	63.125433
804.000000	63.140109
803.000000	62.813428
802.000000	62.909739
801.000000	63.020528
800.000000	62.745455
799.000000	62.874288
798.000000	62.954497
797.000000	62.927499
796.000000	62.878949
795.000000	62.784452
794.000000	62.678086
793.000000	62.686183
792.000000	62.679082
791.000000	62.746176
790.000000	62.760995
789.000000	62.769681
788.000000	62.713899
787.000000	62.670823
786.000000	62.679762
785.000000	62.777545
784.000000	62.672971
783.000000	62.548820
782.000000	62.559401
781.000000	62.453213
780.000000	62.584248
779.000000	62.525272
778.000000	62.599452
777.000000	62.493257
776.000000	62.442357
775.000000	62.498617
774.000000	62.543090
773.000000	62.443107
772.000000	62.327023
771.000000	62.379575
770.000000	62.253475
769.000000	62.257954
768.000000	62.314513
767.000000	62.307158
766.000000	62.298243
765.000000	62.242231
764.000000	62.248429
763.000000	62.190844
762.000000	62.129699
761.000000	62.110402
760.000000	62.068016
759.000000	62.026132
758.000000	62.026028
757.000000	62.039944
756.000000	61.951766
755.000000	61.939155
754.000000	61.971501
753.000000	61.963314
752.000000	61.779641
751.000000	61.847513
750.000000	61.898555
749.000000	61.816531
748.000000	61.811223
747.000000	61.696977
746.000000	61.616503
745.000000	61.631950
744.000000	61.641025
743.000000	61.596099
742.000000	61.516055
741.000000	61.554800
740.000000	61.556037
739.000000	61.520466
738.000000	61.493362
737.000000	61.455336
736.000000	61.374299
735.000000	61.335140
734.000000	61.277800
733.000000	61.210259
732.000000	61.174596
731.000000	61.188448
730.000000	61.232557
729.000000	61.169384
728.000000	61.023011
727.000000	61.071774
726.000000	61.067012
725.000000	61.004768
724.000000	60.936851
723.000000	60.917644
722.000000	60.871907
721.000000	60.789088
720.000000	60.765374
719.000000	60.748689
718.000000	60.735622
717.000000	60.657930
716.000000	60.624086
715.000000	60.612059
714.000000	60.587689
713.000000	60.515439
712.000000	60.461449
711.000000	60.451522
710.000000	60.433566
709.000000	60.442641
708.000000	60.397282
707.000000	60.305826
706.000000	60.217751
705.000000	60.159046
704.000000	60.123546
703.000000	60.088396
702.000000	60.035587
701.000000	59.942969
700.000000	59.938574
699.000000	59.933742
698.000000	59.886125
697.000000	59.852702
696.000000	59.755042
695.000000	59.680543
694.000000	59.604989
693.000000	59.578916
692.000000	59.593441
691.000000	59.606290
690.000000	59.567121
689.000000	59.445523
688.000000	59.359215
687.000000	59.387924
686.000000	59.350557
685.000000	59.231177
684.000000	59.169511
683.000000	59.122668
682.000000	59.111616
681.000000	59.108522
680.000000	59.103853
679.000000	59.079998
678.000000	58.953033
677.000000	58.876602
676.000000	58.804249
675.000000	58.734325
674.000000	58.713224
673.000000	58.571551
672.000000	58.504446
671.000000	58.524590
670.000000	58.472087
669.000000	58.380968
668.000000	58.338239
667.000000	58.260334
666.000000	58.153507
665.000000	58.065693
664.000000	58.092315
663.000000	58.022528
662.000000	57.939082
661.000000	57.896318
660.000000	57.821871
659.000000	57.756800
658.000000	57.676285
657.000000	57.591869
656.000000	57.532306
655.000000	57.489045
654.000000	57.436764
653.000000	57.377941
652.000000	57.287424
651.000000	57.200058
650.000000	57.130470
649.000000	57.071879
648.000000	57.033149
647.000000	56.962227
646.000000	56.863252
645.000000	56.750411
644.000000	56.754063
643.000000	56.703555
642.000000	56.645612
641.000000	56.548804
640.000000	56.480390
639.000000	56.378127
638.000000	56.321359
637.000000	56.215173
636.000000	56.145347
635.000000	56.041415
634.000000	55.976849
633.000000	55.883899
632.000000	55.846920
631.000000	55.763420
630.000000	55.671698
629.000000	55.644155
628.000000	55.492651
627.000000	55.382617
626.000000	55.310427
625.000000	55.323305
624.000000	55.253027
623.000000	55.155848
622.000000	55.041604
621.000000	54.954488
620.000000	54.869168
619.000000	54.764218
618.000000	54.713210
617.000000	54.623240
616.000000	54.554129
615.000000	54.436351
614.000000	54.350608
613.000000	54.236812
612.000000	54.192063
611.000000	54.101510
610.000000	54.040959
609.000000	53.924789
608.000000	53.804151
607.000000	53.722675
606.000000	53.646407
605.000000	53.538316
604.000000	53.483273
603.000000	53.328564
602.000000	53.229502
601.000000	53.148180
600.000000	53.103879
599.000000	52.975654
598.000000	52.900236
597.000000	52.768347
596.000000	52.666868
595.000000	52.581378
594.000000	52.477056
593.000000	52.393052
592.000000	52.278986
591.000000	52.178706
590.000000	52.046534
589.000000	51.951579
588.000000	51.844733
587.000000	51.737639
586.000000	51.642530
585.000000	51.507327
584.000000	51.409008
583.000000	51.353040
582.000000	51.201803
581.000000	51.052614
580.000000	50.986209
579.000000	50.824383
578.000000	50.701859
577.000000	50.641427
576.000000	50.543651
575.000000	50.423244
574.000000	50.300635
573.000000	50.188048
572.000000	50.083293
571.000000	49.969162
570.000000	49.839906
569.000000	49.774334
568.000000	49.623374
567.000000	49.459857
566.000000	49.348082
565.000000	49.271785
564.000000	49.107255
563.000000	49.034606
562.000000	48.879276
561.000000	48.578462
560.000000	48.483289
559.000000	48.395202
558.000000	48.255699
557.000000	48.140910
556.000000	48.034650
555.000000	47.916597
554.000000	47.715669
553.000000	47.613513
552.000000	47.511341
551.000000	47.322662
550.000000	47.249619
549.000000	47.133583
548.000000	46.968450
547.000000	46.876474
546.000000	46.720724
545.000000	46.584405
544.000000	46.429922
543.000000	46.306726
542.000000	46.183004
541.000000	46.089598
540.000000	45.921035
539.000000	45.793646
538.000000	45.629985
537.000000	45.540545
536.000000	45.392314
535.000000	45.244477
534.000000	45.110635
533.000000	44.998989
532.000000	44.857936
531.000000	44.697649
530.000000	44.573111
529.000000	44.433095
528.000000	44.294373
527.000000	44.148628
526.000000	44.007359
525.000000	43.840899
524.000000	43.725238
523.000000	43.615824
522.000000	43.415094
521.000000	43.297771
520.000000	43.173827
519.000000	43.011085
518.000000	42.831866
517.000000	42.720397
516.000000	42.569044
515.000000	42.436193
514.000000	42.280958
513.000000	42.177661
512.000000	41.990060
511.000000	41.821271
510.000000	41.702044
509.000000	41.540023
508.000000	41.352515
507.000000	41.210390
506.000000	41.062315
505.000000	40.924758
504.000000	40.758254
503.000000	40.599934
502.000000	40.462605
501.000000	40.288557
500.000000	40.131703
499.000000	40.003477
498.000000	39.829100
497.000000	39.670821
496.000000	39.510918
495.000000	39.381028
494.000000	39.247595
493.000000	39.100077
492.000000	38.928576
491.000000	38.762092
490.000000	38.623337
489.000000	38.446116
488.000000	38.305637
487.000000	38.169103
486.000000	37.998271
485.000000	37.882292
484.000000	37.755895
483.000000	37.555225
482.000000	37.436674
481.000000	37.307210
480.000000	37.141240
479.000000	36.999883
478.000000	36.863757
477.000000	36.687597
476.000000	36.513933
475.000000	36.350698
474.000000	36.212559
473.000000	36.079939
472.000000	35.908014
471.000000	35.733044
470.000000	35.607107
469.000000	35.454119
468.000000	35.292200
467.000000	35.140133
466.000000	34.969654
465.000000	34.784844
464.000000	34.635464
463.000000	34.501851
462.000000	34.356724
461.000000	34.193643
460.000000	34.026158
459.000000	33.863658
458.000000	33.692848
457.000000	33.543588
456.000000	33.380912
455.000000	33.189528
454.000000	33.032381
453.000000	32.890144
452.000000	32.716330
451.000000	32.542714
450.000000	32.360050
449.000000	32.207968
448.000000	32.033611
447.000000	31.873894
446.000000	31.691673
445.000000	31.482662
444.000000	31.302253
443.000000	31.107965
442.000000	30.946553
441.000000	30.788017
440.000000	30.596109
439.000000	30.413421
438.000000	30.242887
437.000000	30.049703
436.000000	29.895319
435.000000	29.725563
434.000000	29.528670
433.000000	29.312933
432.000000	29.132532
431.000000	28.952910
430.000000	28.795947
429.000000	28.610803
428.000000	28.423937
427.000000	28.217688
426.000000	28.041746
425.000000	27.880985
424.000000	27.709037
423.000000	27.552214
422.000000	27.392983
421.000000	27.197275
420.000000	26.990153
419.000000	26.813407
418.000000	26.671455
417.000000	26.464243
416.000000	26.246541
415.000000	26.071857
414.000000	25.893615
413.000000	25.741818
412.000000	25.545522
411.000000	25.348834
410.000000	25.175437
409.000000	24.989554
408.000000	24.809908
407.000000	24.608674
406.000000	24.451511
405.000000	24.295494
404.000000	24.074799
403.000000	23.896680
402.000000	23.712915
401.000000	23.520722
400.000000	23.340250
399.000000	23.178945
398.000000	23.003085
397.000000	22.846357
396.000000	22.668776
395.000000	22.454397
394.000000	22.287868
393.000000	22.124002
392.000000	21.940563
391.000000	21.734110
390.000000	21.596811
389.000000	21.403823
388.000000	21.209181
387.000000	21.050473
386.000000	20.875345
385.000000	20.704610
384.000000	20.542186
383.000000	20.343709
382.000000	20.149666
381.000000	19.974809
380.000000	19.794757
379.000000	19.613500
378.000000	19.449616
377.000000	19.271084
376.000000	19.120941
375.000000	18.873238
374.000000	18.694780
373.000000	18.525417
372.000000	18.398350
371.000000	18.236560
370.000000	18.016499
369.000000	17.932730
368.000000	17.803851
367.000000	17.610424
366.000000	17.399203
365.000000	17.301398
364.000000	17.067092
363.000000	16.889861
362.000000	16.801326
361.000000	16.630822
360.000000	16.493201
359.000000	16.368945
358.000000	16.205040
357.000000	16.053813
356.000000	15.895749
355.000000	15.778210
354.000000	15.601433
353.000000	15.474850
352.000000	15.320907
351.000000	15.135883
350.000000	15.056946
349.000000	14.928480
348.000000	14.840149
347.000000	14.605073
346.000000	14.528894
345.000000	14.374134
344.000000	14.302116
343.000000	14.100904
342.000000	14.021960
341.000000	13.957071
340.000000	13.744357
339.000000	13.664674
338.000000	13.523079
337.000000	13.494256
336.000000	13.254394
335.000000	13.157268
334.000000	13.056794
333.000000	13.002371
332.000000	12.921723
331.000000	12.766661
330.000000	12.615148
329.000000	12.567780
328.000000	12.499874
327.000000	12.328782
326.000000	12.171388
325.000000	12.155147
324.000000	12.093274
323.000000	12.022298
322.000000	12.026306
321.000000	11.793045
320.000000	11.746444
319.000000	11.692789
318.000000	11.628858
317.000000	11.520103
316.000000	11.515706
315.000000	11.427959
314.000000	11.343743
313.000000	11.373203
312.000000	11.211586
311.000000	11.104783
310.000000	11.108361
309.000000	11.106126
308.000000	11.036771
307.000000	10.924832
306.000000	10.891380
305.000000	10.881539
304.000000	10.853772
303.000000	10.800996
302.000000	10.768618
301.000000	10.761226
300.000000	10.645329
299.000000	10.639842
298.000000	10.618235
297.000000	10.548351
296.000000	10.529909
295.000000	10.462796
294.000000	10.419936
293.000000	10.362278
292.000000	10.292696
291.000000	10.223235
290.000000	10.150190
289.000000	10.107393
288.000000	10.025882
287.000000	10.022939
286.000000	10.011892
285.000000	9.975882
284.000000	9.981018
283.000000	9.968338
282.000000	9.921272
281.000000	9.926882
280.000000	9.938265
279.000000	9.964624
278.000000	10.026053
277.000000	9.989576
276.000000	10.028622
275.000000	10.055123
274.000000	10.125527
273.000000	10.131271
272.000000	10.185160
271.000000	10.240039
270.000000	10.257072
269.000000	10.292555
268.000000	10.303614
267.000000	10.370212
266.000000	10.459371
265.000000	10.543869
264.000000	10.587751
263.000000	10.631002
262.000000	10.680352
261.000000	10.758867
260.000000	10.844289
259.000000	10.921972
258.000000	10.970175
257.000000	11.015693
256.000000	11.126777
255.000000	11.228710
254.000000	11.261381
253.000000	11.319787
252.000000	11.380824
251.000000	11.432236
250.000000	11.501833
249.000000	11.556503
248.000000	11.631175
247.000000	11.688688
246.000000	11.667871
245.000000	11.679823
244.000000	11.684877
243.000000	11.617130
242.000000	11.574106
241.000000	11.568575
240.000000	11.495421
239.000000	11.326605
238.000000	11.226213
237.000000	11.182637
236.000000	11.056737
235.000000	10.938739
234.000000	10.850978
233.000000	10.703576
232.000000	10.572129
231.000000	10.505188
230.000000	10.439830
229.000000	10.299780
228.000000	10.159436
227.000000	10.140069
226.000000	10.054279
225.000000	9.910434
224.000000	9.919473
223.000000	9.899252
222.000000	9.816703
221.000000	9.830275
220.000000	9.876365
219.000000	9.816954
218.000000	9.764572
217.000000	9.864210
216.000000	9.919971
215.000000	9.936902
214.000000	10.002296
213.000000	10.078345
212.000000	10.141098
211.000000	10.253572
210.000000	10.426232
209.000000	10.595243
208.000000	10.763065
207.000000	10.933540
206.000000	11.170850
205.000000	11.416745
204.000000	11.646772
203.000000	11.858964
202.000000	12.097322
201.000000	12.565986
200.000000	12.814629
