PE UV       SUBTECH     SPECTRUM    ASCII       PEDS        4.00        
   -1
RTms148361.Sample.asc
18/03/13
17:30:48.00
18/03/13
17:30:48.00
Administrator

200.000000
1
Lambda 750
750N8071901
PerkinElmer UV WinLab 6.0.4.0738 / 1.61.00 Lambda 900

0
0
3350/servo 860.8/2
0
0
UV/VIS
1
1
1
CommonBeamDepol,150mm sphere / downward view
0
0
0
0
Program
Program
3350/servo 860.8/2
3350/0.2 860.8/0.2
3350/0.2 860.8/0.2
0
1
 
 
 
0
 
860.8
319.2
860.8
Front
100
on
 
 
0
0
0
 
0
 
 
 
0
 
 
0
0
0
0
0
 
 
 
 
0
0


0
0
#HDR
-1
-1
#GR
nm
%R
1.0
0.0
2350.000000
-1.000000
2151
8
58.508090
8.236829
#DATA
2350.000000	38.035584
2349.000000	38.561182
2348.000000	37.915338
2347.000000	38.648511
2346.000000	38.202091
2345.000000	38.131792
2344.000000	38.493355
2343.000000	38.344261
2342.000000	38.378571
2341.000000	38.610204
2340.000000	38.554849
2339.000000	38.763627
2338.000000	38.786956
2337.000000	38.675889
2336.000000	38.926405
2335.000000	38.951682
2334.000000	39.199307
2333.000000	39.016416
2332.000000	38.969545
2331.000000	39.083877
2330.000000	38.987154
2329.000000	38.924850
2328.000000	38.672566
2327.000000	38.545819
2326.000000	38.987898
2325.000000	38.763975
2324.000000	38.709671
2323.000000	38.572222
2322.000000	38.562396
2321.000000	38.869526
2320.000000	38.633187
2319.000000	38.689233
2318.000000	38.635871
2317.000000	38.425865
2316.000000	38.455511
2315.000000	38.388776
2314.000000	38.179992
2313.000000	38.103262
2312.000000	38.122283
2311.000000	38.228476
2310.000000	38.005624
2309.000000	37.816862
2308.000000	37.808229
2307.000000	37.779691
2306.000000	37.963708
2305.000000	37.712182
2304.000000	37.833434
2303.000000	37.903926
2302.000000	38.038517
2301.000000	37.803400
2300.000000	37.789562
2299.000000	37.707381
2298.000000	37.711485
2297.000000	37.657906
2296.000000	37.735586
2295.000000	37.681592
2294.000000	37.444806
2293.000000	37.210840
2292.000000	37.063091
2291.000000	37.127198
2290.000000	37.029085
2289.000000	37.134555
2288.000000	37.173546
2287.000000	37.135458
2286.000000	36.994780
2285.000000	37.092141
2284.000000	37.025213
2283.000000	36.844517
2282.000000	36.916887
2281.000000	37.083826
2280.000000	37.211139
2279.000000	37.088118
2278.000000	37.029302
2277.000000	36.920028
2276.000000	37.006264
2275.000000	37.160312
2274.000000	37.230221
2273.000000	37.221956
2272.000000	37.265135
2271.000000	37.325603
2270.000000	37.470415
2269.000000	37.447298
2268.000000	37.464099
2267.000000	37.710449
2266.000000	37.790926
2265.000000	37.821880
2264.000000	38.000944
2263.000000	38.065772
2262.000000	38.147907
2261.000000	38.219129
2260.000000	38.392102
2259.000000	38.560449
2258.000000	38.633096
2257.000000	38.742559
2256.000000	38.778707
2255.000000	38.909903
2254.000000	39.118499
2253.000000	39.387624
2252.000000	39.494129
2251.000000	39.620416
2250.000000	39.810114
2249.000000	39.976263
2248.000000	40.047678
2247.000000	40.107521
2246.000000	40.295038
2245.000000	40.621953
2244.000000	40.749119
2243.000000	40.778468
2242.000000	40.914712
2241.000000	40.962955
2240.000000	41.020527
2239.000000	41.086130
2238.000000	41.099461
2237.000000	41.277896
2236.000000	41.558327
2235.000000	41.654832
2234.000000	41.541339
2233.000000	41.536954
2232.000000	41.599328
2231.000000	41.601664
2230.000000	41.637253
2229.000000	41.683222
2228.000000	41.755551
2227.000000	41.748056
2226.000000	41.742585
2225.000000	41.801311
2224.000000	41.776536
2223.000000	41.754201
2222.000000	41.805866
2221.000000	41.790323
2220.000000	41.698709
2219.000000	41.754777
2218.000000	41.746422
2217.000000	41.740450
2216.000000	41.755038
2215.000000	41.650540
2214.000000	41.652969
2213.000000	41.801080
2212.000000	41.698505
2211.000000	41.561688
2210.000000	41.521302
2209.000000	41.494647
2208.000000	41.469804
2207.000000	41.487797
2206.000000	41.476915
2205.000000	41.443341
2204.000000	41.314684
2203.000000	41.209124
2202.000000	41.213185
2201.000000	41.230589
2200.000000	41.183976
2199.000000	41.099416
2198.000000	41.117436
2197.000000	41.056822
2196.000000	41.028475
2195.000000	40.963353
2194.000000	40.975698
2193.000000	40.832646
2192.000000	40.760993
2191.000000	40.789038
2190.000000	40.744216
2189.000000	40.702162
2188.000000	40.730914
2187.000000	40.597240
2186.000000	40.497052
2185.000000	40.645961
2184.000000	40.709746
2183.000000	40.667342
2182.000000	40.581505
2181.000000	40.565313
2180.000000	40.404813
2179.000000	40.526404
2178.000000	40.603806
2177.000000	40.565746
2176.000000	40.611286
2175.000000	40.536243
2174.000000	40.772271
2173.000000	40.645854
2172.000000	40.681815
2171.000000	40.931466
2170.000000	40.833674
2169.000000	40.868944
2168.000000	40.990567
2167.000000	41.108001
2166.000000	41.031828
2165.000000	41.023804
2164.000000	41.156424
2163.000000	41.262707
2162.000000	41.443234
2161.000000	41.617535
2160.000000	41.579587
2159.000000	41.540335
2158.000000	41.795094
2157.000000	41.769537
2156.000000	42.005398
2155.000000	41.942421
2154.000000	42.024454
2153.000000	42.334844
2152.000000	42.460294
2151.000000	42.364141
2150.000000	42.422150
2149.000000	42.601989
2148.000000	42.713771
2147.000000	42.860732
2146.000000	42.797071
2145.000000	43.053522
2144.000000	43.116983
2143.000000	43.201145
2142.000000	43.354335
2141.000000	43.312737
2140.000000	43.535221
2139.000000	43.536402
2138.000000	43.730878
2137.000000	43.605764
2136.000000	43.753404
2135.000000	43.797781
2134.000000	43.931617
2133.000000	43.653384
2132.000000	43.932378
2131.000000	43.968214
2130.000000	44.068569
2129.000000	44.044456
2128.000000	44.087841
2127.000000	44.186351
2126.000000	44.156646
2125.000000	44.225705
2124.000000	44.197866
2123.000000	44.281234
2122.000000	44.291082
2121.000000	44.432821
2120.000000	44.282128
2119.000000	44.224947
2118.000000	44.334293
2117.000000	44.318438
2116.000000	44.436889
2115.000000	44.397793
2114.000000	44.367376
2113.000000	44.431486
2112.000000	44.387717
2111.000000	44.493248
2110.000000	44.279460
2109.000000	44.540337
2108.000000	44.380191
2107.000000	44.418532
2106.000000	44.323449
2105.000000	44.409790
2104.000000	44.394700
2103.000000	44.372866
2102.000000	44.351852
2101.000000	44.420732
2100.000000	44.556751
2099.000000	44.516336
2098.000000	44.455576
2097.000000	44.550388
2096.000000	44.469078
2095.000000	44.441256
2094.000000	44.510665
2093.000000	44.444836
2092.000000	44.394798
2091.000000	44.440438
2090.000000	44.338933
2089.000000	44.350014
2088.000000	44.286731
2087.000000	44.352848
2086.000000	44.443033
2085.000000	44.379245
2084.000000	44.257757
2083.000000	44.184640
2082.000000	44.268888
2081.000000	44.157573
2080.000000	44.034839
2079.000000	44.111911
2078.000000	44.010537
2077.000000	43.967458
2076.000000	43.862736
2075.000000	43.834191
2074.000000	43.793274
2073.000000	43.761813
2072.000000	43.620314
2071.000000	43.581291
2070.000000	43.550280
2069.000000	43.451310
2068.000000	43.268835
2067.000000	43.231983
2066.000000	43.164172
2065.000000	43.051607
2064.000000	42.945360
2063.000000	42.909623
2062.000000	42.862186
2061.000000	42.693373
2060.000000	42.519779
2059.000000	42.417878
2058.000000	42.385144
2057.000000	42.317405
2056.000000	42.208195
2055.000000	42.107147
2054.000000	42.056951
2053.000000	41.953367
2052.000000	41.849135
2051.000000	41.720363
2050.000000	41.692486
2049.000000	41.693930
2048.000000	41.609213
2047.000000	41.565562
2046.000000	41.485542
2045.000000	41.432478
2044.000000	41.406533
2043.000000	41.400212
2042.000000	41.406049
2041.000000	41.455230
2040.000000	41.468591
2039.000000	41.424499
2038.000000	41.442077
2037.000000	41.442794
2036.000000	41.464321
2035.000000	41.570366
2034.000000	41.618870
2033.000000	41.639697
2032.000000	41.713742
2031.000000	41.747603
2030.000000	41.808658
2029.000000	41.888189
2028.000000	41.947246
2027.000000	42.022894
2026.000000	42.090739
2025.000000	42.107315
2024.000000	42.095697
2023.000000	42.142029
2022.000000	42.173513
2021.000000	42.176977
2020.000000	42.205516
2019.000000	42.211289
2018.000000	42.210984
2017.000000	42.193076
2016.000000	42.156533
2015.000000	42.165161
2014.000000	42.133676
2013.000000	42.083062
2012.000000	42.060368
2011.000000	42.018031
2010.000000	41.941369
2009.000000	41.864292
2008.000000	41.813684
2007.000000	41.772002
2006.000000	41.699569
2005.000000	41.640113
2004.000000	41.552769
2003.000000	41.481999
2002.000000	41.447585
2001.000000	41.360680
2000.000000	41.274075
1999.000000	41.210010
1998.000000	41.095139
1997.000000	41.031554
1996.000000	40.990773
1995.000000	40.907321
1994.000000	40.797822
1993.000000	40.694935
1992.000000	40.625190
1991.000000	40.554994
1990.000000	40.476222
1989.000000	40.373086
1988.000000	40.273913
1987.000000	40.196757
1986.000000	40.134123
1985.000000	40.041979
1984.000000	39.978321
1983.000000	39.924507
1982.000000	39.841158
1981.000000	39.761101
1980.000000	39.669584
1979.000000	39.568144
1978.000000	39.472749
1977.000000	39.408083
1976.000000	39.319744
1975.000000	39.241804
1974.000000	39.143183
1973.000000	39.089021
1972.000000	39.024351
1971.000000	38.916389
1970.000000	38.834204
1969.000000	38.778519
1968.000000	38.711847
1967.000000	38.643227
1966.000000	38.584995
1965.000000	38.539127
1964.000000	38.394421
1963.000000	38.316044
1962.000000	38.256127
1961.000000	38.207459
1960.000000	38.184957
1959.000000	38.077090
1958.000000	38.033084
1957.000000	37.969388
1956.000000	37.850909
1955.000000	37.858272
1954.000000	37.802713
1953.000000	37.713423
1952.000000	37.720971
1951.000000	37.729123
1950.000000	37.659292
1949.000000	37.640015
1948.000000	37.608757
1947.000000	37.543591
1946.000000	37.539882
1945.000000	37.545173
1944.000000	37.501769
1943.000000	37.508464
1942.000000	37.539455
1941.000000	37.576770
1940.000000	37.619091
1939.000000	37.625202
1938.000000	37.681603
1937.000000	37.730063
1936.000000	37.834062
1935.000000	37.841756
1934.000000	37.884574
1933.000000	38.024968
1932.000000	38.118348
1931.000000	38.178767
1930.000000	38.339957
1929.000000	38.444760
1928.000000	38.557918
1927.000000	38.680843
1926.000000	38.858962
1925.000000	38.947442
1924.000000	39.218419
1923.000000	39.314666
1922.000000	39.471660
1921.000000	39.804601
1920.000000	39.963043
1919.000000	40.178931
1918.000000	40.306744
1917.000000	40.617809
1916.000000	40.750988
1915.000000	41.019759
1914.000000	41.363306
1913.000000	41.644601
1912.000000	41.859322
1911.000000	42.133400
1910.000000	42.394492
1909.000000	42.669921
1908.000000	42.964195
1907.000000	43.268318
1906.000000	43.615908
1905.000000	43.890817
1904.000000	44.198590
1903.000000	44.570927
1902.000000	44.907168
1901.000000	45.220867
1900.000000	45.486943
1899.000000	45.895897
1898.000000	46.238112
1897.000000	46.464150
1896.000000	46.814388
1895.000000	47.110117
1894.000000	47.360284
1893.000000	47.693332
1892.000000	48.017475
1891.000000	48.293181
1890.000000	48.479921
1889.000000	48.768262
1888.000000	49.026924
1887.000000	49.271874
1886.000000	49.489133
1885.000000	49.707465
1884.000000	49.987076
1883.000000	50.209015
1882.000000	50.362542
1881.000000	50.583136
1880.000000	50.775732
1879.000000	50.926758
1878.000000	51.032089
1877.000000	51.228763
1876.000000	51.397554
1875.000000	51.574440
1874.000000	51.685176
1873.000000	51.789399
1872.000000	51.904064
1871.000000	52.030642
1870.000000	52.180819
1869.000000	52.273078
1868.000000	52.377790
1867.000000	52.419197
1866.000000	52.510051
1865.000000	52.553023
1864.000000	52.546038
1863.000000	52.605760
1862.000000	52.685568
1861.000000	52.711483
1860.000000	52.743286
1859.000000	52.754296
1858.000000	52.750946
1857.000000	52.773308
1856.000000	52.816979
1855.000000	52.854171
1854.000000	52.879273
1853.000000	52.895929
1852.000000	52.903664
1851.000000	52.903496
1850.000000	52.896200
1849.000000	52.893513
1848.000000	52.915036
1847.000000	52.915864
1846.000000	52.905640
1845.000000	52.925543
1844.000000	52.902073
1843.000000	52.868802
1842.000000	52.869083
1841.000000	52.836314
1840.000000	52.828329
1839.000000	52.860926
1838.000000	52.855461
1837.000000	52.818721
1836.000000	52.806258
1835.000000	52.796864
1834.000000	52.769781
1833.000000	52.761374
1832.000000	52.758784
1831.000000	52.751311
1830.000000	52.706713
1829.000000	52.693688
1828.000000	52.702565
1827.000000	52.704548
1826.000000	52.664938
1825.000000	52.657758
1824.000000	52.621101
1823.000000	52.578441
1822.000000	52.545229
1821.000000	52.543036
1820.000000	52.560886
1819.000000	52.557065
1818.000000	52.542395
1817.000000	52.505237
1816.000000	52.480020
1815.000000	52.493327
1814.000000	52.489463
1813.000000	52.463771
1812.000000	52.455914
1811.000000	52.452199
1810.000000	52.438210
1809.000000	52.441285
1808.000000	52.441570
1807.000000	52.407346
1806.000000	52.396911
1805.000000	52.374219
1804.000000	52.343596
1803.000000	52.365161
1802.000000	52.365395
1801.000000	52.333800
1800.000000	52.324995
1799.000000	52.318141
1798.000000	52.302376
1797.000000	52.298124
1796.000000	52.294352
1795.000000	52.279742
1794.000000	52.286180
1793.000000	52.277503
1792.000000	52.262810
1791.000000	52.237465
1790.000000	52.223948
1789.000000	52.232549
1788.000000	52.264274
1787.000000	52.228470
1786.000000	52.214625
1785.000000	52.223966
1784.000000	52.190679
1783.000000	52.176911
1782.000000	52.160904
1781.000000	52.161410
1780.000000	52.141340
1779.000000	52.127276
1778.000000	52.104120
1777.000000	52.056925
1776.000000	52.044494
1775.000000	51.991236
1774.000000	51.962851
1773.000000	51.958380
1772.000000	51.932869
1771.000000	51.923170
1770.000000	51.896863
1769.000000	51.868662
1768.000000	51.861263
1767.000000	51.819929
1766.000000	51.803607
1765.000000	51.780765
1764.000000	51.758659
1763.000000	51.711890
1762.000000	51.696594
1761.000000	51.668030
1760.000000	51.641791
1759.000000	51.637394
1758.000000	51.616350
1757.000000	51.613374
1756.000000	51.585096
1755.000000	51.572797
1754.000000	51.565755
1753.000000	51.525579
1752.000000	51.504399
1751.000000	51.485702
1750.000000	51.473969
1749.000000	51.470414
1748.000000	51.421232
1747.000000	51.378746
1746.000000	51.364054
1745.000000	51.365093
1744.000000	51.341752
1743.000000	51.294859
1742.000000	51.271845
1741.000000	51.252786
1740.000000	51.236203
1739.000000	51.194683
1738.000000	51.193122
1737.000000	51.178365
1736.000000	51.160258
1735.000000	51.144135
1734.000000	51.158259
1733.000000	51.153272
1732.000000	51.134398
1731.000000	51.155305
1730.000000	51.152435
1729.000000	51.195869
1728.000000	51.203017
1727.000000	51.239126
1726.000000	51.260705
1725.000000	51.324998
1724.000000	51.337926
1723.000000	51.391189
1722.000000	51.444794
1721.000000	51.490548
1720.000000	51.583587
1719.000000	51.612443
1718.000000	51.620417
1717.000000	51.697287
1716.000000	51.757494
1715.000000	51.804963
1714.000000	51.859731
1713.000000	51.881657
1712.000000	51.936437
1711.000000	52.004552
1710.000000	52.019392
1709.000000	52.060705
1708.000000	52.099337
1707.000000	52.103756
1706.000000	52.140014
1705.000000	52.173693
1704.000000	52.202823
1703.000000	52.199215
1702.000000	52.208446
1701.000000	52.238209
1700.000000	52.270004
1699.000000	52.251380
1698.000000	52.276371
1697.000000	52.331372
1696.000000	52.346805
1695.000000	52.343719
1694.000000	52.367775
1693.000000	52.385893
1692.000000	52.412655
1691.000000	52.423560
1690.000000	52.478709
1689.000000	52.530767
1688.000000	52.611819
1687.000000	52.646748
1686.000000	52.671117
1685.000000	52.731733
1684.000000	52.807102
1683.000000	52.867264
1682.000000	52.930800
1681.000000	53.034931
1680.000000	53.089269
1679.000000	53.157943
1678.000000	53.201394
1677.000000	53.283862
1676.000000	53.361689
1675.000000	53.440221
1674.000000	53.517134
1673.000000	53.589615
1672.000000	53.671003
1671.000000	53.709677
1670.000000	53.770717
1669.000000	53.854333
1668.000000	53.923497
1667.000000	53.961335
1666.000000	54.003747
1665.000000	54.042120
1664.000000	54.081936
1663.000000	54.110847
1662.000000	54.149795
1661.000000	54.175034
1660.000000	54.216486
1659.000000	54.244785
1658.000000	54.259843
1657.000000	54.272629
1656.000000	54.297670
1655.000000	54.323725
1654.000000	54.337728
1653.000000	54.359492
1652.000000	54.355710
1651.000000	54.332120
1650.000000	54.326645
1649.000000	54.359583
1648.000000	54.344048
1647.000000	54.350513
1646.000000	54.347213
1645.000000	54.346612
1644.000000	54.328523
1643.000000	54.325089
1642.000000	54.326978
1641.000000	54.297662
1640.000000	54.298686
1639.000000	54.292554
1638.000000	54.277970
1637.000000	54.262869
1636.000000	54.233040
1635.000000	54.237835
1634.000000	54.222776
1633.000000	54.211195
1632.000000	54.191039
1631.000000	54.165575
1630.000000	54.165980
1629.000000	54.152323
1628.000000	54.133346
1627.000000	54.114246
1626.000000	54.078601
1625.000000	54.081673
1624.000000	54.072133
1623.000000	54.053319
1622.000000	54.028671
1621.000000	53.997921
1620.000000	53.993709
1619.000000	53.978182
1618.000000	53.938972
1617.000000	53.914454
1616.000000	53.893028
1615.000000	53.882490
1614.000000	53.861653
1613.000000	53.833527
1612.000000	53.804927
1611.000000	53.774612
1610.000000	53.753653
1609.000000	53.745343
1608.000000	53.718094
1607.000000	53.686259
1606.000000	53.662514
1605.000000	53.638961
1604.000000	53.599691
1603.000000	53.569077
1602.000000	53.556951
1601.000000	53.537537
1600.000000	53.509857
1599.000000	53.476772
1598.000000	53.457525
1597.000000	53.427769
1596.000000	53.400291
1595.000000	53.379319
1594.000000	53.357916
1593.000000	53.348808
1592.000000	53.327352
1591.000000	53.296132
1590.000000	53.278411
1589.000000	53.254842
1588.000000	53.235548
1587.000000	53.214472
1586.000000	53.185165
1585.000000	53.164818
1584.000000	53.155780
1583.000000	53.134149
1582.000000	53.101151
1581.000000	53.084836
1580.000000	53.069017
1579.000000	53.053577
1578.000000	53.053144
1577.000000	53.037653
1576.000000	53.016566
1575.000000	53.002695
1574.000000	52.967342
1573.000000	52.942628
1572.000000	52.939088
1571.000000	52.918090
1570.000000	52.901482
1569.000000	52.879735
1568.000000	52.863705
1567.000000	52.849249
1566.000000	52.830254
1565.000000	52.807665
1564.000000	52.790480
1563.000000	52.791537
1562.000000	52.786234
1561.000000	52.773178
1560.000000	52.767449
1559.000000	52.739066
1558.000000	52.725997
1557.000000	52.730083
1556.000000	52.728800
1555.000000	52.716518
1554.000000	52.691303
1553.000000	52.681199
1552.000000	52.674360
1551.000000	52.656317
1550.000000	52.637925
1549.000000	52.612632
1548.000000	52.594163
1547.000000	52.573874
1546.000000	52.551329
1545.000000	52.522339
1544.000000	52.476805
1543.000000	52.448972
1542.000000	52.426297
1541.000000	52.393356
1540.000000	52.351021
1539.000000	52.313718
1538.000000	52.271590
1537.000000	52.234642
1536.000000	52.202268
1535.000000	52.158733
1534.000000	52.120485
1533.000000	52.099630
1532.000000	52.056082
1531.000000	52.009795
1530.000000	51.987019
1529.000000	51.926213
1528.000000	51.902783
1527.000000	51.879790
1526.000000	51.860064
1525.000000	51.818850
1524.000000	51.801277
1523.000000	51.766926
1522.000000	51.737470
1521.000000	51.712770
1520.000000	51.692482
1519.000000	51.664162
1518.000000	51.669688
1517.000000	51.641315
1516.000000	51.616249
1515.000000	51.600200
1514.000000	51.589439
1513.000000	51.603926
1512.000000	51.630849
1511.000000	51.666318
1510.000000	51.704943
1509.000000	51.708466
1508.000000	51.686889
1507.000000	51.638570
1506.000000	51.610996
1505.000000	51.617900
1504.000000	51.602148
1503.000000	51.567880
1502.000000	51.564002
1501.000000	51.563552
1500.000000	51.551861
1499.000000	51.534585
1498.000000	51.555193
1497.000000	51.546763
1496.000000	51.536011
1495.000000	51.543298
1494.000000	51.543702
1493.000000	51.545850
1492.000000	51.538508
1491.000000	51.553657
1490.000000	51.574426
1489.000000	51.597877
1488.000000	51.581522
1487.000000	51.605858
1486.000000	51.560509
1485.000000	51.560687
1484.000000	51.598370
1483.000000	51.605133
1482.000000	51.618265
1481.000000	51.662714
1480.000000	51.675509
1479.000000	51.687449
1478.000000	51.698880
1477.000000	51.712270
1476.000000	51.723490
1475.000000	51.754328
1474.000000	51.766018
1473.000000	51.784336
1472.000000	51.799406
1471.000000	51.837600
1470.000000	51.834213
1469.000000	51.866623
1468.000000	51.905381
1467.000000	51.934542
1466.000000	51.959463
1465.000000	51.970322
1464.000000	51.979176
1463.000000	52.037562
1462.000000	52.063935
1461.000000	52.082643
1460.000000	52.108961
1459.000000	52.095208
1458.000000	52.157830
1457.000000	52.185958
1456.000000	52.217858
1455.000000	52.227066
1454.000000	52.284369
1453.000000	52.321492
1452.000000	52.337348
1451.000000	52.366366
1450.000000	52.389048
1449.000000	52.413776
1448.000000	52.470303
1447.000000	52.532970
1446.000000	52.547703
1445.000000	52.578694
1444.000000	52.613703
1443.000000	52.648494
1442.000000	52.682404
1441.000000	52.743480
1440.000000	52.812412
1439.000000	52.861744
1438.000000	52.894571
1437.000000	52.938706
1436.000000	52.976501
1435.000000	53.008240
1434.000000	53.060227
1433.000000	53.121974
1432.000000	53.181028
1431.000000	53.228060
1430.000000	53.296885
1429.000000	53.363788
1428.000000	53.397121
1427.000000	53.462041
1426.000000	53.537667
1425.000000	53.609647
1424.000000	53.692806
1423.000000	53.743888
1422.000000	53.780538
1421.000000	53.862163
1420.000000	53.934111
1419.000000	54.012567
1418.000000	54.071237
1417.000000	54.125870
1416.000000	54.219727
1415.000000	54.301707
1414.000000	54.366089
1413.000000	54.455089
1412.000000	54.532896
1411.000000	54.602890
1410.000000	54.663886
1409.000000	54.761140
1408.000000	54.865146
1407.000000	54.933414
1406.000000	54.990309
1405.000000	55.077338
1404.000000	55.171112
1403.000000	55.264406
1402.000000	55.359843
1401.000000	55.434973
1400.000000	55.495610
1399.000000	55.532389
1398.000000	55.615928
1397.000000	55.703957
1396.000000	55.775577
1395.000000	55.845362
1394.000000	55.900056
1393.000000	55.978794
1392.000000	56.044660
1391.000000	56.085700
1390.000000	56.134876
1389.000000	56.194702
1388.000000	56.241586
1387.000000	56.305638
1386.000000	56.393003
1385.000000	56.465709
1384.000000	56.499966
1383.000000	56.534689
1382.000000	56.607969
1381.000000	56.664505
1380.000000	56.705425
1379.000000	56.739012
1378.000000	56.777543
1377.000000	56.811026
1376.000000	56.817382
1375.000000	56.843914
1374.000000	56.886947
1373.000000	56.911314
1372.000000	56.925290
1371.000000	56.925047
1370.000000	56.933304
1369.000000	56.945135
1368.000000	56.962649
1367.000000	56.976201
1366.000000	57.009969
1365.000000	57.058266
1364.000000	57.091840
1363.000000	57.097407
1362.000000	57.114059
1361.000000	57.135018
1360.000000	57.160997
1359.000000	57.182187
1358.000000	57.215315
1357.000000	57.293530
1356.000000	57.348483
1355.000000	57.376105
1354.000000	57.372373
1353.000000	57.396090
1352.000000	57.456223
1351.000000	57.492043
1350.000000	57.490343
1349.000000	57.531933
1348.000000	57.603525
1347.000000	57.628482
1346.000000	57.627341
1345.000000	57.627711
1344.000000	57.663928
1343.000000	57.684007
1342.000000	57.696657
1341.000000	57.741023
1340.000000	57.775139
1339.000000	57.794321
1338.000000	57.795282
1337.000000	57.803864
1336.000000	57.805654
1335.000000	57.846969
1334.000000	57.881064
1333.000000	57.884776
1332.000000	57.899261
1331.000000	57.917322
1330.000000	57.931661
1329.000000	57.957507
1328.000000	57.971125
1327.000000	57.986122
1326.000000	58.012990
1325.000000	58.063781
1324.000000	58.047387
1323.000000	58.064279
1322.000000	58.068264
1321.000000	58.082477
1320.000000	58.125686
1319.000000	58.165386
1318.000000	58.173626
1317.000000	58.147651
1316.000000	58.167589
1315.000000	58.184934
1314.000000	58.209179
1313.000000	58.253556
1312.000000	58.265494
1311.000000	58.244016
1310.000000	58.262970
1309.000000	58.288914
1308.000000	58.272405
1307.000000	58.320127
1306.000000	58.321396
1305.000000	58.313311
1304.000000	58.316803
1303.000000	58.324832
1302.000000	58.325418
1301.000000	58.323822
1300.000000	58.353859
1299.000000	58.368590
1298.000000	58.344497
1297.000000	58.377576
1296.000000	58.355002
1295.000000	58.347547
1294.000000	58.354570
1293.000000	58.348185
1292.000000	58.349951
1291.000000	58.328840
1290.000000	58.328655
1289.000000	58.341851
1288.000000	58.284867
1287.000000	58.287011
1286.000000	58.274433
1285.000000	58.284922
1284.000000	58.280603
1283.000000	58.282594
1282.000000	58.304480
1281.000000	58.321760
1280.000000	58.299034
1279.000000	58.291749
1278.000000	58.240011
1277.000000	58.234917
1276.000000	58.239949
1275.000000	58.231736
1274.000000	58.245024
1273.000000	58.244579
1272.000000	58.265438
1271.000000	58.240292
1270.000000	58.250396
1269.000000	58.264348
1268.000000	58.287197
1267.000000	58.316169
1266.000000	58.312330
1265.000000	58.293647
1264.000000	58.286497
1263.000000	58.274685
1262.000000	58.312747
1261.000000	58.337283
1260.000000	58.364484
1259.000000	58.351449
1258.000000	58.326994
1257.000000	58.327421
1256.000000	58.356881
1255.000000	58.375083
1254.000000	58.380599
1253.000000	58.376689
1252.000000	58.376236
1251.000000	58.368757
1250.000000	58.364617
1249.000000	58.354256
1248.000000	58.349705
1247.000000	58.341626
1246.000000	58.350366
1245.000000	58.334667
1244.000000	58.349057
1243.000000	58.335430
1242.000000	58.272387
1241.000000	58.271532
1240.000000	58.272970
1239.000000	58.264908
1238.000000	58.206662
1237.000000	58.197204
1236.000000	58.196974
1235.000000	58.195744
1234.000000	58.146170
1233.000000	58.133872
1232.000000	58.134429
1231.000000	58.107572
1230.000000	58.061792
1229.000000	58.070112
1228.000000	58.080487
1227.000000	58.067709
1226.000000	58.061674
1225.000000	58.045457
1224.000000	58.038686
1223.000000	57.972701
1222.000000	57.988001
1221.000000	57.976146
1220.000000	57.983419
1219.000000	57.960788
1218.000000	57.964091
1217.000000	57.963411
1216.000000	57.993717
1215.000000	57.997762
1214.000000	57.971952
1213.000000	57.961963
1212.000000	57.955038
1211.000000	57.989987
1210.000000	57.998340
1209.000000	57.977378
1208.000000	57.997218
1207.000000	57.990628
1206.000000	57.972720
1205.000000	57.998581
1204.000000	57.984412
1203.000000	57.969262
1202.000000	57.965028
1201.000000	57.969674
1200.000000	57.966923
1199.000000	57.948913
1198.000000	57.933149
1197.000000	57.941180
1196.000000	57.950682
1195.000000	57.956257
1194.000000	57.950388
1193.000000	57.936903
1192.000000	57.920371
1191.000000	57.901722
1190.000000	57.884101
1189.000000	57.828623
1188.000000	57.840386
1187.000000	57.837375
1186.000000	57.826443
1185.000000	57.823874
1184.000000	57.824005
1183.000000	57.833273
1182.000000	57.845137
1181.000000	57.846269
1180.000000	57.854970
1179.000000	57.871540
1178.000000	57.895666
1177.000000	57.903696
1176.000000	57.903505
1175.000000	57.919707
1174.000000	57.930774
1173.000000	57.952219
1172.000000	57.975083
1171.000000	57.990890
1170.000000	58.015483
1169.000000	58.037773
1168.000000	58.041944
1167.000000	58.058022
1166.000000	58.080718
1165.000000	58.103680
1164.000000	58.132031
1163.000000	58.117750
1162.000000	58.089799
1161.000000	58.123813
1160.000000	58.153784
1159.000000	58.176404
1158.000000	58.193126
1157.000000	58.203909
1156.000000	58.227775
1155.000000	58.249528
1154.000000	58.263631
1153.000000	58.280246
1152.000000	58.292764
1151.000000	58.309164
1150.000000	58.325902
1149.000000	58.341889
1148.000000	58.357022
1147.000000	58.360590
1146.000000	58.370121
1145.000000	58.347687
1144.000000	58.340118
1143.000000	58.367370
1142.000000	58.380055
1141.000000	58.391875
1140.000000	58.401803
1139.000000	58.405794
1138.000000	58.410737
1137.000000	58.428329
1136.000000	58.442763
1135.000000	58.459596
1134.000000	58.477979
1133.000000	58.480312
1132.000000	58.439995
1131.000000	58.434175
1130.000000	58.450291
1129.000000	58.451671
1128.000000	58.460144
1127.000000	58.481522
1126.000000	58.480957
1125.000000	58.475567
1124.000000	58.468751
1123.000000	58.486643
1122.000000	58.505826
1121.000000	58.508090
1120.000000	58.501558
1119.000000	58.501724
1118.000000	58.497135
1117.000000	58.494799
1116.000000	58.503552
1115.000000	58.507019
1114.000000	58.497219
1113.000000	58.501936
1112.000000	58.499756
1111.000000	58.497609
1110.000000	58.499376
1109.000000	58.445221
1108.000000	58.441272
1107.000000	58.452404
1106.000000	58.440751
1105.000000	58.438525
1104.000000	58.444801
1103.000000	58.450542
1102.000000	58.465310
1101.000000	58.455365
1100.000000	58.460841
1099.000000	58.459824
1098.000000	58.464578
1097.000000	58.422278
1096.000000	58.402815
1095.000000	58.412871
1094.000000	58.415132
1093.000000	58.412218
1092.000000	58.419230
1091.000000	58.416130
1090.000000	58.419163
1089.000000	58.367143
1088.000000	58.366999
1087.000000	58.344062
1086.000000	58.366682
1085.000000	58.377526
1084.000000	58.355687
1083.000000	58.330591
1082.000000	58.310961
1081.000000	58.313399
1080.000000	58.299108
1079.000000	58.320440
1078.000000	58.320647
1077.000000	58.316055
1076.000000	58.270891
1075.000000	58.271733
1074.000000	58.256054
1073.000000	58.248954
1072.000000	58.260634
1071.000000	58.259919
1070.000000	58.252719
1069.000000	58.203754
1068.000000	58.223208
1067.000000	58.208318
1066.000000	58.202824
1065.000000	58.215810
1064.000000	58.217798
1063.000000	58.213258
1062.000000	58.201758
1061.000000	58.130037
1060.000000	58.127152
1059.000000	58.143403
1058.000000	58.130376
1057.000000	58.155165
1056.000000	58.126666
1055.000000	58.077580
1054.000000	58.070365
1053.000000	58.086078
1052.000000	58.095623
1051.000000	58.098688
1050.000000	58.021446
1049.000000	58.064141
1048.000000	58.028671
1047.000000	58.042141
1046.000000	57.990280
1045.000000	58.002819
1044.000000	57.995341
1043.000000	57.972640
1042.000000	57.994465
1041.000000	57.952242
1040.000000	57.932209
1039.000000	57.937909
1038.000000	57.934669
1037.000000	57.885032
1036.000000	57.889955
1035.000000	57.911784
1034.000000	57.899521
1033.000000	57.844306
1032.000000	57.853679
1031.000000	57.851930
1030.000000	57.852215
1029.000000	57.794155
1028.000000	57.820131
1027.000000	57.801734
1026.000000	57.763479
1025.000000	57.767955
1024.000000	57.779012
1023.000000	57.771845
1022.000000	57.723874
1021.000000	57.732276
1020.000000	57.739980
1019.000000	57.694669
1018.000000	57.700287
1017.000000	57.701215
1016.000000	57.691524
1015.000000	57.656555
1014.000000	57.666123
1013.000000	57.639313
1012.000000	57.647139
1011.000000	57.641366
1010.000000	57.640152
1009.000000	57.605715
1008.000000	57.592862
1007.000000	57.554152
1006.000000	57.569449
1005.000000	57.566136
1004.000000	57.555313
1003.000000	57.556338
1002.000000	57.553851
1001.000000	57.522654
1000.000000	57.521648
999.000000	57.545797
998.000000	57.544936
997.000000	57.539021
996.000000	57.552992
995.000000	57.550859
994.000000	57.540178
993.000000	57.547747
992.000000	57.536291
991.000000	57.525057
990.000000	57.527977
989.000000	57.537885
988.000000	57.523741
987.000000	57.531359
986.000000	57.542232
985.000000	57.544106
984.000000	57.542417
983.000000	57.546842
982.000000	57.530804
981.000000	57.518008
980.000000	57.515673
979.000000	57.520682
978.000000	57.517624
977.000000	57.503853
976.000000	57.507712
975.000000	57.516413
974.000000	57.509644
973.000000	57.488940
972.000000	57.482173
971.000000	57.496356
970.000000	57.499555
969.000000	57.493808
968.000000	57.483872
967.000000	57.474444
966.000000	57.456867
965.000000	57.452885
964.000000	57.462315
963.000000	57.453578
962.000000	57.471026
961.000000	57.474391
960.000000	57.449696
959.000000	57.448460
958.000000	57.446470
957.000000	57.428219
956.000000	57.414037
955.000000	57.425289
954.000000	57.425188
953.000000	57.414707
952.000000	57.432674
951.000000	57.419593
950.000000	57.418511
949.000000	57.421508
948.000000	57.397395
947.000000	57.398491
946.000000	57.402759
945.000000	57.393588
944.000000	57.381181
943.000000	57.367669
942.000000	57.351865
941.000000	57.346691
940.000000	57.341482
939.000000	57.349863
938.000000	57.353634
937.000000	57.317765
936.000000	57.286321
935.000000	57.283456
934.000000	57.287752
933.000000	57.280755
932.000000	57.266141
931.000000	57.266167
930.000000	57.275052
929.000000	57.280309
928.000000	57.249854
927.000000	57.239768
926.000000	57.256321
925.000000	57.245891
924.000000	57.223128
923.000000	57.186571
922.000000	57.167833
921.000000	57.150277
920.000000	57.143388
919.000000	57.170437
918.000000	57.159474
917.000000	57.139934
916.000000	57.133510
915.000000	57.108535
914.000000	57.119702
913.000000	57.101323
912.000000	57.079702
911.000000	57.083122
910.000000	57.077156
909.000000	57.080423
908.000000	57.088831
907.000000	57.065300
906.000000	57.031669
905.000000	57.050063
904.000000	57.049110
903.000000	57.046388
902.000000	57.063390
901.000000	56.996445
900.000000	56.987577
899.000000	56.992590
898.000000	56.992389
897.000000	56.997794
896.000000	56.974483
895.000000	56.957553
894.000000	56.944727
893.000000	56.938914
892.000000	56.922126
891.000000	56.923729
890.000000	56.938574
889.000000	56.957861
888.000000	56.939303
887.000000	56.925108
886.000000	56.910527
885.000000	56.976315
884.000000	57.033755
883.000000	56.946685
882.000000	56.937625
881.000000	56.933068
880.000000	56.885073
879.000000	56.846821
878.000000	56.852880
877.000000	56.843531
876.000000	56.789915
875.000000	56.767958
874.000000	56.842312
873.000000	56.827226
872.000000	56.748997
871.000000	56.776491
870.000000	56.857925
869.000000	56.709734
868.000000	56.700818
867.000000	56.743388
866.000000	56.683157
865.000000	56.702455
864.000000	56.740055
863.000000	56.620392
862.000000	56.727748
861.000000	56.738201
860.000000	56.764074
859.000000	57.528769
858.000000	57.902847
857.000000	58.443387
856.000000	57.993424
855.000000	57.762850
854.000000	58.060472
853.000000	58.134694
852.000000	58.045774
851.000000	57.736378
850.000000	57.805275
849.000000	57.912495
848.000000	57.890350
847.000000	57.928255
846.000000	57.860189
845.000000	57.837928
844.000000	57.861395
843.000000	57.927429
842.000000	57.941618
841.000000	57.959089
840.000000	57.797516
839.000000	57.878072
838.000000	57.593076
837.000000	57.741585
836.000000	57.658515
835.000000	57.766264
834.000000	57.808354
833.000000	57.641249
832.000000	57.561259
831.000000	57.607297
830.000000	57.520664
829.000000	57.583273
828.000000	57.643377
827.000000	57.505397
826.000000	57.476155
825.000000	57.332152
824.000000	57.432372
823.000000	57.412809
822.000000	57.400856
821.000000	57.517810
820.000000	57.351175
819.000000	57.181547
818.000000	57.305906
817.000000	57.372646
816.000000	57.296344
815.000000	57.385193
814.000000	57.229665
813.000000	57.286091
812.000000	57.181054
811.000000	57.207691
810.000000	57.207946
809.000000	57.030852
808.000000	57.186595
807.000000	57.218622
806.000000	57.102025
805.000000	57.010216
804.000000	57.202603
803.000000	57.059344
802.000000	56.887506
801.000000	57.015180
800.000000	56.894194
799.000000	56.955733
798.000000	56.901224
797.000000	56.948785
796.000000	56.873631
795.000000	56.821969
794.000000	56.835386
793.000000	56.803877
792.000000	56.719055
791.000000	56.762056
790.000000	56.645071
789.000000	56.641374
788.000000	56.585845
787.000000	56.607344
786.000000	56.597494
785.000000	56.607868
784.000000	56.584526
783.000000	56.533175
782.000000	56.502492
781.000000	56.420606
780.000000	56.483003
779.000000	56.522347
778.000000	56.517080
777.000000	56.345631
776.000000	56.346242
775.000000	56.255039
774.000000	56.297364
773.000000	56.424321
772.000000	56.314583
771.000000	56.200919
770.000000	56.145229
769.000000	56.074854
768.000000	56.106441
767.000000	56.101595
766.000000	56.105210
765.000000	56.084514
764.000000	56.005798
763.000000	55.980447
762.000000	55.916845
761.000000	55.818771
760.000000	55.788586
759.000000	55.833860
758.000000	55.784732
757.000000	55.731873
756.000000	55.650522
755.000000	55.682967
754.000000	55.627106
753.000000	55.618857
752.000000	55.530255
751.000000	55.527026
750.000000	55.512713
749.000000	55.465110
748.000000	55.440482
747.000000	55.405576
746.000000	55.304006
745.000000	55.232825
744.000000	55.232143
743.000000	55.225518
742.000000	55.125134
741.000000	55.086073
740.000000	55.091965
739.000000	55.099912
738.000000	55.068381
737.000000	54.998195
736.000000	54.856410
735.000000	54.865772
734.000000	54.854057
733.000000	54.791912
732.000000	54.737946
731.000000	54.674340
730.000000	54.655034
729.000000	54.623369
728.000000	54.568253
727.000000	54.582277
726.000000	54.554053
725.000000	54.457421
724.000000	54.351949
723.000000	54.312332
722.000000	54.300970
721.000000	54.281562
720.000000	54.220560
719.000000	54.155025
718.000000	54.106553
717.000000	54.007723
716.000000	53.972062
715.000000	53.959873
714.000000	53.910190
713.000000	53.872989
712.000000	53.823942
711.000000	53.772243
710.000000	53.740332
709.000000	53.704517
708.000000	53.635573
707.000000	53.522539
706.000000	53.464791
705.000000	53.394996
704.000000	53.334223
703.000000	53.308433
702.000000	53.260422
701.000000	53.196953
700.000000	53.143037
699.000000	53.085265
698.000000	53.043693
697.000000	52.987275
696.000000	52.915204
695.000000	52.872016
694.000000	52.825644
693.000000	52.765068
692.000000	52.702838
691.000000	52.653733
690.000000	52.581617
689.000000	52.464538
688.000000	52.365599
687.000000	52.341809
686.000000	52.317447
685.000000	52.239742
684.000000	52.178331
683.000000	52.155632
682.000000	52.049029
681.000000	51.945702
680.000000	51.974006
679.000000	51.946066
678.000000	51.885558
677.000000	51.791740
676.000000	51.693636
675.000000	51.597986
674.000000	51.507658
673.000000	51.430038
672.000000	51.367346
671.000000	51.364492
670.000000	51.271005
669.000000	51.174502
668.000000	51.074660
667.000000	51.005390
666.000000	50.958301
665.000000	50.887300
664.000000	50.830650
663.000000	50.775423
662.000000	50.670518
661.000000	50.628477
660.000000	50.539561
659.000000	50.493007
658.000000	50.410213
657.000000	50.345816
656.000000	50.222088
655.000000	50.139215
654.000000	50.073991
653.000000	50.000641
652.000000	49.907415
651.000000	49.801539
650.000000	49.753853
649.000000	49.657038
648.000000	49.575542
647.000000	49.531658
646.000000	49.461022
645.000000	49.373089
644.000000	49.312428
643.000000	49.247922
642.000000	49.145701
641.000000	49.065243
640.000000	48.995263
639.000000	48.871510
638.000000	48.814079
637.000000	48.720239
636.000000	48.626546
635.000000	48.484448
634.000000	48.415057
633.000000	48.344861
632.000000	48.253483
631.000000	48.195479
630.000000	48.137765
629.000000	48.060461
628.000000	47.934420
627.000000	47.831274
626.000000	47.746731
625.000000	47.713812
624.000000	47.641153
623.000000	47.553214
622.000000	47.440548
621.000000	47.302558
620.000000	47.215337
619.000000	47.150320
618.000000	47.061969
617.000000	46.994896
616.000000	46.890692
615.000000	46.762217
614.000000	46.701939
613.000000	46.577602
612.000000	46.500075
611.000000	46.446113
610.000000	46.402525
609.000000	46.234806
608.000000	46.126926
607.000000	46.025541
606.000000	45.997486
605.000000	45.886772
604.000000	45.779752
603.000000	45.697701
602.000000	45.566313
601.000000	45.514142
600.000000	45.412004
599.000000	45.304268
598.000000	45.215589
597.000000	45.082554
596.000000	44.967942
595.000000	44.910956
594.000000	44.803217
593.000000	44.735285
592.000000	44.609027
591.000000	44.468388
590.000000	44.382940
589.000000	44.297607
588.000000	44.180675
587.000000	44.067323
586.000000	43.958802
585.000000	43.857457
584.000000	43.765936
583.000000	43.697196
582.000000	43.596739
581.000000	43.408009
580.000000	43.337239
579.000000	43.204181
578.000000	43.136681
577.000000	43.041595
576.000000	42.930962
575.000000	42.815010
574.000000	42.716086
573.000000	42.603080
572.000000	42.492825
571.000000	42.366328
570.000000	42.274590
569.000000	42.180067
568.000000	42.046411
567.000000	41.903123
566.000000	41.798338
565.000000	41.730977
564.000000	41.581516
563.000000	41.479144
562.000000	41.384688
561.000000	41.208192
560.000000	41.068443
559.000000	40.986390
558.000000	40.860296
557.000000	40.717646
556.000000	40.626344
555.000000	40.534870
554.000000	40.377898
553.000000	40.239428
552.000000	40.121735
551.000000	40.015776
550.000000	39.918958
549.000000	39.778985
548.000000	39.685460
547.000000	39.555097
546.000000	39.409082
545.000000	39.305828
544.000000	39.184968
543.000000	39.078877
542.000000	38.946977
541.000000	38.843247
540.000000	38.674389
539.000000	38.576413
538.000000	38.454876
537.000000	38.349860
536.000000	38.222454
535.000000	38.050738
534.000000	37.944225
533.000000	37.845161
532.000000	37.711609
531.000000	37.587746
530.000000	37.461460
529.000000	37.327372
528.000000	37.190141
527.000000	37.088438
526.000000	36.954253
525.000000	36.849605
524.000000	36.710245
523.000000	36.579619
522.000000	36.437693
521.000000	36.322434
520.000000	36.196966
519.000000	36.060040
518.000000	35.906469
517.000000	35.787548
516.000000	35.650738
515.000000	35.516971
514.000000	35.385751
513.000000	35.268790
512.000000	35.107674
511.000000	34.971204
510.000000	34.874777
509.000000	34.740341
508.000000	34.586524
507.000000	34.433324
506.000000	34.298467
505.000000	34.181418
504.000000	34.048366
503.000000	33.895379
502.000000	33.780224
501.000000	33.646725
500.000000	33.525666
499.000000	33.408290
498.000000	33.275843
497.000000	33.124655
496.000000	32.969555
495.000000	32.837032
494.000000	32.703573
493.000000	32.596240
492.000000	32.451792
491.000000	32.321318
490.000000	32.181544
489.000000	32.057615
488.000000	31.956854
487.000000	31.808772
486.000000	31.684158
485.000000	31.568915
484.000000	31.491804
483.000000	31.368637
482.000000	31.226981
481.000000	31.101868
480.000000	30.958217
479.000000	30.800826
478.000000	30.669327
477.000000	30.554542
476.000000	30.392251
475.000000	30.236662
474.000000	30.104317
473.000000	29.984897
472.000000	29.849063
471.000000	29.702850
470.000000	29.569607
469.000000	29.439103
468.000000	29.313349
467.000000	29.193184
466.000000	29.051851
465.000000	28.903706
464.000000	28.777590
463.000000	28.642186
462.000000	28.494619
461.000000	28.349465
460.000000	28.203482
459.000000	28.078283
458.000000	27.949849
457.000000	27.788134
456.000000	27.630696
455.000000	27.496325
454.000000	27.342787
453.000000	27.206796
452.000000	27.083938
451.000000	26.934053
450.000000	26.774286
449.000000	26.630392
448.000000	26.469463
447.000000	26.325730
446.000000	26.182847
445.000000	26.002098
444.000000	25.855792
443.000000	25.724267
442.000000	25.562528
441.000000	25.384060
440.000000	25.220989
439.000000	25.066307
438.000000	24.927394
437.000000	24.769473
436.000000	24.609626
435.000000	24.438408
434.000000	24.276875
433.000000	24.132793
432.000000	23.986448
431.000000	23.828495
430.000000	23.681632
429.000000	23.525978
428.000000	23.357612
427.000000	23.192278
426.000000	23.055258
425.000000	22.892938
424.000000	22.723750
423.000000	22.581142
422.000000	22.451073
421.000000	22.284012
420.000000	22.119570
419.000000	21.976293
418.000000	21.847701
417.000000	21.683864
416.000000	21.493446
415.000000	21.347027
414.000000	21.202242
413.000000	21.068489
412.000000	20.882236
411.000000	20.730944
410.000000	20.572933
409.000000	20.438866
408.000000	20.281587
407.000000	20.117263
406.000000	19.985632
405.000000	19.834908
404.000000	19.669794
403.000000	19.530863
402.000000	19.391412
401.000000	19.238293
400.000000	19.084555
399.000000	18.932215
398.000000	18.776248
397.000000	18.622928
396.000000	18.482020
395.000000	18.318212
394.000000	18.181995
393.000000	18.017635
392.000000	17.882941
391.000000	17.706911
390.000000	17.587053
389.000000	17.412348
388.000000	17.269793
387.000000	17.129336
386.000000	16.958142
385.000000	16.835144
384.000000	16.697673
383.000000	16.536461
382.000000	16.376767
381.000000	16.232170
380.000000	16.090527
379.000000	15.943122
378.000000	15.794585
377.000000	15.748764
376.000000	15.557114
375.000000	15.418501
374.000000	15.243300
373.000000	15.110317
372.000000	14.953303
371.000000	14.821914
370.000000	14.731891
369.000000	14.575359
368.000000	14.478032
367.000000	14.261344
366.000000	14.163277
365.000000	14.056242
364.000000	13.934393
363.000000	13.810966
362.000000	13.660390
361.000000	13.552337
360.000000	13.435485
359.000000	13.332262
358.000000	13.157446
357.000000	13.111264
356.000000	12.917758
355.000000	12.821844
354.000000	12.695215
353.000000	12.589332
352.000000	12.538080
351.000000	12.355771
350.000000	12.323143
349.000000	12.132105
348.000000	12.108088
347.000000	11.939663
346.000000	11.871382
345.000000	11.815466
344.000000	11.644908
343.000000	11.570258
342.000000	11.495628
341.000000	11.355797
340.000000	11.248859
339.000000	11.124194
338.000000	11.081999
337.000000	10.923222
336.000000	10.825199
335.000000	10.714125
334.000000	10.676991
333.000000	10.558581
332.000000	10.468991
331.000000	10.356271
330.000000	10.282998
329.000000	10.225821
328.000000	10.207203
327.000000	9.968872
326.000000	9.906910
325.000000	9.856398
324.000000	9.752949
323.000000	9.701050
322.000000	9.696076
321.000000	9.569270
320.000000	9.482909
319.000000	9.372063
318.000000	9.481970
317.000000	9.379770
316.000000	9.363333
315.000000	9.287540
314.000000	9.214701
313.000000	9.187763
312.000000	9.121500
311.000000	9.021291
310.000000	9.037345
309.000000	8.985498
308.000000	8.980192
307.000000	8.922845
306.000000	8.926943
305.000000	8.839766
304.000000	8.792827
303.000000	8.769051
302.000000	8.770038
301.000000	8.719445
300.000000	8.642729
299.000000	8.627247
298.000000	8.591181
297.000000	8.629355
296.000000	8.524221
295.000000	8.522315
294.000000	8.517637
293.000000	8.445704
292.000000	8.424306
291.000000	8.382642
290.000000	8.371103
289.000000	8.308302
288.000000	8.346320
287.000000	8.337425
286.000000	8.285801
285.000000	8.277008
284.000000	8.247436
283.000000	8.244714
282.000000	8.236829
281.000000	8.274774
280.000000	8.319824
279.000000	8.334430
278.000000	8.346773
277.000000	8.351345
276.000000	8.386539
275.000000	8.413637
274.000000	8.406706
273.000000	8.482467
272.000000	8.542431
271.000000	8.564186
270.000000	8.580941
269.000000	8.604065
268.000000	8.654371
267.000000	8.720600
266.000000	8.804477
265.000000	8.822331
264.000000	8.861409
263.000000	8.944714
262.000000	8.974671
261.000000	9.055817
260.000000	9.159225
259.000000	9.213614
258.000000	9.261309
257.000000	9.320396
256.000000	9.396093
255.000000	9.509768
254.000000	9.565405
253.000000	9.623684
252.000000	9.676689
251.000000	9.748468
250.000000	9.819474
249.000000	9.888660
248.000000	9.972368
247.000000	10.041656
246.000000	10.091027
245.000000	10.126800
244.000000	10.138256
243.000000	10.168319
242.000000	10.230450
241.000000	10.251417
240.000000	10.282500
239.000000	10.178401
238.000000	10.069647
237.000000	10.075041
236.000000	10.055356
235.000000	10.045269
234.000000	10.000971
233.000000	9.936263
232.000000	9.874285
231.000000	9.792284
230.000000	9.715386
229.000000	9.621724
228.000000	9.564803
227.000000	9.583920
226.000000	9.562843
225.000000	9.537659
224.000000	9.552622
223.000000	9.537475
222.000000	9.530344
221.000000	9.538394
220.000000	9.563423
219.000000	9.656030
218.000000	9.696786
217.000000	9.676209
216.000000	9.764142
215.000000	9.823532
214.000000	9.920079
213.000000	10.005634
212.000000	10.094300
211.000000	10.278228
210.000000	10.405095
209.000000	10.524219
208.000000	10.707032
207.000000	10.821959
206.000000	11.038749
205.000000	11.354861
204.000000	11.685760
203.000000	11.902513
202.000000	12.140596
201.000000	12.442794
200.000000	12.722981
