PE UV       SUBTECH     SPECTRUM    ASCII       PEDS        4.00        
   -1
RTms159331.Sample.asc
18/03/13
14:23:35.00
18/03/13
14:23:35.00
Administrator

200.000000
1
Lambda 750
750N8071901
PerkinElmer UV WinLab 6.0.4.0738 / 1.61.00 Lambda 900

0
0
3350/servo 860.8/2
0
0
UV/VIS
1
1
1
CommonBeamDepol,150mm sphere / downward view
0
0
0
0
Program
Program
3350/servo 860.8/2
3350/0.2 860.8/0.2
3350/0.2 860.8/0.2
0
1
 
 
 
0
 
860.8
319.2
860.8
Front
100
on
 
 
0
0
0
 
0
 
 
 
0
 
 
0
0
0
0
0
 
 
 
 
0
0


0
0
#HDR
-1
-1
#GR
nm
%R
1.0
0.0
2350.000000
-1.000000
2151
8
53.644797
6.369895
#DATA
2350.000000	21.738514
2349.000000	22.187348
2348.000000	21.411001
2347.000000	22.503473
2346.000000	22.212710
2345.000000	22.346641
2344.000000	22.088072
2343.000000	22.129956
2342.000000	22.242397
2341.000000	22.677152
2340.000000	22.762233
2339.000000	22.919011
2338.000000	22.653620
2337.000000	23.075808
2336.000000	22.877249
2335.000000	22.973400
2334.000000	23.013336
2333.000000	22.900564
2332.000000	23.113593
2331.000000	23.166112
2330.000000	23.115200
2329.000000	22.969698
2328.000000	23.260791
2327.000000	22.998642
2326.000000	22.919015
2325.000000	22.702726
2324.000000	22.985211
2323.000000	22.693792
2322.000000	22.646730
2321.000000	22.841221
2320.000000	22.723168
2319.000000	22.528037
2318.000000	22.395396
2317.000000	22.414348
2316.000000	22.460477
2315.000000	22.099858
2314.000000	21.991929
2313.000000	22.003164
2312.000000	22.004231
2311.000000	22.019498
2310.000000	21.846772
2309.000000	21.993647
2308.000000	21.860609
2307.000000	21.806858
2306.000000	21.674438
2305.000000	21.814511
2304.000000	21.672412
2303.000000	21.730335
2302.000000	21.743821
2301.000000	21.620134
2300.000000	21.427642
2299.000000	21.198100
2298.000000	21.330631
2297.000000	21.268844
2296.000000	21.263445
2295.000000	20.921041
2294.000000	20.820142
2293.000000	21.034352
2292.000000	20.970428
2291.000000	20.993976
2290.000000	21.076458
2289.000000	21.024380
2288.000000	21.048946
2287.000000	21.085779
2286.000000	20.842767
2285.000000	20.697792
2284.000000	20.799990
2283.000000	20.880415
2282.000000	20.834808
2281.000000	20.853546
2280.000000	20.787902
2279.000000	20.890677
2278.000000	20.907091
2277.000000	20.787309
2276.000000	20.875522
2275.000000	21.058360
2274.000000	21.110154
2273.000000	21.160352
2272.000000	21.235504
2271.000000	21.271091
2270.000000	21.381399
2269.000000	21.375543
2268.000000	21.371088
2267.000000	21.489687
2266.000000	21.623601
2265.000000	21.739376
2264.000000	21.864566
2263.000000	21.945794
2262.000000	22.123955
2261.000000	22.301294
2260.000000	22.528698
2259.000000	22.704091
2258.000000	22.776119
2257.000000	22.843645
2256.000000	23.039692
2255.000000	23.242855
2254.000000	23.381627
2253.000000	23.589803
2252.000000	23.724847
2251.000000	23.957749
2250.000000	24.240927
2249.000000	24.386621
2248.000000	24.654293
2247.000000	24.826059
2246.000000	24.912852
2245.000000	25.103120
2244.000000	25.375771
2243.000000	25.573955
2242.000000	25.744041
2241.000000	25.816377
2240.000000	25.885724
2239.000000	26.057278
2238.000000	26.186126
2237.000000	26.294759
2236.000000	26.267168
2235.000000	26.434596
2234.000000	26.639529
2233.000000	26.631938
2232.000000	26.822782
2231.000000	26.826432
2230.000000	26.755409
2229.000000	26.919990
2228.000000	26.927029
2227.000000	26.801857
2226.000000	26.975207
2225.000000	27.023505
2224.000000	26.988051
2223.000000	26.976889
2222.000000	26.907736
2221.000000	26.906039
2220.000000	26.934897
2219.000000	26.964551
2218.000000	26.864898
2217.000000	26.845240
2216.000000	26.814418
2215.000000	26.717164
2214.000000	26.589875
2213.000000	26.607386
2212.000000	26.506280
2211.000000	26.464587
2210.000000	26.398010
2209.000000	26.309176
2208.000000	26.302666
2207.000000	26.269528
2206.000000	26.190034
2205.000000	26.068674
2204.000000	25.866352
2203.000000	25.908033
2202.000000	25.811731
2201.000000	25.734551
2200.000000	25.802339
2199.000000	25.761968
2198.000000	25.734465
2197.000000	25.601342
2196.000000	25.363484
2195.000000	25.274685
2194.000000	25.197240
2193.000000	25.064310
2192.000000	25.117091
2191.000000	25.051770
2190.000000	24.997881
2189.000000	24.991592
2188.000000	24.827633
2187.000000	24.817009
2186.000000	24.805473
2185.000000	24.746185
2184.000000	24.782029
2183.000000	24.713136
2182.000000	24.686879
2181.000000	24.589791
2180.000000	24.590796
2179.000000	24.601714
2178.000000	24.552371
2177.000000	24.472845
2176.000000	24.312799
2175.000000	24.433485
2174.000000	24.558013
2173.000000	24.675165
2172.000000	24.698225
2171.000000	24.695030
2170.000000	24.756977
2169.000000	24.724279
2168.000000	24.899910
2167.000000	24.863212
2166.000000	24.876410
2165.000000	24.995446
2164.000000	25.061253
2163.000000	25.161549
2162.000000	25.283606
2161.000000	25.438054
2160.000000	25.533922
2159.000000	25.677760
2158.000000	25.817271
2157.000000	25.898050
2156.000000	26.000459
2155.000000	26.232692
2154.000000	26.348736
2153.000000	26.553924
2152.000000	26.666392
2151.000000	26.880576
2150.000000	26.795921
2149.000000	26.973912
2148.000000	27.035218
2147.000000	27.079828
2146.000000	27.383686
2145.000000	27.514052
2144.000000	27.602419
2143.000000	27.589753
2142.000000	27.941854
2141.000000	28.080650
2140.000000	28.189500
2139.000000	28.260237
2138.000000	28.497673
2137.000000	28.509713
2136.000000	28.536987
2135.000000	28.805462
2134.000000	28.838395
2133.000000	28.840688
2132.000000	28.895218
2131.000000	29.156391
2130.000000	29.291971
2129.000000	29.319418
2128.000000	29.201332
2127.000000	29.377564
2126.000000	29.610062
2125.000000	29.562950
2124.000000	29.502712
2123.000000	29.710440
2122.000000	29.708930
2121.000000	29.764711
2120.000000	29.788598
2119.000000	29.906476
2118.000000	29.974136
2117.000000	29.975008
2116.000000	29.848186
2115.000000	29.950143
2114.000000	29.974102
2113.000000	30.096291
2112.000000	30.141519
2111.000000	30.120868
2110.000000	30.069268
2109.000000	29.990730
2108.000000	30.060162
2107.000000	30.279003
2106.000000	30.197359
2105.000000	30.159369
2104.000000	30.189244
2103.000000	30.202002
2102.000000	30.180518
2101.000000	30.325253
2100.000000	30.306025
2099.000000	30.274322
2098.000000	30.235047
2097.000000	30.301448
2096.000000	30.307285
2095.000000	30.297585
2094.000000	30.293323
2093.000000	30.191170
2092.000000	30.281538
2091.000000	30.303256
2090.000000	30.203730
2089.000000	30.213969
2088.000000	30.120317
2087.000000	30.132147
2086.000000	30.042694
2085.000000	30.085152
2084.000000	29.949757
2083.000000	29.933663
2082.000000	29.891842
2081.000000	29.723844
2080.000000	29.661496
2079.000000	29.609510
2078.000000	29.519432
2077.000000	29.476116
2076.000000	29.393172
2075.000000	29.240965
2074.000000	29.149693
2073.000000	29.035025
2072.000000	28.904978
2071.000000	28.770723
2070.000000	28.636982
2069.000000	28.498173
2068.000000	28.305632
2067.000000	28.174983
2066.000000	28.052186
2065.000000	27.889903
2064.000000	27.733168
2063.000000	27.584311
2062.000000	27.426143
2061.000000	27.270225
2060.000000	27.131652
2059.000000	26.941073
2058.000000	26.876597
2057.000000	26.758050
2056.000000	26.550807
2055.000000	26.482937
2054.000000	26.363921
2053.000000	26.228736
2052.000000	26.035319
2051.000000	25.898185
2050.000000	25.836904
2049.000000	25.763359
2048.000000	25.684371
2047.000000	25.652965
2046.000000	25.565777
2045.000000	25.473957
2044.000000	25.457371
2043.000000	25.469550
2042.000000	25.510687
2041.000000	25.483218
2040.000000	25.513557
2039.000000	25.543256
2038.000000	25.570890
2037.000000	25.565597
2036.000000	25.652864
2035.000000	25.774026
2034.000000	25.829534
2033.000000	25.914310
2032.000000	26.008928
2031.000000	26.075992
2030.000000	26.165546
2029.000000	26.270465
2028.000000	26.405065
2027.000000	26.534948
2026.000000	26.630572
2025.000000	26.698152
2024.000000	26.756787
2023.000000	26.840121
2022.000000	26.852860
2021.000000	26.890655
2020.000000	26.934805
2019.000000	26.942112
2018.000000	26.957764
2017.000000	26.947133
2016.000000	26.921713
2015.000000	26.922164
2014.000000	26.918449
2013.000000	26.854932
2012.000000	26.810373
2011.000000	26.800117
2010.000000	26.715232
2009.000000	26.649947
2008.000000	26.588138
2007.000000	26.488049
2006.000000	26.377072
2005.000000	26.295693
2004.000000	26.237269
2003.000000	26.120393
2002.000000	26.017003
2001.000000	25.884591
2000.000000	25.761263
1999.000000	25.692076
1998.000000	25.574426
1997.000000	25.494641
1996.000000	25.384974
1995.000000	25.202496
1994.000000	25.092398
1993.000000	25.003946
1992.000000	24.903598
1991.000000	24.753982
1990.000000	24.641559
1989.000000	24.521527
1988.000000	24.426363
1987.000000	24.324565
1986.000000	24.192091
1985.000000	24.081376
1984.000000	23.979847
1983.000000	23.895791
1982.000000	23.783989
1981.000000	23.708849
1980.000000	23.605424
1979.000000	23.448535
1978.000000	23.365044
1977.000000	23.233145
1976.000000	23.115353
1975.000000	23.012360
1974.000000	22.900414
1973.000000	22.803717
1972.000000	22.700171
1971.000000	22.611536
1970.000000	22.503369
1969.000000	22.440737
1968.000000	22.344866
1967.000000	22.229605
1966.000000	22.134172
1965.000000	22.021462
1964.000000	21.968392
1963.000000	21.902037
1962.000000	21.795383
1961.000000	21.706148
1960.000000	21.614552
1959.000000	21.544141
1958.000000	21.442450
1957.000000	21.373456
1956.000000	21.285152
1955.000000	21.207464
1954.000000	21.160342
1953.000000	21.122202
1952.000000	21.075882
1951.000000	20.980873
1950.000000	20.936453
1949.000000	20.897818
1948.000000	20.824883
1947.000000	20.848268
1946.000000	20.765584
1945.000000	20.741990
1944.000000	20.797793
1943.000000	20.808279
1942.000000	20.792286
1941.000000	20.814476
1940.000000	20.881010
1939.000000	20.899860
1938.000000	21.004788
1937.000000	21.077630
1936.000000	21.158377
1935.000000	21.172498
1934.000000	21.227105
1933.000000	21.304652
1932.000000	21.502891
1931.000000	21.526077
1930.000000	21.767298
1929.000000	21.836803
1928.000000	21.962754
1927.000000	22.094358
1926.000000	22.354710
1925.000000	22.523953
1924.000000	22.773530
1923.000000	23.026023
1922.000000	23.224424
1921.000000	23.499109
1920.000000	23.771133
1919.000000	24.095934
1918.000000	24.326634
1917.000000	24.613126
1916.000000	24.815580
1915.000000	25.302370
1914.000000	25.668691
1913.000000	26.045648
1912.000000	26.396222
1911.000000	26.763802
1910.000000	27.244218
1909.000000	27.647551
1908.000000	28.175920
1907.000000	28.640915
1906.000000	29.154822
1905.000000	29.576424
1904.000000	30.102693
1903.000000	30.612645
1902.000000	31.155441
1901.000000	31.733288
1900.000000	32.240718
1899.000000	32.864325
1898.000000	33.484938
1897.000000	33.956664
1896.000000	34.606252
1895.000000	35.118581
1894.000000	35.619125
1893.000000	36.204336
1892.000000	36.777644
1891.000000	37.361437
1890.000000	37.856688
1889.000000	38.329634
1888.000000	38.735238
1887.000000	39.295905
1886.000000	39.708142
1885.000000	40.198528
1884.000000	40.612316
1883.000000	41.082112
1882.000000	41.426955
1881.000000	41.873822
1880.000000	42.261492
1879.000000	42.596174
1878.000000	42.965897
1877.000000	43.273722
1876.000000	43.586803
1875.000000	43.886073
1874.000000	44.206799
1873.000000	44.431004
1872.000000	44.641978
1871.000000	44.853991
1870.000000	45.095059
1869.000000	45.261445
1868.000000	45.442772
1867.000000	45.552192
1866.000000	45.729575
1865.000000	45.832598
1864.000000	45.920000
1863.000000	46.010583
1862.000000	46.132905
1861.000000	46.205457
1860.000000	46.286859
1859.000000	46.345104
1858.000000	46.407769
1857.000000	46.427362
1856.000000	46.510226
1855.000000	46.577628
1854.000000	46.582291
1853.000000	46.621929
1852.000000	46.599850
1851.000000	46.620621
1850.000000	46.662545
1849.000000	46.628906
1848.000000	46.645206
1847.000000	46.678221
1846.000000	46.655086
1845.000000	46.635681
1844.000000	46.623459
1843.000000	46.590679
1842.000000	46.557837
1841.000000	46.508857
1840.000000	46.466542
1839.000000	46.436229
1838.000000	46.409048
1837.000000	46.325104
1836.000000	46.304019
1835.000000	46.247118
1834.000000	46.173810
1833.000000	46.135893
1832.000000	46.124293
1831.000000	46.071100
1830.000000	46.001246
1829.000000	45.960402
1828.000000	45.917896
1827.000000	45.877519
1826.000000	45.829541
1825.000000	45.791336
1824.000000	45.747778
1823.000000	45.705496
1822.000000	45.650239
1821.000000	45.615055
1820.000000	45.578325
1819.000000	45.549463
1818.000000	45.530621
1817.000000	45.497310
1816.000000	45.449571
1815.000000	45.401684
1814.000000	45.350977
1813.000000	45.298680
1812.000000	45.274707
1811.000000	45.239141
1810.000000	45.184181
1809.000000	45.151123
1808.000000	45.108815
1807.000000	45.065385
1806.000000	45.048934
1805.000000	45.009463
1804.000000	44.950165
1803.000000	44.929151
1802.000000	44.904294
1801.000000	44.852786
1800.000000	44.825719
1799.000000	44.820968
1798.000000	44.792072
1797.000000	44.762739
1796.000000	44.736261
1795.000000	44.703952
1794.000000	44.688493
1793.000000	44.646957
1792.000000	44.615424
1791.000000	44.605303
1790.000000	44.578702
1789.000000	44.558320
1788.000000	44.547773
1787.000000	44.508112
1786.000000	44.501271
1785.000000	44.484478
1784.000000	44.444422
1783.000000	44.409034
1782.000000	44.364760
1781.000000	44.342747
1780.000000	44.302080
1779.000000	44.266440
1778.000000	44.208544
1777.000000	44.148502
1776.000000	44.093587
1775.000000	44.020420
1774.000000	43.954618
1773.000000	43.904810
1772.000000	43.834507
1771.000000	43.779926
1770.000000	43.722124
1769.000000	43.661029
1768.000000	43.612221
1767.000000	43.555883
1766.000000	43.483513
1765.000000	43.439305
1764.000000	43.379099
1763.000000	43.333988
1762.000000	43.255346
1761.000000	43.209602
1760.000000	43.142466
1759.000000	43.088134
1758.000000	43.037340
1757.000000	42.984708
1756.000000	42.929036
1755.000000	42.876154
1754.000000	42.823230
1753.000000	42.734238
1752.000000	42.688426
1751.000000	42.642651
1750.000000	42.571345
1749.000000	42.512852
1748.000000	42.456240
1747.000000	42.358165
1746.000000	42.277719
1745.000000	42.185364
1744.000000	42.131535
1743.000000	42.072361
1742.000000	42.017313
1741.000000	41.931907
1740.000000	41.874625
1739.000000	41.801957
1738.000000	41.755568
1737.000000	41.696174
1736.000000	41.652093
1735.000000	41.632170
1734.000000	41.609647
1733.000000	41.587236
1732.000000	41.547964
1731.000000	41.583677
1730.000000	41.586553
1729.000000	41.582443
1728.000000	41.623931
1727.000000	41.684621
1726.000000	41.733612
1725.000000	41.787237
1724.000000	41.881760
1723.000000	41.957869
1722.000000	42.067655
1721.000000	42.163415
1720.000000	42.289830
1719.000000	42.383285
1718.000000	42.471765
1717.000000	42.580537
1716.000000	42.696308
1715.000000	42.803331
1714.000000	42.929480
1713.000000	42.985880
1712.000000	43.078803
1711.000000	43.197442
1710.000000	43.280457
1709.000000	43.352843
1708.000000	43.393190
1707.000000	43.414788
1706.000000	43.474996
1705.000000	43.526287
1704.000000	43.576463
1703.000000	43.602578
1702.000000	43.616372
1701.000000	43.664059
1700.000000	43.670649
1699.000000	43.698808
1698.000000	43.753542
1697.000000	43.768535
1696.000000	43.794983
1695.000000	43.822190
1694.000000	43.854697
1693.000000	43.920927
1692.000000	43.974488
1691.000000	44.067354
1690.000000	44.127521
1689.000000	44.242754
1688.000000	44.327385
1687.000000	44.473217
1686.000000	44.568506
1685.000000	44.659230
1684.000000	44.832772
1683.000000	44.978835
1682.000000	45.132875
1681.000000	45.330657
1680.000000	45.453147
1679.000000	45.624848
1678.000000	45.803643
1677.000000	46.008794
1676.000000	46.175331
1675.000000	46.343893
1674.000000	46.515666
1673.000000	46.706640
1672.000000	46.843052
1671.000000	47.004861
1670.000000	47.166737
1669.000000	47.336238
1668.000000	47.478663
1667.000000	47.595906
1666.000000	47.708402
1665.000000	47.800978
1664.000000	47.909205
1663.000000	47.979064
1662.000000	48.073322
1661.000000	48.131779
1660.000000	48.185362
1659.000000	48.262465
1658.000000	48.324792
1657.000000	48.364532
1656.000000	48.415323
1655.000000	48.439575
1654.000000	48.460653
1653.000000	48.479162
1652.000000	48.495933
1651.000000	48.480438
1650.000000	48.485290
1649.000000	48.503236
1648.000000	48.473893
1647.000000	48.470094
1646.000000	48.462724
1645.000000	48.454475
1644.000000	48.429417
1643.000000	48.408212
1642.000000	48.384875
1641.000000	48.334817
1640.000000	48.318978
1639.000000	48.303550
1638.000000	48.280539
1637.000000	48.249169
1636.000000	48.200303
1635.000000	48.161676
1634.000000	48.105200
1633.000000	48.055827
1632.000000	48.033116
1631.000000	47.989261
1630.000000	47.939393
1629.000000	47.891493
1628.000000	47.843570
1627.000000	47.782162
1626.000000	47.728300
1625.000000	47.686393
1624.000000	47.641465
1623.000000	47.594306
1622.000000	47.537164
1621.000000	47.466028
1620.000000	47.412742
1619.000000	47.373654
1618.000000	47.307304
1617.000000	47.243661
1616.000000	47.187841
1615.000000	47.127176
1614.000000	47.055260
1613.000000	46.987553
1612.000000	46.926333
1611.000000	46.859109
1610.000000	46.794959
1609.000000	46.732908
1608.000000	46.673370
1607.000000	46.605761
1606.000000	46.523103
1605.000000	46.456824
1604.000000	46.383724
1603.000000	46.307849
1602.000000	46.230449
1601.000000	46.163471
1600.000000	46.097501
1599.000000	46.024018
1598.000000	45.960625
1597.000000	45.893746
1596.000000	45.835638
1595.000000	45.769972
1594.000000	45.700002
1593.000000	45.643010
1592.000000	45.586355
1591.000000	45.534221
1590.000000	45.474554
1589.000000	45.399714
1588.000000	45.350063
1587.000000	45.297234
1586.000000	45.230874
1585.000000	45.186809
1584.000000	45.144133
1583.000000	45.081078
1582.000000	45.019413
1581.000000	44.964979
1580.000000	44.905330
1579.000000	44.855934
1578.000000	44.814847
1577.000000	44.749954
1576.000000	44.696776
1575.000000	44.648183
1574.000000	44.582582
1573.000000	44.521049
1572.000000	44.472289
1571.000000	44.425984
1570.000000	44.376331
1569.000000	44.325467
1568.000000	44.282550
1567.000000	44.245133
1566.000000	44.196221
1565.000000	44.155972
1564.000000	44.113671
1563.000000	44.082512
1562.000000	44.050759
1561.000000	44.004877
1560.000000	43.959293
1559.000000	43.925953
1558.000000	43.884928
1557.000000	43.862684
1556.000000	43.841066
1555.000000	43.794159
1554.000000	43.739771
1553.000000	43.710138
1552.000000	43.683573
1551.000000	43.629924
1550.000000	43.565035
1549.000000	43.514529
1548.000000	43.468835
1547.000000	43.416009
1546.000000	43.344588
1545.000000	43.283989
1544.000000	43.185402
1543.000000	43.106245
1542.000000	43.036164
1541.000000	42.949412
1540.000000	42.864160
1539.000000	42.759785
1538.000000	42.646826
1537.000000	42.554748
1536.000000	42.459575
1535.000000	42.366193
1534.000000	42.283874
1533.000000	42.199078
1532.000000	42.103774
1531.000000	42.008572
1530.000000	41.933844
1529.000000	41.846617
1528.000000	41.758618
1527.000000	41.682925
1526.000000	41.613437
1525.000000	41.531560
1524.000000	41.467729
1523.000000	41.404929
1522.000000	41.339732
1521.000000	41.287079
1520.000000	41.227000
1519.000000	41.177713
1518.000000	41.145261
1517.000000	41.096205
1516.000000	41.063705
1515.000000	41.007131
1514.000000	40.964579
1513.000000	40.967038
1512.000000	40.916054
1511.000000	40.872726
1510.000000	40.845648
1509.000000	40.864711
1508.000000	40.843121
1507.000000	40.858114
1506.000000	40.864050
1505.000000	40.827282
1504.000000	40.793613
1503.000000	40.745567
1502.000000	40.730282
1501.000000	40.700980
1500.000000	40.699599
1499.000000	40.676995
1498.000000	40.685425
1497.000000	40.659482
1496.000000	40.666481
1495.000000	40.656908
1494.000000	40.654453
1493.000000	40.665116
1492.000000	40.689105
1491.000000	40.706209
1490.000000	40.717248
1489.000000	40.754511
1488.000000	40.764710
1487.000000	40.764436
1486.000000	40.807485
1485.000000	40.819391
1484.000000	40.816310
1483.000000	40.841433
1482.000000	40.852196
1481.000000	40.922285
1480.000000	40.932288
1479.000000	40.968892
1478.000000	41.000306
1477.000000	41.029716
1476.000000	41.065974
1475.000000	41.085317
1474.000000	41.096270
1473.000000	41.145596
1472.000000	41.174723
1471.000000	41.191048
1470.000000	41.207415
1469.000000	41.248362
1468.000000	41.307101
1467.000000	41.322895
1466.000000	41.347918
1465.000000	41.374886
1464.000000	41.412761
1463.000000	41.455331
1462.000000	41.480825
1461.000000	41.491564
1460.000000	41.551629
1459.000000	41.572146
1458.000000	41.630648
1457.000000	41.649000
1456.000000	41.699752
1455.000000	41.726627
1454.000000	41.793380
1453.000000	41.852305
1452.000000	41.883191
1451.000000	41.924886
1450.000000	41.970108
1449.000000	42.035954
1448.000000	42.118912
1447.000000	42.184187
1446.000000	42.245008
1445.000000	42.298658
1444.000000	42.352398
1443.000000	42.418828
1442.000000	42.499586
1441.000000	42.593210
1440.000000	42.686094
1439.000000	42.772488
1438.000000	42.848273
1437.000000	42.933830
1436.000000	43.008525
1435.000000	43.108952
1434.000000	43.214094
1433.000000	43.318839
1432.000000	43.428190
1431.000000	43.539743
1430.000000	43.663338
1429.000000	43.796275
1428.000000	43.920547
1427.000000	44.049904
1426.000000	44.206301
1425.000000	44.346007
1424.000000	44.495705
1423.000000	44.647971
1422.000000	44.814845
1421.000000	44.959117
1420.000000	45.117007
1419.000000	45.300501
1418.000000	45.472073
1417.000000	45.630029
1416.000000	45.816464
1415.000000	46.021149
1414.000000	46.206716
1413.000000	46.397329
1412.000000	46.591196
1411.000000	46.776642
1410.000000	46.955966
1409.000000	47.157798
1408.000000	47.369243
1407.000000	47.569698
1406.000000	47.749782
1405.000000	47.918640
1404.000000	48.111309
1403.000000	48.304186
1402.000000	48.489726
1401.000000	48.672607
1400.000000	48.854907
1399.000000	49.020594
1398.000000	49.172196
1397.000000	49.313581
1396.000000	49.472103
1395.000000	49.627960
1394.000000	49.771460
1393.000000	49.923461
1392.000000	50.058033
1391.000000	50.178434
1390.000000	50.312193
1389.000000	50.434040
1388.000000	50.552794
1387.000000	50.689400
1386.000000	50.808042
1385.000000	50.910142
1384.000000	50.999059
1383.000000	51.084901
1382.000000	51.172191
1381.000000	51.254418
1380.000000	51.334489
1379.000000	51.410192
1378.000000	51.476176
1377.000000	51.532662
1376.000000	51.595320
1375.000000	51.658392
1374.000000	51.713770
1373.000000	51.748625
1372.000000	51.787939
1371.000000	51.822106
1370.000000	51.854975
1369.000000	51.910785
1368.000000	51.962146
1367.000000	51.992547
1366.000000	52.016938
1365.000000	52.048866
1364.000000	52.086882
1363.000000	52.125801
1362.000000	52.164773
1361.000000	52.203867
1360.000000	52.261095
1359.000000	52.315665
1358.000000	52.354961
1357.000000	52.400228
1356.000000	52.427626
1355.000000	52.492187
1354.000000	52.558787
1353.000000	52.598332
1352.000000	52.626145
1351.000000	52.673133
1350.000000	52.727062
1349.000000	52.779102
1348.000000	52.822104
1347.000000	52.854646
1346.000000	52.887524
1345.000000	52.944070
1344.000000	53.004749
1343.000000	53.019705
1342.000000	53.049372
1341.000000	53.108336
1340.000000	53.132819
1339.000000	53.163808
1338.000000	53.207646
1337.000000	53.246361
1336.000000	53.275442
1335.000000	53.302170
1334.000000	53.323723
1333.000000	53.317559
1332.000000	53.354691
1331.000000	53.401762
1330.000000	53.430368
1329.000000	53.437614
1328.000000	53.442843
1327.000000	53.464183
1326.000000	53.484995
1325.000000	53.493366
1324.000000	53.492566
1323.000000	53.535051
1322.000000	53.532148
1321.000000	53.526221
1320.000000	53.548152
1319.000000	53.568520
1318.000000	53.570802
1317.000000	53.587671
1316.000000	53.587419
1315.000000	53.579007
1314.000000	53.583264
1313.000000	53.616887
1312.000000	53.616318
1311.000000	53.613645
1310.000000	53.617157
1309.000000	53.620144
1308.000000	53.613946
1307.000000	53.632463
1306.000000	53.618299
1305.000000	53.603896
1304.000000	53.614800
1303.000000	53.628070
1302.000000	53.644797
1301.000000	53.629907
1300.000000	53.607778
1299.000000	53.591881
1298.000000	53.583053
1297.000000	53.590577
1296.000000	53.588911
1295.000000	53.576454
1294.000000	53.553182
1293.000000	53.533440
1292.000000	53.546045
1291.000000	53.521757
1290.000000	53.525063
1289.000000	53.527647
1288.000000	53.517697
1287.000000	53.505169
1286.000000	53.481707
1285.000000	53.460578
1284.000000	53.434743
1283.000000	53.411393
1282.000000	53.398758
1281.000000	53.395300
1280.000000	53.385197
1279.000000	53.360235
1278.000000	53.358833
1277.000000	53.360753
1276.000000	53.343263
1275.000000	53.335119
1274.000000	53.322192
1273.000000	53.306582
1272.000000	53.296328
1271.000000	53.296218
1270.000000	53.284546
1269.000000	53.285046
1268.000000	53.266078
1267.000000	53.255296
1266.000000	53.258117
1265.000000	53.232397
1264.000000	53.270632
1263.000000	53.246701
1262.000000	53.249899
1261.000000	53.223260
1260.000000	53.222800
1259.000000	53.218739
1258.000000	53.214789
1257.000000	53.238959
1256.000000	53.251036
1255.000000	53.223083
1254.000000	53.191823
1253.000000	53.184028
1252.000000	53.191215
1251.000000	53.164588
1250.000000	53.162031
1249.000000	53.141154
1248.000000	53.116609
1247.000000	53.104508
1246.000000	53.089554
1245.000000	53.079373
1244.000000	53.061943
1243.000000	53.050041
1242.000000	53.016676
1241.000000	53.007034
1240.000000	52.958336
1239.000000	52.912008
1238.000000	52.889089
1237.000000	52.853628
1236.000000	52.809703
1235.000000	52.798865
1234.000000	52.762554
1233.000000	52.724695
1232.000000	52.679306
1231.000000	52.653704
1230.000000	52.645482
1229.000000	52.615260
1228.000000	52.578537
1227.000000	52.519906
1226.000000	52.490400
1225.000000	52.459226
1224.000000	52.444259
1223.000000	52.406127
1222.000000	52.378093
1221.000000	52.345459
1220.000000	52.315953
1219.000000	52.293099
1218.000000	52.260225
1217.000000	52.222146
1216.000000	52.180616
1215.000000	52.160167
1214.000000	52.103264
1213.000000	52.087939
1212.000000	52.055237
1211.000000	52.034083
1210.000000	52.001931
1209.000000	51.961833
1208.000000	51.925875
1207.000000	51.889568
1206.000000	51.857191
1205.000000	51.851462
1204.000000	51.786710
1203.000000	51.754404
1202.000000	51.734076
1201.000000	51.679698
1200.000000	51.633133
1199.000000	51.589963
1198.000000	51.570859
1197.000000	51.565619
1196.000000	51.522196
1195.000000	51.472177
1194.000000	51.449469
1193.000000	51.431965
1192.000000	51.403236
1191.000000	51.379952
1190.000000	51.341977
1189.000000	51.293583
1188.000000	51.293595
1187.000000	51.278890
1186.000000	51.259003
1185.000000	51.242513
1184.000000	51.230401
1183.000000	51.238068
1182.000000	51.249674
1181.000000	51.248368
1180.000000	51.256575
1179.000000	51.276072
1178.000000	51.301975
1177.000000	51.324100
1176.000000	51.338199
1175.000000	51.359436
1174.000000	51.393059
1173.000000	51.424801
1172.000000	51.453012
1171.000000	51.487614
1170.000000	51.533758
1169.000000	51.563572
1168.000000	51.598994
1167.000000	51.655272
1166.000000	51.698769
1165.000000	51.735745
1164.000000	51.788864
1163.000000	51.834206
1162.000000	51.855296
1161.000000	51.899018
1160.000000	51.958055
1159.000000	52.004524
1158.000000	52.033384
1157.000000	52.056754
1156.000000	52.099304
1155.000000	52.117104
1154.000000	52.134760
1153.000000	52.175091
1152.000000	52.216060
1151.000000	52.250739
1150.000000	52.273663
1149.000000	52.309458
1148.000000	52.346283
1147.000000	52.368975
1146.000000	52.388523
1145.000000	52.410431
1144.000000	52.431563
1143.000000	52.452001
1142.000000	52.471343
1141.000000	52.495519
1140.000000	52.516173
1139.000000	52.522936
1138.000000	52.527339
1137.000000	52.545142
1136.000000	52.564026
1135.000000	52.584170
1134.000000	52.614196
1133.000000	52.629458
1132.000000	52.625961
1131.000000	52.643070
1130.000000	52.647933
1129.000000	52.652915
1128.000000	52.664778
1127.000000	52.638084
1126.000000	52.624529
1125.000000	52.641324
1124.000000	52.652634
1123.000000	52.656640
1122.000000	52.661770
1121.000000	52.648354
1120.000000	52.649091
1119.000000	52.645108
1118.000000	52.633031
1117.000000	52.619676
1116.000000	52.621170
1115.000000	52.620478
1114.000000	52.604788
1113.000000	52.594419
1112.000000	52.597330
1111.000000	52.569151
1110.000000	52.562939
1109.000000	52.562851
1108.000000	52.541656
1107.000000	52.548961
1106.000000	52.539473
1105.000000	52.527390
1104.000000	52.507918
1103.000000	52.498953
1102.000000	52.449759
1101.000000	52.433839
1100.000000	52.440863
1099.000000	52.430985
1098.000000	52.422816
1097.000000	52.417565
1096.000000	52.395767
1095.000000	52.398045
1094.000000	52.340651
1093.000000	52.330514
1092.000000	52.317730
1091.000000	52.320057
1090.000000	52.317743
1089.000000	52.289173
1088.000000	52.286797
1087.000000	52.278656
1086.000000	52.230682
1085.000000	52.223874
1084.000000	52.194869
1083.000000	52.189360
1082.000000	52.169497
1081.000000	52.158119
1080.000000	52.107888
1079.000000	52.101753
1078.000000	52.094932
1077.000000	52.076241
1076.000000	52.063033
1075.000000	52.053803
1074.000000	52.029158
1073.000000	51.970688
1072.000000	51.968796
1071.000000	51.962573
1070.000000	51.935436
1069.000000	51.926039
1068.000000	51.928674
1067.000000	51.905130
1066.000000	51.850915
1065.000000	51.822751
1064.000000	51.822754
1063.000000	51.791797
1062.000000	51.796613
1061.000000	51.786710
1060.000000	51.773976
1059.000000	51.707819
1058.000000	51.675270
1057.000000	51.676038
1056.000000	51.650646
1055.000000	51.646385
1054.000000	51.607569
1053.000000	51.586002
1052.000000	51.585060
1051.000000	51.569997
1050.000000	51.545653
1049.000000	51.509332
1048.000000	51.467379
1047.000000	51.484461
1046.000000	51.463245
1045.000000	51.456225
1044.000000	51.426217
1043.000000	51.366741
1042.000000	51.372145
1041.000000	51.364029
1040.000000	51.323123
1039.000000	51.316030
1038.000000	51.294010
1037.000000	51.274397
1036.000000	51.251153
1035.000000	51.237499
1034.000000	51.221820
1033.000000	51.210330
1032.000000	51.165136
1031.000000	51.156729
1030.000000	51.158132
1029.000000	51.129636
1028.000000	51.104181
1027.000000	51.096246
1026.000000	51.078946
1025.000000	51.036334
1024.000000	51.029970
1023.000000	51.024213
1022.000000	51.016121
1021.000000	50.984321
1020.000000	50.968669
1019.000000	50.959985
1018.000000	50.930807
1017.000000	50.917617
1016.000000	50.907314
1015.000000	50.900020
1014.000000	50.868926
1013.000000	50.829064
1012.000000	50.823706
1011.000000	50.827770
1010.000000	50.827242
1009.000000	50.810829
1008.000000	50.773404
1007.000000	50.745556
1006.000000	50.745783
1005.000000	50.732188
1004.000000	50.697203
1003.000000	50.687769
1002.000000	50.701017
1001.000000	50.681646
1000.000000	50.661405
999.000000	50.678217
998.000000	50.664708
997.000000	50.655557
996.000000	50.643340
995.000000	50.631432
994.000000	50.620495
993.000000	50.599315
992.000000	50.570866
991.000000	50.574101
990.000000	50.571035
989.000000	50.550008
988.000000	50.538517
987.000000	50.527317
986.000000	50.539620
985.000000	50.527116
984.000000	50.508000
983.000000	50.492287
982.000000	50.476053
981.000000	50.468733
980.000000	50.469333
979.000000	50.450285
978.000000	50.427069
977.000000	50.406333
976.000000	50.397908
975.000000	50.394499
974.000000	50.387583
973.000000	50.357091
972.000000	50.352031
971.000000	50.347976
970.000000	50.331015
969.000000	50.318941
968.000000	50.312322
967.000000	50.302631
966.000000	50.263566
965.000000	50.256947
964.000000	50.253841
963.000000	50.248405
962.000000	50.252079
961.000000	50.235087
960.000000	50.206154
959.000000	50.194903
958.000000	50.186801
957.000000	50.170338
956.000000	50.160922
955.000000	50.158654
954.000000	50.142074
953.000000	50.124861
952.000000	50.109518
951.000000	50.086699
950.000000	50.094626
949.000000	50.098556
948.000000	50.080365
947.000000	50.051462
946.000000	50.032380
945.000000	50.017714
944.000000	50.002643
943.000000	49.985424
942.000000	49.960308
941.000000	49.954204
940.000000	49.932760
939.000000	49.898083
938.000000	49.897735
937.000000	49.886218
936.000000	49.855034
935.000000	49.847886
934.000000	49.836020
933.000000	49.823109
932.000000	49.806450
931.000000	49.792165
930.000000	49.786271
929.000000	49.762871
928.000000	49.723721
927.000000	49.690117
926.000000	49.694681
925.000000	49.684779
924.000000	49.659723
923.000000	49.638026
922.000000	49.606775
921.000000	49.565508
920.000000	49.547559
919.000000	49.555011
918.000000	49.529548
917.000000	49.500465
916.000000	49.493048
915.000000	49.468071
914.000000	49.455899
913.000000	49.440030
912.000000	49.411593
911.000000	49.412740
910.000000	49.409385
909.000000	49.366900
908.000000	49.364731
907.000000	49.339723
906.000000	49.301278
905.000000	49.305679
904.000000	49.285679
903.000000	49.267635
902.000000	49.271844
901.000000	49.204225
900.000000	49.194089
899.000000	49.196389
898.000000	49.204620
897.000000	49.176446
896.000000	49.094362
895.000000	49.132323
894.000000	49.118832
893.000000	49.066093
892.000000	49.032430
891.000000	49.038529
890.000000	49.033244
889.000000	49.049840
888.000000	48.989128
887.000000	49.006508
886.000000	48.986505
885.000000	48.983925
884.000000	48.974934
883.000000	48.903675
882.000000	48.829082
881.000000	48.893646
880.000000	48.902645
879.000000	48.861035
878.000000	48.839218
877.000000	48.807932
876.000000	48.741048
875.000000	48.654608
874.000000	48.684572
873.000000	48.759884
872.000000	48.741292
871.000000	48.669678
870.000000	48.665477
869.000000	48.613032
868.000000	48.646416
867.000000	48.584898
866.000000	48.500062
865.000000	48.483884
864.000000	48.480101
863.000000	48.463281
862.000000	48.476719
861.000000	48.475393
860.000000	48.375143
859.000000	47.580601
858.000000	47.846971
857.000000	48.081024
856.000000	47.509545
855.000000	47.657373
854.000000	47.809133
853.000000	47.609970
852.000000	47.630651
851.000000	47.419239
850.000000	47.683167
849.000000	47.693089
848.000000	47.686980
847.000000	47.419296
846.000000	47.530899
845.000000	47.488623
844.000000	47.444789
843.000000	47.489500
842.000000	47.409100
841.000000	47.498083
840.000000	47.434118
839.000000	47.399616
838.000000	47.249702
837.000000	47.370651
836.000000	47.343876
835.000000	47.219339
834.000000	47.235198
833.000000	47.169435
832.000000	47.014297
831.000000	47.029346
830.000000	47.073447
829.000000	46.993795
828.000000	47.023595
827.000000	47.010144
826.000000	46.892670
825.000000	46.805694
824.000000	46.790662
823.000000	46.929462
822.000000	46.715144
821.000000	46.911737
820.000000	46.806071
819.000000	46.755497
818.000000	46.757381
817.000000	46.656469
816.000000	46.571641
815.000000	46.585505
814.000000	46.569027
813.000000	46.430317
812.000000	46.496249
811.000000	46.522125
810.000000	46.426572
809.000000	46.395008
808.000000	46.402138
807.000000	46.336031
806.000000	46.350467
805.000000	46.250726
804.000000	46.354869
803.000000	46.179889
802.000000	46.103196
801.000000	46.135312
800.000000	46.113605
799.000000	46.131164
798.000000	46.055886
797.000000	45.932386
796.000000	46.059880
795.000000	45.891745
794.000000	45.874962
793.000000	45.853679
792.000000	45.851157
791.000000	45.808691
790.000000	45.726607
789.000000	45.683872
788.000000	45.673554
787.000000	45.631538
786.000000	45.610886
785.000000	45.715923
784.000000	45.668102
783.000000	45.441925
782.000000	45.461551
781.000000	45.449987
780.000000	45.416031
779.000000	45.380222
778.000000	45.363071
777.000000	45.319152
776.000000	45.267415
775.000000	45.205536
774.000000	45.170359
773.000000	45.128125
772.000000	45.096803
771.000000	45.049589
770.000000	44.983566
769.000000	44.945522
768.000000	44.884834
767.000000	44.850628
766.000000	44.849643
765.000000	44.791170
764.000000	44.764186
763.000000	44.800592
762.000000	44.701974
761.000000	44.605290
760.000000	44.539684
759.000000	44.565961
758.000000	44.549918
757.000000	44.530551
756.000000	44.431371
755.000000	44.397729
754.000000	44.354314
753.000000	44.322365
752.000000	44.245346
751.000000	44.238398
750.000000	44.187292
749.000000	44.111097
748.000000	44.094344
747.000000	43.992764
746.000000	43.925019
745.000000	43.879607
744.000000	43.845796
743.000000	43.810865
742.000000	43.773425
741.000000	43.746813
740.000000	43.728991
739.000000	43.670121
738.000000	43.653385
737.000000	43.589254
736.000000	43.478245
735.000000	43.451446
734.000000	43.381666
733.000000	43.307399
732.000000	43.269048
731.000000	43.228060
730.000000	43.164087
729.000000	43.112912
728.000000	43.037188
727.000000	43.031162
726.000000	42.996378
725.000000	42.934075
724.000000	42.854421
723.000000	42.795523
722.000000	42.769836
721.000000	42.694511
720.000000	42.638519
719.000000	42.577845
718.000000	42.529247
717.000000	42.447863
716.000000	42.398139
715.000000	42.359395
714.000000	42.290740
713.000000	42.249041
712.000000	42.207376
711.000000	42.176281
710.000000	42.101406
709.000000	42.014126
708.000000	41.955993
707.000000	41.880096
706.000000	41.813979
705.000000	41.761773
704.000000	41.702603
703.000000	41.636563
702.000000	41.586336
701.000000	41.518517
700.000000	41.473289
699.000000	41.418244
698.000000	41.337553
697.000000	41.250392
696.000000	41.150118
695.000000	41.103094
694.000000	41.047842
693.000000	40.981115
692.000000	40.959253
691.000000	40.918299
690.000000	40.868693
689.000000	40.724718
688.000000	40.614751
687.000000	40.555028
686.000000	40.478422
685.000000	40.418239
684.000000	40.333293
683.000000	40.284294
682.000000	40.219538
681.000000	40.147348
680.000000	40.120934
679.000000	40.082059
678.000000	40.004949
677.000000	39.913319
676.000000	39.797591
675.000000	39.710663
674.000000	39.658984
673.000000	39.587467
672.000000	39.523170
671.000000	39.466057
670.000000	39.380217
669.000000	39.283468
668.000000	39.207693
667.000000	39.100815
666.000000	39.027166
665.000000	38.960855
664.000000	38.884172
663.000000	38.818193
662.000000	38.737937
661.000000	38.683161
660.000000	38.565584
659.000000	38.493912
658.000000	38.399880
657.000000	38.341074
656.000000	38.251138
655.000000	38.172721
654.000000	38.117020
653.000000	38.029856
652.000000	37.890117
651.000000	37.813550
650.000000	37.764284
649.000000	37.681769
648.000000	37.615444
647.000000	37.487999
646.000000	37.400983
645.000000	37.334097
644.000000	37.242958
643.000000	37.153095
642.000000	37.091887
641.000000	36.984415
640.000000	36.901142
639.000000	36.812557
638.000000	36.714308
637.000000	36.618314
636.000000	36.524208
635.000000	36.403179
634.000000	36.347167
633.000000	36.268821
632.000000	36.178716
631.000000	36.089127
630.000000	35.960787
629.000000	35.905077
628.000000	35.795793
627.000000	35.702417
626.000000	35.588058
625.000000	35.560283
624.000000	35.449788
623.000000	35.337409
622.000000	35.248896
621.000000	35.166898
620.000000	35.041150
619.000000	34.962471
618.000000	34.867821
617.000000	34.728723
616.000000	34.663087
615.000000	34.574991
614.000000	34.469795
613.000000	34.351727
612.000000	34.298366
611.000000	34.146878
610.000000	34.109261
609.000000	33.966126
608.000000	33.866439
607.000000	33.778799
606.000000	33.671346
605.000000	33.548841
604.000000	33.455225
603.000000	33.348882
602.000000	33.219382
601.000000	33.150023
600.000000	33.066963
599.000000	32.924796
598.000000	32.835686
597.000000	32.722604
596.000000	32.603830
595.000000	32.513405
594.000000	32.385390
593.000000	32.282461
592.000000	32.189872
591.000000	32.103707
590.000000	31.948004
589.000000	31.822821
588.000000	31.741184
587.000000	31.614683
586.000000	31.500709
585.000000	31.385674
584.000000	31.257019
583.000000	31.184990
582.000000	31.056495
581.000000	30.926907
580.000000	30.799927
579.000000	30.663336
578.000000	30.576700
577.000000	30.456749
576.000000	30.369591
575.000000	30.218961
574.000000	30.104855
573.000000	29.973933
572.000000	29.859067
571.000000	29.745840
570.000000	29.610272
569.000000	29.523108
568.000000	29.402988
567.000000	29.241769
566.000000	29.130281
565.000000	29.020055
564.000000	28.848682
563.000000	28.751354
562.000000	28.620975
561.000000	28.497816
560.000000	28.350020
559.000000	28.262791
558.000000	28.110220
557.000000	27.984436
556.000000	27.857932
555.000000	27.736075
554.000000	27.588338
553.000000	27.492276
552.000000	27.341495
551.000000	27.223673
550.000000	27.077202
549.000000	26.972089
548.000000	26.817934
547.000000	26.695592
546.000000	26.585793
545.000000	26.451859
544.000000	26.309477
543.000000	26.170318
542.000000	26.024057
541.000000	25.911935
540.000000	25.738003
539.000000	25.631168
538.000000	25.498464
537.000000	25.373502
536.000000	25.231513
535.000000	25.083621
534.000000	24.961091
533.000000	24.850225
532.000000	24.703664
531.000000	24.568390
530.000000	24.429777
529.000000	24.291270
528.000000	24.166686
527.000000	24.047826
526.000000	23.913493
525.000000	23.765285
524.000000	23.615167
523.000000	23.482849
522.000000	23.325397
521.000000	23.200182
520.000000	23.088699
519.000000	22.938045
518.000000	22.807393
517.000000	22.686941
516.000000	22.550161
515.000000	22.414312
514.000000	22.283767
513.000000	22.143866
512.000000	22.009168
511.000000	21.878124
510.000000	21.749468
509.000000	21.633476
508.000000	21.495921
507.000000	21.366575
506.000000	21.230594
505.000000	21.092274
504.000000	20.951320
503.000000	20.822019
502.000000	20.707546
501.000000	20.569186
500.000000	20.447328
499.000000	20.321752
498.000000	20.167572
497.000000	20.031029
496.000000	19.911773
495.000000	19.785066
494.000000	19.640198
493.000000	19.520657
492.000000	19.396462
491.000000	19.250581
490.000000	19.118006
489.000000	18.974797
488.000000	18.859079
487.000000	18.747408
486.000000	18.611915
485.000000	18.503013
484.000000	18.390478
483.000000	18.245631
482.000000	18.124686
481.000000	18.005771
480.000000	17.883946
479.000000	17.763844
478.000000	17.648817
477.000000	17.522114
476.000000	17.385806
475.000000	17.253186
474.000000	17.136880
473.000000	17.021058
472.000000	16.890793
471.000000	16.760854
470.000000	16.651435
469.000000	16.532520
468.000000	16.408614
467.000000	16.288614
466.000000	16.175631
465.000000	16.061042
464.000000	15.934228
463.000000	15.800972
462.000000	15.680801
461.000000	15.561838
460.000000	15.431431
459.000000	15.313422
458.000000	15.196638
457.000000	15.073694
456.000000	14.945371
455.000000	14.815673
454.000000	14.676385
453.000000	14.553897
452.000000	14.446009
451.000000	14.327013
450.000000	14.201797
449.000000	14.057211
448.000000	13.929369
447.000000	13.833414
446.000000	13.708414
445.000000	13.575007
444.000000	13.471142
443.000000	13.363335
442.000000	13.250331
441.000000	13.129843
440.000000	13.021783
439.000000	12.946064
438.000000	12.860330
437.000000	12.751762
436.000000	12.639035
435.000000	12.544767
434.000000	12.449127
433.000000	12.356517
432.000000	12.279648
431.000000	12.175484
430.000000	12.064287
429.000000	11.964877
428.000000	11.888627
427.000000	11.799797
426.000000	11.705854
425.000000	11.613433
424.000000	11.511010
423.000000	11.416313
422.000000	11.335956
421.000000	11.246798
420.000000	11.150223
419.000000	11.072926
418.000000	10.984523
417.000000	10.892380
416.000000	10.799537
415.000000	10.698757
414.000000	10.614117
413.000000	10.541910
412.000000	10.449711
411.000000	10.366354
410.000000	10.275275
409.000000	10.196498
408.000000	10.109181
407.000000	10.037188
406.000000	9.947010
405.000000	9.870512
404.000000	9.784961
403.000000	9.712580
402.000000	9.626052
401.000000	9.556196
400.000000	9.485442
399.000000	9.411251
398.000000	9.356555
397.000000	9.284580
396.000000	9.214503
395.000000	9.143751
394.000000	9.068867
393.000000	9.007889
392.000000	8.936551
391.000000	8.868945
390.000000	8.836321
389.000000	8.744521
388.000000	8.691748
387.000000	8.645985
386.000000	8.597178
385.000000	8.518111
384.000000	8.461657
383.000000	8.416887
382.000000	8.375350
381.000000	8.319119
380.000000	8.261397
379.000000	8.194588
378.000000	8.162995
377.000000	8.152108
376.000000	8.109357
375.000000	8.023751
374.000000	7.950902
373.000000	7.891420
372.000000	7.861136
371.000000	7.877483
370.000000	7.849270
369.000000	7.793516
368.000000	7.714649
367.000000	7.637691
366.000000	7.648897
365.000000	7.645903
364.000000	7.551259
363.000000	7.521779
362.000000	7.485729
361.000000	7.476941
360.000000	7.410636
359.000000	7.415421
358.000000	7.367395
357.000000	7.327171
356.000000	7.277438
355.000000	7.261456
354.000000	7.254829
353.000000	7.205967
352.000000	7.187115
351.000000	7.131322
350.000000	7.100953
349.000000	7.106986
348.000000	7.054200
347.000000	7.007866
346.000000	7.003698
345.000000	6.956933
344.000000	6.932716
343.000000	6.920616
342.000000	6.934662
341.000000	6.877588
340.000000	6.814973
339.000000	6.824616
338.000000	6.777806
337.000000	6.757779
336.000000	6.773731
335.000000	6.710306
334.000000	6.711265
333.000000	6.672212
332.000000	6.638545
331.000000	6.632684
330.000000	6.565685
329.000000	6.609865
328.000000	6.523241
327.000000	6.558166
326.000000	6.489100
325.000000	6.480541
324.000000	6.491406
323.000000	6.502838
322.000000	6.444681
321.000000	6.436690
320.000000	6.437849
319.000000	6.425575
318.000000	6.433682
317.000000	6.455664
316.000000	6.441316
315.000000	6.396835
314.000000	6.430004
313.000000	6.448564
312.000000	6.445311
311.000000	6.369895
310.000000	6.397789
309.000000	6.389258
308.000000	6.404564
307.000000	6.391700
306.000000	6.388250
305.000000	6.383314
304.000000	6.386340
303.000000	6.405286
302.000000	6.420460
301.000000	6.441046
300.000000	6.405691
299.000000	6.400504
298.000000	6.402079
297.000000	6.418731
296.000000	6.397105
295.000000	6.425919
294.000000	6.449590
293.000000	6.414886
292.000000	6.406941
291.000000	6.423762
290.000000	6.399913
289.000000	6.429671
288.000000	6.458254
287.000000	6.476044
286.000000	6.471601
285.000000	6.471796
284.000000	6.473830
283.000000	6.504726
282.000000	6.527428
281.000000	6.509975
280.000000	6.563851
279.000000	6.589493
278.000000	6.618410
277.000000	6.597665
276.000000	6.612958
275.000000	6.656074
274.000000	6.659527
273.000000	6.686784
272.000000	6.715814
271.000000	6.738713
270.000000	6.759290
269.000000	6.796196
268.000000	6.814898
267.000000	6.891314
266.000000	6.916593
265.000000	6.958638
264.000000	6.942196
263.000000	7.044310
262.000000	7.086302
261.000000	7.115914
260.000000	7.200881
259.000000	7.246004
258.000000	7.282703
257.000000	7.339131
256.000000	7.394769
255.000000	7.466586
254.000000	7.515834
253.000000	7.598213
252.000000	7.706202
251.000000	7.791920
250.000000	7.860865
249.000000	7.930517
248.000000	8.018110
247.000000	8.132773
246.000000	8.210066
245.000000	8.310120
244.000000	8.406079
243.000000	8.491192
242.000000	8.561045
241.000000	8.682225
240.000000	8.798427
239.000000	8.844034
238.000000	8.885162
237.000000	9.023200
236.000000	9.111368
235.000000	9.211901
234.000000	9.316924
233.000000	9.324406
232.000000	9.359200
231.000000	9.468414
230.000000	9.581077
229.000000	9.615287
228.000000	9.689440
227.000000	9.805617
226.000000	9.851405
225.000000	9.882345
224.000000	9.999462
223.000000	10.096683
222.000000	10.173054
221.000000	10.318091
220.000000	10.475265
219.000000	10.491293
218.000000	10.532518
217.000000	10.705385
216.000000	10.874896
215.000000	11.028850
214.000000	11.144410
213.000000	11.255886
212.000000	11.417410
211.000000	11.591121
210.000000	11.823273
209.000000	12.127980
208.000000	12.374029
207.000000	12.581827
206.000000	12.912918
205.000000	13.143528
204.000000	13.569322
203.000000	13.948270
202.000000	14.319071
201.000000	14.876407
200.000000	15.256929
