PE UV       SUBTECH     SPECTRUM    ASCII       PEDS        4.00        
   -1
RTms148351.Sample.asc
18/03/13
16:31:21.00
18/03/13
16:31:21.00
Administrator

200.000000
1
Lambda 750
750N8071901
PerkinElmer UV WinLab 6.0.4.0738 / 1.61.00 Lambda 900

0
0
3350/servo 860.8/2
0
0
UV/VIS
1
1
1
CommonBeamDepol,150mm sphere / downward view
0
0
0
0
Program
Program
3350/servo 860.8/2
3350/0.2 860.8/0.2
3350/0.2 860.8/0.2
0
1
 
 
 
0
 
860.8
319.2
860.8
Front
100
on
 
 
0
0
0
 
0
 
 
 
0
 
 
0
0
0
0
0
 
 
 
 
0
0


0
0
#HDR
-1
-1
#GR
nm
%R
1.0
0.0
2350.000000
-1.000000
2151
8
65.197805
9.888847
#DATA
2350.000000	36.418673
2349.000000	36.788974
2348.000000	37.112610
2347.000000	37.101470
2346.000000	36.902081
2345.000000	36.407150
2344.000000	36.699428
2343.000000	36.406877
2342.000000	36.589383
2341.000000	37.220268
2340.000000	36.838109
2339.000000	37.250098
2338.000000	37.529375
2337.000000	37.161317
2336.000000	37.719420
2335.000000	37.476201
2334.000000	37.566709
2333.000000	37.656739
2332.000000	37.860534
2331.000000	37.694828
2330.000000	37.640122
2329.000000	37.524666
2328.000000	37.284338
2327.000000	37.192609
2326.000000	37.468111
2325.000000	37.397674
2324.000000	37.326195
2323.000000	37.341571
2322.000000	37.127692
2321.000000	37.349965
2320.000000	37.142553
2319.000000	37.052434
2318.000000	37.214000
2317.000000	37.002509
2316.000000	36.799238
2315.000000	36.703426
2314.000000	36.740443
2313.000000	36.619877
2312.000000	36.551108
2311.000000	36.646996
2310.000000	36.713866
2309.000000	36.568979
2308.000000	36.525919
2307.000000	36.329895
2306.000000	36.146375
2305.000000	36.177787
2304.000000	36.263142
2303.000000	36.374327
2302.000000	36.215805
2301.000000	35.997944
2300.000000	36.024159
2299.000000	35.857149
2298.000000	35.985518
2297.000000	36.002778
2296.000000	35.943066
2295.000000	35.916059
2294.000000	35.822024
2293.000000	35.711531
2292.000000	35.673335
2291.000000	35.678212
2290.000000	35.522983
2289.000000	35.615458
2288.000000	35.747634
2287.000000	35.654365
2286.000000	35.643966
2285.000000	35.618246
2284.000000	35.629282
2283.000000	35.519503
2282.000000	35.547859
2281.000000	35.676218
2280.000000	35.643717
2279.000000	35.636996
2278.000000	35.790763
2277.000000	35.740686
2276.000000	35.768127
2275.000000	35.913677
2274.000000	35.909387
2273.000000	35.971206
2272.000000	36.022345
2271.000000	35.989332
2270.000000	36.025698
2269.000000	36.152465
2268.000000	36.113354
2267.000000	36.235513
2266.000000	36.488797
2265.000000	36.636787
2264.000000	36.753428
2263.000000	36.909507
2262.000000	37.013972
2261.000000	37.000859
2260.000000	37.203104
2259.000000	37.334161
2258.000000	37.577351
2257.000000	37.775265
2256.000000	37.798073
2255.000000	37.829476
2254.000000	38.151080
2253.000000	38.335312
2252.000000	38.381042
2251.000000	38.620506
2250.000000	38.890084
2249.000000	39.076441
2248.000000	39.184509
2247.000000	39.274886
2246.000000	39.512091
2245.000000	39.894810
2244.000000	40.049665
2243.000000	40.082697
2242.000000	40.203759
2241.000000	40.300196
2240.000000	40.428547
2239.000000	40.657124
2238.000000	40.782615
2237.000000	40.910835
2236.000000	40.978240
2235.000000	41.065480
2234.000000	41.116404
2233.000000	41.112898
2232.000000	41.275034
2231.000000	41.302960
2230.000000	41.286201
2229.000000	41.387753
2228.000000	41.500404
2227.000000	41.517568
2226.000000	41.376762
2225.000000	41.368813
2224.000000	41.422598
2223.000000	41.301124
2222.000000	41.309592
2221.000000	41.406606
2220.000000	41.483827
2219.000000	41.414349
2218.000000	41.331506
2217.000000	41.353800
2216.000000	41.295252
2215.000000	41.216670
2214.000000	41.236606
2213.000000	41.294651
2212.000000	41.110846
2211.000000	41.016904
2210.000000	40.989271
2209.000000	41.007655
2208.000000	40.943771
2207.000000	40.916896
2206.000000	40.848359
2205.000000	40.653219
2204.000000	40.627434
2203.000000	40.600760
2202.000000	40.602037
2201.000000	40.539448
2200.000000	40.457506
2199.000000	40.444097
2198.000000	40.470663
2197.000000	40.274827
2196.000000	40.153733
2195.000000	40.102399
2194.000000	40.163440
2193.000000	40.009129
2192.000000	40.131291
2191.000000	39.934183
2190.000000	39.934777
2189.000000	40.064641
2188.000000	39.812227
2187.000000	39.841496
2186.000000	39.836142
2185.000000	39.772042
2184.000000	39.737629
2183.000000	39.735033
2182.000000	39.715269
2181.000000	39.535319
2180.000000	39.590534
2179.000000	39.559203
2178.000000	39.553787
2177.000000	39.631034
2176.000000	39.658801
2175.000000	39.588525
2174.000000	39.580695
2173.000000	39.672986
2172.000000	39.634912
2171.000000	39.804023
2170.000000	39.907928
2169.000000	39.985712
2168.000000	40.007360
2167.000000	40.060044
2166.000000	40.009901
2165.000000	40.193682
2164.000000	40.258680
2163.000000	40.400511
2162.000000	40.506831
2161.000000	40.770815
2160.000000	40.688479
2159.000000	40.693987
2158.000000	40.862306
2157.000000	40.907148
2156.000000	41.106290
2155.000000	41.341304
2154.000000	41.382313
2153.000000	41.678921
2152.000000	41.725823
2151.000000	41.819160
2150.000000	41.987645
2149.000000	42.017071
2148.000000	42.118923
2147.000000	42.360110
2146.000000	42.274326
2145.000000	42.513114
2144.000000	42.525731
2143.000000	42.660859
2142.000000	42.714436
2141.000000	42.887416
2140.000000	43.153537
2139.000000	43.100854
2138.000000	43.326493
2137.000000	43.332909
2136.000000	43.410514
2135.000000	43.465736
2134.000000	43.508363
2133.000000	43.449493
2132.000000	43.610577
2131.000000	43.890756
2130.000000	43.956931
2129.000000	43.911892
2128.000000	43.940192
2127.000000	44.026109
2126.000000	43.924004
2125.000000	44.169434
2124.000000	44.028959
2123.000000	44.022473
2122.000000	44.171763
2121.000000	44.008349
2120.000000	44.127547
2119.000000	44.201054
2118.000000	44.331078
2117.000000	44.298348
2116.000000	44.251164
2115.000000	44.328033
2114.000000	44.215426
2113.000000	44.302682
2112.000000	44.487874
2111.000000	44.312448
2110.000000	44.298053
2109.000000	44.429816
2108.000000	44.364499
2107.000000	44.595428
2106.000000	44.447680
2105.000000	44.454490
2104.000000	44.358238
2103.000000	44.415465
2102.000000	44.477103
2101.000000	44.467799
2100.000000	44.439827
2099.000000	44.430274
2098.000000	44.365463
2097.000000	44.444254
2096.000000	44.405822
2095.000000	44.463405
2094.000000	44.476235
2093.000000	44.378239
2092.000000	44.437980
2091.000000	44.477197
2090.000000	44.397918
2089.000000	44.442475
2088.000000	44.398783
2087.000000	44.356172
2086.000000	44.327933
2085.000000	44.290969
2084.000000	44.124421
2083.000000	44.100398
2082.000000	44.017163
2081.000000	44.005948
2080.000000	44.009142
2079.000000	44.018585
2078.000000	43.875803
2077.000000	43.792333
2076.000000	43.765880
2075.000000	43.663391
2074.000000	43.482885
2073.000000	43.540139
2072.000000	43.385631
2071.000000	43.306954
2070.000000	43.232472
2069.000000	43.069895
2068.000000	42.902584
2067.000000	42.813730
2066.000000	42.731408
2065.000000	42.582641
2064.000000	42.458861
2063.000000	42.388195
2062.000000	42.252227
2061.000000	42.059289
2060.000000	41.893971
2059.000000	41.776638
2058.000000	41.719809
2057.000000	41.603146
2056.000000	41.469314
2055.000000	41.389784
2054.000000	41.227998
2053.000000	41.086356
2052.000000	41.010837
2051.000000	40.893448
2050.000000	40.756340
2049.000000	40.693682
2048.000000	40.644723
2047.000000	40.559541
2046.000000	40.449958
2045.000000	40.351353
2044.000000	40.357930
2043.000000	40.336480
2042.000000	40.316745
2041.000000	40.360705
2040.000000	40.381000
2039.000000	40.402267
2038.000000	40.429035
2037.000000	40.394911
2036.000000	40.437786
2035.000000	40.524095
2034.000000	40.591748
2033.000000	40.620866
2032.000000	40.706959
2031.000000	40.778787
2030.000000	40.839485
2029.000000	40.942651
2028.000000	41.025354
2027.000000	41.112259
2026.000000	41.215298
2025.000000	41.304293
2024.000000	41.322604
2023.000000	41.313757
2022.000000	41.350895
2021.000000	41.383399
2020.000000	41.394110
2019.000000	41.413292
2018.000000	41.434933
2017.000000	41.465049
2016.000000	41.415130
2015.000000	41.358858
2014.000000	41.378917
2013.000000	41.353216
2012.000000	41.279517
2011.000000	41.209646
2010.000000	41.166993
2009.000000	41.092086
2008.000000	41.005182
2007.000000	40.961731
2006.000000	40.877979
2005.000000	40.789224
2004.000000	40.747307
2003.000000	40.669172
2002.000000	40.567886
2001.000000	40.463348
2000.000000	40.343785
1999.000000	40.239349
1998.000000	40.136718
1997.000000	40.058096
1996.000000	39.979144
1995.000000	39.859611
1994.000000	39.730633
1993.000000	39.658138
1992.000000	39.566179
1991.000000	39.443144
1990.000000	39.353313
1989.000000	39.219168
1988.000000	39.162152
1987.000000	39.056141
1986.000000	38.945192
1985.000000	38.842515
1984.000000	38.727794
1983.000000	38.630451
1982.000000	38.567811
1981.000000	38.455810
1980.000000	38.376162
1979.000000	38.248706
1978.000000	38.133873
1977.000000	38.039176
1976.000000	37.927045
1975.000000	37.868400
1974.000000	37.749633
1973.000000	37.672094
1972.000000	37.577010
1971.000000	37.438884
1970.000000	37.390692
1969.000000	37.295501
1968.000000	37.212749
1967.000000	37.093303
1966.000000	37.045412
1965.000000	36.953055
1964.000000	36.874708
1963.000000	36.782479
1962.000000	36.694357
1961.000000	36.623585
1960.000000	36.553931
1959.000000	36.429057
1958.000000	36.358162
1957.000000	36.299182
1956.000000	36.228873
1955.000000	36.188620
1954.000000	36.131627
1953.000000	36.033032
1952.000000	36.014954
1951.000000	35.998794
1950.000000	35.908421
1949.000000	35.902095
1948.000000	35.880174
1947.000000	35.874301
1946.000000	35.821691
1945.000000	35.811451
1944.000000	35.853181
1943.000000	35.865064
1942.000000	35.919811
1941.000000	35.878816
1940.000000	35.945657
1939.000000	35.925138
1938.000000	36.009448
1937.000000	36.105189
1936.000000	36.137531
1935.000000	36.237912
1934.000000	36.307790
1933.000000	36.414498
1932.000000	36.492131
1931.000000	36.585622
1930.000000	36.748597
1929.000000	36.951049
1928.000000	37.128875
1927.000000	37.237153
1926.000000	37.471275
1925.000000	37.608416
1924.000000	37.848121
1923.000000	38.031201
1922.000000	38.257276
1921.000000	38.529867
1920.000000	38.737529
1919.000000	39.015829
1918.000000	39.292772
1917.000000	39.520262
1916.000000	39.751754
1915.000000	40.101506
1914.000000	40.452519
1913.000000	40.741440
1912.000000	41.161362
1911.000000	41.433754
1910.000000	41.779290
1909.000000	42.181216
1908.000000	42.496611
1907.000000	43.009205
1906.000000	43.435687
1905.000000	43.720648
1904.000000	44.164160
1903.000000	44.565978
1902.000000	45.065590
1901.000000	45.452205
1900.000000	45.930422
1899.000000	46.342490
1898.000000	46.832775
1897.000000	47.179610
1896.000000	47.680900
1895.000000	48.102970
1894.000000	48.507842
1893.000000	48.957024
1892.000000	49.395604
1891.000000	49.796419
1890.000000	50.145599
1889.000000	50.534253
1888.000000	50.918015
1887.000000	51.284798
1886.000000	51.652786
1885.000000	51.972363
1884.000000	52.376630
1883.000000	52.728998
1882.000000	52.924442
1881.000000	53.290113
1880.000000	53.576419
1879.000000	53.890064
1878.000000	54.175281
1877.000000	54.438672
1876.000000	54.670213
1875.000000	54.924399
1874.000000	55.160290
1873.000000	55.321929
1872.000000	55.491289
1871.000000	55.661441
1870.000000	55.892470
1869.000000	56.001874
1868.000000	56.086786
1867.000000	56.145791
1866.000000	56.314700
1865.000000	56.420352
1864.000000	56.475897
1863.000000	56.543914
1862.000000	56.661546
1861.000000	56.681527
1860.000000	56.706807
1859.000000	56.807649
1858.000000	56.839668
1857.000000	56.861796
1856.000000	56.938558
1855.000000	56.957750
1854.000000	56.994769
1853.000000	56.997364
1852.000000	56.990073
1851.000000	57.046566
1850.000000	57.069821
1849.000000	57.047064
1848.000000	57.070659
1847.000000	57.091164
1846.000000	57.063872
1845.000000	57.068508
1844.000000	57.078404
1843.000000	57.028407
1842.000000	57.034779
1841.000000	57.002947
1840.000000	56.963036
1839.000000	56.938170
1838.000000	56.894160
1837.000000	56.861197
1836.000000	56.839870
1835.000000	56.820033
1834.000000	56.796828
1833.000000	56.771650
1832.000000	56.718498
1831.000000	56.687380
1830.000000	56.669268
1829.000000	56.637387
1828.000000	56.611494
1827.000000	56.581869
1826.000000	56.539596
1825.000000	56.506228
1824.000000	56.498562
1823.000000	56.477886
1822.000000	56.412560
1821.000000	56.400999
1820.000000	56.397816
1819.000000	56.364835
1818.000000	56.332147
1817.000000	56.315761
1816.000000	56.299419
1815.000000	56.278908
1814.000000	56.238500
1813.000000	56.185771
1812.000000	56.168634
1811.000000	56.149009
1810.000000	56.133565
1809.000000	56.127799
1808.000000	56.108909
1807.000000	56.072508
1806.000000	56.041293
1805.000000	56.017935
1804.000000	55.982375
1803.000000	55.979054
1802.000000	55.976687
1801.000000	55.937918
1800.000000	55.908591
1799.000000	55.877932
1798.000000	55.842686
1797.000000	55.830048
1796.000000	55.833809
1795.000000	55.821103
1794.000000	55.818377
1793.000000	55.793158
1792.000000	55.770115
1791.000000	55.761388
1790.000000	55.748566
1789.000000	55.748912
1788.000000	55.751341
1787.000000	55.716047
1786.000000	55.690380
1785.000000	55.669793
1784.000000	55.645322
1783.000000	55.624891
1782.000000	55.580261
1781.000000	55.563791
1780.000000	55.529634
1779.000000	55.522027
1778.000000	55.477841
1777.000000	55.435111
1776.000000	55.419964
1775.000000	55.339679
1774.000000	55.277535
1773.000000	55.247696
1772.000000	55.195363
1771.000000	55.165925
1770.000000	55.118693
1769.000000	55.082833
1768.000000	55.035202
1767.000000	54.978353
1766.000000	54.962842
1765.000000	54.916078
1764.000000	54.880517
1763.000000	54.850844
1762.000000	54.785176
1761.000000	54.764195
1760.000000	54.735740
1759.000000	54.702179
1758.000000	54.683870
1757.000000	54.619616
1756.000000	54.605832
1755.000000	54.578729
1754.000000	54.542112
1753.000000	54.524194
1752.000000	54.500641
1751.000000	54.456903
1750.000000	54.411278
1749.000000	54.397977
1748.000000	54.340241
1747.000000	54.270251
1746.000000	54.230769
1745.000000	54.186401
1744.000000	54.176522
1743.000000	54.103550
1742.000000	54.071514
1741.000000	54.008096
1740.000000	53.991163
1739.000000	53.940054
1738.000000	53.899097
1737.000000	53.833205
1736.000000	53.818609
1735.000000	53.819637
1734.000000	53.781513
1733.000000	53.756549
1732.000000	53.735795
1731.000000	53.774245
1730.000000	53.766456
1729.000000	53.796082
1728.000000	53.832464
1727.000000	53.885039
1726.000000	53.923043
1725.000000	53.962543
1724.000000	54.013271
1723.000000	54.092888
1722.000000	54.172521
1721.000000	54.244960
1720.000000	54.394161
1719.000000	54.443050
1718.000000	54.483001
1717.000000	54.594110
1716.000000	54.686988
1715.000000	54.771257
1714.000000	54.865878
1713.000000	54.882027
1712.000000	54.982483
1711.000000	55.090908
1710.000000	55.157146
1709.000000	55.182889
1708.000000	55.260590
1707.000000	55.301009
1706.000000	55.361929
1705.000000	55.390965
1704.000000	55.421145
1703.000000	55.467164
1702.000000	55.475289
1701.000000	55.502041
1700.000000	55.511955
1699.000000	55.530493
1698.000000	55.576461
1697.000000	55.615171
1696.000000	55.652369
1695.000000	55.668555
1694.000000	55.735677
1693.000000	55.779330
1692.000000	55.828127
1691.000000	55.862814
1690.000000	55.944842
1689.000000	56.005126
1688.000000	56.088745
1687.000000	56.169401
1686.000000	56.248596
1685.000000	56.338929
1684.000000	56.457099
1683.000000	56.549691
1682.000000	56.686054
1681.000000	56.842992
1680.000000	56.925853
1679.000000	57.053983
1678.000000	57.175680
1677.000000	57.301487
1676.000000	57.430750
1675.000000	57.568283
1674.000000	57.702061
1673.000000	57.814703
1672.000000	57.919267
1671.000000	58.050040
1670.000000	58.174485
1669.000000	58.295605
1668.000000	58.374308
1667.000000	58.498315
1666.000000	58.536869
1665.000000	58.623058
1664.000000	58.693704
1663.000000	58.762882
1662.000000	58.816145
1661.000000	58.882132
1660.000000	58.921353
1659.000000	58.957954
1658.000000	59.014966
1657.000000	59.046483
1656.000000	59.092514
1655.000000	59.094261
1654.000000	59.130269
1653.000000	59.130843
1652.000000	59.136030
1651.000000	59.133910
1650.000000	59.145920
1649.000000	59.146799
1648.000000	59.133173
1647.000000	59.117841
1646.000000	59.123365
1645.000000	59.146481
1644.000000	59.100908
1643.000000	59.079871
1642.000000	59.077930
1641.000000	59.038874
1640.000000	59.011433
1639.000000	59.002318
1638.000000	58.978296
1637.000000	58.963104
1636.000000	58.934362
1635.000000	58.917802
1634.000000	58.884594
1633.000000	58.844662
1632.000000	58.829509
1631.000000	58.802388
1630.000000	58.759134
1629.000000	58.728047
1628.000000	58.707913
1627.000000	58.670805
1626.000000	58.641117
1625.000000	58.609155
1624.000000	58.581541
1623.000000	58.544082
1622.000000	58.509332
1621.000000	58.460664
1620.000000	58.416049
1619.000000	58.369300
1618.000000	58.321720
1617.000000	58.288129
1616.000000	58.256653
1615.000000	58.212562
1614.000000	58.169473
1613.000000	58.128873
1612.000000	58.081126
1611.000000	58.042061
1610.000000	58.003372
1609.000000	57.957154
1608.000000	57.907967
1607.000000	57.853638
1606.000000	57.811019
1605.000000	57.773181
1604.000000	57.706299
1603.000000	57.643645
1602.000000	57.606361
1601.000000	57.574642
1600.000000	57.536207
1599.000000	57.479555
1598.000000	57.433082
1597.000000	57.387030
1596.000000	57.346455
1595.000000	57.311433
1594.000000	57.267731
1593.000000	57.235994
1592.000000	57.188242
1591.000000	57.141687
1590.000000	57.117426
1589.000000	57.060999
1588.000000	57.018749
1587.000000	56.985120
1586.000000	56.943103
1585.000000	56.912114
1584.000000	56.887779
1583.000000	56.850328
1582.000000	56.797335
1581.000000	56.766901
1580.000000	56.739318
1579.000000	56.702479
1578.000000	56.677619
1577.000000	56.633992
1576.000000	56.614379
1575.000000	56.587766
1574.000000	56.523542
1573.000000	56.491478
1572.000000	56.472062
1571.000000	56.428010
1570.000000	56.388276
1569.000000	56.348763
1568.000000	56.311859
1567.000000	56.276093
1566.000000	56.252300
1565.000000	56.231864
1564.000000	56.203577
1563.000000	56.181379
1562.000000	56.155902
1561.000000	60.156861
1560.000000	58.301335
1559.000000	56.107005
1558.000000	56.071507
1557.000000	56.057557
1556.000000	56.048836
1555.000000	56.019224
1554.000000	55.990012
1553.000000	55.979511
1552.000000	55.949582
1551.000000	55.920475
1550.000000	55.890784
1549.000000	55.848066
1548.000000	55.820354
1547.000000	55.789145
1546.000000	55.745191
1545.000000	55.693144
1544.000000	55.627640
1543.000000	55.573387
1542.000000	55.531376
1541.000000	55.460745
1540.000000	55.401492
1539.000000	55.333249
1538.000000	55.263730
1537.000000	55.198332
1536.000000	55.136941
1535.000000	55.062509
1534.000000	55.005164
1533.000000	54.951792
1532.000000	54.875040
1531.000000	54.809551
1530.000000	54.756816
1529.000000	54.687666
1528.000000	54.631311
1527.000000	54.577712
1526.000000	54.538138
1525.000000	54.482507
1524.000000	54.436801
1523.000000	54.375898
1522.000000	54.319397
1521.000000	54.298449
1520.000000	54.276358
1519.000000	54.233297
1518.000000	54.226260
1517.000000	54.175481
1516.000000	54.158155
1515.000000	54.110952
1514.000000	54.097812
1513.000000	54.101507
1512.000000	54.068198
1511.000000	54.053270
1510.000000	54.034368
1509.000000	54.041378
1508.000000	54.042125
1507.000000	54.036126
1506.000000	54.015661
1505.000000	53.987369
1504.000000	53.955834
1503.000000	53.933346
1502.000000	53.918372
1501.000000	53.887347
1500.000000	53.891406
1499.000000	53.872274
1498.000000	53.879742
1497.000000	53.864683
1496.000000	53.862062
1495.000000	53.863503
1494.000000	53.863476
1493.000000	53.869603
1492.000000	53.891348
1491.000000	53.893872
1490.000000	53.914712
1489.000000	53.937933
1488.000000	53.917596
1487.000000	53.914104
1486.000000	53.959154
1485.000000	53.959421
1484.000000	53.994686
1483.000000	54.024224
1482.000000	54.035154
1481.000000	54.083155
1480.000000	54.112971
1479.000000	54.121597
1478.000000	54.146964
1477.000000	54.164575
1476.000000	54.196701
1475.000000	54.214015
1474.000000	54.232433
1473.000000	54.249213
1472.000000	54.302742
1471.000000	54.316256
1470.000000	54.327304
1469.000000	54.364479
1468.000000	54.380640
1467.000000	54.434062
1466.000000	54.456595
1465.000000	54.474936
1464.000000	54.488689
1463.000000	54.507628
1462.000000	54.526759
1461.000000	54.585047
1460.000000	54.624560
1459.000000	54.647236
1458.000000	54.665106
1457.000000	54.711220
1456.000000	54.770607
1455.000000	54.784101
1454.000000	54.818293
1453.000000	54.881264
1452.000000	54.930384
1451.000000	54.977392
1450.000000	55.015778
1449.000000	55.056204
1448.000000	55.096878
1447.000000	55.140563
1446.000000	55.211127
1445.000000	55.277057
1444.000000	55.343399
1443.000000	55.393595
1442.000000	55.434370
1441.000000	55.510386
1440.000000	55.578880
1439.000000	55.656546
1438.000000	55.746539
1437.000000	55.813756
1436.000000	55.881219
1435.000000	55.959239
1434.000000	56.039841
1433.000000	56.133648
1432.000000	56.206104
1431.000000	56.297754
1430.000000	56.397431
1429.000000	56.499722
1428.000000	56.609742
1427.000000	56.720503
1426.000000	56.834813
1425.000000	56.956711
1424.000000	57.081779
1423.000000	57.200111
1422.000000	57.317960
1421.000000	57.433631
1420.000000	57.569880
1419.000000	57.709655
1418.000000	57.843846
1417.000000	57.989036
1416.000000	58.142264
1415.000000	58.288772
1414.000000	58.440132
1413.000000	58.585659
1412.000000	58.740182
1411.000000	58.895730
1410.000000	59.037215
1409.000000	59.198445
1408.000000	59.367462
1407.000000	59.512953
1406.000000	59.665833
1405.000000	59.814972
1404.000000	59.970727
1403.000000	60.120976
1402.000000	60.264107
1401.000000	60.380313
1400.000000	60.519687
1399.000000	60.658143
1398.000000	60.801703
1397.000000	60.944163
1396.000000	61.063601
1395.000000	61.178860
1394.000000	61.287267
1393.000000	61.416183
1392.000000	61.530617
1391.000000	61.632078
1390.000000	61.733543
1389.000000	61.836221
1388.000000	61.942343
1387.000000	62.039399
1386.000000	62.132888
1385.000000	62.230109
1384.000000	62.307216
1383.000000	62.369282
1382.000000	62.439923
1381.000000	62.520498
1380.000000	62.591274
1379.000000	62.630702
1378.000000	62.654604
1377.000000	62.712367
1376.000000	62.777439
1375.000000	62.812717
1374.000000	62.856847
1373.000000	62.919740
1372.000000	62.963473
1371.000000	62.978797
1370.000000	63.017891
1369.000000	63.052352
1368.000000	63.086201
1367.000000	63.116500
1366.000000	63.146651
1365.000000	63.191651
1364.000000	63.224420
1363.000000	63.270263
1362.000000	63.322122
1361.000000	63.354911
1360.000000	63.390280
1359.000000	63.417325
1358.000000	63.429749
1357.000000	63.478635
1356.000000	63.507779
1355.000000	63.556168
1354.000000	63.583097
1353.000000	63.607239
1352.000000	63.634221
1351.000000	63.682217
1350.000000	63.712966
1349.000000	63.735804
1348.000000	63.778308
1347.000000	63.807720
1346.000000	63.828151
1345.000000	63.868200
1344.000000	63.915283
1343.000000	63.938928
1342.000000	63.961109
1341.000000	64.007703
1340.000000	64.017389
1339.000000	64.047138
1338.000000	64.088717
1337.000000	64.121114
1336.000000	64.146276
1335.000000	64.169445
1334.000000	64.210250
1333.000000	64.209809
1332.000000	64.227820
1331.000000	64.251723
1330.000000	64.273764
1329.000000	64.284087
1328.000000	64.315276
1327.000000	64.324697
1326.000000	64.327718
1325.000000	64.340947
1324.000000	64.357030
1323.000000	64.397316
1322.000000	64.379548
1321.000000	64.381772
1320.000000	64.392340
1319.000000	64.406416
1318.000000	64.431476
1317.000000	64.425810
1316.000000	64.457955
1315.000000	64.447214
1314.000000	64.431843
1313.000000	64.450867
1312.000000	64.482008
1311.000000	64.449188
1310.000000	64.487728
1309.000000	64.500030
1308.000000	64.483347
1307.000000	64.498399
1306.000000	64.484938
1305.000000	64.497019
1304.000000	64.502141
1303.000000	64.506230
1302.000000	64.525949
1301.000000	64.528400
1300.000000	64.541659
1299.000000	64.522213
1298.000000	64.523881
1297.000000	64.536524
1296.000000	64.538086
1295.000000	64.513072
1294.000000	64.523722
1293.000000	64.522658
1292.000000	64.523118
1291.000000	64.509288
1290.000000	64.517156
1289.000000	64.517199
1288.000000	64.503708
1287.000000	64.509464
1286.000000	64.494064
1285.000000	64.491018
1284.000000	64.493348
1283.000000	64.486528
1282.000000	64.491652
1281.000000	64.521282
1280.000000	64.506798
1279.000000	64.483993
1278.000000	64.474152
1277.000000	64.492951
1276.000000	64.475188
1275.000000	64.476720
1274.000000	64.469994
1273.000000	64.485472
1272.000000	64.494420
1271.000000	64.483182
1270.000000	64.461736
1269.000000	64.483819
1268.000000	64.484248
1267.000000	64.491638
1266.000000	64.483013
1265.000000	64.476645
1264.000000	64.481381
1263.000000	64.461781
1262.000000	64.502383
1261.000000	64.471636
1260.000000	64.499178
1259.000000	64.493331
1258.000000	64.483859
1257.000000	64.483511
1256.000000	64.509745
1255.000000	64.489128
1254.000000	64.498865
1253.000000	64.489439
1252.000000	64.490283
1251.000000	64.487704
1250.000000	64.491014
1249.000000	64.468913
1248.000000	64.476640
1247.000000	64.462196
1246.000000	64.458426
1245.000000	64.450046
1244.000000	64.461270
1243.000000	64.459062
1242.000000	64.421258
1241.000000	64.401723
1240.000000	64.398470
1239.000000	64.382680
1238.000000	64.370689
1237.000000	64.335729
1236.000000	64.329933
1235.000000	64.336894
1234.000000	64.293055
1233.000000	64.276049
1232.000000	64.280716
1231.000000	64.263880
1230.000000	64.240531
1229.000000	64.228317
1228.000000	64.208582
1227.000000	64.188808
1226.000000	64.178611
1225.000000	64.145280
1224.000000	64.136199
1223.000000	64.102582
1222.000000	64.095923
1221.000000	64.078174
1220.000000	64.052599
1219.000000	64.052661
1218.000000	64.015985
1217.000000	63.998177
1216.000000	63.980148
1215.000000	63.992232
1214.000000	63.940782
1213.000000	63.932419
1212.000000	63.901298
1211.000000	63.895904
1210.000000	63.884944
1209.000000	63.844615
1208.000000	63.816889
1207.000000	63.823886
1206.000000	63.770925
1205.000000	63.757234
1204.000000	63.742962
1203.000000	63.710354
1202.000000	63.692231
1201.000000	63.658464
1200.000000	63.654121
1199.000000	63.635643
1198.000000	63.609350
1197.000000	63.607711
1196.000000	63.575657
1195.000000	63.580734
1194.000000	63.568493
1193.000000	63.550399
1192.000000	63.540439
1191.000000	63.529773
1190.000000	63.521508
1189.000000	63.517196
1188.000000	63.529195
1187.000000	63.535542
1186.000000	63.530404
1185.000000	63.525100
1184.000000	63.528599
1183.000000	63.532990
1182.000000	63.546944
1181.000000	63.560687
1180.000000	63.572570
1179.000000	63.595439
1178.000000	63.634140
1177.000000	63.648011
1176.000000	63.658533
1175.000000	63.681853
1174.000000	63.710935
1173.000000	63.750928
1172.000000	63.780718
1171.000000	63.811582
1170.000000	63.858334
1169.000000	63.891413
1168.000000	63.914770
1167.000000	63.960495
1166.000000	64.012887
1165.000000	64.061815
1164.000000	64.102554
1163.000000	64.131340
1162.000000	64.156636
1161.000000	64.203473
1160.000000	64.252117
1159.000000	64.301937
1158.000000	64.343862
1157.000000	64.370370
1156.000000	64.404657
1155.000000	64.446663
1154.000000	64.481105
1153.000000	64.513491
1152.000000	64.567842
1151.000000	64.599736
1150.000000	64.613065
1149.000000	64.653224
1148.000000	64.687109
1147.000000	64.702073
1146.000000	64.717732
1145.000000	64.738236
1144.000000	64.769541
1143.000000	64.804554
1142.000000	64.823662
1141.000000	64.850636
1140.000000	64.869536
1139.000000	64.890036
1138.000000	64.920118
1137.000000	64.941625
1136.000000	64.966098
1135.000000	64.989123
1134.000000	65.009679
1133.000000	65.033353
1132.000000	65.031507
1131.000000	65.044318
1130.000000	65.062895
1129.000000	65.082937
1128.000000	65.095026
1127.000000	65.112916
1126.000000	65.117278
1125.000000	65.141337
1124.000000	65.140864
1123.000000	65.146029
1122.000000	65.167424
1121.000000	65.171469
1120.000000	65.162839
1119.000000	65.153711
1118.000000	65.159659
1117.000000	65.173105
1116.000000	65.183922
1115.000000	65.186924
1114.000000	65.171067
1113.000000	65.192144
1112.000000	65.186398
1111.000000	65.167162
1110.000000	65.173825
1109.000000	65.183484
1108.000000	65.174605
1107.000000	65.176394
1106.000000	65.173614
1105.000000	65.177170
1104.000000	65.168582
1103.000000	65.174146
1102.000000	65.193136
1101.000000	65.177073
1100.000000	65.197606
1099.000000	65.183557
1098.000000	65.185839
1097.000000	65.183034
1096.000000	65.166171
1095.000000	65.173480
1094.000000	65.173194
1093.000000	65.178746
1092.000000	65.185704
1091.000000	65.197805
1090.000000	65.184822
1089.000000	65.160892
1088.000000	65.175106
1087.000000	65.164755
1086.000000	65.163115
1085.000000	65.180712
1084.000000	65.160067
1083.000000	65.149566
1082.000000	65.140889
1081.000000	65.153701
1080.000000	65.139763
1079.000000	65.166712
1078.000000	65.165587
1077.000000	65.156691
1076.000000	65.131729
1075.000000	65.141665
1074.000000	65.129090
1073.000000	65.111443
1072.000000	65.123944
1071.000000	65.134786
1070.000000	65.123492
1069.000000	65.105821
1068.000000	65.112063
1067.000000	65.116008
1066.000000	65.115535
1065.000000	65.092757
1064.000000	65.098258
1063.000000	65.104587
1062.000000	65.107967
1061.000000	65.074642
1060.000000	65.066161
1059.000000	65.058338
1058.000000	65.057706
1057.000000	65.057912
1056.000000	65.033041
1055.000000	65.029760
1054.000000	65.028419
1053.000000	65.041352
1052.000000	65.055190
1051.000000	65.053873
1050.000000	65.017741
1049.000000	65.024314
1048.000000	64.999065
1047.000000	65.021212
1046.000000	65.019637
1045.000000	65.010086
1044.000000	65.002198
1043.000000	64.991696
1042.000000	64.981565
1041.000000	64.988106
1040.000000	64.994171
1039.000000	64.993981
1038.000000	64.983498
1037.000000	64.959718
1036.000000	64.970664
1035.000000	64.973834
1034.000000	64.974722
1033.000000	64.968355
1032.000000	64.963975
1031.000000	64.972019
1030.000000	64.976361
1029.000000	64.953575
1028.000000	64.958386
1027.000000	64.958601
1026.000000	64.950451
1025.000000	64.955192
1024.000000	64.951794
1023.000000	64.956534
1022.000000	64.945820
1021.000000	64.966457
1020.000000	64.964130
1019.000000	64.948128
1018.000000	64.951078
1017.000000	64.949866
1016.000000	64.956572
1015.000000	64.947389
1014.000000	64.958513
1013.000000	64.966411
1012.000000	64.972335
1011.000000	64.960330
1010.000000	64.966043
1009.000000	64.963112
1008.000000	64.962256
1007.000000	64.974127
1006.000000	64.962742
1005.000000	64.975555
1004.000000	64.956113
1003.000000	64.962833
1002.000000	64.974779
1001.000000	64.965615
1000.000000	64.969892
999.000000	64.996340
998.000000	64.996119
997.000000	65.006505
996.000000	65.004450
995.000000	65.001239
994.000000	64.991824
993.000000	64.993022
992.000000	64.986210
991.000000	64.988559
990.000000	64.985100
989.000000	64.985777
988.000000	64.988268
987.000000	64.976415
986.000000	64.998804
985.000000	65.002015
984.000000	64.998135
983.000000	65.006634
982.000000	64.996750
981.000000	64.982694
980.000000	64.994304
979.000000	64.998375
978.000000	64.997611
977.000000	64.992044
976.000000	64.990069
975.000000	64.994422
974.000000	64.997505
973.000000	64.979750
972.000000	64.972734
971.000000	64.994485
970.000000	64.989340
969.000000	64.980963
968.000000	64.989561
967.000000	64.984130
966.000000	64.951387
965.000000	64.969195
964.000000	64.981204
963.000000	64.974911
962.000000	64.998192
961.000000	64.992310
960.000000	64.968712
959.000000	64.988872
958.000000	64.981891
957.000000	64.975118
956.000000	64.983480
955.000000	64.976922
954.000000	64.961205
953.000000	64.965475
952.000000	64.980084
951.000000	64.965799
950.000000	64.973252
949.000000	64.993668
948.000000	64.990733
947.000000	64.983530
946.000000	64.964392
945.000000	64.957275
944.000000	64.940121
943.000000	64.934925
942.000000	64.955273
941.000000	64.962411
940.000000	64.949382
939.000000	64.931227
938.000000	64.929054
937.000000	64.912798
936.000000	64.886985
935.000000	64.884559
934.000000	64.880065
933.000000	64.866139
932.000000	64.876626
931.000000	64.903347
930.000000	64.889103
929.000000	64.871134
928.000000	64.841929
927.000000	64.815829
926.000000	64.839886
925.000000	64.834503
924.000000	64.822857
923.000000	64.795700
922.000000	64.809888
921.000000	64.788654
920.000000	64.756298
919.000000	64.766011
918.000000	64.771697
917.000000	64.746436
916.000000	64.735845
915.000000	64.753067
914.000000	64.770106
913.000000	64.742857
912.000000	64.727790
911.000000	64.741059
910.000000	64.739031
909.000000	64.703208
908.000000	64.694135
907.000000	64.681030
906.000000	64.651410
905.000000	64.712357
904.000000	64.717066
903.000000	64.711435
902.000000	64.707201
901.000000	64.684979
900.000000	64.665778
899.000000	64.668471
898.000000	64.714877
897.000000	64.690459
896.000000	64.657484
895.000000	64.647343
894.000000	64.664370
893.000000	64.661218
892.000000	64.695142
891.000000	64.647461
890.000000	64.628286
889.000000	64.654363
888.000000	64.600166
887.000000	64.611570
886.000000	64.588789
885.000000	64.633496
884.000000	64.603811
883.000000	64.524920
882.000000	64.566395
881.000000	64.638321
880.000000	64.638533
879.000000	64.641622
878.000000	64.623586
877.000000	64.583929
876.000000	64.568755
875.000000	64.484610
874.000000	64.552106
873.000000	64.539537
872.000000	64.595037
871.000000	64.539325
870.000000	64.515410
869.000000	64.538489
868.000000	64.496736
867.000000	64.555586
866.000000	64.441086
865.000000	64.519546
864.000000	64.485336
863.000000	64.435716
862.000000	64.504057
861.000000	64.473161
860.000000	64.390494
859.000000	63.232971
858.000000	63.031774
857.000000	63.682996
856.000000	63.067288
855.000000	63.418323
854.000000	63.470284
853.000000	63.479959
852.000000	63.413957
851.000000	63.193609
850.000000	63.098981
849.000000	63.347040
848.000000	63.257084
847.000000	63.038441
846.000000	63.133855
845.000000	63.059995
844.000000	63.173817
843.000000	63.156766
842.000000	63.276542
841.000000	63.190998
840.000000	63.185048
839.000000	63.200279
838.000000	63.021915
837.000000	63.129673
836.000000	63.191115
835.000000	63.049616
834.000000	63.207818
833.000000	63.025334
832.000000	63.001433
831.000000	63.086402
830.000000	63.212582
829.000000	62.912307
828.000000	63.147172
827.000000	62.894205
826.000000	63.018991
825.000000	62.940448
824.000000	62.903468
823.000000	62.846146
822.000000	62.899407
821.000000	63.076587
820.000000	62.895393
819.000000	62.651023
818.000000	62.957676
817.000000	62.840119
816.000000	62.693576
815.000000	62.843264
814.000000	62.711220
813.000000	62.664663
812.000000	62.804852
811.000000	62.791017
810.000000	62.627672
809.000000	62.579828
808.000000	62.472561
807.000000	62.622779
806.000000	62.686835
805.000000	62.640598
804.000000	62.790524
803.000000	62.359979
802.000000	62.475115
801.000000	62.547143
800.000000	62.494440
799.000000	62.585905
798.000000	62.491046
797.000000	62.594871
796.000000	62.491724
795.000000	62.436200
794.000000	62.360641
793.000000	62.413337
792.000000	62.299547
791.000000	62.311555
790.000000	62.238171
789.000000	62.255031
788.000000	62.222599
787.000000	62.358448
786.000000	62.191564
785.000000	62.242317
784.000000	62.149681
783.000000	62.141954
782.000000	62.067090
781.000000	62.081474
780.000000	62.155912
779.000000	62.171061
778.000000	62.157620
777.000000	62.008193
776.000000	61.964489
775.000000	61.995828
774.000000	62.031854
773.000000	62.048434
772.000000	61.974398
771.000000	61.963951
770.000000	61.886138
769.000000	61.783109
768.000000	61.764910
767.000000	61.719754
766.000000	61.795038
765.000000	61.836099
764.000000	61.807777
763.000000	61.758803
762.000000	61.728669
761.000000	61.732469
760.000000	61.729146
759.000000	61.670439
758.000000	61.622236
757.000000	61.526697
756.000000	61.471474
755.000000	61.501396
754.000000	61.474312
753.000000	61.563050
752.000000	61.446930
751.000000	61.412716
750.000000	61.386925
749.000000	61.389605
748.000000	61.314230
747.000000	61.234375
746.000000	61.248029
745.000000	61.208411
744.000000	61.192637
743.000000	61.118014
742.000000	61.087518
741.000000	61.082783
740.000000	61.125602
739.000000	61.115332
738.000000	61.099236
737.000000	61.069506
736.000000	60.912717
735.000000	60.914017
734.000000	60.884209
733.000000	60.858600
732.000000	60.818770
731.000000	60.772495
730.000000	60.772475
729.000000	60.764929
728.000000	60.639943
727.000000	60.624232
726.000000	60.637496
725.000000	60.580247
724.000000	60.535916
723.000000	60.505190
722.000000	60.448028
721.000000	60.421875
720.000000	60.453497
719.000000	60.391723
718.000000	60.296055
717.000000	60.220215
716.000000	60.185247
715.000000	60.194545
714.000000	60.165118
713.000000	60.112517
712.000000	60.079671
711.000000	60.060025
710.000000	60.053819
709.000000	60.046136
708.000000	59.914057
707.000000	59.812982
706.000000	59.820513
705.000000	59.786511
704.000000	59.735956
703.000000	59.691188
702.000000	59.640937
701.000000	59.611118
700.000000	59.590993
699.000000	59.495808
698.000000	59.449499
697.000000	59.444543
696.000000	59.365597
695.000000	59.321194
694.000000	59.309919
693.000000	59.280197
692.000000	59.256144
691.000000	59.211687
690.000000	59.145160
689.000000	59.035214
688.000000	58.950771
687.000000	58.988676
686.000000	58.981713
685.000000	58.847878
684.000000	58.745218
683.000000	58.709319
682.000000	58.674565
681.000000	58.631742
680.000000	58.620520
679.000000	58.616362
678.000000	58.551330
677.000000	58.509862
676.000000	58.428911
675.000000	58.342673
674.000000	58.279920
673.000000	58.162982
672.000000	58.147691
671.000000	58.131939
670.000000	58.053082
669.000000	57.990199
668.000000	57.909636
667.000000	57.829740
666.000000	57.792728
665.000000	57.712455
664.000000	57.656084
663.000000	57.592587
662.000000	57.542290
661.000000	57.507245
660.000000	57.447516
659.000000	57.387778
658.000000	57.324543
657.000000	57.237853
656.000000	57.161579
655.000000	57.114233
654.000000	57.075929
653.000000	56.991326
652.000000	56.930097
651.000000	56.844541
650.000000	56.775571
649.000000	56.711503
648.000000	56.643119
647.000000	56.568664
646.000000	56.519466
645.000000	56.447438
644.000000	56.384097
643.000000	56.300171
642.000000	56.235651
641.000000	56.174534
640.000000	56.068360
639.000000	55.962868
638.000000	55.942187
637.000000	55.821839
636.000000	55.810329
635.000000	55.705870
634.000000	55.601112
633.000000	55.526319
632.000000	55.466453
631.000000	55.364856
630.000000	55.283851
629.000000	55.260577
628.000000	55.140928
627.000000	55.053775
626.000000	54.996576
625.000000	54.978824
624.000000	54.900801
623.000000	54.786673
622.000000	54.681516
621.000000	54.613047
620.000000	54.544978
619.000000	54.430975
618.000000	54.321803
617.000000	54.250830
616.000000	54.189677
615.000000	54.090076
614.000000	53.978888
613.000000	53.874840
612.000000	53.807911
611.000000	53.699128
610.000000	53.697789
609.000000	53.550679
608.000000	53.457234
607.000000	53.353798
606.000000	53.313064
605.000000	53.182659
604.000000	53.106073
603.000000	52.984443
602.000000	52.904515
601.000000	52.815696
600.000000	52.716822
599.000000	52.617458
598.000000	52.585330
597.000000	52.408626
596.000000	52.293863
595.000000	52.230626
594.000000	52.107978
593.000000	52.067518
592.000000	51.941946
591.000000	51.785261
590.000000	51.681935
589.000000	51.613397
588.000000	51.538754
587.000000	51.402298
586.000000	51.302196
585.000000	51.179153
584.000000	51.071625
583.000000	50.972509
582.000000	50.883914
581.000000	50.741852
580.000000	50.653087
579.000000	50.530933
578.000000	50.404794
577.000000	50.327568
576.000000	50.211320
575.000000	50.094618
574.000000	50.002078
573.000000	49.857014
572.000000	49.783457
571.000000	49.663280
570.000000	49.505038
569.000000	49.445631
568.000000	49.265272
567.000000	49.169608
566.000000	49.054597
565.000000	48.941257
564.000000	48.805273
563.000000	48.708188
562.000000	48.537992
561.000000	48.268477
560.000000	48.169757
559.000000	48.091257
558.000000	47.947146
557.000000	47.814514
556.000000	47.685441
555.000000	47.591738
554.000000	47.442356
553.000000	47.312313
552.000000	47.174582
551.000000	47.053370
550.000000	46.943775
549.000000	46.814841
548.000000	46.660018
547.000000	46.589618
546.000000	46.400423
545.000000	46.279750
544.000000	46.136559
543.000000	46.004274
542.000000	45.888221
541.000000	45.782750
540.000000	45.573088
539.000000	45.489748
538.000000	45.332314
537.000000	45.239583
536.000000	45.100863
535.000000	44.938696
534.000000	44.817085
533.000000	44.699854
532.000000	44.545347
531.000000	44.416141
530.000000	44.291024
529.000000	44.138474
528.000000	43.977971
527.000000	43.875939
526.000000	43.728552
525.000000	43.577892
524.000000	43.458742
523.000000	43.315499
522.000000	43.135367
521.000000	43.020184
520.000000	42.883632
519.000000	42.741478
518.000000	42.573290
517.000000	42.435901
516.000000	42.311935
515.000000	42.184679
514.000000	42.033157
513.000000	41.915601
512.000000	41.706497
511.000000	41.556684
510.000000	41.420012
509.000000	41.299088
508.000000	41.140324
507.000000	40.964066
506.000000	40.794015
505.000000	40.651140
504.000000	40.482737
503.000000	40.343250
502.000000	40.204247
501.000000	40.042611
500.000000	39.897410
499.000000	39.773429
498.000000	39.609768
497.000000	39.460417
496.000000	39.300558
495.000000	39.129660
494.000000	38.985010
493.000000	38.862438
492.000000	38.691900
491.000000	38.526923
490.000000	38.378200
489.000000	38.227809
488.000000	38.093343
487.000000	37.942862
486.000000	37.777094
485.000000	37.634029
484.000000	37.544780
483.000000	37.413320
482.000000	37.239298
481.000000	37.069617
480.000000	36.929707
479.000000	36.782485
478.000000	36.655983
477.000000	36.484652
476.000000	36.307310
475.000000	36.151459
474.000000	35.991984
473.000000	35.860016
472.000000	35.718035
471.000000	35.556148
470.000000	35.400434
469.000000	35.252807
468.000000	35.119743
467.000000	34.949855
466.000000	34.785690
465.000000	34.640984
464.000000	34.474416
463.000000	34.307196
462.000000	34.170583
461.000000	34.027419
460.000000	33.859021
459.000000	33.696460
458.000000	33.524381
457.000000	33.349485
456.000000	33.199619
455.000000	33.049028
454.000000	32.868874
453.000000	32.701397
452.000000	32.561678
451.000000	32.382594
450.000000	32.210877
449.000000	32.051037
448.000000	31.871802
447.000000	31.699302
446.000000	31.508277
445.000000	31.292872
444.000000	31.159513
443.000000	31.022948
442.000000	30.849476
441.000000	30.642079
440.000000	30.460001
439.000000	30.287855
438.000000	30.111263
437.000000	29.939818
436.000000	29.748889
435.000000	29.570856
434.000000	29.401239
433.000000	29.205402
432.000000	29.025163
431.000000	28.870966
430.000000	28.702865
429.000000	28.511691
428.000000	28.318400
427.000000	28.122657
426.000000	27.969639
425.000000	27.793905
424.000000	27.597858
423.000000	27.435852
422.000000	27.280008
421.000000	27.105488
420.000000	26.908856
419.000000	26.737027
418.000000	26.567300
417.000000	26.356844
416.000000	26.184352
415.000000	26.000488
414.000000	25.819445
413.000000	25.673253
412.000000	25.471674
411.000000	25.294860
410.000000	25.108383
409.000000	24.916849
408.000000	24.709268
407.000000	24.528654
406.000000	24.376328
405.000000	24.212753
404.000000	24.017346
403.000000	23.849773
402.000000	23.663322
401.000000	23.488225
400.000000	23.270005
399.000000	23.104133
398.000000	22.944218
397.000000	22.778939
396.000000	22.625975
395.000000	22.405966
394.000000	22.224954
393.000000	22.091795
392.000000	21.911695
391.000000	21.750527
390.000000	21.583072
389.000000	21.383328
388.000000	21.188331
387.000000	21.013178
386.000000	20.876459
385.000000	20.657030
384.000000	20.483295
383.000000	20.315964
382.000000	20.135666
381.000000	19.945499
380.000000	19.751901
379.000000	19.562342
378.000000	19.443321
377.000000	19.409878
376.000000	19.116958
375.000000	18.864822
374.000000	18.722352
373.000000	18.530961
372.000000	18.433047
371.000000	18.267474
370.000000	18.036463
369.000000	17.906261
368.000000	17.809136
367.000000	17.512405
366.000000	17.435908
365.000000	17.209591
364.000000	17.077065
363.000000	16.965341
362.000000	16.796159
361.000000	16.691610
360.000000	16.510082
359.000000	16.406438
358.000000	16.187053
357.000000	16.048268
356.000000	15.885994
355.000000	15.769650
354.000000	15.572729
353.000000	15.482861
352.000000	15.397021
351.000000	15.169176
350.000000	15.116894
349.000000	14.983605
348.000000	14.885290
347.000000	14.743288
346.000000	14.558080
345.000000	14.414537
344.000000	14.296868
343.000000	14.165500
342.000000	14.088428
341.000000	14.015018
340.000000	13.802846
339.000000	13.739586
338.000000	13.654865
337.000000	13.482686
336.000000	13.429282
335.000000	13.332770
334.000000	13.151509
333.000000	13.026398
332.000000	13.031293
331.000000	12.836763
330.000000	12.684319
329.000000	12.632635
328.000000	12.566388
327.000000	12.423927
326.000000	12.344602
325.000000	12.188564
324.000000	12.020990
323.000000	12.030884
322.000000	11.978156
321.000000	11.891804
320.000000	11.870059
319.000000	11.761206
318.000000	11.678195
317.000000	11.552953
316.000000	11.620051
315.000000	11.532972
314.000000	11.472191
313.000000	11.452182
312.000000	11.384551
311.000000	11.301136
310.000000	11.236990
309.000000	11.211183
308.000000	11.206579
307.000000	11.082186
306.000000	11.097605
305.000000	11.001158
304.000000	10.954439
303.000000	10.958484
302.000000	10.937035
301.000000	10.853643
300.000000	10.841600
299.000000	10.810544
298.000000	10.777649
297.000000	10.705325
296.000000	10.627341
295.000000	10.553649
294.000000	10.627440
293.000000	10.542838
292.000000	10.449179
291.000000	10.413507
290.000000	10.335344
289.000000	10.277127
288.000000	10.314287
287.000000	10.255409
286.000000	10.247930
285.000000	10.170429
284.000000	10.206796
283.000000	10.178818
282.000000	10.175109
281.000000	10.191430
280.000000	10.235191
279.000000	10.210360
278.000000	10.256350
277.000000	10.249083
276.000000	10.267295
275.000000	10.356042
274.000000	10.406262
273.000000	10.468468
272.000000	10.530536
271.000000	10.510814
270.000000	10.568005
269.000000	10.650230
268.000000	10.684166
267.000000	10.768722
266.000000	10.858890
265.000000	10.908458
264.000000	10.919849
263.000000	11.045251
262.000000	11.109398
261.000000	11.167039
260.000000	11.251454
259.000000	11.372493
258.000000	11.489179
257.000000	11.535494
256.000000	11.630065
255.000000	11.685176
254.000000	11.743019
253.000000	11.857075
252.000000	11.949616
251.000000	12.008342
250.000000	12.038813
249.000000	12.067379
248.000000	12.168727
247.000000	12.234791
246.000000	12.185217
245.000000	12.179907
244.000000	12.196372
243.000000	12.135089
242.000000	12.087333
241.000000	12.046484
240.000000	11.973920
239.000000	11.817786
238.000000	11.707031
237.000000	11.614387
236.000000	11.515785
235.000000	11.392999
234.000000	11.233118
233.000000	11.091535
232.000000	10.962055
231.000000	10.795110
230.000000	10.614841
229.000000	10.520695
228.000000	10.434145
227.000000	10.355898
226.000000	10.224971
225.000000	10.104625
224.000000	10.046946
223.000000	9.993599
222.000000	9.943810
221.000000	9.893483
220.000000	9.916891
219.000000	9.918174
218.000000	9.888847
217.000000	9.935568
216.000000	9.988408
215.000000	10.068252
214.000000	10.143870
213.000000	10.134184
212.000000	10.192918
211.000000	10.302883
210.000000	10.426637
209.000000	10.553889
208.000000	10.692335
207.000000	10.892415
206.000000	11.054465
205.000000	11.165604
204.000000	11.397185
203.000000	11.856890
202.000000	12.221127
201.000000	12.375362
200.000000	12.470562
