PE UV       SUBTECH     SPECTRUM    ASCII       PEDS        4.00        
   -1
RTms1593411.Sample.asc
18/03/13
15:51:49.00
18/03/13
15:51:49.00
Administrator

200.000000
1
Lambda 750
750N8071901
PerkinElmer UV WinLab 6.0.4.0738 / 1.61.00 Lambda 900

0
0
3350/servo 860.8/2
0
0
UV/VIS
1
1
1
CommonBeamDepol,150mm sphere / downward view
0
0
0
0
Program
Program
3350/servo 860.8/2
3350/0.2 860.8/0.2
3350/0.2 860.8/0.2
0
1
 
 
 
0
 
860.8
319.2
860.8
Front
100
on
 
 
0
0
0
 
0
 
 
 
0
 
 
0
0
0
0
0
 
 
 
 
0
0


0
0
#HDR
-1
-1
#GR
nm
%R
1.0
0.0
2350.000000
-1.000000
2151
8
51.910850
5.433502
#DATA
2350.000000	20.012756
2349.000000	19.861741
2348.000000	19.925171
2347.000000	20.853705
2346.000000	20.043146
2345.000000	19.920335
2344.000000	19.859840
2343.000000	20.032548
2342.000000	20.304311
2341.000000	20.487138
2340.000000	20.456473
2339.000000	20.595530
2338.000000	20.593824
2337.000000	20.620806
2336.000000	20.723046
2335.000000	21.116935
2334.000000	20.899524
2333.000000	20.818018
2332.000000	20.946659
2331.000000	20.883759
2330.000000	20.852058
2329.000000	20.754557
2328.000000	20.808829
2327.000000	20.669047
2326.000000	20.737448
2325.000000	20.757669
2324.000000	20.861788
2323.000000	20.673827
2322.000000	20.500515
2321.000000	20.603428
2320.000000	20.733510
2319.000000	20.573448
2318.000000	20.438547
2317.000000	20.481433
2316.000000	20.430956
2315.000000	20.197426
2314.000000	20.389915
2313.000000	20.178547
2312.000000	20.008279
2311.000000	19.996724
2310.000000	20.189695
2309.000000	19.887959
2308.000000	19.908142
2307.000000	19.841004
2306.000000	19.754490
2305.000000	19.788617
2304.000000	19.847374
2303.000000	19.902953
2302.000000	19.671859
2301.000000	19.625236
2300.000000	19.510866
2299.000000	19.541871
2298.000000	19.586813
2297.000000	19.436857
2296.000000	19.483659
2295.000000	19.244733
2294.000000	19.270833
2293.000000	19.096759
2292.000000	19.090484
2291.000000	19.210655
2290.000000	19.160087
2289.000000	19.036759
2288.000000	19.071430
2287.000000	19.088449
2286.000000	18.917655
2285.000000	19.011827
2284.000000	19.197169
2283.000000	18.970479
2282.000000	18.924803
2281.000000	19.074660
2280.000000	19.162615
2279.000000	19.174044
2278.000000	19.269130
2277.000000	19.307691
2276.000000	19.187392
2275.000000	19.170065
2274.000000	19.337748
2273.000000	19.477080
2272.000000	19.439735
2271.000000	19.403560
2270.000000	19.366766
2269.000000	19.571680
2268.000000	19.627086
2267.000000	19.377173
2266.000000	19.535670
2265.000000	19.796477
2264.000000	19.907214
2263.000000	20.001193
2262.000000	20.112686
2261.000000	20.166142
2260.000000	20.279381
2259.000000	20.338718
2258.000000	20.445907
2257.000000	20.713053
2256.000000	20.930991
2255.000000	20.985800
2254.000000	21.046877
2253.000000	21.273544
2252.000000	21.410939
2251.000000	21.612036
2250.000000	21.783304
2249.000000	21.933103
2248.000000	22.016160
2247.000000	22.228397
2246.000000	22.465738
2245.000000	22.559889
2244.000000	22.713324
2243.000000	22.974454
2242.000000	23.153613
2241.000000	23.270701
2240.000000	23.294437
2239.000000	23.377980
2238.000000	23.542652
2237.000000	23.664445
2236.000000	23.785306
2235.000000	23.807711
2234.000000	23.846551
2233.000000	23.874668
2232.000000	23.993960
2231.000000	24.086570
2230.000000	24.050709
2229.000000	23.982248
2228.000000	24.156540
2227.000000	24.217117
2226.000000	24.056295
2225.000000	24.126627
2224.000000	24.190061
2223.000000	24.024314
2222.000000	24.078152
2221.000000	24.050679
2220.000000	24.010705
2219.000000	24.022861
2218.000000	24.010271
2217.000000	23.970186
2216.000000	23.965885
2215.000000	23.866239
2214.000000	23.836472
2213.000000	23.889605
2212.000000	23.913440
2211.000000	23.787542
2210.000000	23.607542
2209.000000	23.557494
2208.000000	23.484033
2207.000000	23.397245
2206.000000	23.372846
2205.000000	23.278713
2204.000000	23.269818
2203.000000	23.163535
2202.000000	23.038083
2201.000000	22.903173
2200.000000	22.903419
2199.000000	22.844131
2198.000000	22.921764
2197.000000	22.868395
2196.000000	22.878410
2195.000000	22.899543
2194.000000	22.646591
2193.000000	22.481614
2192.000000	22.475918
2191.000000	22.474489
2190.000000	22.593173
2189.000000	22.438680
2188.000000	22.419436
2187.000000	22.301828
2186.000000	22.186601
2185.000000	22.103588
2184.000000	22.121086
2183.000000	22.143343
2182.000000	22.066623
2181.000000	22.103604
2180.000000	22.031636
2179.000000	22.089488
2178.000000	21.966633
2177.000000	22.015561
2176.000000	22.169580
2175.000000	22.095755
2174.000000	22.045480
2173.000000	22.175445
2172.000000	22.269538
2171.000000	22.311597
2170.000000	22.150550
2169.000000	22.380648
2168.000000	22.245280
2167.000000	22.275342
2166.000000	22.553730
2165.000000	22.608644
2164.000000	22.641073
2163.000000	22.747379
2162.000000	22.705605
2161.000000	22.951938
2160.000000	23.064332
2159.000000	23.098902
2158.000000	23.149992
2157.000000	23.297341
2156.000000	23.262245
2155.000000	23.514920
2154.000000	23.758103
2153.000000	23.961774
2152.000000	24.047396
2151.000000	24.091615
2150.000000	24.058037
2149.000000	24.382684
2148.000000	24.428539
2147.000000	24.492393
2146.000000	24.541180
2145.000000	24.732731
2144.000000	24.817413
2143.000000	24.947228
2142.000000	24.982359
2141.000000	25.206947
2140.000000	25.229337
2139.000000	25.393969
2138.000000	25.680753
2137.000000	25.717336
2136.000000	25.716281
2135.000000	25.904714
2134.000000	25.998266
2133.000000	25.708082
2132.000000	26.104311
2131.000000	26.288039
2130.000000	26.293100
2129.000000	26.281284
2128.000000	26.254506
2127.000000	26.386293
2126.000000	26.395951
2125.000000	26.291531
2124.000000	26.690119
2123.000000	26.665475
2122.000000	26.744953
2121.000000	26.834607
2120.000000	26.723578
2119.000000	26.658348
2118.000000	26.886007
2117.000000	27.088825
2116.000000	26.942780
2115.000000	27.015399
2114.000000	27.074404
2113.000000	27.014753
2112.000000	26.977654
2111.000000	26.905588
2110.000000	27.040753
2109.000000	27.078533
2108.000000	27.098746
2107.000000	27.195929
2106.000000	27.228706
2105.000000	27.339548
2104.000000	27.269623
2103.000000	27.285103
2102.000000	27.292612
2101.000000	27.319419
2100.000000	27.271337
2099.000000	27.382032
2098.000000	27.443176
2097.000000	27.369313
2096.000000	27.366586
2095.000000	27.276031
2094.000000	27.343080
2093.000000	27.390072
2092.000000	27.279737
2091.000000	27.267673
2090.000000	27.227898
2089.000000	27.264386
2088.000000	27.221273
2087.000000	27.290263
2086.000000	27.249949
2085.000000	27.132838
2084.000000	27.068036
2083.000000	26.951881
2082.000000	26.987183
2081.000000	26.953122
2080.000000	26.852168
2079.000000	26.736645
2078.000000	26.652229
2077.000000	26.595421
2076.000000	26.556527
2075.000000	26.380100
2074.000000	26.297879
2073.000000	26.211926
2072.000000	26.087969
2071.000000	25.965091
2070.000000	25.912439
2069.000000	25.814452
2068.000000	25.619756
2067.000000	25.518660
2066.000000	25.335335
2065.000000	25.147648
2064.000000	25.088315
2063.000000	24.989280
2062.000000	24.815969
2061.000000	24.699415
2060.000000	24.521096
2059.000000	24.378225
2058.000000	24.273525
2057.000000	24.164135
2056.000000	24.012853
2055.000000	23.987895
2054.000000	23.903891
2053.000000	23.751289
2052.000000	23.674292
2051.000000	23.570262
2050.000000	23.456700
2049.000000	23.375948
2048.000000	23.325460
2047.000000	23.374260
2046.000000	23.279559
2045.000000	23.189587
2044.000000	23.188643
2043.000000	23.178567
2042.000000	23.183006
2041.000000	23.236859
2040.000000	23.285066
2039.000000	23.296610
2038.000000	23.293390
2037.000000	23.341155
2036.000000	23.407913
2035.000000	23.520652
2034.000000	23.622489
2033.000000	23.683900
2032.000000	23.764533
2031.000000	23.832274
2030.000000	23.922006
2029.000000	24.015225
2028.000000	24.101799
2027.000000	24.196244
2026.000000	24.320700
2025.000000	24.390106
2024.000000	24.430334
2023.000000	24.523122
2022.000000	24.595004
2021.000000	24.612628
2020.000000	24.644259
2019.000000	24.687284
2018.000000	24.677614
2017.000000	24.655639
2016.000000	24.626900
2015.000000	24.599500
2014.000000	24.592940
2013.000000	24.552815
2012.000000	24.517943
2011.000000	24.536073
2010.000000	24.479942
2009.000000	24.341012
2008.000000	24.308320
2007.000000	24.265364
2006.000000	24.157264
2005.000000	24.102709
2004.000000	24.021542
2003.000000	23.936034
2002.000000	23.874538
2001.000000	23.750774
2000.000000	23.655600
1999.000000	23.569666
1998.000000	23.468165
1997.000000	23.384436
1996.000000	23.332993
1995.000000	23.201458
1994.000000	23.089547
1993.000000	22.971031
1992.000000	22.884608
1991.000000	22.785532
1990.000000	22.690913
1989.000000	22.557863
1988.000000	22.474204
1987.000000	22.395950
1986.000000	22.323641
1985.000000	22.210426
1984.000000	22.096972
1983.000000	22.001170
1982.000000	21.941427
1981.000000	21.837628
1980.000000	21.741569
1979.000000	21.631993
1978.000000	21.514019
1977.000000	21.424132
1976.000000	21.330655
1975.000000	21.247176
1974.000000	21.137855
1973.000000	21.073873
1972.000000	20.993119
1971.000000	20.895688
1970.000000	20.807452
1969.000000	20.773379
1968.000000	20.702938
1967.000000	20.631540
1966.000000	20.540665
1965.000000	20.478493
1964.000000	20.398288
1963.000000	20.265472
1962.000000	20.213483
1961.000000	20.091108
1960.000000	20.044138
1959.000000	19.977574
1958.000000	19.928231
1957.000000	19.822630
1956.000000	19.761295
1955.000000	19.705870
1954.000000	19.611358
1953.000000	19.553311
1952.000000	19.528137
1951.000000	19.509958
1950.000000	19.473890
1949.000000	19.400140
1948.000000	19.346620
1947.000000	19.347475
1946.000000	19.321761
1945.000000	19.333562
1944.000000	19.311486
1943.000000	19.313738
1942.000000	19.352142
1941.000000	19.344775
1940.000000	19.348485
1939.000000	19.399453
1938.000000	19.410691
1937.000000	19.395316
1936.000000	19.579451
1935.000000	19.683935
1934.000000	19.702279
1933.000000	19.867245
1932.000000	19.918664
1931.000000	19.996710
1930.000000	20.099298
1929.000000	20.192803
1928.000000	20.323694
1927.000000	20.507794
1926.000000	20.620303
1925.000000	20.831963
1924.000000	20.931105
1923.000000	21.200757
1922.000000	21.424978
1921.000000	21.669568
1920.000000	21.848942
1919.000000	22.058362
1918.000000	22.429233
1917.000000	22.738099
1916.000000	22.815096
1915.000000	23.178873
1914.000000	23.564973
1913.000000	23.847890
1912.000000	24.293563
1911.000000	24.616815
1910.000000	24.896525
1909.000000	25.372208
1908.000000	25.790971
1907.000000	26.211517
1906.000000	26.677698
1905.000000	27.044982
1904.000000	27.528743
1903.000000	28.070369
1902.000000	28.611297
1901.000000	29.056089
1900.000000	29.559559
1899.000000	30.151446
1898.000000	30.718062
1897.000000	31.138749
1896.000000	31.720369
1895.000000	32.239360
1894.000000	32.730741
1893.000000	33.229659
1892.000000	33.803756
1891.000000	34.231772
1890.000000	34.727341
1889.000000	35.160286
1888.000000	35.619050
1887.000000	36.075933
1886.000000	36.508225
1885.000000	36.974290
1884.000000	37.408071
1883.000000	37.748072
1882.000000	38.127062
1881.000000	38.520664
1880.000000	38.915740
1879.000000	39.288290
1878.000000	39.643272
1877.000000	39.971643
1876.000000	40.310211
1875.000000	40.640485
1874.000000	40.902088
1873.000000	41.098467
1872.000000	41.358456
1871.000000	41.607524
1870.000000	41.795937
1869.000000	42.002489
1868.000000	42.221992
1867.000000	42.330761
1866.000000	42.432341
1865.000000	42.598395
1864.000000	42.707730
1863.000000	42.777918
1862.000000	42.900399
1861.000000	42.928640
1860.000000	42.996428
1859.000000	43.099558
1858.000000	43.151053
1857.000000	43.174294
1856.000000	43.221170
1855.000000	43.296801
1854.000000	43.330794
1853.000000	43.344977
1852.000000	43.354695
1851.000000	43.381617
1850.000000	43.444456
1849.000000	43.403900
1848.000000	43.394303
1847.000000	43.435639
1846.000000	43.431660
1845.000000	43.397691
1844.000000	43.387291
1843.000000	43.344239
1842.000000	43.318545
1841.000000	43.298615
1840.000000	43.270125
1839.000000	43.247722
1838.000000	43.200915
1837.000000	43.122265
1836.000000	43.089214
1835.000000	43.089653
1834.000000	43.033242
1833.000000	42.976086
1832.000000	42.924475
1831.000000	42.875492
1830.000000	42.822033
1829.000000	42.777022
1828.000000	42.729645
1827.000000	42.679719
1826.000000	42.640019
1825.000000	42.610817
1824.000000	42.562136
1823.000000	42.520268
1822.000000	42.468285
1821.000000	42.439317
1820.000000	42.395997
1819.000000	42.331938
1818.000000	42.320835
1817.000000	42.292626
1816.000000	42.228610
1815.000000	42.193327
1814.000000	42.163323
1813.000000	42.107600
1812.000000	42.059552
1811.000000	42.039406
1810.000000	42.000344
1809.000000	41.961203
1808.000000	41.929011
1807.000000	41.878192
1806.000000	41.855583
1805.000000	41.806524
1804.000000	41.768700
1803.000000	41.766830
1802.000000	41.701299
1801.000000	41.640882
1800.000000	41.619450
1799.000000	41.601212
1798.000000	41.574454
1797.000000	41.530295
1796.000000	41.490746
1795.000000	41.466975
1794.000000	41.470419
1793.000000	41.433754
1792.000000	41.393121
1791.000000	41.380728
1790.000000	41.356342
1789.000000	41.340177
1788.000000	41.314340
1787.000000	41.282577
1786.000000	41.264878
1785.000000	41.254408
1784.000000	41.217077
1783.000000	41.168655
1782.000000	41.134136
1781.000000	41.093064
1780.000000	41.060301
1779.000000	41.037958
1778.000000	40.990061
1777.000000	40.930107
1776.000000	40.895054
1775.000000	40.811601
1774.000000	40.730549
1773.000000	40.688203
1772.000000	40.636013
1771.000000	40.582744
1770.000000	40.531385
1769.000000	40.445643
1768.000000	40.384506
1767.000000	40.305019
1766.000000	40.248535
1765.000000	40.197767
1764.000000	40.137064
1763.000000	40.068873
1762.000000	40.002613
1761.000000	39.948072
1760.000000	39.870831
1759.000000	39.815372
1758.000000	39.780031
1757.000000	39.733044
1756.000000	39.662851
1755.000000	39.592417
1754.000000	39.559456
1753.000000	39.493762
1752.000000	39.431029
1751.000000	39.352597
1750.000000	39.276615
1749.000000	39.226229
1748.000000	39.157345
1747.000000	39.071301
1746.000000	39.001560
1745.000000	38.941660
1744.000000	38.858154
1743.000000	38.783204
1742.000000	38.727355
1741.000000	38.650590
1740.000000	38.593242
1739.000000	38.526426
1738.000000	38.469864
1737.000000	38.406752
1736.000000	38.339730
1735.000000	38.323022
1734.000000	38.327872
1733.000000	38.311120
1732.000000	38.282983
1731.000000	38.287522
1730.000000	38.288430
1729.000000	38.353769
1728.000000	38.392975
1727.000000	38.423447
1726.000000	38.463018
1725.000000	38.564719
1724.000000	38.611792
1723.000000	38.719049
1722.000000	38.817806
1721.000000	38.916977
1720.000000	39.056844
1719.000000	39.157286
1718.000000	39.251371
1717.000000	39.395308
1716.000000	39.477712
1715.000000	39.566951
1714.000000	39.688329
1713.000000	39.755413
1712.000000	39.860974
1711.000000	39.982910
1710.000000	40.029707
1709.000000	40.122243
1708.000000	40.198234
1707.000000	40.229477
1706.000000	40.268061
1705.000000	40.315088
1704.000000	40.390430
1703.000000	40.410245
1702.000000	40.405706
1701.000000	40.425433
1700.000000	40.467158
1699.000000	40.465233
1698.000000	40.530269
1697.000000	40.568946
1696.000000	40.597499
1695.000000	40.638432
1694.000000	40.682346
1693.000000	40.720536
1692.000000	40.786666
1691.000000	40.863503
1690.000000	40.938998
1689.000000	41.042692
1688.000000	41.161621
1687.000000	41.268127
1686.000000	41.393709
1685.000000	41.541096
1684.000000	41.683138
1683.000000	41.844573
1682.000000	42.008827
1681.000000	42.188749
1680.000000	42.360942
1679.000000	42.537750
1678.000000	42.726240
1677.000000	42.922215
1676.000000	43.097300
1675.000000	43.302652
1674.000000	43.497768
1673.000000	43.671730
1672.000000	43.868639
1671.000000	44.050358
1670.000000	44.217329
1669.000000	44.387632
1668.000000	44.510342
1667.000000	44.683337
1666.000000	44.787886
1665.000000	44.895418
1664.000000	45.011169
1663.000000	45.089052
1662.000000	45.213931
1661.000000	45.306710
1660.000000	45.360783
1659.000000	45.407556
1658.000000	45.494338
1657.000000	45.545107
1656.000000	45.592589
1655.000000	45.609924
1654.000000	45.656304
1653.000000	45.694323
1652.000000	45.710953
1651.000000	45.700449
1650.000000	45.705219
1649.000000	45.723677
1648.000000	45.693783
1647.000000	45.702082
1646.000000	45.683032
1645.000000	45.677467
1644.000000	45.646899
1643.000000	45.623936
1642.000000	45.623559
1641.000000	45.576433
1640.000000	45.546977
1639.000000	45.517198
1638.000000	45.494164
1637.000000	45.460117
1636.000000	45.403359
1635.000000	45.363123
1634.000000	45.323565
1633.000000	45.259827
1632.000000	45.238786
1631.000000	45.212515
1630.000000	45.156509
1629.000000	45.104765
1628.000000	45.061299
1627.000000	45.010738
1626.000000	44.941333
1625.000000	44.899262
1624.000000	44.841911
1623.000000	44.793445
1622.000000	44.734399
1621.000000	44.654943
1620.000000	44.606617
1619.000000	44.553257
1618.000000	44.480201
1617.000000	44.399443
1616.000000	44.345643
1615.000000	44.293497
1614.000000	44.219861
1613.000000	44.141386
1612.000000	44.069869
1611.000000	43.995433
1610.000000	43.938718
1609.000000	43.883326
1608.000000	43.796164
1607.000000	43.719345
1606.000000	43.645287
1605.000000	43.562040
1604.000000	43.475715
1603.000000	43.392315
1602.000000	43.327379
1601.000000	43.260231
1600.000000	43.189301
1599.000000	43.122915
1598.000000	43.049552
1597.000000	42.963691
1596.000000	42.906887
1595.000000	42.852418
1594.000000	42.780207
1593.000000	42.718896
1592.000000	42.652556
1591.000000	42.580568
1590.000000	42.515210
1589.000000	42.440022
1588.000000	42.383638
1587.000000	42.330861
1586.000000	42.261781
1585.000000	42.204789
1584.000000	42.151030
1583.000000	42.093815
1582.000000	42.032618
1581.000000	41.986667
1580.000000	41.932525
1579.000000	41.883908
1578.000000	41.851759
1577.000000	41.786176
1576.000000	41.720510
1575.000000	41.670619
1574.000000	41.599314
1573.000000	41.547782
1572.000000	41.508676
1571.000000	41.449899
1570.000000	41.409017
1569.000000	41.357965
1568.000000	41.304442
1567.000000	41.261659
1566.000000	41.219763
1565.000000	41.174710
1564.000000	41.129133
1563.000000	41.105594
1562.000000	41.067115
1561.000000	41.022631
1560.000000	40.999347
1559.000000	40.963513
1558.000000	40.927662
1557.000000	40.892664
1556.000000	40.857594
1555.000000	40.815860
1554.000000	40.781840
1553.000000	40.757863
1552.000000	40.727888
1551.000000	40.673452
1550.000000	40.611254
1549.000000	40.553886
1548.000000	40.515325
1547.000000	40.447896
1546.000000	40.372115
1545.000000	40.305465
1544.000000	40.215278
1543.000000	40.136251
1542.000000	40.052782
1541.000000	39.964198
1540.000000	39.873017
1539.000000	39.777649
1538.000000	39.680353
1537.000000	39.581761
1536.000000	39.477807
1535.000000	39.381368
1534.000000	39.283787
1533.000000	39.206537
1532.000000	39.105731
1531.000000	38.986679
1530.000000	38.921520
1529.000000	38.835952
1528.000000	38.744734
1527.000000	38.677586
1526.000000	38.609815
1525.000000	38.519973
1524.000000	38.450590
1523.000000	38.396288
1522.000000	38.320545
1521.000000	38.264794
1520.000000	38.213876
1519.000000	38.160665
1518.000000	38.138600
1517.000000	38.092037
1516.000000	38.046006
1515.000000	37.999181
1514.000000	37.953883
1513.000000	37.919765
1512.000000	37.888223
1511.000000	37.848883
1510.000000	37.825331
1509.000000	37.804300
1508.000000	37.798916
1507.000000	37.810751
1506.000000	37.816846
1505.000000	37.835365
1504.000000	37.790293
1503.000000	37.748399
1502.000000	37.738564
1501.000000	37.708940
1500.000000	37.685446
1499.000000	37.690920
1498.000000	37.686754
1497.000000	37.677956
1496.000000	37.676839
1495.000000	37.696678
1494.000000	37.691668
1493.000000	37.707337
1492.000000	37.730342
1491.000000	37.755165
1490.000000	37.801393
1489.000000	37.804195
1488.000000	37.822407
1487.000000	37.857751
1486.000000	37.876358
1485.000000	37.900429
1484.000000	37.936506
1483.000000	37.972292
1482.000000	38.017504
1481.000000	38.038388
1480.000000	38.078158
1479.000000	38.116745
1478.000000	38.161179
1477.000000	38.185951
1476.000000	38.223155
1475.000000	38.269542
1474.000000	38.303572
1473.000000	38.321508
1472.000000	38.353646
1471.000000	38.376786
1470.000000	38.399278
1469.000000	38.432087
1468.000000	38.454787
1467.000000	38.483863
1466.000000	38.523014
1465.000000	38.569306
1464.000000	38.621844
1463.000000	38.644939
1462.000000	38.657397
1461.000000	38.700499
1460.000000	38.753051
1459.000000	38.789511
1458.000000	38.829332
1457.000000	38.835489
1456.000000	38.892122
1455.000000	38.951936
1454.000000	38.997277
1453.000000	39.045363
1452.000000	39.074919
1451.000000	39.125302
1450.000000	39.204284
1449.000000	39.266980
1448.000000	39.319958
1447.000000	39.355650
1446.000000	39.412039
1445.000000	39.489614
1444.000000	39.563115
1443.000000	39.648073
1442.000000	39.723693
1441.000000	39.806714
1440.000000	39.871461
1439.000000	39.936390
1438.000000	40.030630
1437.000000	40.117740
1436.000000	40.210925
1435.000000	40.317764
1434.000000	40.431243
1433.000000	40.535236
1432.000000	40.646683
1431.000000	40.763058
1430.000000	40.887938
1429.000000	41.022866
1428.000000	41.157371
1427.000000	41.290849
1426.000000	41.434103
1425.000000	41.588894
1424.000000	41.749512
1423.000000	41.910861
1422.000000	42.077856
1421.000000	42.252016
1420.000000	42.423261
1419.000000	42.586661
1418.000000	42.778418
1417.000000	42.980511
1416.000000	43.160712
1415.000000	43.359779
1414.000000	43.572095
1413.000000	43.779706
1412.000000	43.973016
1411.000000	44.182099
1410.000000	44.407577
1409.000000	44.623620
1408.000000	44.826360
1407.000000	45.027412
1406.000000	45.252941
1405.000000	45.454289
1404.000000	45.650097
1403.000000	45.857882
1402.000000	46.067389
1401.000000	46.262789
1400.000000	46.460261
1399.000000	46.645085
1398.000000	46.829149
1397.000000	47.012338
1396.000000	47.181733
1395.000000	47.354878
1394.000000	47.518039
1393.000000	47.678383
1392.000000	47.831767
1391.000000	47.967746
1390.000000	48.109345
1389.000000	48.256801
1388.000000	48.389776
1387.000000	48.513680
1386.000000	48.637011
1385.000000	48.773138
1384.000000	48.905027
1383.000000	49.004866
1382.000000	49.082342
1381.000000	49.175703
1380.000000	49.275543
1379.000000	49.347909
1378.000000	49.411942
1377.000000	49.491626
1376.000000	49.556761
1375.000000	49.603785
1374.000000	49.646269
1373.000000	49.698769
1372.000000	49.768106
1371.000000	49.815045
1370.000000	49.852911
1369.000000	49.901850
1368.000000	49.942908
1367.000000	49.973820
1366.000000	50.025574
1365.000000	50.080938
1364.000000	50.134195
1363.000000	50.185754
1362.000000	50.239425
1361.000000	50.315728
1360.000000	50.380075
1359.000000	50.426693
1358.000000	50.475376
1357.000000	50.537966
1356.000000	50.584556
1355.000000	50.635893
1354.000000	50.686943
1353.000000	50.754621
1352.000000	50.813406
1351.000000	50.834743
1350.000000	50.877327
1349.000000	50.953236
1348.000000	51.008535
1347.000000	51.028882
1346.000000	51.057099
1345.000000	51.115604
1344.000000	51.185437
1343.000000	51.218617
1342.000000	51.245734
1341.000000	51.297808
1340.000000	51.327025
1339.000000	51.368015
1338.000000	51.425548
1337.000000	51.460610
1336.000000	51.495573
1335.000000	51.529534
1334.000000	51.558127
1333.000000	51.590983
1332.000000	51.634491
1331.000000	51.659713
1330.000000	51.691349
1329.000000	51.706915
1328.000000	51.724218
1327.000000	51.744284
1326.000000	51.749753
1325.000000	51.776639
1324.000000	51.798300
1323.000000	51.817517
1322.000000	51.805448
1321.000000	51.813003
1320.000000	51.825885
1319.000000	51.853603
1318.000000	51.877476
1317.000000	51.851755
1316.000000	51.840644
1315.000000	51.872981
1314.000000	51.872562
1313.000000	51.896874
1312.000000	51.910850
1311.000000	51.878100
1310.000000	51.876438
1309.000000	51.890309
1308.000000	51.876132
1307.000000	51.880651
1306.000000	51.868145
1305.000000	51.887112
1304.000000	51.895598
1303.000000	51.895439
1302.000000	51.901651
1301.000000	51.886943
1300.000000	51.873883
1299.000000	51.857307
1298.000000	51.874711
1297.000000	51.870096
1296.000000	51.865512
1295.000000	51.848660
1294.000000	51.845796
1293.000000	51.812233
1292.000000	51.815365
1291.000000	51.771134
1290.000000	51.773996
1289.000000	51.728243
1288.000000	51.720395
1287.000000	51.714511
1286.000000	51.691124
1285.000000	51.681290
1284.000000	51.678731
1283.000000	51.697030
1282.000000	51.677361
1281.000000	51.688983
1280.000000	51.621841
1279.000000	51.603412
1278.000000	51.619857
1277.000000	51.598833
1276.000000	51.584542
1275.000000	51.597347
1274.000000	51.567216
1273.000000	51.584994
1272.000000	51.571996
1271.000000	51.554934
1270.000000	51.550947
1269.000000	51.559525
1268.000000	51.540631
1267.000000	51.542231
1266.000000	51.552107
1265.000000	51.547158
1264.000000	51.529676
1263.000000	51.527504
1262.000000	51.522116
1261.000000	51.520631
1260.000000	51.549802
1259.000000	51.526991
1258.000000	51.514310
1257.000000	51.498391
1256.000000	51.494527
1255.000000	51.474919
1254.000000	51.462869
1253.000000	51.455857
1252.000000	51.468209
1251.000000	51.470085
1250.000000	51.444240
1249.000000	51.402246
1248.000000	51.399988
1247.000000	51.382582
1246.000000	51.359935
1245.000000	51.320464
1244.000000	51.304168
1243.000000	51.276033
1242.000000	51.245552
1241.000000	51.233384
1240.000000	51.190446
1239.000000	51.189008
1238.000000	51.142656
1237.000000	51.098687
1236.000000	51.059441
1235.000000	51.032225
1234.000000	51.001905
1233.000000	50.964230
1232.000000	50.941090
1231.000000	50.920320
1230.000000	50.864505
1229.000000	50.854265
1228.000000	50.808330
1227.000000	50.777910
1226.000000	50.759970
1225.000000	50.712831
1224.000000	50.689986
1223.000000	50.660370
1222.000000	50.640619
1221.000000	50.602481
1220.000000	50.574056
1219.000000	50.537332
1218.000000	50.492178
1217.000000	50.455812
1216.000000	50.419021
1215.000000	50.404733
1214.000000	50.372268
1213.000000	50.335304
1212.000000	50.284474
1211.000000	50.273520
1210.000000	50.246559
1209.000000	50.179717
1208.000000	50.128746
1207.000000	50.080873
1206.000000	50.043540
1205.000000	50.004466
1204.000000	49.946523
1203.000000	49.931674
1202.000000	49.877123
1201.000000	49.823768
1200.000000	49.778333
1199.000000	49.748357
1198.000000	49.696783
1197.000000	49.660586
1196.000000	49.611387
1195.000000	49.566889
1194.000000	49.544799
1193.000000	49.531205
1192.000000	49.487110
1191.000000	49.457991
1190.000000	49.420166
1189.000000	49.353409
1188.000000	49.347558
1187.000000	49.345054
1186.000000	49.317152
1185.000000	49.306695
1184.000000	49.309144
1183.000000	49.312285
1182.000000	49.314540
1181.000000	49.325179
1180.000000	49.338677
1179.000000	49.361187
1178.000000	49.391322
1177.000000	49.413438
1176.000000	49.433087
1175.000000	49.467349
1174.000000	49.511297
1173.000000	49.558135
1172.000000	49.597939
1171.000000	49.634359
1170.000000	49.680663
1169.000000	49.715318
1168.000000	49.755804
1167.000000	49.820822
1166.000000	49.881721
1165.000000	49.930698
1164.000000	49.986230
1163.000000	50.039151
1162.000000	50.081531
1161.000000	50.137778
1160.000000	50.205050
1159.000000	50.268314
1158.000000	50.297860
1157.000000	50.317001
1156.000000	50.367888
1155.000000	50.428822
1154.000000	50.483414
1153.000000	50.520412
1152.000000	50.553877
1151.000000	50.599314
1150.000000	50.641892
1149.000000	50.684215
1148.000000	50.720457
1147.000000	50.756647
1146.000000	50.785583
1145.000000	50.807973
1144.000000	50.833298
1143.000000	50.869176
1142.000000	50.900114
1141.000000	50.902173
1140.000000	50.914141
1139.000000	50.945802
1138.000000	50.975109
1137.000000	51.005351
1136.000000	51.032117
1135.000000	51.067116
1134.000000	51.090778
1133.000000	51.107156
1132.000000	51.122377
1131.000000	51.135451
1130.000000	51.154787
1129.000000	51.166860
1128.000000	51.158595
1127.000000	51.163444
1126.000000	51.180156
1125.000000	51.183860
1124.000000	51.186150
1123.000000	51.190372
1122.000000	51.200855
1121.000000	51.206859
1120.000000	51.206496
1119.000000	51.201869
1118.000000	51.209281
1117.000000	51.204722
1116.000000	51.204948
1115.000000	51.187804
1114.000000	51.169785
1113.000000	51.169607
1112.000000	51.155818
1111.000000	51.126569
1110.000000	51.125030
1109.000000	51.124155
1108.000000	51.111259
1107.000000	51.114048
1106.000000	51.107006
1105.000000	51.098273
1104.000000	51.046296
1103.000000	51.041036
1102.000000	51.040522
1101.000000	51.034568
1100.000000	51.046652
1099.000000	51.033843
1098.000000	51.007573
1097.000000	50.983281
1096.000000	50.974339
1095.000000	50.947896
1094.000000	50.940123
1093.000000	50.920957
1092.000000	50.922069
1091.000000	50.917096
1090.000000	50.899150
1089.000000	50.890259
1088.000000	50.882773
1087.000000	50.846140
1086.000000	50.837020
1085.000000	50.838819
1084.000000	50.822097
1083.000000	50.801655
1082.000000	50.778696
1081.000000	50.762015
1080.000000	50.736805
1079.000000	50.732280
1078.000000	50.726439
1077.000000	50.700332
1076.000000	50.678174
1075.000000	50.678332
1074.000000	50.626450
1073.000000	50.590257
1072.000000	50.597242
1071.000000	50.607935
1070.000000	50.571386
1069.000000	50.557725
1068.000000	50.560314
1067.000000	50.489552
1066.000000	50.480921
1065.000000	50.466207
1064.000000	50.467244
1063.000000	50.446271
1062.000000	50.431225
1061.000000	50.404817
1060.000000	50.367169
1059.000000	50.356381
1058.000000	50.336908
1057.000000	50.318996
1056.000000	50.306453
1055.000000	50.289518
1054.000000	50.250585
1053.000000	50.234398
1052.000000	50.222877
1051.000000	50.222653
1050.000000	50.196111
1049.000000	50.155825
1048.000000	50.124069
1047.000000	50.136167
1046.000000	50.101655
1045.000000	50.076271
1044.000000	50.065630
1043.000000	50.031154
1042.000000	50.039111
1041.000000	50.028936
1040.000000	49.978540
1039.000000	49.961608
1038.000000	49.967017
1037.000000	49.954370
1036.000000	49.914444
1035.000000	49.895089
1034.000000	49.880083
1033.000000	49.876673
1032.000000	49.845188
1031.000000	49.840716
1030.000000	49.824546
1029.000000	49.773603
1028.000000	49.784882
1027.000000	49.774800
1026.000000	49.771334
1025.000000	49.738056
1024.000000	49.718273
1023.000000	49.720083
1022.000000	49.701911
1021.000000	49.686938
1020.000000	49.667279
1019.000000	49.622537
1018.000000	49.625062
1017.000000	49.613871
1016.000000	49.590102
1015.000000	49.579289
1014.000000	49.570606
1013.000000	49.564712
1012.000000	49.529701
1011.000000	49.529103
1010.000000	49.519871
1009.000000	49.483514
1008.000000	49.479194
1007.000000	49.456876
1006.000000	49.449179
1005.000000	49.441532
1004.000000	49.414482
1003.000000	49.394749
1002.000000	49.403226
1001.000000	49.375396
1000.000000	49.369043
999.000000	49.369774
998.000000	49.357095
997.000000	49.364011
996.000000	49.346879
995.000000	49.336236
994.000000	49.327064
993.000000	49.315477
992.000000	49.282297
991.000000	49.275731
990.000000	49.273057
989.000000	49.258224
988.000000	49.253779
987.000000	49.246338
986.000000	49.242468
985.000000	49.233865
984.000000	49.222120
983.000000	49.208362
982.000000	49.192005
981.000000	49.183327
980.000000	49.161782
979.000000	49.141458
978.000000	49.142737
977.000000	49.132375
976.000000	49.126005
975.000000	49.113265
974.000000	49.094905
973.000000	49.066921
972.000000	49.048966
971.000000	49.052373
970.000000	49.046704
969.000000	49.020391
968.000000	49.005238
967.000000	48.995326
966.000000	48.980522
965.000000	48.965145
964.000000	48.957853
963.000000	48.947309
962.000000	48.942223
961.000000	48.931739
960.000000	48.911201
959.000000	48.901295
958.000000	48.888381
957.000000	48.884409
956.000000	48.868130
955.000000	48.856445
954.000000	48.836814
953.000000	48.838573
952.000000	48.814083
951.000000	48.798297
950.000000	48.797722
949.000000	48.773335
948.000000	48.753344
947.000000	48.739753
946.000000	48.715258
945.000000	48.682907
944.000000	48.674033
943.000000	48.675343
942.000000	48.658283
941.000000	48.650900
940.000000	48.633731
939.000000	48.608455
938.000000	48.578680
937.000000	48.536616
936.000000	48.526962
935.000000	48.516020
934.000000	48.475320
933.000000	48.445090
932.000000	48.428235
931.000000	48.414277
930.000000	48.402205
929.000000	48.375064
928.000000	48.336440
927.000000	48.317317
926.000000	48.319838
925.000000	48.283786
924.000000	48.262849
923.000000	48.230986
922.000000	48.209820
921.000000	48.191375
920.000000	48.143307
919.000000	48.120450
918.000000	48.100211
917.000000	48.085341
916.000000	48.063625
915.000000	48.038559
914.000000	48.013588
913.000000	47.972937
912.000000	47.970190
911.000000	47.973281
910.000000	47.937821
909.000000	47.918578
908.000000	47.904870
907.000000	47.895271
906.000000	47.844106
905.000000	47.826235
904.000000	47.782544
903.000000	47.797137
902.000000	47.773635
901.000000	47.738559
900.000000	47.731600
899.000000	47.702189
898.000000	47.696009
897.000000	47.697364
896.000000	47.659951
895.000000	47.674665
894.000000	47.673073
893.000000	47.644114
892.000000	47.594289
891.000000	47.579615
890.000000	47.525088
889.000000	47.519655
888.000000	47.506637
887.000000	47.540121
886.000000	47.455809
885.000000	47.446075
884.000000	47.504047
883.000000	47.390797
882.000000	47.370992
881.000000	47.410669
880.000000	47.371791
879.000000	47.303688
878.000000	47.334402
877.000000	47.297508
876.000000	47.272545
875.000000	47.161045
874.000000	47.162850
873.000000	47.139899
872.000000	47.096616
871.000000	47.135190
870.000000	47.178646
869.000000	47.000822
868.000000	47.016619
867.000000	47.084950
866.000000	47.037686
865.000000	46.958173
864.000000	47.003232
863.000000	46.968504
862.000000	46.908488
861.000000	46.794513
860.000000	46.901538
859.000000	45.290606
858.000000	45.141247
857.000000	45.377490
856.000000	45.212632
855.000000	45.184548
854.000000	45.022437
853.000000	45.226303
852.000000	45.285714
851.000000	45.001225
850.000000	45.131964
849.000000	45.224661
848.000000	45.283114
847.000000	44.995472
846.000000	44.986859
845.000000	44.779734
844.000000	44.767754
843.000000	45.024271
842.000000	44.929905
841.000000	44.978111
840.000000	44.803833
839.000000	44.948596
838.000000	44.562794
837.000000	44.730491
836.000000	44.643874
835.000000	44.580726
834.000000	44.577853
833.000000	44.550543
832.000000	44.558253
831.000000	44.597725
830.000000	44.435354
829.000000	44.188650
828.000000	44.450692
827.000000	44.364779
826.000000	44.311941
825.000000	44.150160
824.000000	44.198856
823.000000	44.108976
822.000000	44.229778
821.000000	44.270452
820.000000	44.086007
819.000000	44.020715
818.000000	44.086440
817.000000	43.948693
816.000000	43.914881
815.000000	43.945887
814.000000	43.903366
813.000000	43.801825
812.000000	43.807955
811.000000	43.756403
810.000000	43.697190
809.000000	43.661308
808.000000	43.609174
807.000000	43.645151
806.000000	43.601251
805.000000	43.535475
804.000000	43.694325
803.000000	43.387552
802.000000	43.436255
801.000000	43.528586
800.000000	43.387815
799.000000	43.365267
798.000000	43.318227
797.000000	43.277062
796.000000	43.198457
795.000000	43.085901
794.000000	43.160316
793.000000	43.016127
792.000000	42.992516
791.000000	42.954053
790.000000	42.903582
789.000000	42.926116
788.000000	42.810893
787.000000	42.935221
786.000000	42.792545
785.000000	42.770579
784.000000	42.751063
783.000000	42.686763
782.000000	42.632525
781.000000	42.522432
780.000000	42.516576
779.000000	42.589428
778.000000	42.572976
777.000000	42.439453
776.000000	42.388792
775.000000	42.385722
774.000000	42.326408
773.000000	42.360714
772.000000	42.266231
771.000000	42.206655
770.000000	42.109077
769.000000	42.088912
768.000000	42.100335
767.000000	41.992361
766.000000	41.924017
765.000000	41.881533
764.000000	41.852074
763.000000	41.831842
762.000000	41.773936
761.000000	41.694747
760.000000	41.633276
759.000000	41.629842
758.000000	41.602483
757.000000	41.528160
756.000000	41.421964
755.000000	41.440802
754.000000	41.396098
753.000000	41.334344
752.000000	41.216365
751.000000	41.270682
750.000000	41.215988
749.000000	41.129599
748.000000	41.080119
747.000000	41.023530
746.000000	40.929055
745.000000	40.893606
744.000000	40.865863
743.000000	40.781856
742.000000	40.749532
741.000000	40.717666
740.000000	40.672535
739.000000	40.611117
738.000000	40.568718
737.000000	40.534834
736.000000	40.417366
735.000000	40.355831
734.000000	40.346519
733.000000	40.315998
732.000000	40.181649
731.000000	40.106519
730.000000	40.120825
729.000000	40.044250
728.000000	39.947230
727.000000	39.924438
726.000000	39.882544
725.000000	39.802119
724.000000	39.774266
723.000000	39.732434
722.000000	39.656179
721.000000	39.588338
720.000000	39.530322
719.000000	39.461892
718.000000	39.395732
717.000000	39.321631
716.000000	39.265233
715.000000	39.212884
714.000000	39.149335
713.000000	39.091783
712.000000	39.029332
711.000000	38.970525
710.000000	38.934912
709.000000	38.917836
708.000000	38.825095
707.000000	38.704860
706.000000	38.629723
705.000000	38.567694
704.000000	38.520477
703.000000	38.471157
702.000000	38.408068
701.000000	38.320836
700.000000	38.269898
699.000000	38.220791
698.000000	38.136696
697.000000	38.068766
696.000000	37.996466
695.000000	37.908792
694.000000	37.834093
693.000000	37.761914
692.000000	37.698532
691.000000	37.661458
690.000000	37.600819
689.000000	37.487221
688.000000	37.431490
687.000000	37.371983
686.000000	37.277244
685.000000	37.187350
684.000000	37.126215
683.000000	37.068213
682.000000	36.971147
681.000000	36.886148
680.000000	36.853551
679.000000	36.811944
678.000000	36.722744
677.000000	36.608822
676.000000	36.527396
675.000000	36.458245
674.000000	36.379101
673.000000	36.315533
672.000000	36.242107
671.000000	36.203110
670.000000	36.107189
669.000000	35.976557
668.000000	35.889746
667.000000	35.825485
666.000000	35.740389
665.000000	35.662596
664.000000	35.590759
663.000000	35.499884
662.000000	35.411936
661.000000	35.351644
660.000000	35.262942
659.000000	35.183605
658.000000	35.083009
657.000000	34.991759
656.000000	34.891246
655.000000	34.819296
654.000000	34.745889
653.000000	34.679219
652.000000	34.572467
651.000000	34.466968
650.000000	34.360023
649.000000	34.289448
648.000000	34.232799
647.000000	34.124464
646.000000	34.047690
645.000000	33.942398
644.000000	33.884994
643.000000	33.771679
642.000000	33.704066
641.000000	33.593312
640.000000	33.510888
639.000000	33.411250
638.000000	33.317290
637.000000	33.222635
636.000000	33.165304
635.000000	33.041855
634.000000	32.943570
633.000000	32.844616
632.000000	32.770230
631.000000	32.691820
630.000000	32.580795
629.000000	32.497911
628.000000	32.393904
627.000000	32.299197
626.000000	32.198387
625.000000	32.123295
624.000000	32.042267
623.000000	31.926426
622.000000	31.806202
621.000000	31.701236
620.000000	31.626008
619.000000	31.526717
618.000000	31.444650
617.000000	31.326402
616.000000	31.223774
615.000000	31.134607
614.000000	31.032511
613.000000	30.927580
612.000000	30.826071
611.000000	30.745554
610.000000	30.664009
609.000000	30.539520
608.000000	30.426205
607.000000	30.314633
606.000000	30.238750
605.000000	30.136051
604.000000	30.010262
603.000000	29.942791
602.000000	29.801118
601.000000	29.713282
600.000000	29.621550
599.000000	29.481506
598.000000	29.407715
597.000000	29.282699
596.000000	29.163243
595.000000	29.088081
594.000000	28.946131
593.000000	28.854981
592.000000	28.741952
591.000000	28.612888
590.000000	28.502855
589.000000	28.400684
588.000000	28.284616
587.000000	28.183964
586.000000	28.066257
585.000000	27.955082
584.000000	27.841386
583.000000	27.726339
582.000000	27.619818
581.000000	27.480489
580.000000	27.383857
579.000000	27.241411
578.000000	27.158334
577.000000	27.053403
576.000000	26.937315
575.000000	26.784824
574.000000	26.660835
573.000000	26.569317
572.000000	26.454026
571.000000	26.333400
570.000000	26.198350
569.000000	26.099496
568.000000	25.959443
567.000000	25.831362
566.000000	25.703917
565.000000	25.593759
564.000000	25.448865
563.000000	25.360140
562.000000	25.200368
561.000000	25.074522
560.000000	24.935196
559.000000	24.841246
558.000000	24.694652
557.000000	24.593481
556.000000	24.455704
555.000000	24.363289
554.000000	24.198162
553.000000	24.072439
552.000000	23.952136
551.000000	23.845288
550.000000	23.725650
549.000000	23.604904
548.000000	23.441784
547.000000	23.304454
546.000000	23.190199
545.000000	23.060805
544.000000	22.916801
543.000000	22.797488
542.000000	22.677892
541.000000	22.561903
540.000000	22.422639
539.000000	22.291703
538.000000	22.148437
537.000000	22.046025
536.000000	21.888458
535.000000	21.769043
534.000000	21.654682
533.000000	21.529547
532.000000	21.381818
531.000000	21.257692
530.000000	21.128328
529.000000	20.997149
528.000000	20.861035
527.000000	20.726704
526.000000	20.609829
525.000000	20.468463
524.000000	20.343591
523.000000	20.220208
522.000000	20.069941
521.000000	19.953071
520.000000	19.827084
519.000000	19.668953
518.000000	19.539089
517.000000	19.429732
516.000000	19.298552
515.000000	19.152023
514.000000	19.006908
513.000000	18.888125
512.000000	18.756647
511.000000	18.626772
510.000000	18.509332
509.000000	18.381551
508.000000	18.229737
507.000000	18.095891
506.000000	17.971732
505.000000	17.855149
504.000000	17.719028
503.000000	17.588292
502.000000	17.465227
501.000000	17.332162
500.000000	17.202721
499.000000	17.084260
498.000000	16.976764
497.000000	16.842172
496.000000	16.691256
495.000000	16.571868
494.000000	16.447784
493.000000	16.317893
492.000000	16.189928
491.000000	16.059510
490.000000	15.948860
489.000000	15.822962
488.000000	15.710866
487.000000	15.585487
486.000000	15.452641
485.000000	15.357736
484.000000	15.257416
483.000000	15.136668
482.000000	15.013275
481.000000	14.881097
480.000000	14.763854
479.000000	14.640263
478.000000	14.520274
477.000000	14.403600
476.000000	14.272199
475.000000	14.139395
474.000000	14.022455
473.000000	13.919182
472.000000	13.800769
471.000000	13.669759
470.000000	13.555877
469.000000	13.437089
468.000000	13.325041
467.000000	13.221668
466.000000	13.108722
465.000000	12.985598
464.000000	12.866621
463.000000	12.754865
462.000000	12.645744
461.000000	12.538475
460.000000	12.427491
459.000000	12.320730
458.000000	12.207313
457.000000	12.089512
456.000000	11.988422
455.000000	11.878525
454.000000	11.755208
453.000000	11.638281
452.000000	11.539228
451.000000	11.440489
450.000000	11.333402
449.000000	11.216607
448.000000	11.101236
447.000000	10.989700
446.000000	10.889887
445.000000	10.803031
444.000000	10.708009
443.000000	10.605799
442.000000	10.519840
441.000000	10.420169
440.000000	10.329587
439.000000	10.251317
438.000000	10.167567
437.000000	10.064911
436.000000	9.971103
435.000000	9.897384
434.000000	9.814459
433.000000	9.731979
432.000000	9.657887
431.000000	9.577595
430.000000	9.504577
429.000000	9.414530
428.000000	9.326690
427.000000	9.250666
426.000000	9.181753
425.000000	9.110962
424.000000	9.026951
423.000000	8.955340
422.000000	8.881167
421.000000	8.801176
420.000000	8.723469
419.000000	8.655019
418.000000	8.580125
417.000000	8.507950
416.000000	8.430972
415.000000	8.367896
414.000000	8.300921
413.000000	8.227311
412.000000	8.162190
411.000000	8.090156
410.000000	8.027658
409.000000	7.955649
408.000000	7.881461
407.000000	7.814829
406.000000	7.762521
405.000000	7.711816
404.000000	7.655459
403.000000	7.593158
402.000000	7.530311
401.000000	7.456067
400.000000	7.396289
399.000000	7.352627
398.000000	7.309106
397.000000	7.248642
396.000000	7.193915
395.000000	7.135176
394.000000	7.090164
393.000000	7.035084
392.000000	6.996062
391.000000	6.932376
390.000000	6.904823
389.000000	6.860348
388.000000	6.798551
387.000000	6.768033
386.000000	6.745076
385.000000	6.694027
384.000000	6.661819
383.000000	6.603226
382.000000	6.582639
381.000000	6.526500
380.000000	6.501997
379.000000	6.458100
378.000000	6.443890
377.000000	6.443854
376.000000	6.387139
375.000000	6.362695
374.000000	6.370381
373.000000	6.303657
372.000000	6.281007
371.000000	6.246564
370.000000	6.208213
369.000000	6.174432
368.000000	6.204381
367.000000	6.098792
366.000000	6.084003
365.000000	6.072973
364.000000	6.034820
363.000000	6.033313
362.000000	6.000467
361.000000	5.970541
360.000000	5.937862
359.000000	5.961075
358.000000	5.899266
357.000000	5.927792
356.000000	5.867450
355.000000	5.857138
354.000000	5.819614
353.000000	5.806027
352.000000	5.786153
351.000000	5.752715
350.000000	5.752497
349.000000	5.745610
348.000000	5.714609
347.000000	5.710909
346.000000	5.652869
345.000000	5.675344
344.000000	5.682969
343.000000	5.642475
342.000000	5.642957
341.000000	5.615628
340.000000	5.583496
339.000000	5.628874
338.000000	5.571786
337.000000	5.576481
336.000000	5.545941
335.000000	5.549517
334.000000	5.542197
333.000000	5.574528
332.000000	5.546430
331.000000	5.535766
330.000000	5.506341
329.000000	5.533647
328.000000	5.553053
327.000000	5.495499
326.000000	5.470176
325.000000	5.489533
324.000000	5.513379
323.000000	5.466209
322.000000	5.558967
321.000000	5.528614
320.000000	5.517726
319.000000	5.469463
318.000000	5.448845
317.000000	5.433502
316.000000	5.458077
315.000000	5.448462
314.000000	5.464243
313.000000	5.501728
312.000000	5.520263
311.000000	5.515146
310.000000	5.526669
309.000000	5.549074
308.000000	5.556433
307.000000	5.557968
306.000000	5.555828
305.000000	5.593103
304.000000	5.591419
303.000000	5.625726
302.000000	5.650008
301.000000	5.645392
300.000000	5.656869
299.000000	5.674885
298.000000	5.709015
297.000000	5.731580
296.000000	5.741340
295.000000	5.730771
294.000000	5.799121
293.000000	5.783155
292.000000	5.807150
291.000000	5.840918
290.000000	5.881084
289.000000	5.906204
288.000000	5.912739
287.000000	5.970597
286.000000	6.003322
285.000000	5.990977
284.000000	6.019383
283.000000	6.056822
282.000000	6.122120
281.000000	6.152319
280.000000	6.141278
279.000000	6.164561
278.000000	6.207081
277.000000	6.226537
276.000000	6.278085
275.000000	6.317196
274.000000	6.361906
273.000000	6.404161
272.000000	6.422423
271.000000	6.475238
270.000000	6.479811
269.000000	6.518819
268.000000	6.549766
267.000000	6.624367
266.000000	6.669562
265.000000	6.671324
264.000000	6.708554
263.000000	6.803924
262.000000	6.841079
261.000000	6.894214
260.000000	6.923234
259.000000	7.000005
258.000000	7.061093
257.000000	7.132322
256.000000	7.212516
255.000000	7.262886
254.000000	7.326039
253.000000	7.424201
252.000000	7.532014
251.000000	7.608926
250.000000	7.735216
249.000000	7.794808
248.000000	7.889220
247.000000	8.000163
246.000000	8.090701
245.000000	8.194540
244.000000	8.363496
243.000000	8.455012
242.000000	8.572775
241.000000	8.696448
240.000000	8.863030
239.000000	8.963088
238.000000	9.083744
237.000000	9.250354
236.000000	9.394495
235.000000	9.515561
234.000000	9.658359
233.000000	9.795471
232.000000	9.900156
231.000000	10.013433
230.000000	10.161746
229.000000	10.296269
228.000000	10.433170
227.000000	10.667956
226.000000	10.850514
225.000000	10.953854
224.000000	11.070644
223.000000	11.230416
222.000000	11.428490
221.000000	11.602663
220.000000	11.789010
219.000000	11.909361
218.000000	12.115581
217.000000	12.370619
216.000000	12.474586
215.000000	12.683152
214.000000	13.005020
213.000000	13.259865
212.000000	13.557986
211.000000	13.894471
210.000000	14.181880
209.000000	14.467474
208.000000	14.882842
207.000000	15.313520
206.000000	15.703165
205.000000	16.232791
204.000000	16.803471
203.000000	17.365712
202.000000	17.998153
201.000000	18.503896
200.000000	18.891266
