PE UV       SUBTECH     SPECTRUM    ASCII       PEDS        4.00        
   -1
TDms148351.Sample.asc
18/03/13
16:09:32.00
18/03/13
16:09:32.00
Administrator

200.000000
1
Lambda 750
750N8071901
PerkinElmer UV WinLab 6.0.4.0738 / 1.61.00 Lambda 900

0
0
3350/servo 860.8/2
0
0
UV/VIS
1
1
1
CommonBeamDepol,150mm sphere / downward view
0
0
0
0
Program
Program
3350/servo 860.8/2
3350/0.2 860.8/0.2
3350/0.2 860.8/0.2
0
1
 
 
 
0
 
860.8
319.2
860.8
Front
100
on
 
 
0
0
0
 
0
 
 
 
0
 
 
0
0
0
0
0
 
 
 
 
0
0


0
0
#HDR
-1
-1
#GR
nm
%T
1.0
0.0
2350.000000
-1.000000
2151
8
9.873404
-0.003629
#DATA
2350.000000	2.893097
2349.000000	3.235785
2348.000000	3.175557
2347.000000	3.543698
2346.000000	3.594471
2345.000000	3.264328
2344.000000	3.146991
2343.000000	3.088329
2342.000000	3.066332
2341.000000	3.460186
2340.000000	3.704342
2339.000000	3.684658
2338.000000	3.949245
2337.000000	4.078886
2336.000000	4.385785
2335.000000	4.131609
2334.000000	4.134251
2333.000000	4.518483
2332.000000	4.680396
2331.000000	4.485557
2330.000000	4.299325
2329.000000	3.965876
2328.000000	4.227972
2327.000000	3.798551
2326.000000	3.983290
2325.000000	4.022045
2324.000000	4.226958
2323.000000	4.297680
2322.000000	3.937178
2321.000000	4.008060
2320.000000	3.764500
2319.000000	3.980758
2318.000000	3.947569
2317.000000	4.294985
2316.000000	3.997826
2315.000000	3.812543
2314.000000	3.611402
2313.000000	3.541376
2312.000000	3.630333
2311.000000	3.728705
2310.000000	3.478821
2309.000000	3.570492
2308.000000	3.530534
2307.000000	3.461668
2306.000000	3.554732
2305.000000	3.603449
2304.000000	3.522098
2303.000000	3.597429
2302.000000	3.610943
2301.000000	3.655950
2300.000000	3.516578
2299.000000	3.454257
2298.000000	3.534128
2297.000000	3.574839
2296.000000	3.733195
2295.000000	3.438812
2294.000000	3.475776
2293.000000	3.392276
2292.000000	3.591919
2291.000000	3.481799
2290.000000	3.247882
2289.000000	3.340764
2288.000000	3.444534
2287.000000	3.306512
2286.000000	3.515646
2285.000000	3.446589
2284.000000	3.537190
2283.000000	3.499671
2282.000000	3.477174
2281.000000	3.456955
2280.000000	3.338029
2279.000000	3.236962
2278.000000	3.250687
2277.000000	3.217294
2276.000000	3.381802
2275.000000	3.582993
2274.000000	3.611672
2273.000000	3.592641
2272.000000	3.485281
2271.000000	3.392925
2270.000000	3.424745
2269.000000	3.458944
2268.000000	3.456754
2267.000000	3.568582
2266.000000	3.573178
2265.000000	3.586191
2264.000000	3.766290
2263.000000	3.784455
2262.000000	3.713080
2261.000000	3.813831
2260.000000	3.948391
2259.000000	3.906257
2258.000000	3.926907
2257.000000	3.963539
2256.000000	3.864773
2255.000000	3.760548
2254.000000	3.967207
2253.000000	4.138537
2252.000000	4.232253
2251.000000	4.164659
2250.000000	4.215550
2249.000000	4.286566
2248.000000	4.260359
2247.000000	4.206954
2246.000000	4.271400
2245.000000	4.268062
2244.000000	4.420520
2243.000000	4.658251
2242.000000	4.620438
2241.000000	4.577793
2240.000000	4.575657
2239.000000	4.471719
2238.000000	4.536067
2237.000000	4.652227
2236.000000	4.601509
2235.000000	4.694719
2234.000000	4.802130
2233.000000	4.837281
2232.000000	4.751172
2231.000000	4.756262
2230.000000	4.751240
2229.000000	4.772268
2228.000000	4.881207
2227.000000	4.839547
2226.000000	4.721782
2225.000000	4.692174
2224.000000	4.754747
2223.000000	4.648587
2222.000000	4.729093
2221.000000	4.864422
2220.000000	4.781653
2219.000000	4.789711
2218.000000	4.819544
2217.000000	4.753919
2216.000000	4.646502
2215.000000	4.754602
2214.000000	4.786212
2213.000000	4.765505
2212.000000	4.767523
2211.000000	4.694784
2210.000000	4.703098
2209.000000	4.769998
2208.000000	4.696342
2207.000000	4.564481
2206.000000	4.512430
2205.000000	4.674703
2204.000000	4.750003
2203.000000	4.508775
2202.000000	4.454809
2201.000000	4.471652
2200.000000	4.423872
2199.000000	4.426251
2198.000000	4.467201
2197.000000	4.481243
2196.000000	4.428362
2195.000000	4.483846
2194.000000	4.524961
2193.000000	4.423694
2192.000000	4.271613
2191.000000	4.239763
2190.000000	4.378965
2189.000000	4.296904
2188.000000	4.277450
2187.000000	4.312501
2186.000000	4.350186
2185.000000	4.265303
2184.000000	4.374525
2183.000000	4.250487
2182.000000	4.238547
2181.000000	4.167619
2180.000000	4.280172
2179.000000	4.107383
2178.000000	4.146454
2177.000000	4.337996
2176.000000	4.342826
2175.000000	4.228240
2174.000000	4.168809
2173.000000	4.156738
2172.000000	4.132370
2171.000000	4.190119
2170.000000	4.181441
2169.000000	4.326030
2168.000000	4.388288
2167.000000	4.453339
2166.000000	4.490199
2165.000000	4.391655
2164.000000	4.174263
2163.000000	4.256855
2162.000000	4.299653
2161.000000	4.423117
2160.000000	4.548173
2159.000000	4.367431
2158.000000	4.455292
2157.000000	4.619604
2156.000000	4.682957
2155.000000	4.496938
2154.000000	4.563202
2153.000000	4.642487
2152.000000	4.592381
2151.000000	4.640772
2150.000000	4.611173
2149.000000	4.745399
2148.000000	4.569976
2147.000000	4.793449
2146.000000	4.881963
2145.000000	4.815604
2144.000000	4.820268
2143.000000	4.968618
2142.000000	4.823282
2141.000000	4.679440
2140.000000	4.950245
2139.000000	4.869266
2138.000000	5.014895
2137.000000	5.055700
2136.000000	5.080849
2135.000000	5.018625
2134.000000	5.156535
2133.000000	4.703917
2132.000000	5.235469
2131.000000	5.024632
2130.000000	4.962377
2129.000000	5.074461
2128.000000	5.014906
2127.000000	4.862764
2126.000000	5.111291
2125.000000	5.153965
2124.000000	5.237102
2123.000000	5.088437
2122.000000	5.046180
2121.000000	5.123613
2120.000000	5.150318
2119.000000	5.212366
2118.000000	5.078386
2117.000000	5.101373
2116.000000	5.104876
2115.000000	5.160729
2114.000000	5.146879
2113.000000	5.228642
2112.000000	5.268578
2111.000000	5.212726
2110.000000	5.126355
2109.000000	5.025079
2108.000000	5.018543
2107.000000	5.143964
2106.000000	5.142347
2105.000000	5.086128
2104.000000	5.040581
2103.000000	5.047833
2102.000000	5.167450
2101.000000	5.238889
2100.000000	5.192346
2099.000000	5.231668
2098.000000	5.197416
2097.000000	5.073759
2096.000000	5.025428
2095.000000	5.149286
2094.000000	5.188119
2093.000000	5.089338
2092.000000	5.119531
2091.000000	5.203453
2090.000000	5.160498
2089.000000	5.151120
2088.000000	5.221219
2087.000000	5.072238
2086.000000	5.079532
2085.000000	5.231675
2084.000000	5.052151
2083.000000	5.095681
2082.000000	5.051724
2081.000000	5.105296
2080.000000	5.057657
2079.000000	5.034594
2078.000000	4.924188
2077.000000	4.976956
2076.000000	4.886952
2075.000000	4.890910
2074.000000	4.914663
2073.000000	4.977646
2072.000000	4.878174
2071.000000	4.775659
2070.000000	4.752409
2069.000000	4.777321
2068.000000	4.677135
2067.000000	4.593224
2066.000000	4.653657
2065.000000	4.620438
2064.000000	4.498529
2063.000000	4.498726
2062.000000	4.462439
2061.000000	4.390196
2060.000000	4.281192
2059.000000	4.324496
2058.000000	4.371551
2057.000000	4.229301
2056.000000	4.213260
2055.000000	4.263852
2054.000000	4.197726
2053.000000	4.121882
2052.000000	4.080172
2051.000000	4.038306
2050.000000	4.004188
2049.000000	3.950114
2048.000000	3.915879
2047.000000	3.928736
2046.000000	3.896510
2045.000000	3.907520
2044.000000	3.895226
2043.000000	3.868172
2042.000000	3.900111
2041.000000	3.979558
2040.000000	4.041311
2039.000000	4.016514
2038.000000	3.925094
2037.000000	3.896029
2036.000000	3.895683
2035.000000	3.922279
2034.000000	3.960025
2033.000000	3.969064
2032.000000	3.991405
2031.000000	4.045312
2030.000000	4.057244
2029.000000	4.091308
2028.000000	4.139381
2027.000000	4.158155
2026.000000	4.128709
2025.000000	4.125934
2024.000000	4.129462
2023.000000	4.153280
2022.000000	4.173190
2021.000000	4.152903
2020.000000	4.152000
2019.000000	4.158864
2018.000000	4.156055
2017.000000	4.150718
2016.000000	4.163573
2015.000000	4.186128
2014.000000	4.186643
2013.000000	4.140375
2012.000000	4.101010
2011.000000	4.142392
2010.000000	4.111949
2009.000000	4.055926
2008.000000	4.030779
2007.000000	4.008495
2006.000000	3.981931
2005.000000	3.997675
2004.000000	3.984526
2003.000000	3.945216
2002.000000	3.935133
2001.000000	3.918571
2000.000000	3.889502
1999.000000	3.878295
1998.000000	3.847934
1997.000000	3.793637
1996.000000	3.781520
1995.000000	3.795204
1994.000000	3.798193
1993.000000	3.748700
1992.000000	3.712557
1991.000000	3.676793
1990.000000	3.645279
1989.000000	3.646690
1988.000000	3.635786
1987.000000	3.565827
1986.000000	3.560720
1985.000000	3.543945
1984.000000	3.541475
1983.000000	3.486884
1982.000000	3.437865
1981.000000	3.482801
1980.000000	3.466941
1979.000000	3.415860
1978.000000	3.399012
1977.000000	3.373275
1976.000000	3.349561
1975.000000	3.336957
1974.000000	3.317639
1973.000000	3.271249
1972.000000	3.250039
1971.000000	3.222589
1970.000000	3.266086
1969.000000	3.236475
1968.000000	3.209912
1967.000000	3.199570
1966.000000	3.209675
1965.000000	3.179529
1964.000000	3.134641
1963.000000	3.128544
1962.000000	3.103713
1961.000000	3.121202
1960.000000	3.115229
1959.000000	3.054806
1958.000000	3.069828
1957.000000	3.053799
1956.000000	3.039219
1955.000000	3.039692
1954.000000	3.055682
1953.000000	3.037906
1952.000000	3.026867
1951.000000	3.034168
1950.000000	3.008223
1949.000000	3.017600
1948.000000	3.030833
1947.000000	3.026162
1946.000000	3.001880
1945.000000	3.025800
1944.000000	3.034090
1943.000000	3.009801
1942.000000	3.029164
1941.000000	3.090898
1940.000000	3.074141
1939.000000	2.998996
1938.000000	3.017735
1937.000000	3.140319
1936.000000	3.086078
1935.000000	3.141063
1934.000000	3.129959
1933.000000	3.220436
1932.000000	3.222860
1931.000000	3.142190
1930.000000	3.250070
1929.000000	3.247224
1928.000000	3.242191
1927.000000	3.399652
1926.000000	3.417365
1925.000000	3.408896
1924.000000	3.468652
1923.000000	3.469226
1922.000000	3.531745
1921.000000	3.555125
1920.000000	3.650518
1919.000000	3.664704
1918.000000	3.807008
1917.000000	3.878019
1916.000000	3.788114
1915.000000	3.929448
1914.000000	4.093853
1913.000000	4.185621
1912.000000	4.173933
1911.000000	4.198178
1910.000000	4.251517
1909.000000	4.354941
1908.000000	4.469546
1907.000000	4.618877
1906.000000	4.701596
1905.000000	4.842049
1904.000000	4.855703
1903.000000	4.977202
1902.000000	5.127263
1901.000000	5.206871
1900.000000	5.351518
1899.000000	5.453121
1898.000000	5.628837
1897.000000	5.783972
1896.000000	5.865295
1895.000000	5.922656
1894.000000	6.018316
1893.000000	6.198356
1892.000000	6.303019
1891.000000	6.427894
1890.000000	6.517064
1889.000000	6.661015
1888.000000	6.807544
1887.000000	6.944817
1886.000000	7.100871
1885.000000	7.160891
1884.000000	7.302743
1883.000000	7.427334
1882.000000	7.513150
1881.000000	7.601950
1880.000000	7.705368
1879.000000	7.726868
1878.000000	7.892607
1877.000000	7.943343
1876.000000	8.057847
1875.000000	8.169382
1874.000000	8.185399
1873.000000	8.247676
1872.000000	8.318652
1871.000000	8.421447
1870.000000	8.480577
1869.000000	8.512643
1868.000000	8.515071
1867.000000	8.501603
1866.000000	8.537825
1865.000000	8.598119
1864.000000	8.591321
1863.000000	8.596917
1862.000000	8.608786
1861.000000	8.615664
1860.000000	8.625544
1859.000000	8.652571
1858.000000	8.641406
1857.000000	8.619435
1856.000000	8.665269
1855.000000	8.704461
1854.000000	8.683875
1853.000000	8.747954
1852.000000	8.741284
1851.000000	8.722994
1850.000000	8.760460
1849.000000	8.761798
1848.000000	8.714912
1847.000000	8.718302
1846.000000	8.736379
1845.000000	8.746383
1844.000000	8.736774
1843.000000	8.696595
1842.000000	8.717378
1841.000000	8.693689
1840.000000	8.669206
1839.000000	8.698961
1838.000000	8.692308
1837.000000	8.623162
1836.000000	8.603075
1835.000000	8.603965
1834.000000	8.539867
1833.000000	8.537496
1832.000000	8.517165
1831.000000	8.495266
1830.000000	8.488334
1829.000000	8.473999
1828.000000	8.462882
1827.000000	8.460426
1826.000000	8.436976
1825.000000	8.401465
1824.000000	8.390050
1823.000000	8.397795
1822.000000	8.399424
1821.000000	8.381780
1820.000000	8.354345
1819.000000	8.331151
1818.000000	8.318543
1817.000000	8.324188
1816.000000	8.325023
1815.000000	8.301010
1814.000000	8.274708
1813.000000	8.261111
1812.000000	8.257342
1811.000000	8.255056
1810.000000	8.225873
1809.000000	8.212220
1808.000000	8.224647
1807.000000	8.214912
1806.000000	8.212588
1805.000000	8.199852
1804.000000	8.179942
1803.000000	8.174154
1802.000000	8.159548
1801.000000	8.154711
1800.000000	8.156158
1799.000000	8.157605
1798.000000	8.148605
1797.000000	8.146491
1796.000000	8.130995
1795.000000	8.120685
1794.000000	8.164385
1793.000000	8.177552
1792.000000	8.155734
1791.000000	8.144173
1790.000000	8.145971
1789.000000	8.158671
1788.000000	8.168768
1787.000000	8.163712
1786.000000	8.166753
1785.000000	8.178294
1784.000000	8.169351
1783.000000	8.156139
1782.000000	8.146069
1781.000000	8.139651
1780.000000	8.123077
1779.000000	8.120062
1778.000000	8.101750
1777.000000	8.081783
1776.000000	8.076292
1775.000000	8.072167
1774.000000	8.036683
1773.000000	8.018633
1772.000000	7.981096
1771.000000	7.989512
1770.000000	7.979279
1769.000000	7.968740
1768.000000	7.949786
1767.000000	7.922537
1766.000000	7.903000
1765.000000	7.883547
1764.000000	7.881844
1763.000000	7.887734
1762.000000	7.838418
1761.000000	7.797981
1760.000000	7.783016
1759.000000	7.768989
1758.000000	7.746124
1757.000000	7.746544
1756.000000	7.746964
1755.000000	7.758606
1754.000000	7.723095
1753.000000	7.717189
1752.000000	7.714850
1751.000000	7.686476
1750.000000	7.662431
1749.000000	7.665210
1748.000000	7.660399
1747.000000	7.617795
1746.000000	7.617945
1745.000000	7.607184
1744.000000	7.556517
1743.000000	7.542689
1742.000000	7.520295
1741.000000	7.499603
1740.000000	7.474233
1739.000000	7.482488
1738.000000	7.439483
1737.000000	7.441689
1736.000000	7.420126
1735.000000	7.437205
1734.000000	7.444380
1733.000000	7.437371
1732.000000	7.421994
1731.000000	7.398932
1730.000000	7.414677
1729.000000	7.420037
1728.000000	7.396872
1727.000000	7.398007
1726.000000	7.426238
1725.000000	7.422320
1724.000000	7.468356
1723.000000	7.489320
1722.000000	7.493734
1721.000000	7.515585
1720.000000	7.531921
1719.000000	7.580880
1718.000000	7.563803
1717.000000	7.612662
1716.000000	7.640472
1715.000000	7.641380
1714.000000	7.678483
1713.000000	7.703703
1712.000000	7.722972
1711.000000	7.737759
1710.000000	7.759234
1709.000000	7.751456
1708.000000	7.775909
1707.000000	7.777680
1706.000000	7.826240
1705.000000	7.840456
1704.000000	7.856270
1703.000000	7.846357
1702.000000	7.815624
1701.000000	7.858279
1700.000000	7.847545
1699.000000	7.834393
1698.000000	7.874186
1697.000000	7.903830
1696.000000	7.917911
1695.000000	7.884758
1694.000000	7.915087
1693.000000	7.918830
1692.000000	7.911705
1691.000000	7.926185
1690.000000	7.960023
1689.000000	7.972522
1688.000000	8.009815
1687.000000	8.039501
1686.000000	8.079233
1685.000000	8.088389
1684.000000	8.123913
1683.000000	8.164383
1682.000000	8.204763
1681.000000	8.250393
1680.000000	8.313393
1679.000000	8.313396
1678.000000	8.369839
1677.000000	8.385885
1676.000000	8.432710
1675.000000	8.480615
1674.000000	8.506520
1673.000000	8.552302
1672.000000	8.581041
1671.000000	8.624757
1670.000000	8.671097
1669.000000	8.682227
1668.000000	8.710001
1667.000000	8.765931
1666.000000	8.781476
1665.000000	8.783141
1664.000000	8.783746
1663.000000	8.786852
1662.000000	8.834606
1661.000000	8.862254
1660.000000	8.882408
1659.000000	8.910261
1658.000000	8.916132
1657.000000	8.934971
1656.000000	8.932251
1655.000000	8.955843
1654.000000	8.937763
1653.000000	8.954173
1652.000000	8.961482
1651.000000	8.984164
1650.000000	8.992871
1649.000000	8.972286
1648.000000	8.945836
1647.000000	8.933658
1646.000000	8.932236
1645.000000	8.930273
1644.000000	8.908890
1643.000000	8.888869
1642.000000	8.909868
1641.000000	8.901642
1640.000000	8.880357
1639.000000	8.882668
1638.000000	8.870583
1637.000000	8.848567
1636.000000	8.843436
1635.000000	8.836376
1634.000000	8.811817
1633.000000	8.795911
1632.000000	8.788797
1631.000000	8.780285
1630.000000	8.767379
1629.000000	8.743777
1628.000000	8.734367
1627.000000	8.721232
1626.000000	8.693256
1625.000000	8.683853
1624.000000	8.682287
1623.000000	8.679109
1622.000000	8.649814
1621.000000	8.623696
1620.000000	8.608012
1619.000000	8.600472
1618.000000	8.585882
1617.000000	8.582007
1616.000000	8.557642
1615.000000	8.530877
1614.000000	8.508320
1613.000000	8.507148
1612.000000	8.490298
1611.000000	8.475834
1610.000000	8.463431
1609.000000	8.446481
1608.000000	8.430424
1607.000000	8.421949
1606.000000	8.402008
1605.000000	8.375857
1604.000000	8.358338
1603.000000	8.351191
1602.000000	8.341762
1601.000000	8.325663
1600.000000	8.305055
1599.000000	8.281872
1598.000000	8.270712
1597.000000	8.267927
1596.000000	8.248119
1595.000000	8.224698
1594.000000	8.223567
1593.000000	8.224353
1592.000000	8.190989
1591.000000	8.165280
1590.000000	8.153824
1589.000000	8.130608
1588.000000	8.123863
1587.000000	8.120937
1586.000000	8.099014
1585.000000	8.088852
1584.000000	8.081127
1583.000000	8.055599
1582.000000	8.039473
1581.000000	8.042605
1580.000000	8.032539
1579.000000	8.013610
1578.000000	8.004486
1577.000000	7.994830
1576.000000	7.970790
1575.000000	7.941889
1574.000000	7.930743
1573.000000	7.926995
1572.000000	7.916248
1571.000000	7.912261
1570.000000	7.899186
1569.000000	7.874780
1568.000000	7.860869
1567.000000	7.853369
1566.000000	7.827685
1565.000000	7.815056
1564.000000	7.823231
1563.000000	7.816243
1562.000000	7.801152
1561.000000	7.792214
1560.000000	7.773788
1559.000000	7.767773
1558.000000	7.752450
1557.000000	7.736103
1556.000000	7.734280
1555.000000	7.722488
1554.000000	7.706289
1553.000000	7.693669
1552.000000	7.670084
1551.000000	7.657878
1550.000000	7.654623
1549.000000	7.631172
1548.000000	7.623861
1547.000000	7.614875
1546.000000	7.577865
1545.000000	7.549175
1544.000000	7.530675
1543.000000	7.517254
1542.000000	7.487969
1541.000000	7.461821
1540.000000	7.442535
1539.000000	7.409758
1538.000000	7.384753
1537.000000	7.361226
1536.000000	7.359017
1535.000000	7.325330
1534.000000	7.303812
1533.000000	7.281244
1532.000000	7.259780
1531.000000	7.218041
1530.000000	7.204828
1529.000000	7.167605
1528.000000	7.161009
1527.000000	7.133802
1526.000000	7.119055
1525.000000	7.100525
1524.000000	7.085113
1523.000000	7.061538
1522.000000	7.054370
1521.000000	7.035323
1520.000000	7.025131
1519.000000	7.021386
1518.000000	7.022687
1517.000000	6.996247
1516.000000	6.990317
1515.000000	6.971481
1514.000000	6.955183
1513.000000	6.967218
1512.000000	6.958469
1511.000000	6.932623
1510.000000	6.943192
1509.000000	6.926357
1508.000000	6.928216
1507.000000	6.928113
1506.000000	6.915878
1505.000000	6.918012
1504.000000	6.912347
1503.000000	6.920001
1502.000000	6.912871
1501.000000	6.901223
1500.000000	6.908136
1499.000000	6.885997
1498.000000	6.889837
1497.000000	6.885126
1496.000000	6.926402
1495.000000	6.920682
1494.000000	6.923743
1493.000000	6.901922
1492.000000	6.905498
1491.000000	6.906928
1490.000000	6.912394
1489.000000	6.925145
1488.000000	6.928881
1487.000000	6.915644
1486.000000	6.911554
1485.000000	6.915470
1484.000000	6.936190
1483.000000	6.934541
1482.000000	6.916931
1481.000000	6.969427
1480.000000	6.956239
1479.000000	6.959905
1478.000000	6.966645
1477.000000	6.950302
1476.000000	6.961841
1475.000000	6.956602
1474.000000	6.981844
1473.000000	6.974306
1472.000000	6.968890
1471.000000	6.966099
1470.000000	6.974736
1469.000000	6.967044
1468.000000	6.990439
1467.000000	7.019951
1466.000000	7.039381
1465.000000	7.037693
1464.000000	7.026634
1463.000000	7.005323
1462.000000	7.017360
1461.000000	7.048363
1460.000000	7.073884
1459.000000	7.070830
1458.000000	7.100209
1457.000000	7.104427
1456.000000	7.094337
1455.000000	7.087624
1454.000000	7.094784
1453.000000	7.099726
1452.000000	7.135823
1451.000000	7.167320
1450.000000	7.175527
1449.000000	7.165682
1448.000000	7.178093
1447.000000	7.221953
1446.000000	7.230507
1445.000000	7.253163
1444.000000	7.256498
1443.000000	7.265191
1442.000000	7.275273
1441.000000	7.283601
1440.000000	7.301587
1439.000000	7.322523
1438.000000	7.373423
1437.000000	7.409688
1436.000000	7.413992
1435.000000	7.422775
1434.000000	7.458525
1433.000000	7.474161
1432.000000	7.498037
1431.000000	7.519253
1430.000000	7.556085
1429.000000	7.586795
1428.000000	7.616827
1427.000000	7.637766
1426.000000	7.688899
1425.000000	7.722054
1424.000000	7.757051
1423.000000	7.766461
1422.000000	7.810903
1421.000000	7.856181
1420.000000	7.899387
1419.000000	7.913788
1418.000000	7.948464
1417.000000	8.018830
1416.000000	8.070588
1415.000000	8.095593
1414.000000	8.156652
1413.000000	8.218206
1412.000000	8.257082
1411.000000	8.291196
1410.000000	8.347964
1409.000000	8.388481
1408.000000	8.433269
1407.000000	8.485263
1406.000000	8.525747
1405.000000	8.570062
1404.000000	8.630247
1403.000000	8.673296
1402.000000	8.726454
1401.000000	8.782289
1400.000000	8.829849
1399.000000	8.863757
1398.000000	8.903096
1397.000000	8.940649
1396.000000	8.980687
1395.000000	9.010746
1394.000000	9.056424
1393.000000	9.099796
1392.000000	9.129046
1391.000000	9.151452
1390.000000	9.175468
1389.000000	9.206542
1388.000000	9.244125
1387.000000	9.271794
1386.000000	9.288129
1385.000000	9.310858
1384.000000	9.333163
1383.000000	9.366088
1382.000000	9.411004
1381.000000	9.436912
1380.000000	9.446396
1379.000000	9.478116
1378.000000	9.487937
1377.000000	9.491626
1376.000000	9.513713
1375.000000	9.528553
1374.000000	9.538471
1373.000000	9.537644
1372.000000	9.537851
1371.000000	9.559546
1370.000000	9.592019
1369.000000	9.590363
1368.000000	9.581658
1367.000000	9.598878
1366.000000	9.604913
1365.000000	9.604314
1364.000000	9.611201
1363.000000	9.617427
1362.000000	9.620809
1361.000000	9.642101
1360.000000	9.675139
1359.000000	9.681662
1358.000000	9.661279
1357.000000	9.673438
1356.000000	9.687764
1355.000000	9.689024
1354.000000	9.693505
1353.000000	9.704857
1352.000000	9.711219
1351.000000	9.729373
1350.000000	9.742911
1349.000000	9.737108
1348.000000	9.737212
1347.000000	9.747622
1346.000000	9.756454
1345.000000	9.757327
1344.000000	9.751964
1343.000000	9.747628
1342.000000	9.771637
1341.000000	9.790244
1340.000000	9.792745
1339.000000	9.789160
1338.000000	9.768028
1337.000000	9.791995
1336.000000	9.828595
1335.000000	9.844058
1334.000000	9.821868
1333.000000	9.813355
1332.000000	9.809972
1331.000000	9.825049
1330.000000	9.856525
1329.000000	9.849958
1328.000000	9.828460
1327.000000	9.843367
1326.000000	9.851717
1325.000000	9.842436
1324.000000	9.847400
1323.000000	9.872825
1322.000000	9.863434
1321.000000	9.853975
1320.000000	9.858985
1319.000000	9.854703
1318.000000	9.873404
1317.000000	9.872331
1316.000000	9.839239
1315.000000	9.842496
1314.000000	9.846380
1313.000000	9.844188
1312.000000	9.838074
1311.000000	9.844667
1310.000000	9.844484
1309.000000	9.855351
1308.000000	9.850234
1307.000000	9.848540
1306.000000	9.837232
1305.000000	9.824391
1304.000000	9.845195
1303.000000	9.861587
1302.000000	9.855208
1301.000000	9.841543
1300.000000	9.835150
1299.000000	9.822268
1298.000000	9.814298
1297.000000	9.797716
1296.000000	9.803502
1295.000000	9.806797
1294.000000	9.797134
1293.000000	9.797830
1292.000000	9.801678
1291.000000	9.807380
1290.000000	9.817324
1289.000000	9.805807
1288.000000	9.799536
1287.000000	9.793589
1286.000000	9.792837
1285.000000	9.796113
1284.000000	9.751672
1283.000000	9.753286
1282.000000	9.757938
1281.000000	9.755063
1280.000000	9.770646
1279.000000	9.767234
1278.000000	9.741808
1277.000000	9.751049
1276.000000	9.744727
1275.000000	9.736439
1274.000000	9.726666
1273.000000	9.725253
1272.000000	9.715806
1271.000000	9.713276
1270.000000	9.711352
1269.000000	9.718143
1268.000000	9.689015
1267.000000	9.688272
1266.000000	9.688793
1265.000000	9.655022
1264.000000	9.704772
1263.000000	9.721588
1262.000000	9.722818
1261.000000	9.692070
1260.000000	9.685410
1259.000000	9.665777
1258.000000	9.710482
1257.000000	9.700020
1256.000000	9.696585
1255.000000	9.690785
1254.000000	9.668862
1253.000000	9.688742
1252.000000	9.676893
1251.000000	9.664843
1250.000000	9.649940
1249.000000	9.646110
1248.000000	9.660420
1247.000000	9.651660
1246.000000	9.657870
1245.000000	9.668815
1244.000000	9.647992
1243.000000	9.644675
1242.000000	9.650163
1241.000000	9.656057
1240.000000	9.604445
1239.000000	9.594858
1238.000000	9.605478
1237.000000	9.592287
1236.000000	9.554730
1235.000000	9.564098
1234.000000	9.557967
1233.000000	9.567600
1232.000000	9.529928
1231.000000	9.528386
1230.000000	9.528601
1229.000000	9.523302
1228.000000	9.508430
1227.000000	9.472066
1226.000000	9.465268
1225.000000	9.467453
1224.000000	9.466726
1223.000000	9.465025
1222.000000	9.456031
1221.000000	9.452124
1220.000000	9.431988
1219.000000	9.423392
1218.000000	9.409105
1217.000000	9.398802
1216.000000	9.378444
1215.000000	9.369941
1214.000000	9.358274
1213.000000	9.389428
1212.000000	9.375201
1211.000000	9.367622
1210.000000	9.377174
1209.000000	9.369155
1208.000000	9.342581
1207.000000	9.325226
1206.000000	9.326989
1205.000000	9.309843
1204.000000	9.295148
1203.000000	9.316218
1202.000000	9.310253
1201.000000	9.278146
1200.000000	9.246312
1199.000000	9.250968
1198.000000	9.252707
1197.000000	9.258949
1196.000000	9.238817
1195.000000	9.221784
1194.000000	9.221489
1193.000000	9.214275
1192.000000	9.196802
1191.000000	9.191390
1190.000000	9.177015
1189.000000	9.148997
1188.000000	9.145118
1187.000000	9.167031
1186.000000	9.156776
1185.000000	9.141722
1184.000000	9.132244
1183.000000	9.141853
1182.000000	9.159496
1181.000000	9.157407
1180.000000	9.174709
1179.000000	9.187615
1178.000000	9.192627
1177.000000	9.207946
1176.000000	9.213639
1175.000000	9.223022
1174.000000	9.236153
1173.000000	9.249456
1172.000000	9.262540
1171.000000	9.265672
1170.000000	9.273291
1169.000000	9.285555
1168.000000	9.287464
1167.000000	9.303057
1166.000000	9.314283
1165.000000	9.325171
1164.000000	9.345654
1163.000000	9.350167
1162.000000	9.350604
1161.000000	9.364618
1160.000000	9.383730
1159.000000	9.397356
1158.000000	9.403329
1157.000000	9.409392
1156.000000	9.419561
1155.000000	9.410071
1154.000000	9.402663
1153.000000	9.409213
1152.000000	9.413567
1151.000000	9.427760
1150.000000	9.460235
1149.000000	9.482647
1148.000000	9.485385
1147.000000	9.489090
1146.000000	9.492139
1145.000000	9.505745
1144.000000	9.520960
1143.000000	9.528019
1142.000000	9.530738
1141.000000	9.529116
1140.000000	9.538801
1139.000000	9.530693
1138.000000	9.515515
1137.000000	9.513130
1136.000000	9.532763
1135.000000	9.546071
1134.000000	9.550997
1133.000000	9.558036
1132.000000	9.563967
1131.000000	9.559354
1130.000000	9.568979
1129.000000	9.579348
1128.000000	9.598504
1127.000000	9.570008
1126.000000	9.555665
1125.000000	9.563159
1124.000000	9.563134
1123.000000	9.559342
1122.000000	9.565093
1121.000000	9.572075
1120.000000	9.586617
1119.000000	9.582486
1118.000000	9.581430
1117.000000	9.576331
1116.000000	9.583718
1115.000000	9.576422
1114.000000	9.565258
1113.000000	9.571790
1112.000000	9.577133
1111.000000	9.577505
1110.000000	9.573752
1109.000000	9.564799
1108.000000	9.569448
1107.000000	9.564461
1106.000000	9.573125
1105.000000	9.562064
1104.000000	9.563691
1103.000000	9.530159
1102.000000	9.512096
1101.000000	9.520946
1100.000000	9.534034
1099.000000	9.541074
1098.000000	9.537736
1097.000000	9.536220
1096.000000	9.540157
1095.000000	9.536957
1094.000000	9.525256
1093.000000	9.512870
1092.000000	9.506476
1091.000000	9.511971
1090.000000	9.524443
1089.000000	9.518848
1088.000000	9.532620
1087.000000	9.494201
1086.000000	9.489635
1085.000000	9.494646
1084.000000	9.506603
1083.000000	9.509035
1082.000000	9.517184
1081.000000	9.516868
1080.000000	9.476728
1079.000000	9.467544
1078.000000	9.482187
1077.000000	9.488787
1076.000000	9.487605
1075.000000	9.511696
1074.000000	9.490548
1073.000000	9.439855
1072.000000	9.425985
1071.000000	9.439145
1070.000000	9.453035
1069.000000	9.461749
1068.000000	9.476599
1067.000000	9.478405
1066.000000	9.440373
1065.000000	9.428245
1064.000000	9.436424
1063.000000	9.436356
1062.000000	9.442917
1061.000000	9.436573
1060.000000	9.399465
1059.000000	9.408570
1058.000000	9.402757
1057.000000	9.409260
1056.000000	9.414970
1055.000000	9.425034
1054.000000	9.399068
1053.000000	9.371373
1052.000000	9.393036
1051.000000	9.393878
1050.000000	9.408497
1049.000000	9.385065
1048.000000	9.349154
1047.000000	9.390926
1046.000000	9.412410
1045.000000	9.404557
1044.000000	9.352733
1043.000000	9.345376
1042.000000	9.368183
1041.000000	9.369525
1040.000000	9.354629
1039.000000	9.343880
1038.000000	9.355115
1037.000000	9.356668
1036.000000	9.335570
1035.000000	9.331541
1034.000000	9.332446
1033.000000	9.342269
1032.000000	9.330107
1031.000000	9.345943
1030.000000	9.339212
1029.000000	9.315188
1028.000000	9.335944
1027.000000	9.346911
1026.000000	9.347505
1025.000000	9.315658
1024.000000	9.326875
1023.000000	9.324513
1022.000000	9.305196
1021.000000	9.306476
1020.000000	9.318621
1019.000000	9.322988
1018.000000	9.306706
1017.000000	9.314899
1016.000000	9.297327
1015.000000	9.295136
1014.000000	9.312833
1013.000000	9.298901
1012.000000	9.297765
1011.000000	9.312876
1010.000000	9.302181
1009.000000	9.313000
1008.000000	9.308376
1007.000000	9.328883
1006.000000	9.341843
1005.000000	9.357451
1004.000000	9.351200
1003.000000	9.350636
1002.000000	9.347960
1001.000000	9.338066
1000.000000	9.350619
999.000000	9.343791
998.000000	9.338470
997.000000	9.359807
996.000000	9.357512
995.000000	9.352712
994.000000	9.351640
993.000000	9.352171
992.000000	9.358509
991.000000	9.364189
990.000000	9.348209
989.000000	9.351192
988.000000	9.345740
987.000000	9.334927
986.000000	9.342443
985.000000	9.344707
984.000000	9.346611
983.000000	9.345503
982.000000	9.338090
981.000000	9.323062
980.000000	9.332293
979.000000	9.336537
978.000000	9.350826
977.000000	9.351712
976.000000	9.348672
975.000000	9.331262
974.000000	9.322714
973.000000	9.337116
972.000000	9.342975
971.000000	9.335315
970.000000	9.334695
969.000000	9.318184
968.000000	9.318096
967.000000	9.330635
966.000000	9.334224
965.000000	9.329742
964.000000	9.326665
963.000000	9.321243
962.000000	9.311608
961.000000	9.306124
960.000000	9.321374
959.000000	9.336396
958.000000	9.327280
957.000000	9.324861
956.000000	9.322038
955.000000	9.297921
954.000000	9.287919
953.000000	9.298246
952.000000	9.298277
951.000000	9.303230
950.000000	9.309755
949.000000	9.305716
948.000000	9.299847
947.000000	9.284132
946.000000	9.298792
945.000000	9.312946
944.000000	9.299709
943.000000	9.298495
942.000000	9.290854
941.000000	9.277477
940.000000	9.277595
939.000000	9.264920
938.000000	9.272127
937.000000	9.293498
936.000000	9.276785
935.000000	9.262158
934.000000	9.270657
933.000000	9.248209
932.000000	9.243082
931.000000	9.261007
930.000000	9.277757
929.000000	9.268253
928.000000	9.219955
927.000000	9.196357
926.000000	9.213859
925.000000	9.232441
924.000000	9.218363
923.000000	9.206952
922.000000	9.231228
921.000000	9.224530
920.000000	9.199959
919.000000	9.208631
918.000000	9.213670
917.000000	9.209329
916.000000	9.216196
915.000000	9.203883
914.000000	9.215803
913.000000	9.207234
912.000000	9.204535
911.000000	9.202025
910.000000	9.224353
909.000000	9.247338
908.000000	9.262392
907.000000	9.216136
906.000000	9.153066
905.000000	9.151461
904.000000	9.141129
903.000000	9.115495
902.000000	9.162785
901.000000	9.179688
900.000000	9.226219
899.000000	9.232385
898.000000	9.245686
897.000000	9.178486
896.000000	9.157073
895.000000	9.169900
894.000000	9.172031
893.000000	9.181752
892.000000	9.142890
891.000000	9.161817
890.000000	9.163665
889.000000	9.194856
888.000000	9.137666
887.000000	9.172886
886.000000	9.134609
885.000000	9.164403
884.000000	9.152039
883.000000	9.166883
882.000000	9.113354
881.000000	9.158970
880.000000	9.199022
879.000000	9.128915
878.000000	9.114802
877.000000	9.164283
876.000000	9.117372
875.000000	9.149789
874.000000	9.178784
873.000000	9.173832
872.000000	9.098787
871.000000	9.124176
870.000000	9.151866
869.000000	9.264461
868.000000	9.153048
867.000000	9.165304
866.000000	9.130936
865.000000	9.193707
864.000000	8.987830
863.000000	9.010123
862.000000	9.119485
861.000000	9.122601
860.000000	8.952207
859.000000	8.727810
858.000000	8.740011
857.000000	8.769234
856.000000	8.752102
855.000000	8.808459
854.000000	8.718196
853.000000	8.704141
852.000000	8.710550
851.000000	8.648090
850.000000	8.716419
849.000000	8.649109
848.000000	8.670961
847.000000	8.680354
846.000000	8.656630
845.000000	8.619943
844.000000	8.583152
843.000000	8.686934
842.000000	8.625365
841.000000	8.637117
840.000000	8.601779
839.000000	8.628753
838.000000	8.647311
837.000000	8.576801
836.000000	8.585199
835.000000	8.520266
834.000000	8.562040
833.000000	8.606969
832.000000	8.484690
831.000000	8.509447
830.000000	8.526077
829.000000	8.494149
828.000000	8.534545
827.000000	8.516267
826.000000	8.504944
825.000000	8.451517
824.000000	8.494127
823.000000	8.474462
822.000000	8.490373
821.000000	8.480030
820.000000	8.450370
819.000000	8.461406
818.000000	8.452274
817.000000	8.440703
816.000000	8.418493
815.000000	8.424170
814.000000	8.390209
813.000000	8.400193
812.000000	8.430414
811.000000	8.384946
810.000000	8.376702
809.000000	8.382505
808.000000	8.353300
807.000000	8.365201
806.000000	8.372446
805.000000	8.359623
804.000000	8.391174
803.000000	8.350363
802.000000	8.330616
801.000000	8.325555
800.000000	8.306863
799.000000	8.318208
798.000000	8.283468
797.000000	8.284037
796.000000	8.271503
795.000000	8.262576
794.000000	8.249725
793.000000	8.247709
792.000000	8.273174
791.000000	8.223368
790.000000	8.218638
789.000000	8.236331
788.000000	8.208999
787.000000	8.220727
786.000000	8.194240
785.000000	8.216507
784.000000	8.195014
783.000000	8.161565
782.000000	8.150730
781.000000	8.140803
780.000000	8.160629
779.000000	8.177100
778.000000	8.130919
777.000000	8.121930
776.000000	8.103144
775.000000	8.105783
774.000000	8.106531
773.000000	8.095452
772.000000	8.071280
771.000000	8.062888
770.000000	8.049671
769.000000	8.050465
768.000000	8.040350
767.000000	8.006307
766.000000	8.010649
765.000000	8.007461
764.000000	7.986197
763.000000	7.975413
762.000000	7.997279
761.000000	7.995711
760.000000	7.972712
759.000000	7.976533
758.000000	7.971376
757.000000	7.948822
756.000000	7.936324
755.000000	7.915012
754.000000	7.891972
753.000000	7.895502
752.000000	7.871563
751.000000	7.859634
750.000000	7.860124
749.000000	7.844767
748.000000	7.834115
747.000000	7.830897
746.000000	7.831342
745.000000	7.822386
744.000000	7.799327
743.000000	7.791828
742.000000	7.759244
741.000000	7.755596
740.000000	7.762836
739.000000	7.751669
738.000000	7.728304
737.000000	7.705711
736.000000	7.701063
735.000000	7.700074
734.000000	7.692633
733.000000	7.673953
732.000000	7.658414
731.000000	7.650459
730.000000	7.644886
729.000000	7.615936
728.000000	7.604864
727.000000	7.602894
726.000000	7.581379
725.000000	7.572768
724.000000	7.562768
723.000000	7.549845
722.000000	7.551552
721.000000	7.539302
720.000000	7.520946
719.000000	7.500999
718.000000	7.484865
717.000000	7.466131
716.000000	7.442530
715.000000	7.435195
714.000000	7.433204
713.000000	7.424021
712.000000	7.405049
711.000000	7.389936
710.000000	7.392960
709.000000	7.379824
708.000000	7.359030
707.000000	7.334981
706.000000	7.320379
705.000000	7.305483
704.000000	7.287810
703.000000	7.277154
702.000000	7.258826
701.000000	7.241474
700.000000	7.231557
699.000000	7.220862
698.000000	7.212954
697.000000	7.203030
696.000000	7.178921
695.000000	7.152868
694.000000	7.137196
693.000000	7.130498
692.000000	7.124662
691.000000	7.108685
690.000000	7.090675
689.000000	7.058458
688.000000	7.039677
687.000000	7.037639
686.000000	7.017066
685.000000	7.004194
684.000000	6.983890
683.000000	6.966489
682.000000	6.944047
681.000000	6.925023
680.000000	6.923696
679.000000	6.910608
678.000000	6.878266
677.000000	6.870352
676.000000	6.845959
675.000000	6.824515
674.000000	6.823057
673.000000	6.808574
672.000000	6.784549
671.000000	6.772569
670.000000	6.753821
669.000000	6.729479
668.000000	6.707007
667.000000	6.686545
666.000000	6.668434
665.000000	6.647164
664.000000	6.628454
663.000000	6.610434
662.000000	6.599921
661.000000	6.583737
660.000000	6.566192
659.000000	6.554501
658.000000	6.526415
657.000000	6.501282
656.000000	6.481944
655.000000	6.468551
654.000000	6.447398
653.000000	6.424137
652.000000	6.406703
651.000000	6.381435
650.000000	6.359216
649.000000	6.347736
648.000000	6.343903
647.000000	6.312875
646.000000	6.286392
645.000000	6.268104
644.000000	6.252621
643.000000	6.229055
642.000000	6.211738
641.000000	6.185505
640.000000	6.157780
639.000000	6.147362
638.000000	6.121853
637.000000	6.102838
636.000000	6.080373
635.000000	6.050458
634.000000	6.029260
633.000000	6.019323
632.000000	5.993179
631.000000	5.968354
630.000000	5.946435
629.000000	5.925933
628.000000	5.902826
627.000000	5.871654
626.000000	5.855715
625.000000	5.841544
624.000000	5.820839
623.000000	5.797512
622.000000	5.771443
621.000000	5.744790
620.000000	5.717707
619.000000	5.696324
618.000000	5.679853
617.000000	5.657310
616.000000	5.623998
615.000000	5.599703
614.000000	5.577920
613.000000	5.555300
612.000000	5.538855
611.000000	5.512888
610.000000	5.486293
609.000000	5.464767
608.000000	5.439359
607.000000	5.408695
606.000000	5.398832
605.000000	5.362864
604.000000	5.340831
603.000000	5.310788
602.000000	5.290857
601.000000	5.261761
600.000000	5.249156
599.000000	5.213341
598.000000	5.194103
597.000000	5.166271
596.000000	5.139810
595.000000	5.105466
594.000000	5.084575
593.000000	5.056814
592.000000	5.037322
591.000000	5.012754
590.000000	4.975321
589.000000	4.953319
588.000000	4.935067
587.000000	4.909541
586.000000	4.870482
585.000000	4.853476
584.000000	4.822934
583.000000	4.801446
582.000000	4.768803
581.000000	4.742780
580.000000	4.715411
579.000000	4.684315
578.000000	4.658597
577.000000	4.633490
576.000000	4.609240
575.000000	4.577772
574.000000	4.547995
573.000000	4.519881
572.000000	4.502255
571.000000	4.473934
570.000000	4.443577
569.000000	4.423767
568.000000	4.380837
567.000000	4.356049
566.000000	4.322237
565.000000	4.300838
564.000000	4.273636
563.000000	4.242689
562.000000	4.214135
561.000000	4.184190
560.000000	4.148765
559.000000	4.128812
558.000000	4.106815
557.000000	4.074734
556.000000	4.053316
555.000000	4.020198
554.000000	3.988735
553.000000	3.958952
552.000000	3.936327
551.000000	3.902025
550.000000	3.874485
549.000000	3.842807
548.000000	3.812918
547.000000	3.782196
546.000000	3.749115
545.000000	3.724217
544.000000	3.688714
543.000000	3.667255
542.000000	3.631442
541.000000	3.609879
540.000000	3.572081
539.000000	3.549323
538.000000	3.521693
537.000000	3.494391
536.000000	3.462146
535.000000	3.434288
534.000000	3.403613
533.000000	3.382093
532.000000	3.344470
531.000000	3.307928
530.000000	3.282606
529.000000	3.258194
528.000000	3.233359
527.000000	3.202923
526.000000	3.170771
525.000000	3.132073
524.000000	3.102256
523.000000	3.077364
522.000000	3.051061
521.000000	3.017912
520.000000	2.984817
519.000000	2.956721
518.000000	2.925969
517.000000	2.899833
516.000000	2.874583
515.000000	2.842884
514.000000	2.801952
513.000000	2.774974
512.000000	2.744713
511.000000	2.712570
510.000000	2.681986
509.000000	2.656289
508.000000	2.621391
507.000000	2.589457
506.000000	2.565199
505.000000	2.529838
504.000000	2.497672
503.000000	2.475772
502.000000	2.448118
501.000000	2.419268
500.000000	2.392096
499.000000	2.368712
498.000000	2.343981
497.000000	2.318320
496.000000	2.291131
495.000000	2.266384
494.000000	2.238441
493.000000	2.217099
492.000000	2.193895
491.000000	2.170716
490.000000	2.148526
489.000000	2.121501
488.000000	2.098008
487.000000	2.079124
486.000000	2.054682
485.000000	2.034701
484.000000	2.012388
483.000000	1.987777
482.000000	1.969685
481.000000	1.949558
480.000000	1.927662
479.000000	1.898571
478.000000	1.863021
477.000000	1.839092
476.000000	1.816101
475.000000	1.791392
474.000000	1.768855
473.000000	1.743822
472.000000	1.719807
471.000000	1.696848
470.000000	1.671347
469.000000	1.647446
468.000000	1.627691
467.000000	1.604201
466.000000	1.576852
465.000000	1.554581
464.000000	1.531626
463.000000	1.508322
462.000000	1.489130
461.000000	1.471932
460.000000	1.447447
459.000000	1.422478
458.000000	1.401023
457.000000	1.377714
456.000000	1.358586
455.000000	1.339196
454.000000	1.319176
453.000000	1.295098
452.000000	1.272545
451.000000	1.257598
450.000000	1.243722
449.000000	1.224115
448.000000	1.201704
447.000000	1.184495
446.000000	1.163793
445.000000	1.142078
444.000000	1.128296
443.000000	1.109856
442.000000	1.085558
441.000000	1.062452
440.000000	1.046022
439.000000	1.027153
438.000000	1.011154
437.000000	0.989243
436.000000	0.969558
435.000000	0.954416
434.000000	0.939263
433.000000	0.918607
432.000000	0.902657
431.000000	0.884493
430.000000	0.864280
429.000000	0.847548
428.000000	0.829351
427.000000	0.813609
426.000000	0.800132
425.000000	0.783438
424.000000	0.763583
423.000000	0.752408
422.000000	0.736846
421.000000	0.720727
420.000000	0.707915
419.000000	0.696426
418.000000	0.681701
417.000000	0.662233
416.000000	0.646766
415.000000	0.633782
414.000000	0.617217
413.000000	0.605198
412.000000	0.595892
411.000000	0.579315
410.000000	0.562996
409.000000	0.547747
408.000000	0.536157
407.000000	0.526070
406.000000	0.512916
405.000000	0.498953
404.000000	0.488125
403.000000	0.478444
402.000000	0.468445
401.000000	0.459876
400.000000	0.439655
399.000000	0.428451
398.000000	0.424049
397.000000	0.414078
396.000000	0.405733
395.000000	0.391435
394.000000	0.380077
393.000000	0.369315
392.000000	0.362385
391.000000	0.355055
390.000000	0.350987
389.000000	0.337754
388.000000	0.326375
387.000000	0.321651
386.000000	0.313930
385.000000	0.307647
384.000000	0.300298
383.000000	0.292673
382.000000	0.279453
381.000000	0.274453
380.000000	0.269471
379.000000	0.261442
378.000000	0.252371
377.000000	0.266624
376.000000	0.263047
375.000000	0.253135
374.000000	0.254260
373.000000	0.236432
372.000000	0.224741
371.000000	0.217505
370.000000	0.212480
369.000000	0.210368
368.000000	0.204479
367.000000	0.198529
366.000000	0.190365
365.000000	0.182598
364.000000	0.176927
363.000000	0.172736
362.000000	0.173733
361.000000	0.167491
360.000000	0.159491
359.000000	0.152554
358.000000	0.149433
357.000000	0.147857
356.000000	0.145499
355.000000	0.138250
354.000000	0.132481
353.000000	0.132231
352.000000	0.131654
351.000000	0.129675
350.000000	0.128749
349.000000	0.118809
348.000000	0.115156
347.000000	0.119835
346.000000	0.119774
345.000000	0.111086
344.000000	0.115547
343.000000	0.106129
342.000000	0.106514
341.000000	0.101086
340.000000	0.100843
339.000000	0.095409
338.000000	0.103940
337.000000	0.091272
336.000000	0.098758
335.000000	0.087383
334.000000	0.089851
333.000000	0.085467
332.000000	0.095230
331.000000	0.076625
330.000000	0.084634
329.000000	0.069351
328.000000	0.072202
327.000000	0.082088
326.000000	0.093136
325.000000	0.076238
324.000000	0.064000
323.000000	0.075265
322.000000	0.076383
321.000000	0.066022
320.000000	0.070624
319.000000	0.063595
318.000000	0.080898
317.000000	0.077134
316.000000	0.086999
315.000000	0.083305
314.000000	0.087475
313.000000	0.088420
312.000000	0.081358
311.000000	0.082718
310.000000	0.077050
309.000000	0.074600
308.000000	0.084995
307.000000	0.081799
306.000000	0.079680
305.000000	0.075578
304.000000	0.080388
303.000000	0.083317
302.000000	0.078171
301.000000	0.078268
300.000000	0.077239
299.000000	0.072108
298.000000	0.079298
297.000000	0.075947
296.000000	0.082582
295.000000	0.081261
294.000000	0.082784
293.000000	0.078004
292.000000	0.083036
291.000000	0.080576
290.000000	0.082832
289.000000	0.078547
288.000000	0.078369
287.000000	0.081739
286.000000	0.078980
285.000000	0.080272
284.000000	0.083842
283.000000	0.085530
282.000000	0.080935
281.000000	0.083408
280.000000	0.080922
279.000000	0.086512
278.000000	0.088604
277.000000	0.088659
276.000000	0.094097
275.000000	0.089762
274.000000	0.094802
273.000000	0.099116
272.000000	0.100562
271.000000	0.100455
270.000000	0.108979
269.000000	0.106383
268.000000	0.107986
267.000000	0.112728
266.000000	0.112798
265.000000	0.112109
264.000000	0.113580
263.000000	0.118208
262.000000	0.119962
261.000000	0.122073
260.000000	0.121447
259.000000	0.124525
258.000000	0.127646
257.000000	0.125542
256.000000	0.130030
255.000000	0.135800
254.000000	0.134132
253.000000	0.132039
252.000000	0.132543
251.000000	0.135606
250.000000	0.134589
249.000000	0.134136
248.000000	0.135300
247.000000	0.130728
246.000000	0.129485
245.000000	0.123133
244.000000	0.113820
243.000000	0.114704
242.000000	0.113322
241.000000	0.104832
240.000000	0.098646
239.000000	0.095560
238.000000	0.097564
237.000000	0.095649
236.000000	0.082694
235.000000	0.072398
234.000000	0.073858
233.000000	0.075089
232.000000	0.079860
231.000000	0.075212
230.000000	0.066080
229.000000	0.052863
228.000000	0.041708
227.000000	0.035401
226.000000	0.036877
225.000000	0.044573
224.000000	0.051596
223.000000	0.047517
222.000000	0.036274
221.000000	0.027808
220.000000	0.029357
219.000000	0.024811
218.000000	0.028343
217.000000	0.030454
216.000000	0.019154
215.000000	0.023673
214.000000	0.026169
213.000000	0.019182
212.000000	0.026613
211.000000	0.035524
210.000000	0.018608
209.000000	0.004267
208.000000	0.003776
207.000000	0.001333
206.000000	0.012429
205.000000	0.008752
204.000000	-0.003629
203.000000	-0.003111
202.000000	0.018680
201.000000	0.022304
200.000000	0.014946
