PE IR       SUBTECH     SPECTRUM    ASCII       PEDS        4.00        
   -1
A5G-C002_1.ASC
23/09/14
10:48:00.00
23/09/14
11:18:22.00
uco
Sample 002 By uco Date Thursday, September 14 2023
450.000000
#HDR
-1
-1
#GR
cm-1
%T
1.0
0.0
4000.000000
-1.000000
3551
8
98.978503
77.100562
#DATA
4000.000000	98.877183
3999.000000	98.875752
3998.000000	98.876299
3997.000000	98.878076
3996.000000	98.880110
3995.000000	98.881878
3994.000000	98.883519
3993.000000	98.885547
3992.000000	98.887998
3991.000000	98.889953
3990.000000	98.890023
3989.000000	98.887569
3988.000000	98.883322
3987.000000	98.878729
3986.000000	98.874666
3985.000000	98.870745
3984.000000	98.865862
3983.000000	98.859515
3982.000000	98.852489
3981.000000	98.846246
3980.000000	98.841832
3979.000000	98.839413
3978.000000	98.838583
3977.000000	98.838853
3976.000000	98.839842
3975.000000	98.841033
3974.000000	98.841659
3973.000000	98.841062
3972.000000	98.839308
3971.000000	98.837238
3970.000000	98.835831
3969.000000	98.835747
3968.000000	98.837254
3967.000000	98.840379
3966.000000	98.844816
3965.000000	98.849618
3964.000000	98.853358
3963.000000	98.854943
3962.000000	98.854357
3961.000000	98.852398
3960.000000	98.850021
3959.000000	98.847837
3958.000000	98.846219
3957.000000	98.845653
3956.000000	98.846089
3955.000000	98.846284
3954.000000	98.844594
3953.000000	98.840767
3952.000000	98.836731
3951.000000	98.834985
3950.000000	98.836280
3949.000000	98.838842
3948.000000	98.840027
3947.000000	98.838768
3946.000000	98.835955
3945.000000	98.832935
3944.000000	98.830216
3943.000000	98.827505
3942.000000	98.825120
3941.000000	98.824010
3940.000000	98.824642
3939.000000	98.826320
3938.000000	98.827713
3937.000000	98.828374
3936.000000	98.828988
3935.000000	98.830422
3934.000000	98.832705
3933.000000	98.834511
3932.000000	98.834302
3931.000000	98.831296
3930.000000	98.825838
3929.000000	98.818824
3928.000000	98.811176
3927.000000	98.805245
3926.000000	98.804077
3925.000000	98.808746
3924.000000	98.816999
3923.000000	98.824595
3922.000000	98.828165
3921.000000	98.827187
3920.000000	98.823882
3919.000000	98.821356
3918.000000	98.820661
3917.000000	98.820089
3916.000000	98.818065
3915.000000	98.815099
3914.000000	98.812720
3913.000000	98.811208
3912.000000	98.809867
3911.000000	98.807769
3910.000000	98.804318
3909.000000	98.799860
3908.000000	98.796068
3907.000000	98.795831
3906.000000	98.801866
3905.000000	98.813789
3904.000000	98.826768
3903.000000	98.834460
3902.000000	98.833843
3901.000000	98.826964
3900.000000	98.817676
3899.000000	98.809759
3898.000000	98.805920
3897.000000	98.805819
3896.000000	98.806692
3895.000000	98.806091
3894.000000	98.804390
3893.000000	98.804671
3892.000000	98.808885
3891.000000	98.814134
3890.000000	98.816056
3889.000000	98.814237
3888.000000	98.812153
3887.000000	98.813216
3886.000000	98.817606
3885.000000	98.822883
3884.000000	98.827244
3883.000000	98.830632
3882.000000	98.832475
3881.000000	98.831442
3880.000000	98.827105
3879.000000	98.821203
3878.000000	98.816494
3877.000000	98.814591
3876.000000	98.815079
3875.000000	98.816033
3874.000000	98.815752
3873.000000	98.815121
3872.000000	98.817185
3871.000000	98.822157
3870.000000	98.825276
3869.000000	98.823046
3868.000000	98.818848
3867.000000	98.817963
3866.000000	98.820486
3865.000000	98.822237
3864.000000	98.821037
3863.000000	98.818639
3862.000000	98.817767
3861.000000	98.819581
3860.000000	98.823108
3859.000000	98.826365
3858.000000	98.827412
3857.000000	98.825666
3856.000000	98.823107
3855.000000	98.822891
3854.000000	98.825986
3853.000000	98.827006
3852.000000	98.822307
3851.000000	98.817072
3850.000000	98.815113
3849.000000	98.814671
3848.000000	98.813742
3847.000000	98.811943
3846.000000	98.809370
3845.000000	98.806442
3844.000000	98.804857
3843.000000	98.806370
3842.000000	98.811544
3841.000000	98.819148
3840.000000	98.826870
3839.000000	98.833534
3838.000000	98.839736
3837.000000	98.845632
3836.000000	98.850172
3835.000000	98.852097
3834.000000	98.850672
3833.000000	98.845100
3832.000000	98.834695
3831.000000	98.821631
3830.000000	98.811122
3829.000000	98.807979
3828.000000	98.812991
3827.000000	98.821860
3826.000000	98.828357
3825.000000	98.829663
3824.000000	98.827421
3823.000000	98.822454
3822.000000	98.812583
3821.000000	98.796343
3820.000000	98.779026
3819.000000	98.769582
3818.000000	98.771686
3817.000000	98.782060
3816.000000	98.793275
3815.000000	98.801051
3814.000000	98.806492
3813.000000	98.810431
3812.000000	98.810288
3811.000000	98.804343
3810.000000	98.795395
3809.000000	98.788357
3808.000000	98.784969
3807.000000	98.782096
3806.000000	98.777671
3805.000000	98.775200
3804.000000	98.779582
3803.000000	98.790951
3802.000000	98.803282
3801.000000	98.809761
3800.000000	98.811851
3799.000000	98.815186
3798.000000	98.821050
3797.000000	98.826392
3796.000000	98.829111
3795.000000	98.830176
3794.000000	98.830847
3793.000000	98.830069
3792.000000	98.825687
3791.000000	98.817446
3790.000000	98.807586
3789.000000	98.799095
3788.000000	98.793941
3787.000000	98.792840
3786.000000	98.795077
3785.000000	98.798505
3784.000000	98.800909
3783.000000	98.801944
3782.000000	98.802587
3781.000000	98.803404
3780.000000	98.804178
3779.000000	98.804624
3778.000000	98.805074
3777.000000	98.805933
3776.000000	98.807024
3775.000000	98.807608
3774.000000	98.807945
3773.000000	98.809804
3772.000000	98.814672
3771.000000	98.820974
3770.000000	98.824593
3769.000000	98.823412
3768.000000	98.819206
3767.000000	98.814878
3766.000000	98.811383
3765.000000	98.808413
3764.000000	98.807311
3763.000000	98.811054
3762.000000	98.820619
3761.000000	98.833314
3760.000000	98.844904
3759.000000	98.852727
3758.000000	98.856134
3757.000000	98.855160
3756.000000	98.850632
3755.000000	98.844364
3754.000000	98.839721
3753.000000	98.840953
3752.000000	98.850235
3751.000000	98.863084
3750.000000	98.869326
3749.000000	98.864680
3748.000000	98.854479
3747.000000	98.844856
3746.000000	98.836597
3745.000000	98.826028
3744.000000	98.814885
3743.000000	98.813784
3742.000000	98.828366
3741.000000	98.851953
3740.000000	98.873555
3739.000000	98.886948
3738.000000	98.891319
3737.000000	98.888494
3736.000000	98.882226
3735.000000	98.878257
3734.000000	98.881178
3733.000000	98.887660
3732.000000	98.889641
3731.000000	98.883987
3730.000000	98.873932
3729.000000	98.864491
3728.000000	98.858883
3727.000000	98.858104
3726.000000	98.861024
3725.000000	98.864856
3724.000000	98.866682
3723.000000	98.865530
3722.000000	98.863393
3721.000000	98.862426
3720.000000	98.862965
3719.000000	98.864514
3718.000000	98.866622
3717.000000	98.869068
3716.000000	98.872593
3715.000000	98.877713
3714.000000	98.881959
3713.000000	98.880600
3712.000000	98.872515
3711.000000	98.864614
3710.000000	98.864057
3709.000000	98.870456
3708.000000	98.878531
3707.000000	98.884193
3706.000000	98.887541
3705.000000	98.889806
3704.000000	98.891030
3703.000000	98.889306
3702.000000	98.882284
3701.000000	98.870017
3700.000000	98.856101
3699.000000	98.845536
3698.000000	98.841293
3697.000000	98.842417
3696.000000	98.845847
3695.000000	98.849235
3694.000000	98.851375
3693.000000	98.852001
3692.000000	98.851755
3691.000000	98.852525
3690.000000	98.854856
3689.000000	98.855527
3688.000000	98.851010
3687.000000	98.842861
3686.000000	98.835122
3685.000000	98.829032
3684.000000	98.824052
3683.000000	98.820618
3682.000000	98.820135
3681.000000	98.822228
3680.000000	98.824152
3679.000000	98.824993
3678.000000	98.828919
3677.000000	98.839226
3676.000000	98.848270
3675.000000	98.843347
3674.000000	98.826784
3673.000000	98.811666
3672.000000	98.804684
3671.000000	98.802341
3670.000000	98.797884
3669.000000	98.790955
3668.000000	98.787329
3667.000000	98.789453
3666.000000	98.794134
3665.000000	98.796516
3664.000000	98.793903
3663.000000	98.786584
3662.000000	98.776653
3661.000000	98.766694
3660.000000	98.759280
3659.000000	98.756871
3658.000000	98.760862
3657.000000	98.769375
3656.000000	98.777170
3655.000000	98.780566
3654.000000	98.780951
3653.000000	98.781215
3652.000000	98.781701
3651.000000	98.778784
3650.000000	98.765905
3649.000000	98.740928
3648.000000	98.714301
3647.000000	98.700478
3646.000000	98.701973
3645.000000	98.709971
3644.000000	98.714952
3643.000000	98.713189
3642.000000	98.707149
3641.000000	98.702019
3640.000000	98.699964
3639.000000	98.697606
3638.000000	98.690478
3637.000000	98.678469
3636.000000	98.666167
3635.000000	98.658174
3634.000000	98.655830
3633.000000	98.658079
3632.000000	98.663359
3631.000000	98.668782
3630.000000	98.668370
3629.000000	98.655858
3628.000000	98.635426
3627.000000	98.619623
3626.000000	98.612325
3625.000000	98.609079
3624.000000	98.606497
3623.000000	98.605552
3622.000000	98.607986
3621.000000	98.611450
3620.000000	98.609415
3619.000000	98.598297
3618.000000	98.582790
3617.000000	98.571077
3616.000000	98.567288
3615.000000	98.569670
3614.000000	98.572669
3613.000000	98.570806
3612.000000	98.563396
3611.000000	98.554077
3610.000000	98.545272
3609.000000	98.535029
3608.000000	98.520680
3607.000000	98.503942
3606.000000	98.489609
3605.000000	98.480323
3604.000000	98.474931
3603.000000	98.470733
3602.000000	98.465648
3601.000000	98.458702
3600.000000	98.450361
3599.000000	98.442745
3598.000000	98.437325
3597.000000	98.432990
3596.000000	98.426951
3595.000000	98.417325
3594.000000	98.406179
3593.000000	98.398282
3592.000000	98.395720
3591.000000	98.395675
3590.000000	98.393210
3589.000000	98.385522
3588.000000	98.374041
3587.000000	98.362544
3586.000000	98.353416
3585.000000	98.344151
3584.000000	98.330055
3583.000000	98.309671
3582.000000	98.286896
3581.000000	98.267716
3580.000000	98.256179
3579.000000	98.252444
3578.000000	98.253728
3577.000000	98.256185
3576.000000	98.256069
3575.000000	98.251157
3574.000000	98.241760
3573.000000	98.231447
3572.000000	98.224279
3571.000000	98.221756
3570.000000	98.221428
3569.000000	98.218070
3568.000000	98.205168
3567.000000	98.180117
3566.000000	98.149863
3565.000000	98.126580
3564.000000	98.115618
3563.000000	98.113639
3562.000000	98.114106
3561.000000	98.111693
3560.000000	98.103763
3559.000000	98.091110
3558.000000	98.077037
3557.000000	98.065414
3556.000000	98.058035
3555.000000	98.053267
3554.000000	98.046867
3553.000000	98.035581
3552.000000	98.020569
3551.000000	98.006520
3550.000000	97.997052
3549.000000	97.991856
3548.000000	97.987787
3547.000000	97.981157
3546.000000	97.969386
3545.000000	97.952244
3544.000000	97.932137
3543.000000	97.912328
3542.000000	97.895403
3541.000000	97.882667
3540.000000	97.873764
3539.000000	97.866885
3538.000000	97.859947
3537.000000	97.852276
3536.000000	97.844930
3535.000000	97.838974
3534.000000	97.834005
3533.000000	97.828385
3532.000000	97.820768
3531.000000	97.810881
3530.000000	97.799421
3529.000000	97.787743
3528.000000	97.777338
3527.000000	97.768970
3526.000000	97.762021
3525.000000	97.754566
3524.000000	97.744279
3523.000000	97.730013
3522.000000	97.713076
3521.000000	97.696809
3520.000000	97.684136
3519.000000	97.675094
3518.000000	97.666897
3517.000000	97.656777
3516.000000	97.645044
3515.000000	97.634295
3514.000000	97.626486
3513.000000	97.621391
3512.000000	97.617590
3511.000000	97.613473
3510.000000	97.607080
3509.000000	97.596611
3508.000000	97.582701
3507.000000	97.569721
3506.000000	97.562880
3505.000000	97.563702
3504.000000	97.567901
3503.000000	97.568472
3502.000000	97.561660
3501.000000	97.549069
3500.000000	97.534261
3499.000000	97.519480
3498.000000	97.506040
3497.000000	97.495395
3496.000000	97.488360
3495.000000	97.483651
3494.000000	97.478562
3493.000000	97.471324
3492.000000	97.462126
3491.000000	97.452035
3490.000000	97.441818
3489.000000	97.431805
3488.000000	97.422212
3487.000000	97.413245
3486.000000	97.405127
3485.000000	97.398061
3484.000000	97.392006
3483.000000	97.386419
3482.000000	97.380677
3481.000000	97.374602
3480.000000	97.367930
3479.000000	97.359474
3478.000000	97.347838
3477.000000	97.333229
3476.000000	97.317723
3475.000000	97.303575
3474.000000	97.292013
3473.000000	97.283885
3472.000000	97.279942
3471.000000	97.279280
3470.000000	97.278617
3469.000000	97.274753
3468.000000	97.267568
3467.000000	97.259724
3466.000000	97.253386
3465.000000	97.248349
3464.000000	97.243202
3463.000000	97.236984
3462.000000	97.229341
3461.000000	97.219883
3460.000000	97.208259
3459.000000	97.194709
3458.000000	97.180252
3457.000000	97.166591
3456.000000	97.155639
3455.000000	97.148483
3454.000000	97.144561
3453.000000	97.141620
3452.000000	97.136924
3451.000000	97.128954
3450.000000	97.118777
3449.000000	97.109747
3448.000000	97.104810
3447.000000	97.103225
3446.000000	97.100809
3445.000000	97.094245
3444.000000	97.084130
3443.000000	97.073261
3442.000000	97.063079
3441.000000	97.053106
3440.000000	97.043156
3439.000000	97.034435
3438.000000	97.028145
3437.000000	97.024051
3436.000000	97.020865
3435.000000	97.017213
3434.000000	97.012024
3433.000000	97.004390
3432.000000	96.994142
3431.000000	96.982416
3430.000000	96.971304
3429.000000	96.962415
3428.000000	96.955352
3427.000000	96.947819
3426.000000	96.937709
3425.000000	96.925331
3424.000000	96.913270
3423.000000	96.904067
3422.000000	96.898545
3421.000000	96.896017
3420.000000	96.894900
3419.000000	96.892770
3418.000000	96.887399
3417.000000	96.878983
3416.000000	96.870762
3415.000000	96.866092
3414.000000	96.864721
3413.000000	96.862634
3412.000000	96.855753
3411.000000	96.843632
3410.000000	96.829922
3409.000000	96.819437
3408.000000	96.814246
3407.000000	96.812235
3406.000000	96.809614
3405.000000	96.804669
3404.000000	96.798256
3403.000000	96.790833
3402.000000	96.780984
3401.000000	96.767779
3400.000000	96.753128
3399.000000	96.740134
3398.000000	96.729783
3397.000000	96.720881
3396.000000	96.712921
3395.000000	96.707499
3394.000000	96.706518
3393.000000	96.709759
3392.000000	96.714278
3391.000000	96.715887
3390.000000	96.711653
3389.000000	96.702047
3388.000000	96.690993
3387.000000	96.682967
3386.000000	96.679263
3385.000000	96.676802
3384.000000	96.670589
3383.000000	96.657539
3382.000000	96.638924
3381.000000	96.619781
3380.000000	96.605623
3379.000000	96.598462
3378.000000	96.595631
3377.000000	96.592404
3376.000000	96.585541
3375.000000	96.574547
3374.000000	96.560773
3373.000000	96.546282
3372.000000	96.532794
3371.000000	96.520540
3370.000000	96.508207
3369.000000	96.494813
3368.000000	96.481165
3367.000000	96.468509
3366.000000	96.456059
3365.000000	96.441300
3364.000000	96.422855
3363.000000	96.402065
3362.000000	96.381581
3361.000000	96.363093
3360.000000	96.346359
3359.000000	96.329505
3358.000000	96.310225
3357.000000	96.287572
3356.000000	96.263039
3355.000000	96.239502
3354.000000	96.218849
3353.000000	96.200839
3352.000000	96.184035
3351.000000	96.167292
3350.000000	96.150466
3349.000000	96.134254
3348.000000	96.119049
3347.000000	96.103505
3346.000000	96.084670
3345.000000	96.060500
3344.000000	96.032551
3343.000000	96.005450
3342.000000	95.983388
3341.000000	95.967129
3340.000000	95.953868
3339.000000	95.939335
3338.000000	95.920439
3337.000000	95.897102
3336.000000	95.872091
3335.000000	95.848772
3334.000000	95.828748
3333.000000	95.811411
3332.000000	95.795098
3331.000000	95.778323
3330.000000	95.760597
3329.000000	95.742795
3328.000000	95.726435
3327.000000	95.712172
3326.000000	95.699362
3325.000000	95.687169
3324.000000	95.675214
3323.000000	95.662535
3322.000000	95.647258
3321.000000	95.628643
3320.000000	95.608683
3319.000000	95.590390
3318.000000	95.574921
3317.000000	95.561505
3316.000000	95.549809
3315.000000	95.540801
3314.000000	95.535206
3313.000000	95.532530
3312.000000	95.531743
3311.000000	95.531849
3310.000000	95.531569
3309.000000	95.529510
3308.000000	95.525276
3307.000000	95.519826
3306.000000	95.514335
3305.000000	95.509032
3304.000000	95.503037
3303.000000	95.495032
3302.000000	95.484559
3301.000000	95.473303
3300.000000	95.464625
3299.000000	95.460780
3298.000000	95.460765
3297.000000	95.461485
3296.000000	95.460866
3295.000000	95.459101
3294.000000	95.457202
3293.000000	95.455579
3292.000000	95.454038
3291.000000	95.452252
3290.000000	95.450145
3289.000000	95.448311
3288.000000	95.447695
3287.000000	95.448039
3286.000000	95.447070
3285.000000	95.442579
3284.000000	95.435516
3283.000000	95.430217
3282.000000	95.431122
3281.000000	95.439505
3280.000000	95.453101
3279.000000	95.467856
3278.000000	95.480044
3277.000000	95.487626
3276.000000	95.490418
3275.000000	95.489470
3274.000000	95.486975
3273.000000	95.486538
3272.000000	95.491660
3271.000000	95.502333
3270.000000	95.513816
3269.000000	95.520528
3268.000000	95.521009
3267.000000	95.518338
3266.000000	95.516568
3265.000000	95.518326
3264.000000	95.525174
3263.000000	95.537535
3262.000000	95.553274
3261.000000	95.568184
3260.000000	95.579150
3259.000000	95.586312
3258.000000	95.591836
3257.000000	95.597828
3256.000000	95.605773
3255.000000	95.616311
3254.000000	95.628215
3253.000000	95.638530
3252.000000	95.645383
3251.000000	95.650474
3250.000000	95.657841
3249.000000	95.669862
3248.000000	95.684795
3247.000000	95.698144
3246.000000	95.706193
3245.000000	95.708576
3244.000000	95.707899
3243.000000	95.707281
3242.000000	95.708647
3241.000000	95.713038
3240.000000	95.721147
3239.000000	95.732400
3238.000000	95.744162
3237.000000	95.753506
3236.000000	95.759992
3235.000000	95.765556
3234.000000	95.771302
3233.000000	95.775703
3232.000000	95.776786
3231.000000	95.775313
3230.000000	95.774779
3229.000000	95.778538
3228.000000	95.787407
3227.000000	95.799683
3226.000000	95.812720
3225.000000	95.824256
3224.000000	95.832823
3223.000000	95.837587
3222.000000	95.838533
3221.000000	95.837145
3220.000000	95.836251
3219.000000	95.838041
3218.000000	95.841810
3217.000000	95.844421
3216.000000	95.843708
3215.000000	95.841603
3214.000000	95.843580
3213.000000	95.854190
3212.000000	95.872662
3211.000000	95.892668
3210.000000	95.907072
3209.000000	95.913395
3208.000000	95.914640
3207.000000	95.915277
3206.000000	95.917441
3205.000000	95.921211
3204.000000	95.926424
3203.000000	95.932658
3202.000000	95.938421
3201.000000	95.942425
3200.000000	95.945519
3199.000000	95.950055
3198.000000	95.957348
3197.000000	95.967186
3196.000000	95.979444
3195.000000	95.994248
3194.000000	96.010067
3193.000000	96.023448
3192.000000	96.031871
3191.000000	96.036140
3190.000000	96.039169
3189.000000	96.043185
3188.000000	96.048709
3187.000000	96.055615
3186.000000	96.063993
3185.000000	96.074078
3184.000000	96.085748
3183.000000	96.098294
3182.000000	96.110589
3181.000000	96.121558
3180.000000	96.130454
3179.000000	96.136827
3178.000000	96.141049
3177.000000	96.145376
3176.000000	96.153519
3175.000000	96.167775
3174.000000	96.186572
3173.000000	96.205796
3172.000000	96.222400
3171.000000	96.236032
3170.000000	96.247481
3169.000000	96.257157
3168.000000	96.265328
3167.000000	96.272569
3166.000000	96.279305
3165.000000	96.285818
3164.000000	96.293045
3163.000000	96.302470
3162.000000	96.314641
3161.000000	96.328532
3160.000000	96.342740
3159.000000	96.356713
3158.000000	96.370569
3157.000000	96.384449
3156.000000	96.398401
3155.000000	96.412144
3154.000000	96.424693
3153.000000	96.434953
3152.000000	96.442992
3151.000000	96.449832
3150.000000	96.455715
3149.000000	96.459440
3148.000000	96.460153
3147.000000	96.459346
3146.000000	96.460497
3145.000000	96.466815
3144.000000	96.479128
3143.000000	96.495112
3142.000000	96.510368
3141.000000	96.521003
3140.000000	96.526233
3139.000000	96.528646
3138.000000	96.532137
3137.000000	96.539421
3136.000000	96.550936
3135.000000	96.564902
3134.000000	96.578389
3133.000000	96.589064
3132.000000	96.596513
3131.000000	96.601602
3130.000000	96.605051
3129.000000	96.607354
3128.000000	96.609727
3127.000000	96.613713
3126.000000	96.619596
3125.000000	96.626324
3124.000000	96.633285
3123.000000	96.640977
3122.000000	96.649293
3121.000000	96.656070
3120.000000	96.658349
3119.000000	96.654980
3118.000000	96.647887
3117.000000	96.641100
3116.000000	96.638277
3115.000000	96.640087
3114.000000	96.643850
3113.000000	96.646227
3112.000000	96.646330
3111.000000	96.645411
3110.000000	96.643920
3109.000000	96.640230
3108.000000	96.632753
3107.000000	96.622195
3106.000000	96.611175
3105.000000	96.602372
3104.000000	96.597288
3103.000000	96.595819
3102.000000	96.596280
3101.000000	96.596502
3100.000000	96.595480
3099.000000	96.593566
3098.000000	96.591003
3097.000000	96.587188
3096.000000	96.581908
3095.000000	96.576432
3094.000000	96.572403
3093.000000	96.569713
3092.000000	96.566173
3091.000000	96.559481
3090.000000	96.549422
3089.000000	96.538135
3088.000000	96.528260
3087.000000	96.520811
3086.000000	96.515029
3085.000000	96.510164
3084.000000	96.506686
3083.000000	96.505371
3082.000000	96.505723
3081.000000	96.506033
3080.000000	96.504800
3079.000000	96.501659
3078.000000	96.497319
3077.000000	96.493140
3076.000000	96.490329
3075.000000	96.488989
3074.000000	96.488419
3073.000000	96.488902
3072.000000	96.492371
3071.000000	96.500087
3070.000000	96.510281
3069.000000	96.519430
3068.000000	96.525659
3067.000000	96.529644
3066.000000	96.532520
3065.000000	96.534597
3064.000000	96.536257
3063.000000	96.538538
3062.000000	96.542115
3061.000000	96.546851
3060.000000	96.552894
3059.000000	96.561290
3058.000000	96.572769
3057.000000	96.586453
3056.000000	96.600242
3055.000000	96.612155
3054.000000	96.621282
3053.000000	96.627980
3052.000000	96.633442
3051.000000	96.638784
3050.000000	96.644466
3049.000000	96.650927
3048.000000	96.659422
3047.000000	96.671416
3046.000000	96.687110
3045.000000	96.705130
3044.000000	96.723505
3043.000000	96.740332
3042.000000	96.753666
3041.000000	96.762053
3040.000000	96.765733
3039.000000	96.767148
3038.000000	96.769974
3037.000000	96.777418
3036.000000	96.790683
3035.000000	96.808125
3034.000000	96.825944
3033.000000	96.840499
3032.000000	96.850291
3031.000000	96.856140
3030.000000	96.860320
3029.000000	96.865955
3028.000000	96.875891
3027.000000	96.890386
3026.000000	96.906169
3025.000000	96.919278
3024.000000	96.928920
3023.000000	96.937479
3022.000000	96.946900
3021.000000	96.956564
3020.000000	96.964699
3019.000000	96.970640
3018.000000	96.975499
3017.000000	96.981736
3016.000000	96.991865
3015.000000	97.006149
3014.000000	97.021210
3013.000000	97.032255
3012.000000	97.036934
3011.000000	97.036262
3010.000000	97.032160
3009.000000	97.025945
3008.000000	97.019432
3007.000000	97.015137
3006.000000	97.014099
3005.000000	97.014708
3004.000000	97.014896
3003.000000	97.014662
3002.000000	97.015370
3001.000000	97.017454
3000.000000	97.020055
2999.000000	97.022432
2998.000000	97.024311
2997.000000	97.024820
2996.000000	97.022275
2995.000000	97.015808
2994.000000	97.006777
2993.000000	96.997749
2992.000000	96.989775
2991.000000	96.981168
2990.000000	96.969558
2989.000000	96.954892
2988.000000	96.939596
2987.000000	96.925816
2986.000000	96.913896
2985.000000	96.904010
2984.000000	96.897657
2983.000000	96.895802
2982.000000	96.896429
2981.000000	96.895764
2980.000000	96.891985
2979.000000	96.886347
2978.000000	96.880791
2977.000000	96.875908
2976.000000	96.871188
2975.000000	96.865711
2974.000000	96.858188
2973.000000	96.847923
2972.000000	96.836433
2971.000000	96.826948
2970.000000	96.821346
2969.000000	96.818059
2968.000000	96.813647
2967.000000	96.806066
2966.000000	96.796171
2965.000000	96.786373
2964.000000	96.778101
2963.000000	96.770638
2962.000000	96.762685
2961.000000	96.755169
2960.000000	96.751402
2959.000000	96.753469
2958.000000	96.759300
2957.000000	96.764493
2956.000000	96.766534
2955.000000	96.765812
2954.000000	96.763437
2953.000000	96.760294
2952.000000	96.758217
2951.000000	96.759728
2950.000000	96.765367
2949.000000	96.772409
2948.000000	96.777050
2947.000000	96.777262
2946.000000	96.773440
2945.000000	96.767269
2944.000000	96.760590
2943.000000	96.754561
2942.000000	96.749367
2941.000000	96.744726
2940.000000	96.740226
2939.000000	96.734612
2938.000000	96.725724
2937.000000	96.712640
2936.000000	96.697571
2935.000000	96.684041
2934.000000	96.673311
2933.000000	96.663724
2932.000000	96.653095
2931.000000	96.640006
2930.000000	96.623443
2929.000000	96.603640
2928.000000	96.583617
2927.000000	96.567259
2926.000000	96.554812
2925.000000	96.542107
2924.000000	96.525389
2923.000000	96.505332
2922.000000	96.485623
2921.000000	96.469444
2920.000000	96.458852
2919.000000	96.455817
2918.000000	96.462148
2917.000000	96.478840
2916.000000	96.506114
2915.000000	96.542998
2914.000000	96.585944
2913.000000	96.629371
2912.000000	96.669257
2911.000000	96.705859
2910.000000	96.741697
2909.000000	96.776995
2908.000000	96.808446
2907.000000	96.832515
2906.000000	96.849534
2905.000000	96.864071
2904.000000	96.881272
2903.000000	96.902331
2902.000000	96.923677
2901.000000	96.940128
2900.000000	96.949838
2899.000000	96.954562
2898.000000	96.957419
2897.000000	96.961115
2896.000000	96.967529
2895.000000	96.976804
2894.000000	96.986538
2893.000000	96.993602
2892.000000	96.997433
2891.000000	97.000440
2890.000000	97.004837
2889.000000	97.010254
2888.000000	97.014638
2887.000000	97.016052
2886.000000	97.013274
2885.000000	97.006147
2884.000000	96.996302
2883.000000	96.986511
2882.000000	96.978807
2881.000000	96.974007
2880.000000	96.972951
2879.000000	96.976440
2878.000000	96.983170
2877.000000	96.989319
2876.000000	96.991572
2875.000000	96.989999
2874.000000	96.987456
2873.000000	96.986915
2872.000000	96.989713
2871.000000	96.995217
2870.000000	97.001325
2869.000000	97.006219
2868.000000	97.010264
2867.000000	97.015485
2866.000000	97.022883
2865.000000	97.031383
2864.000000	97.039715
2863.000000	97.047537
2862.000000	97.053922
2861.000000	97.056663
2860.000000	97.054631
2859.000000	97.049364
2858.000000	97.042839
2857.000000	97.034804
2856.000000	97.023833
2855.000000	97.009702
2854.000000	96.992879
2853.000000	96.972718
2852.000000	96.948979
2851.000000	96.925808
2850.000000	96.912266
2849.000000	96.917484
2848.000000	96.944443
2847.000000	96.987716
2846.000000	97.036303
2845.000000	97.079510
2844.000000	97.112069
2843.000000	97.135457
2842.000000	97.154999
2841.000000	97.175321
2840.000000	97.197638
2839.000000	97.219680
2838.000000	97.237816
2837.000000	97.250086
2836.000000	97.257952
2835.000000	97.264616
2834.000000	97.271543
2833.000000	97.277460
2832.000000	97.281053
2831.000000	97.283556
2830.000000	97.287773
2829.000000	97.295361
2828.000000	97.305823
2827.000000	97.317514
2826.000000	97.328741
2825.000000	97.338215
2824.000000	97.345388
2823.000000	97.350477
2822.000000	97.353993
2821.000000	97.356342
2820.000000	97.357851
2819.000000	97.358654
2818.000000	97.358521
2817.000000	97.357558
2816.000000	97.357146
2815.000000	97.359160
2814.000000	97.363796
2813.000000	97.369010
2812.000000	97.372579
2811.000000	97.374005
2810.000000	97.374081
2809.000000	97.373614
2808.000000	97.373289
2807.000000	97.373881
2806.000000	97.375595
2805.000000	97.377782
2804.000000	97.379928
2803.000000	97.382279
2802.000000	97.384783
2801.000000	97.386396
2800.000000	97.386634
2799.000000	97.387186
2798.000000	97.390553
2797.000000	97.397077
2796.000000	97.404366
2795.000000	97.409856
2794.000000	97.412977
2793.000000	97.414592
2792.000000	97.415281
2791.000000	97.415114
2790.000000	97.414909
2789.000000	97.416714
2788.000000	97.422165
2787.000000	97.430306
2786.000000	97.437830
2785.000000	97.442151
2784.000000	97.443981
2783.000000	97.446160
2782.000000	97.450185
2781.000000	97.454753
2780.000000	97.457741
2779.000000	97.458579
2778.000000	97.458324
2777.000000	97.458355
2776.000000	97.459655
2775.000000	97.462787
2774.000000	97.467846
2773.000000	97.474552
2772.000000	97.482544
2771.000000	97.491134
2770.000000	97.498656
2769.000000	97.502912
2768.000000	97.503084
2767.000000	97.500959
2766.000000	97.499696
2765.000000	97.501200
2764.000000	97.504862
2763.000000	97.508759
2762.000000	97.511887
2761.000000	97.515035
2760.000000	97.519334
2759.000000	97.524308
2758.000000	97.528176
2757.000000	97.530228
2756.000000	97.531881
2755.000000	97.534656
2754.000000	97.538132
2753.000000	97.541040
2752.000000	97.543599
2751.000000	97.547115
2750.000000	97.551610
2749.000000	97.555661
2748.000000	97.558886
2747.000000	97.562896
2746.000000	97.568908
2745.000000	97.575496
2744.000000	97.579643
2743.000000	97.579676
2742.000000	97.576812
2741.000000	97.574225
2740.000000	97.574530
2739.000000	97.577525
2738.000000	97.580483
2737.000000	97.581400
2736.000000	97.581619
2735.000000	97.584109
2734.000000	97.589394
2733.000000	97.594711
2732.000000	97.597439
2731.000000	97.597775
2730.000000	97.597534
2729.000000	97.597830
2728.000000	97.598857
2727.000000	97.600769
2726.000000	97.603591
2725.000000	97.606867
2724.000000	97.610247
2723.000000	97.613902
2722.000000	97.617713
2721.000000	97.620653
2720.000000	97.621717
2719.000000	97.621154
2718.000000	97.620413
2717.000000	97.621179
2716.000000	97.624409
2715.000000	97.629455
2714.000000	97.633994
2713.000000	97.635877
2712.000000	97.635486
2711.000000	97.635353
2710.000000	97.637031
2709.000000	97.639444
2708.000000	97.640973
2707.000000	97.642069
2706.000000	97.644654
2705.000000	97.649525
2704.000000	97.655362
2703.000000	97.659964
2702.000000	97.661681
2701.000000	97.660080
2700.000000	97.656339
2699.000000	97.653070
2698.000000	97.652857
2697.000000	97.656291
2696.000000	97.661456
2695.000000	97.665656
2694.000000	97.667791
2693.000000	97.668965
2692.000000	97.670614
2691.000000	97.672379
2690.000000	97.672675
2689.000000	97.671507
2688.000000	97.671461
2687.000000	97.674846
2686.000000	97.680597
2685.000000	97.685247
2684.000000	97.686568
2683.000000	97.685100
2682.000000	97.682614
2681.000000	97.680636
2680.000000	97.680278
2679.000000	97.681772
2678.000000	97.683843
2677.000000	97.684911
2676.000000	97.685133
2675.000000	97.685951
2674.000000	97.687524
2673.000000	97.688282
2672.000000	97.687487
2671.000000	97.686552
2670.000000	97.687060
2669.000000	97.688942
2668.000000	97.691396
2667.000000	97.693965
2666.000000	97.695543
2665.000000	97.693945
2664.000000	97.688330
2663.000000	97.681216
2662.000000	97.676353
2661.000000	97.674929
2660.000000	97.675273
2659.000000	97.675858
2658.000000	97.676892
2657.000000	97.678786
2656.000000	97.680702
2655.000000	97.681542
2654.000000	97.681560
2653.000000	97.682084
2652.000000	97.683945
2651.000000	97.686936
2650.000000	97.690770
2649.000000	97.695859
2648.000000	97.702646
2647.000000	97.710380
2646.000000	97.717148
2645.000000	97.721371
2644.000000	97.722987
2643.000000	97.723176
2642.000000	97.723492
2641.000000	97.725309
2640.000000	97.729107
2639.000000	97.733602
2638.000000	97.736593
2637.000000	97.737804
2636.000000	97.740156
2635.000000	97.746812
2634.000000	97.757409
2633.000000	97.768693
2632.000000	97.778372
2631.000000	97.786456
2630.000000	97.792716
2629.000000	97.795163
2628.000000	97.792173
2627.000000	97.785062
2626.000000	97.777802
2625.000000	97.774767
2624.000000	97.778501
2623.000000	97.787944
2622.000000	97.798418
2621.000000	97.804984
2620.000000	97.806874
2619.000000	97.807765
2618.000000	97.811301
2617.000000	97.817449
2616.000000	97.823520
2615.000000	97.827175
2614.000000	97.827795
2613.000000	97.826671
2612.000000	97.827095
2611.000000	97.832832
2610.000000	97.844430
2609.000000	97.857259
2608.000000	97.864584
2607.000000	97.863391
2606.000000	97.857122
2605.000000	97.852611
2604.000000	97.853954
2603.000000	97.858703
2602.000000	97.860334
2601.000000	97.855205
2600.000000	97.846677
2599.000000	97.841636
2598.000000	97.843600
2597.000000	97.850546
2596.000000	97.858715
2595.000000	97.866059
2594.000000	97.871683
2593.000000	97.874440
2592.000000	97.873874
2591.000000	97.871604
2590.000000	97.870521
2589.000000	97.872838
2588.000000	97.879099
2587.000000	97.888233
2586.000000	97.898028
2585.000000	97.906324
2584.000000	97.912379
2583.000000	97.916807
2582.000000	97.920079
2581.000000	97.921658
2580.000000	97.920676
2579.000000	97.917162
2578.000000	97.912682
2577.000000	97.909769
2576.000000	97.909876
2575.000000	97.911260
2574.000000	97.910074
2573.000000	97.904849
2572.000000	97.899139
2571.000000	97.898276
2570.000000	97.903837
2569.000000	97.912416
2568.000000	97.919329
2567.000000	97.922473
2566.000000	97.923068
2565.000000	97.923928
2564.000000	97.926737
2563.000000	97.930263
2562.000000	97.931600
2561.000000	97.929383
2560.000000	97.924884
2559.000000	97.920049
2558.000000	97.916685
2557.000000	97.917888
2556.000000	97.926825
2555.000000	97.942018
2554.000000	97.956601
2553.000000	97.964816
2552.000000	97.966735
2551.000000	97.964367
2550.000000	97.956763
2549.000000	97.943936
2548.000000	97.933052
2547.000000	97.934504
2546.000000	97.950703
2545.000000	97.972638
2544.000000	97.988009
2543.000000	97.990252
2542.000000	97.980252
2541.000000	97.963807
2540.000000	97.948525
2539.000000	97.939794
2538.000000	97.937777
2537.000000	97.939014
2536.000000	97.940344
2535.000000	97.939443
2534.000000	97.933418
2533.000000	97.921228
2532.000000	97.907431
2531.000000	97.899333
2530.000000	97.898835
2529.000000	97.900057
2528.000000	97.896237
2527.000000	97.886550
2526.000000	97.874969
2525.000000	97.864648
2524.000000	97.855105
2523.000000	97.843591
2522.000000	97.828287
2521.000000	97.810987
2520.000000	97.797036
2519.000000	97.791658
2518.000000	97.795867
2517.000000	97.805941
2516.000000	97.816317
2515.000000	97.822431
2514.000000	97.822207
2513.000000	97.816214
2512.000000	97.806223
2511.000000	97.793601
2510.000000	97.780489
2509.000000	97.771923
2508.000000	97.772984
2507.000000	97.782379
2506.000000	97.792686
2505.000000	97.799322
2504.000000	97.805988
2503.000000	97.818030
2502.000000	97.833864
2501.000000	97.847675
2500.000000	97.858018
2499.000000	97.869123
2498.000000	97.884378
2497.000000	97.902670
2496.000000	97.920249
2495.000000	97.932877
2494.000000	97.937317
2493.000000	97.934322
2492.000000	97.929436
2491.000000	97.927749
2490.000000	97.929425
2489.000000	97.933030
2488.000000	97.940493
2487.000000	97.954150
2486.000000	97.970951
2485.000000	97.984703
2484.000000	97.993277
2483.000000	97.999117
2482.000000	98.003730
2481.000000	98.006629
2480.000000	98.008825
2479.000000	98.012305
2478.000000	98.016035
2477.000000	98.017174
2476.000000	98.016191
2475.000000	98.016770
2474.000000	98.020733
2473.000000	98.026886
2472.000000	98.034118
2471.000000	98.041376
2470.000000	98.045611
2469.000000	98.044880
2468.000000	98.043200
2467.000000	98.046964
2466.000000	98.056075
2465.000000	98.063228
2464.000000	98.062765
2463.000000	98.055652
2462.000000	98.045464
2461.000000	98.034612
2460.000000	98.025800
2459.000000	98.022498
2458.000000	98.025304
2457.000000	98.030534
2456.000000	98.034170
2455.000000	98.035801
2454.000000	98.038446
2453.000000	98.046439
2452.000000	98.062109
2451.000000	98.081704
2450.000000	98.095830
2449.000000	98.097808
2448.000000	98.090999
2447.000000	98.084746
2446.000000	98.084041
2445.000000	98.086756
2444.000000	98.089104
2443.000000	98.088559
2442.000000	98.083010
2441.000000	98.072750
2440.000000	98.063147
2439.000000	98.059845
2438.000000	98.061136
2437.000000	98.059800
2436.000000	98.052619
2435.000000	98.043338
2434.000000	98.036532
2433.000000	98.033703
2432.000000	98.035208
2431.000000	98.040623
2430.000000	98.046907
2429.000000	98.051261
2428.000000	98.056034
2427.000000	98.065461
2426.000000	98.077504
2425.000000	98.085103
2424.000000	98.086339
2423.000000	98.087101
2422.000000	98.091553
2421.000000	98.095870
2420.000000	98.094358
2419.000000	98.087320
2418.000000	98.079825
2417.000000	98.076051
2416.000000	98.077344
2415.000000	98.083060
2414.000000	98.090956
2413.000000	98.098504
2412.000000	98.104905
2411.000000	98.110305
2410.000000	98.113556
2409.000000	98.113458
2408.000000	98.111841
2407.000000	98.112060
2406.000000	98.114380
2405.000000	98.115813
2404.000000	98.114444
2403.000000	98.111265
2402.000000	98.108481
2401.000000	98.108692
2400.000000	98.114167
2399.000000	98.123309
2398.000000	98.129597
2397.000000	98.128433
2396.000000	98.123713
2395.000000	98.122937
2394.000000	98.126679
2393.000000	98.128130
2392.000000	98.122547
2391.000000	98.112155
2390.000000	98.101541
2389.000000	98.093129
2388.000000	98.088195
2387.000000	98.087293
2386.000000	98.089578
2385.000000	98.094615
2384.000000	98.104627
2383.000000	98.121814
2382.000000	98.142522
2381.000000	98.159888
2380.000000	98.171061
2379.000000	98.177443
2378.000000	98.178533
2377.000000	98.170970
2376.000000	98.155674
2375.000000	98.140241
2374.000000	98.133059
2373.000000	98.137363
2372.000000	98.150637
2371.000000	98.164987
2370.000000	98.171222
2369.000000	98.169486
2368.000000	98.169769
2367.000000	98.178029
2366.000000	98.186054
2365.000000	98.182822
2364.000000	98.170111
2363.000000	98.156789
2362.000000	98.144857
2361.000000	98.130479
2360.000000	98.113892
2359.000000	98.099573
2358.000000	98.092209
2357.000000	98.097490
2356.000000	98.114295
2355.000000	98.132376
2354.000000	98.147922
2353.000000	98.163873
2352.000000	98.174008
2351.000000	98.164163
2350.000000	98.134569
2349.000000	98.099809
2348.000000	98.079022
2347.000000	98.085485
2346.000000	98.110852
2345.000000	98.123439
2344.000000	98.102575
2343.000000	98.064941
2342.000000	98.037718
2341.000000	98.031631
2340.000000	98.039555
2339.000000	98.051841
2338.000000	98.065963
2337.000000	98.081012
2336.000000	98.090467
2335.000000	98.088448
2334.000000	98.080193
2333.000000	98.078586
2332.000000	98.088838
2331.000000	98.104394
2330.000000	98.114628
2329.000000	98.110463
2328.000000	98.088972
2327.000000	98.056089
2326.000000	98.023960
2325.000000	98.002319
2324.000000	97.992139
2323.000000	97.990121
2322.000000	97.991268
2321.000000	97.991699
2320.000000	97.989090
2319.000000	97.984149
2318.000000	97.979483
2317.000000	97.979666
2316.000000	97.990696
2315.000000	98.014472
2314.000000	98.042949
2313.000000	98.063732
2312.000000	98.072714
2311.000000	98.075826
2310.000000	98.077248
2309.000000	98.073899
2308.000000	98.065744
2307.000000	98.061863
2306.000000	98.068961
2305.000000	98.080819
2304.000000	98.086184
2303.000000	98.083111
2302.000000	98.077864
2301.000000	98.074168
2300.000000	98.071175
2299.000000	98.069452
2298.000000	98.071447
2297.000000	98.077190
2296.000000	98.083449
2295.000000	98.087104
2294.000000	98.085655
2293.000000	98.077472
2292.000000	98.065032
2291.000000	98.056221
2290.000000	98.057349
2289.000000	98.066173
2288.000000	98.074357
2287.000000	98.075629
2286.000000	98.068936
2285.000000	98.057085
2284.000000	98.045975
2283.000000	98.042056
2282.000000	98.047013
2281.000000	98.056980
2280.000000	98.069096
2279.000000	98.084428
2278.000000	98.101840
2277.000000	98.114903
2276.000000	98.119684
2275.000000	98.120831
2274.000000	98.124951
2273.000000	98.131296
2272.000000	98.134325
2271.000000	98.133140
2270.000000	98.133886
2269.000000	98.143683
2268.000000	98.163428
2267.000000	98.184750
2266.000000	98.194558
2265.000000	98.187457
2264.000000	98.173934
2263.000000	98.169962
2262.000000	98.177962
2261.000000	98.184983
2260.000000	98.179556
2259.000000	98.162834
2258.000000	98.141876
2257.000000	98.122544
2256.000000	98.112172
2255.000000	98.118673
2254.000000	98.140540
2253.000000	98.164833
2252.000000	98.181077
2251.000000	98.190832
2250.000000	98.199821
2249.000000	98.207791
2248.000000	98.211866
2247.000000	98.212775
2246.000000	98.215261
2245.000000	98.224844
2244.000000	98.244636
2243.000000	98.269023
2242.000000	98.282261
2241.000000	98.273305
2240.000000	98.252152
2239.000000	98.240386
2238.000000	98.245061
2237.000000	98.254233
2236.000000	98.258355
2235.000000	98.261036
2234.000000	98.265513
2233.000000	98.266868
2232.000000	98.264293
2231.000000	98.266344
2230.000000	98.275791
2229.000000	98.281874
2228.000000	98.275832
2227.000000	98.262908
2226.000000	98.252475
2225.000000	98.248073
2224.000000	98.253110
2223.000000	98.272303
2222.000000	98.298809
2221.000000	98.312655
2220.000000	98.302358
2219.000000	98.277988
2218.000000	98.253883
2217.000000	98.229936
2216.000000	98.199992
2215.000000	98.170229
2214.000000	98.158014
2213.000000	98.175582
2212.000000	98.218586
2211.000000	98.266605
2210.000000	98.294870
2209.000000	98.294418
2208.000000	98.282139
2207.000000	98.282008
2206.000000	98.297405
2205.000000	98.313346
2204.000000	98.321440
2203.000000	98.325739
2202.000000	98.325082
2201.000000	98.310316
2200.000000	98.283625
2199.000000	98.262002
2198.000000	98.256442
2197.000000	98.262819
2196.000000	98.275226
2195.000000	98.290654
2194.000000	98.299474
2193.000000	98.291758
2192.000000	98.277017
2191.000000	98.276240
2190.000000	98.289931
2189.000000	98.296339
2188.000000	98.285932
2187.000000	98.274714
2186.000000	98.277105
2185.000000	98.291007
2184.000000	98.315543
2183.000000	98.354486
2182.000000	98.389974
2181.000000	98.384752
2180.000000	98.329801
2179.000000	98.263667
2178.000000	98.227871
2177.000000	98.226954
2176.000000	98.243521
2175.000000	98.266416
2174.000000	98.289114
2173.000000	98.302775
2172.000000	98.309183
2171.000000	98.321595
2170.000000	98.339727
2169.000000	98.343606
2168.000000	98.326334
2167.000000	98.313166
2166.000000	98.329994
2165.000000	98.369284
2164.000000	98.401886
2163.000000	98.410812
2162.000000	98.401958
2161.000000	98.401576
2160.000000	98.452101
2159.000000	98.577437
2158.000000	98.734055
2157.000000	98.838283
2156.000000	98.858372
2155.000000	98.834220
2154.000000	98.809451
2153.000000	98.789135
2152.000000	98.760617
2151.000000	98.717286
2150.000000	98.655874
2149.000000	98.578744
2148.000000	98.510083
2147.000000	98.485248
2146.000000	98.512059
2145.000000	98.557490
2144.000000	98.580155
2143.000000	98.563518
2142.000000	98.516737
2141.000000	98.463225
2140.000000	98.430291
2139.000000	98.429613
2138.000000	98.442725
2137.000000	98.440746
2136.000000	98.419743
2135.000000	98.401509
2134.000000	98.399839
2133.000000	98.407825
2132.000000	98.418477
2131.000000	98.435097
2130.000000	98.455869
2129.000000	98.467047
2128.000000	98.458511
2127.000000	98.433392
2126.000000	98.399622
2125.000000	98.364880
2124.000000	98.340993
2123.000000	98.337308
2122.000000	98.345904
2121.000000	98.347280
2120.000000	98.335805
2119.000000	98.326100
2118.000000	98.329812
2117.000000	98.340604
2116.000000	98.347578
2115.000000	98.349439
2114.000000	98.346727
2113.000000	98.333738
2112.000000	98.309166
2111.000000	98.285102
2110.000000	98.274039
2109.000000	98.273601
2108.000000	98.272793
2107.000000	98.268684
2106.000000	98.269200
2105.000000	98.282626
2104.000000	98.308965
2103.000000	98.338520
2102.000000	98.357810
2101.000000	98.361728
2100.000000	98.358696
2099.000000	98.357362
2098.000000	98.352494
2097.000000	98.335578
2096.000000	98.316021
2095.000000	98.314246
2094.000000	98.333132
2093.000000	98.352962
2092.000000	98.357167
2091.000000	98.347529
2090.000000	98.331540
2089.000000	98.310767
2088.000000	98.286650
2087.000000	98.265054
2086.000000	98.250347
2085.000000	98.244983
2084.000000	98.255133
2083.000000	98.283582
2082.000000	98.316339
2081.000000	98.332432
2080.000000	98.330942
2079.000000	98.332994
2078.000000	98.351867
2077.000000	98.376877
2076.000000	98.392414
2075.000000	98.396213
2074.000000	98.393215
2073.000000	98.386932
2072.000000	98.383233
2071.000000	98.387385
2070.000000	98.391600
2069.000000	98.381375
2068.000000	98.359230
2067.000000	98.345262
2066.000000	98.350475
2065.000000	98.367232
2064.000000	98.389326
2063.000000	98.419425
2062.000000	98.449454
2061.000000	98.458614
2060.000000	98.441436
2059.000000	98.416970
2058.000000	98.399765
2057.000000	98.383189
2056.000000	98.360071
2055.000000	98.336899
2054.000000	98.315743
2053.000000	98.284688
2052.000000	98.242584
2051.000000	98.214949
2050.000000	98.229462
2049.000000	98.286333
2048.000000	98.364104
2047.000000	98.442072
2046.000000	98.501320
2045.000000	98.521801
2044.000000	98.502116
2043.000000	98.467707
2042.000000	98.444307
2041.000000	98.438993
2040.000000	98.454187
2039.000000	98.494304
2038.000000	98.545663
2037.000000	98.577469
2036.000000	98.581704
2035.000000	98.589976
2034.000000	98.631173
2033.000000	98.694957
2032.000000	98.751507
2031.000000	98.783099
2030.000000	98.783360
2029.000000	98.755300
2028.000000	98.723753
2027.000000	98.718360
2026.000000	98.734507
2025.000000	98.739965
2024.000000	98.725063
2023.000000	98.714929
2022.000000	98.726253
2021.000000	98.746535
2020.000000	98.762491
2019.000000	98.775371
2018.000000	98.781755
2017.000000	98.772825
2016.000000	98.758612
2015.000000	98.755167
2014.000000	98.748132
2013.000000	98.711379
2012.000000	98.660154
2011.000000	98.642099
2010.000000	98.672087
2009.000000	98.717610
2008.000000	98.751579
2007.000000	98.776178
2006.000000	98.788484
2005.000000	98.773700
2004.000000	98.743356
2003.000000	98.731422
2002.000000	98.741264
2001.000000	98.739494
2000.000000	98.709193
1999.000000	98.671840
1998.000000	98.648814
1997.000000	98.634714
1996.000000	98.618982
1995.000000	98.603484
1994.000000	98.589020
1993.000000	98.571597
1992.000000	98.560025
1991.000000	98.569233
1990.000000	98.589855
1989.000000	98.597069
1988.000000	98.590799
1987.000000	98.591977
1986.000000	98.597730
1985.000000	98.579733
1984.000000	98.532953
1983.000000	98.485262
1982.000000	98.449910
1981.000000	98.414528
1980.000000	98.390268
1979.000000	98.423752
1978.000000	98.530644
1977.000000	98.652554
1976.000000	98.721657
1975.000000	98.734199
1974.000000	98.723161
1973.000000	98.708071
1972.000000	98.702137
1971.000000	98.722742
1970.000000	98.766234
1969.000000	98.802900
1968.000000	98.816472
1967.000000	98.822122
1966.000000	98.829320
1965.000000	98.820541
1964.000000	98.784077
1963.000000	98.736723
1962.000000	98.703218
1961.000000	98.695884
1960.000000	98.716002
1959.000000	98.751880
1958.000000	98.774930
1957.000000	98.764080
1956.000000	98.734972
1955.000000	98.718960
1954.000000	98.718404
1953.000000	98.710378
1952.000000	98.689670
1951.000000	98.673781
1950.000000	98.665047
1949.000000	98.647413
1948.000000	98.624305
1947.000000	98.622286
1946.000000	98.648933
1945.000000	98.680050
1944.000000	98.697726
1943.000000	98.710041
1942.000000	98.721326
1941.000000	98.718269
1940.000000	98.697235
1939.000000	98.670824
1938.000000	98.645002
1937.000000	98.614663
1936.000000	98.583569
1935.000000	98.566602
1934.000000	98.567306
1933.000000	98.573715
1932.000000	98.583049
1931.000000	98.604557
1930.000000	98.630729
1929.000000	98.638685
1928.000000	98.624682
1927.000000	98.611060
1926.000000	98.610411
1925.000000	98.608943
1924.000000	98.597289
1923.000000	98.587162
1922.000000	98.586139
1921.000000	98.584718
1920.000000	98.578439
1919.000000	98.580202
1918.000000	98.595931
1917.000000	98.604755
1916.000000	98.591782
1915.000000	98.569488
1914.000000	98.552756
1913.000000	98.541705
1912.000000	98.534350
1911.000000	98.536660
1910.000000	98.549422
1909.000000	98.561710
1908.000000	98.566574
1907.000000	98.570372
1906.000000	98.576815
1905.000000	98.578875
1904.000000	98.576546
1903.000000	98.579982
1902.000000	98.590552
1901.000000	98.597085
1900.000000	98.592939
1899.000000	98.582494
1898.000000	98.567478
1897.000000	98.544431
1896.000000	98.523359
1895.000000	98.524982
1894.000000	98.549947
1893.000000	98.573426
1892.000000	98.578409
1891.000000	98.575576
1890.000000	98.583387
1889.000000	98.599077
1888.000000	98.607786
1887.000000	98.605727
1886.000000	98.596338
1885.000000	98.582867
1884.000000	98.572348
1883.000000	98.571947
1882.000000	98.577997
1881.000000	98.581085
1880.000000	98.580201
1879.000000	98.581571
1878.000000	98.585776
1877.000000	98.587473
1876.000000	98.590214
1875.000000	98.605576
1874.000000	98.632343
1873.000000	98.652308
1872.000000	98.650922
1871.000000	98.629340
1870.000000	98.598373
1869.000000	98.571027
1868.000000	98.559611
1867.000000	98.570514
1866.000000	98.591034
1865.000000	98.599502
1864.000000	98.591377
1863.000000	98.580909
1862.000000	98.576927
1861.000000	98.573252
1860.000000	98.566934
1859.000000	98.567332
1858.000000	98.579453
1857.000000	98.595015
1856.000000	98.606360
1855.000000	98.615313
1854.000000	98.622154
1853.000000	98.621676
1852.000000	98.611293
1851.000000	98.593078
1850.000000	98.572678
1849.000000	98.560661
1848.000000	98.570637
1847.000000	98.602327
1846.000000	98.632386
1845.000000	98.639184
1844.000000	98.631192
1843.000000	98.629584
1842.000000	98.635661
1841.000000	98.636255
1840.000000	98.626675
1839.000000	98.617989
1838.000000	98.617756
1837.000000	98.617373
1836.000000	98.612450
1835.000000	98.613673
1834.000000	98.625889
1833.000000	98.633962
1832.000000	98.619707
1831.000000	98.592013
1830.000000	98.582676
1829.000000	98.595153
1828.000000	98.605012
1827.000000	98.599721
1826.000000	98.587312
1825.000000	98.582689
1824.000000	98.590552
1823.000000	98.605231
1822.000000	98.616683
1821.000000	98.616857
1820.000000	98.608419
1819.000000	98.605168
1818.000000	98.614775
1817.000000	98.628128
1816.000000	98.634137
1815.000000	98.630461
1814.000000	98.618207
1813.000000	98.597670
1812.000000	98.574975
1811.000000	98.564281
1810.000000	98.566900
1809.000000	98.567714
1808.000000	98.559901
1807.000000	98.549024
1806.000000	98.533142
1805.000000	98.499405
1804.000000	98.445072
1803.000000	98.382480
1802.000000	98.323357
1801.000000	98.266994
1800.000000	98.211044
1799.000000	98.164423
1798.000000	98.134804
1797.000000	98.125197
1796.000000	98.136457
1795.000000	98.157299
1794.000000	98.164715
1793.000000	98.155285
1792.000000	98.163056
1791.000000	98.216755
1790.000000	98.297918
1789.000000	98.367089
1788.000000	98.405185
1787.000000	98.423878
1786.000000	98.446844
1785.000000	98.483767
1784.000000	98.526089
1783.000000	98.558712
1782.000000	98.575041
1781.000000	98.583032
1780.000000	98.594038
1779.000000	98.611397
1778.000000	98.627251
1777.000000	98.641219
1776.000000	98.664787
1775.000000	98.699054
1774.000000	98.724234
1773.000000	98.728314
1772.000000	98.720881
1771.000000	98.710323
1770.000000	98.696158
1769.000000	98.676183
1768.000000	98.661323
1767.000000	98.668621
1766.000000	98.694255
1765.000000	98.713463
1764.000000	98.708112
1763.000000	98.687911
1762.000000	98.678641
1761.000000	98.681779
1760.000000	98.682181
1759.000000	98.678110
1758.000000	98.673330
1757.000000	98.676052
1756.000000	98.689298
1755.000000	98.707831
1754.000000	98.720719
1753.000000	98.714238
1752.000000	98.689801
1751.000000	98.668276
1750.000000	98.659803
1749.000000	98.655863
1748.000000	98.653050
1747.000000	98.651215
1746.000000	98.647085
1745.000000	98.640311
1744.000000	98.643064
1743.000000	98.670485
1742.000000	98.711910
1741.000000	98.734752
1740.000000	98.733987
1739.000000	98.746576
1738.000000	98.794582
1737.000000	98.854152
1736.000000	98.879329
1735.000000	98.865348
1734.000000	98.862593
1733.000000	98.862870
1732.000000	98.845792
1731.000000	98.834617
1730.000000	98.841764
1729.000000	98.859152
1728.000000	98.874900
1727.000000	98.884564
1726.000000	98.888584
1725.000000	98.884720
1724.000000	98.876721
1723.000000	98.881881
1722.000000	98.907956
1721.000000	98.934847
1720.000000	98.928265
1719.000000	98.881148
1718.000000	98.833154
1717.000000	98.791108
1716.000000	98.734001
1715.000000	98.681678
1714.000000	98.644326
1713.000000	98.603901
1712.000000	98.552923
1711.000000	98.502349
1710.000000	98.459149
1709.000000	98.411749
1708.000000	98.339266
1707.000000	98.234499
1706.000000	98.118025
1705.000000	98.023471
1704.000000	97.976703
1703.000000	97.969876
1702.000000	97.931617
1701.000000	97.790260
1700.000000	97.592114
1699.000000	97.445208
1698.000000	97.351324
1697.000000	97.230422
1696.000000	97.050716
1695.000000	96.870177
1694.000000	96.736588
1693.000000	96.626832
1692.000000	96.502240
1691.000000	96.356841
1690.000000	96.215490
1689.000000	96.109155
1688.000000	96.045702
1687.000000	95.999191
1686.000000	95.894169
1685.000000	95.669003
1684.000000	95.384955
1683.000000	95.144130
1682.000000	94.961907
1681.000000	94.799666
1680.000000	94.642241
1679.000000	94.506589
1678.000000	94.383023
1677.000000	94.214150
1676.000000	93.957719
1675.000000	93.656891
1674.000000	93.393974
1673.000000	93.181454
1672.000000	92.972394
1671.000000	92.728597
1670.000000	92.447028
1669.000000	92.151051
1668.000000	91.880303
1667.000000	91.667662
1666.000000	91.502057
1665.000000	91.329763
1664.000000	91.107099
1663.000000	90.851151
1662.000000	90.610978
1661.000000	90.405229
1660.000000	90.226542
1659.000000	90.075540
1658.000000	89.967520
1657.000000	89.908164
1656.000000	89.879505
1655.000000	89.823006
1654.000000	89.705378
1653.000000	89.554501
1652.000000	89.394153
1651.000000	89.284457
1650.000000	89.238658
1649.000000	89.201398
1648.000000	89.145082
1647.000000	89.098022
1646.000000	89.072909
1645.000000	89.036669
1644.000000	88.987567
1643.000000	88.947950
1642.000000	88.923116
1641.000000	88.903995
1640.000000	88.887663
1639.000000	88.883656
1638.000000	88.885975
1637.000000	88.864125
1636.000000	88.807456
1635.000000	88.734824
1634.000000	88.677003
1633.000000	88.646190
1632.000000	88.639778
1631.000000	88.653645
1630.000000	88.686858
1629.000000	88.742322
1628.000000	88.828737
1627.000000	88.945827
1626.000000	89.080070
1625.000000	89.222119
1624.000000	89.385964
1623.000000	89.590598
1622.000000	89.813100
1621.000000	90.025612
1620.000000	90.233678
1619.000000	90.451115
1618.000000	90.687095
1617.000000	90.952040
1616.000000	91.220264
1615.000000	91.446200
1614.000000	91.632838
1613.000000	91.808056
1612.000000	91.989958
1611.000000	92.179628
1610.000000	92.364293
1609.000000	92.539409
1608.000000	92.716287
1607.000000	92.898451
1606.000000	93.071200
1605.000000	93.225918
1604.000000	93.369056
1603.000000	93.506044
1602.000000	93.630827
1601.000000	93.739205
1600.000000	93.836749
1599.000000	93.925593
1598.000000	93.999663
1597.000000	94.057730
1596.000000	94.110269
1595.000000	94.163869
1594.000000	94.210174
1593.000000	94.241197
1592.000000	94.261081
1591.000000	94.274144
1590.000000	94.276219
1589.000000	94.266675
1588.000000	94.252045
1587.000000	94.231815
1586.000000	94.194659
1585.000000	94.139217
1584.000000	94.079218
1583.000000	94.017898
1582.000000	93.944405
1581.000000	93.862202
1580.000000	93.794001
1579.000000	93.744542
1578.000000	93.681102
1577.000000	93.569683
1576.000000	93.425435
1575.000000	93.287808
1574.000000	93.178755
1573.000000	93.095086
1572.000000	93.008462
1571.000000	92.884322
1570.000000	92.715582
1569.000000	92.534776
1568.000000	92.377536
1567.000000	92.241086
1566.000000	92.098820
1565.000000	91.944497
1564.000000	91.812633
1563.000000	91.735592
1562.000000	91.691789
1561.000000	91.598278
1560.000000	91.370868
1559.000000	91.104020
1558.000000	90.871292
1557.000000	90.673625
1556.000000	90.507614
1555.000000	90.353219
1554.000000	90.200303
1553.000000	90.046148
1552.000000	89.893952
1551.000000	89.757521
1550.000000	89.651206
1549.000000	89.571138
1548.000000	89.499282
1547.000000	89.418460
1546.000000	89.323492
1545.000000	89.233509
1544.000000	89.177143
1543.000000	89.159304
1542.000000	89.145921
1541.000000	89.102660
1540.000000	89.059706
1539.000000	89.039750
1538.000000	89.028010
1537.000000	89.021620
1536.000000	89.020564
1535.000000	89.023524
1534.000000	89.048675
1533.000000	89.102281
1532.000000	89.155822
1531.000000	89.201668
1530.000000	89.238961
1529.000000	89.257266
1528.000000	89.265826
1527.000000	89.297490
1526.000000	89.366867
1525.000000	89.444891
1524.000000	89.498777
1523.000000	89.521060
1522.000000	89.525756
1521.000000	89.514270
1520.000000	89.481491
1519.000000	89.443976
1518.000000	89.405444
1517.000000	89.364428
1516.000000	89.333775
1515.000000	89.321686
1514.000000	89.309180
1513.000000	89.265117
1512.000000	89.190221
1511.000000	89.123094
1510.000000	89.082386
1509.000000	89.043818
1508.000000	88.990072
1507.000000	88.967928
1506.000000	88.944462
1505.000000	88.859584
1504.000000	88.750418
1503.000000	88.657506
1502.000000	88.577486
1501.000000	88.488568
1500.000000	88.381608
1499.000000	88.266953
1498.000000	88.144834
1497.000000	87.994165
1496.000000	87.822866
1495.000000	87.678273
1494.000000	87.568166
1493.000000	87.448904
1492.000000	87.283585
1491.000000	87.085059
1490.000000	86.895224
1489.000000	86.720938
1488.000000	86.553948
1487.000000	86.400006
1486.000000	86.245583
1485.000000	86.072568
1484.000000	85.884128
1483.000000	85.689355
1482.000000	85.488984
1481.000000	85.279945
1480.000000	85.072676
1479.000000	84.873881
1478.000000	84.666926
1477.000000	84.436280
1476.000000	84.201169
1475.000000	83.987504
1474.000000	83.770754
1473.000000	83.509497
1472.000000	83.223954
1471.000000	82.979349
1470.000000	82.783437
1469.000000	82.600542
1468.000000	82.411170
1467.000000	82.211084
1466.000000	81.982661
1465.000000	81.716021
1464.000000	81.446240
1463.000000	81.219922
1462.000000	81.034160
1461.000000	80.854805
1460.000000	80.659620
1459.000000	80.431614
1458.000000	80.149964
1457.000000	79.821950
1456.000000	79.524978
1455.000000	79.318094
1454.000000	79.162126
1453.000000	79.005241
1452.000000	78.845730
1451.000000	78.704001
1450.000000	78.572011
1449.000000	78.425027
1448.000000	78.274785
1447.000000	78.157256
1446.000000	78.071948
1445.000000	77.993804
1444.000000	77.914199
1443.000000	77.840191
1442.000000	77.770475
1441.000000	77.701989
1440.000000	77.640497
1439.000000	77.583148
1438.000000	77.508330
1437.000000	77.413298
1436.000000	77.334956
1435.000000	77.296492
1434.000000	77.276285
1433.000000	77.247282
1432.000000	77.209834
1431.000000	77.179280
1430.000000	77.158852
1429.000000	77.140670
1428.000000	77.127874
1427.000000	77.122903
1426.000000	77.113087
1425.000000	77.100562
1424.000000	77.111759
1423.000000	77.155980
1422.000000	77.202296
1421.000000	77.217775
1420.000000	77.217051
1419.000000	77.258529
1418.000000	77.355542
1417.000000	77.475589
1416.000000	77.611168
1415.000000	77.762225
1414.000000	77.913570
1413.000000	78.057897
1412.000000	78.210180
1411.000000	78.383618
1410.000000	78.567653
1409.000000	78.742853
1408.000000	78.904794
1407.000000	79.059144
1406.000000	79.210606
1405.000000	79.367625
1404.000000	79.531670
1403.000000	79.683515
1402.000000	79.798731
1401.000000	79.874260
1400.000000	79.936959
1399.000000	80.014939
1398.000000	80.106580
1397.000000	80.205801
1396.000000	80.333500
1395.000000	80.511396
1394.000000	80.723226
1393.000000	80.936785
1392.000000	81.141715
1391.000000	81.340195
1390.000000	81.530722
1389.000000	81.722984
1388.000000	81.945697
1387.000000	82.209406
1386.000000	82.480532
1385.000000	82.730840
1384.000000	82.967442
1383.000000	83.203725
1382.000000	83.437436
1381.000000	83.662193
1380.000000	83.884277
1379.000000	84.109394
1378.000000	84.328561
1377.000000	84.533480
1376.000000	84.735328
1375.000000	84.955692
1374.000000	85.200897
1373.000000	85.454076
1372.000000	85.697112
1371.000000	85.923598
1370.000000	86.139884
1369.000000	86.366442
1368.000000	86.612615
1367.000000	86.856933
1366.000000	87.071244
1365.000000	87.256441
1364.000000	87.443733
1363.000000	87.659572
1362.000000	87.892945
1361.000000	88.116872
1360.000000	88.320453
1359.000000	88.501065
1358.000000	88.656436
1357.000000	88.792279
1356.000000	88.918568
1355.000000	89.036369
1354.000000	89.139345
1353.000000	89.225159
1352.000000	89.297742
1351.000000	89.358001
1350.000000	89.404501
1349.000000	89.444797
1348.000000	89.486274
1347.000000	89.524529
1346.000000	89.551768
1345.000000	89.570813
1344.000000	89.586149
1343.000000	89.590254
1342.000000	89.575430
1341.000000	89.556831
1340.000000	89.565376
1339.000000	89.613745
1338.000000	89.689825
1337.000000	89.782407
1336.000000	89.887987
1335.000000	89.999642
1334.000000	90.109138
1333.000000	90.218887
1332.000000	90.338087
1331.000000	90.467182
1330.000000	90.597666
1329.000000	90.725084
1328.000000	90.849546
1327.000000	90.965296
1326.000000	91.064459
1325.000000	91.150042
1324.000000	91.229521
1323.000000	91.301520
1322.000000	91.360784
1321.000000	91.411588
1320.000000	91.464086
1319.000000	91.521465
1318.000000	91.580861
1317.000000	91.643146
1316.000000	91.711499
1315.000000	91.785341
1314.000000	91.864852
1313.000000	91.954831
1312.000000	92.055476
1311.000000	92.156294
1310.000000	92.248083
1309.000000	92.333494
1308.000000	92.418482
1307.000000	92.501082
1306.000000	92.577007
1305.000000	92.649748
1304.000000	92.723263
1303.000000	92.793776
1302.000000	92.856912
1301.000000	92.915903
1300.000000	92.973781
1299.000000	93.026126
1298.000000	93.069538
1297.000000	93.108718
1296.000000	93.147150
1295.000000	93.178344
1294.000000	93.195706
1293.000000	93.201145
1292.000000	93.196617
1291.000000	93.178291
1290.000000	93.147783
1289.000000	93.119025
1288.000000	93.102828
1287.000000	93.093126
1286.000000	93.078942
1285.000000	93.061487
1284.000000	93.048764
1283.000000	93.042649
1282.000000	93.041764
1281.000000	93.050015
1280.000000	93.071403
1279.000000	93.100892
1278.000000	93.130760
1277.000000	93.161159
1276.000000	93.195633
1275.000000	93.231184
1274.000000	93.262087
1273.000000	93.288440
1272.000000	93.312586
1271.000000	93.331993
1270.000000	93.343979
1269.000000	93.352280
1268.000000	93.360809
1267.000000	93.366265
1266.000000	93.364858
1265.000000	93.359240
1264.000000	93.351765
1263.000000	93.337956
1262.000000	93.314097
1261.000000	93.285600
1260.000000	93.259385
1259.000000	93.233793
1258.000000	93.203784
1257.000000	93.168900
1256.000000	93.129877
1255.000000	93.084082
1254.000000	93.030993
1253.000000	92.975850
1252.000000	92.921323
1251.000000	92.861866
1250.000000	92.792574
1249.000000	92.717568
1248.000000	92.643339
1247.000000	92.569515
1246.000000	92.493480
1245.000000	92.417932
1244.000000	92.347220
1243.000000	92.280910
1242.000000	92.217845
1241.000000	92.162298
1240.000000	92.120069
1239.000000	92.092308
1238.000000	92.077796
1237.000000	92.078599
1236.000000	92.097402
1235.000000	92.132753
1234.000000	92.182611
1233.000000	92.248028
1232.000000	92.329449
1231.000000	92.422831
1230.000000	92.524963
1229.000000	92.639049
1228.000000	92.768258
1227.000000	92.908999
1226.000000	93.055760
1225.000000	93.207868
1224.000000	93.364995
1223.000000	93.520128
1222.000000	93.664617
1221.000000	93.796219
1220.000000	93.915891
1219.000000	94.020509
1218.000000	94.106425
1217.000000	94.175074
1216.000000	94.228461
1215.000000	94.263844
1214.000000	94.277819
1213.000000	94.273028
1212.000000	94.254534
1211.000000	94.224047
1210.000000	94.182871
1209.000000	94.135402
1208.000000	94.086197
1207.000000	94.037072
1206.000000	93.990786
1205.000000	93.953684
1204.000000	93.931569
1203.000000	93.925954
1202.000000	93.936532
1201.000000	93.964006
1200.000000	94.007598
1199.000000	94.064958
1198.000000	94.135615
1197.000000	94.219839
1196.000000	94.312873
1195.000000	94.405511
1194.000000	94.493268
1193.000000	94.578752
1192.000000	94.663280
1191.000000	94.743455
1190.000000	94.818475
1189.000000	94.892533
1188.000000	94.966152
1187.000000	95.032925
1186.000000	95.088469
1185.000000	95.135723
1184.000000	95.177727
1183.000000	95.213472
1182.000000	95.244515
1181.000000	95.276609
1180.000000	95.310315
1179.000000	95.337329
1178.000000	95.351241
1177.000000	95.354677
1176.000000	95.352620
1175.000000	95.347911
1174.000000	95.345891
1173.000000	95.353635
1172.000000	95.369761
1171.000000	95.383423
1170.000000	95.388015
1169.000000	95.387461
1168.000000	95.385414
1167.000000	95.378445
1166.000000	95.365376
1165.000000	95.353740
1164.000000	95.350414
1163.000000	95.354067
1162.000000	95.362263
1161.000000	95.378065
1160.000000	95.403630
1159.000000	95.435108
1158.000000	95.470071
1157.000000	95.511694
1156.000000	95.560435
1155.000000	95.609656
1154.000000	95.655764
1153.000000	95.704559
1152.000000	95.760895
1151.000000	95.820377
1150.000000	95.877434
1149.000000	95.933108
1148.000000	95.987580
1147.000000	96.033990
1146.000000	96.067584
1145.000000	96.093658
1144.000000	96.119363
1143.000000	96.144840
1142.000000	96.168980
1141.000000	96.195298
1140.000000	96.224617
1139.000000	96.249826
1138.000000	96.265339
1137.000000	96.275365
1136.000000	96.285985
1135.000000	96.295914
1134.000000	96.301695
1133.000000	96.305034
1132.000000	96.308811
1131.000000	96.312000
1130.000000	96.313904
1129.000000	96.316574
1128.000000	96.317755
1127.000000	96.309490
1126.000000	96.289646
1125.000000	96.267288
1124.000000	96.250853
1123.000000	96.238133
1122.000000	96.223600
1121.000000	96.208154
1120.000000	96.195260
1119.000000	96.184183
1118.000000	96.172405
1117.000000	96.158578
1116.000000	96.138901
1115.000000	96.108376
1114.000000	96.070296
1113.000000	96.036552
1112.000000	96.013730
1111.000000	95.996643
1110.000000	95.979500
1109.000000	95.963875
1108.000000	95.949914
1107.000000	95.930459
1106.000000	95.900952
1105.000000	95.867063
1104.000000	95.835794
1103.000000	95.806725
1102.000000	95.777925
1101.000000	95.752409
1100.000000	95.730671
1099.000000	95.707984
1098.000000	95.681722
1097.000000	95.656418
1096.000000	95.633647
1095.000000	95.604579
1094.000000	95.560039
1093.000000	95.501556
1092.000000	95.435594
1091.000000	95.364162
1090.000000	95.287261
1089.000000	95.208300
1088.000000	95.129751
1087.000000	95.048843
1086.000000	94.963944
1085.000000	94.880614
1084.000000	94.806416
1083.000000	94.744570
1082.000000	94.697947
1081.000000	94.672632
1080.000000	94.672254
1079.000000	94.692364
1078.000000	94.725796
1077.000000	94.770251
1076.000000	94.825015
1075.000000	94.885737
1074.000000	94.946790
1073.000000	95.004459
1072.000000	95.053672
1071.000000	95.087498
1070.000000	95.105037
1069.000000	95.114066
1068.000000	95.120690
1067.000000	95.121326
1066.000000	95.110322
1065.000000	95.090071
1064.000000	95.068721
1063.000000	95.052699
1062.000000	95.045446
1061.000000	95.048147
1060.000000	95.056790
1059.000000	95.063055
1058.000000	95.062712
1057.000000	95.059759
1056.000000	95.059207
1055.000000	95.060359
1054.000000	95.060377
1053.000000	95.059519
1052.000000	95.059407
1051.000000	95.060227
1050.000000	95.062510
1049.000000	95.067524
1048.000000	95.074180
1047.000000	95.080004
1046.000000	95.085300
1045.000000	95.090359
1044.000000	95.088974
1043.000000	95.072896
1042.000000	95.043503
1041.000000	95.011134
1040.000000	94.981095
1039.000000	94.947992
1038.000000	94.905495
1037.000000	94.853163
1036.000000	94.792648
1035.000000	94.726922
1034.000000	94.666401
1033.000000	94.625843
1032.000000	94.610624
1031.000000	94.613648
1030.000000	94.628917
1029.000000	94.660577
1028.000000	94.713453
1027.000000	94.782789
1026.000000	94.858879
1025.000000	94.935083
1024.000000	95.007135
1023.000000	95.070863
1022.000000	95.126014
1021.000000	95.175933
1020.000000	95.219867
1019.000000	95.252135
1018.000000	95.272549
1017.000000	95.289705
1016.000000	95.310080
1015.000000	95.332483
1014.000000	95.356701
1013.000000	95.388494
1012.000000	95.430169
1011.000000	95.474970
1010.000000	95.516926
1009.000000	95.559703
1008.000000	95.609583
1007.000000	95.666035
1006.000000	95.725069
1005.000000	95.785542
1004.000000	95.847072
1003.000000	95.907005
1002.000000	95.964236
1001.000000	96.020900
1000.000000	96.077012
999.000000	96.129232
998.000000	96.177638
997.000000	96.226474
996.000000	96.275639
995.000000	96.319720
994.000000	96.358625
993.000000	96.399999
992.000000	96.446859
991.000000	96.492190
990.000000	96.530777
989.000000	96.567203
988.000000	96.605844
987.000000	96.642371
986.000000	96.671573
985.000000	96.695769
984.000000	96.718014
983.000000	96.734078
982.000000	96.738640
981.000000	96.733024
980.000000	96.721363
979.000000	96.705063
978.000000	96.686444
977.000000	96.671194
976.000000	96.662281
975.000000	96.658204
974.000000	96.661748
973.000000	96.682367
972.000000	96.723806
971.000000	96.776939
970.000000	96.830980
969.000000	96.884956
968.000000	96.941986
967.000000	96.999626
966.000000	97.053892
965.000000	97.107037
964.000000	97.163531
963.000000	97.223050
962.000000	97.283195
961.000000	97.344519
960.000000	97.407233
959.000000	97.467690
958.000000	97.522570
957.000000	97.571864
956.000000	97.614531
955.000000	97.648171
954.000000	97.676635
953.000000	97.709680
952.000000	97.750715
951.000000	97.792050
950.000000	97.826451
949.000000	97.854921
948.000000	97.879082
947.000000	97.895685
946.000000	97.904666
945.000000	97.913282
944.000000	97.926004
943.000000	97.938415
942.000000	97.946964
941.000000	97.956164
940.000000	97.969942
939.000000	97.985114
938.000000	97.999565
937.000000	98.018162
936.000000	98.043632
935.000000	98.071128
934.000000	98.098483
933.000000	98.132336
932.000000	98.175412
931.000000	98.217169
930.000000	98.246871
929.000000	98.267981
928.000000	98.290452
927.000000	98.315588
926.000000	98.338401
925.000000	98.357908
924.000000	98.375769
923.000000	98.389735
922.000000	98.397438
921.000000	98.402292
920.000000	98.408666
919.000000	98.416436
918.000000	98.426470
917.000000	98.444675
916.000000	98.473013
915.000000	98.503002
914.000000	98.525791
913.000000	98.543445
912.000000	98.562731
911.000000	98.584075
910.000000	98.604276
909.000000	98.624567
908.000000	98.648063
907.000000	98.673838
906.000000	98.700038
905.000000	98.727299
904.000000	98.753379
903.000000	98.771083
902.000000	98.778390
901.000000	98.784037
900.000000	98.797111
899.000000	98.817782
898.000000	98.843963
897.000000	98.877475
896.000000	98.915585
895.000000	98.945114
894.000000	98.955055
893.000000	98.949009
892.000000	98.936050
891.000000	98.915213
890.000000	98.868988
889.000000	98.755192
888.000000	98.499447
887.000000	98.016869
886.000000	97.276457
885.000000	96.339866
884.000000	95.310594
883.000000	94.241203
882.000000	93.095970
881.000000	91.813757
880.000000	90.401313
879.000000	88.966538
878.000000	87.667968
877.000000	86.646401
876.000000	85.992971
875.000000	85.757548
874.000000	85.971760
873.000000	86.652342
872.000000	87.785851
871.000000	89.282338
870.000000	90.954080
869.000000	92.569621
868.000000	93.945885
867.000000	95.008295
866.000000	95.783179
865.000000	96.346642
864.000000	96.770347
863.000000	97.100665
862.000000	97.362250
861.000000	97.568319
860.000000	97.726149
859.000000	97.842137
858.000000	97.930316
857.000000	98.008530
856.000000	98.084563
855.000000	98.152881
854.000000	98.206779
853.000000	98.245152
852.000000	98.261133
851.000000	98.237597
850.000000	98.170551
849.000000	98.094651
848.000000	98.069950
847.000000	98.133783
846.000000	98.267636
845.000000	98.414640
844.000000	98.526815
843.000000	98.595966
842.000000	98.645538
841.000000	98.698387
840.000000	98.754886
839.000000	98.799133
838.000000	98.820733
837.000000	98.826307
836.000000	98.831410
835.000000	98.846993
834.000000	98.873345
833.000000	98.901766
832.000000	98.920705
831.000000	98.923796
830.000000	98.913894
829.000000	98.898248
828.000000	98.882048
827.000000	98.870159
826.000000	98.869655
825.000000	98.881817
824.000000	98.894658
823.000000	98.894852
822.000000	98.886071
821.000000	98.883201
820.000000	98.889060
819.000000	98.889799
818.000000	98.876166
817.000000	98.857106
816.000000	98.846312
815.000000	98.844836
814.000000	98.844135
813.000000	98.840630
812.000000	98.839701
811.000000	98.847899
810.000000	98.865928
809.000000	98.886997
808.000000	98.899619
807.000000	98.895511
806.000000	98.877685
805.000000	98.858690
804.000000	98.849019
803.000000	98.848754
802.000000	98.849917
801.000000	98.843343
800.000000	98.824713
799.000000	98.798728
798.000000	98.777150
797.000000	98.768035
796.000000	98.767782
795.000000	98.768046
794.000000	98.767457
793.000000	98.769536
792.000000	98.771719
791.000000	98.765870
790.000000	98.750742
789.000000	98.735825
788.000000	98.730377
787.000000	98.734354
786.000000	98.740901
785.000000	98.743017
784.000000	98.737902
783.000000	98.729788
782.000000	98.727899
781.000000	98.736200
780.000000	98.746419
779.000000	98.746671
778.000000	98.735034
777.000000	98.719188
776.000000	98.705901
775.000000	98.698386
774.000000	98.700668
773.000000	98.714539
772.000000	98.733062
771.000000	98.746360
770.000000	98.753597
769.000000	98.760806
768.000000	98.768004
767.000000	98.767806
766.000000	98.756238
765.000000	98.736036
764.000000	98.710197
763.000000	98.681779
762.000000	98.658861
761.000000	98.648472
760.000000	98.645168
759.000000	98.635668
758.000000	98.615672
757.000000	98.592866
756.000000	98.573746
755.000000	98.558070
754.000000	98.546545
753.000000	98.542365
752.000000	98.543418
751.000000	98.543493
750.000000	98.541864
749.000000	98.541651
748.000000	98.538788
747.000000	98.524840
746.000000	98.501769
745.000000	98.481702
744.000000	98.469840
743.000000	98.459361
742.000000	98.444707
741.000000	98.427467
740.000000	98.407554
739.000000	98.381625
738.000000	98.352932
737.000000	98.330235
736.000000	98.314082
735.000000	98.295691
734.000000	98.271499
733.000000	98.245958
732.000000	98.219155
731.000000	98.186118
730.000000	98.149885
729.000000	98.118285
728.000000	98.089079
727.000000	98.054177
726.000000	98.016613
725.000000	97.988097
724.000000	97.967331
723.000000	97.936897
722.000000	97.883279
721.000000	97.804821
720.000000	97.696576
719.000000	97.535604
718.000000	97.271763
717.000000	96.814615
716.000000	96.061469
715.000000	95.019549
714.000000	93.932871
713.000000	93.217857
712.000000	93.183911
711.000000	93.791450
710.000000	94.703315
709.000000	95.555505
708.000000	96.163587
707.000000	96.526266
706.000000	96.715093
705.000000	96.799854
704.000000	96.833855
703.000000	96.848911
702.000000	96.855550
701.000000	96.860261
700.000000	96.875110
699.000000	96.907358
698.000000	96.945466
697.000000	96.969619
696.000000	96.975505
695.000000	96.974143
694.000000	96.977052
693.000000	96.985817
692.000000	96.991621
691.000000	96.987097
690.000000	96.972757
689.000000	96.955264
688.000000	96.940335
687.000000	96.926500
686.000000	96.913086
685.000000	96.904256
684.000000	96.898132
683.000000	96.884110
682.000000	96.856469
681.000000	96.823193
680.000000	96.794636
679.000000	96.772237
678.000000	96.753228
677.000000	96.729910
676.000000	96.694989
675.000000	96.651153
674.000000	96.613514
673.000000	96.598527
672.000000	96.614953
671.000000	96.669201
670.000000	96.769184
669.000000	96.898820
668.000000	96.950048
667.000000	96.831425
666.000000	96.681762
665.000000	96.570400
664.000000	96.489915
663.000000	96.440102
662.000000	96.417179
661.000000	96.409424
660.000000	96.409428
659.000000	96.421723
658.000000	96.448629
657.000000	96.472381
656.000000	96.477849
655.000000	96.473162
654.000000	96.470759
653.000000	96.467044
652.000000	96.458026
651.000000	96.451294
650.000000	96.454084
649.000000	96.462891
648.000000	96.476028
647.000000	96.495096
646.000000	96.506999
645.000000	96.492928
644.000000	96.458037
643.000000	96.429051
642.000000	96.421589
641.000000	96.424035
640.000000	96.421031
639.000000	96.417124
638.000000	96.422424
637.000000	96.433057
636.000000	96.440402
635.000000	96.443502
634.000000	96.445493
633.000000	96.448392
632.000000	96.456161
631.000000	96.474879
630.000000	96.501409
629.000000	96.520255
628.000000	96.520598
627.000000	96.508331
626.000000	96.494466
625.000000	96.484546
624.000000	96.480979
623.000000	96.484265
622.000000	96.489669
621.000000	96.490680
620.000000	96.488542
619.000000	96.492086
618.000000	96.505384
617.000000	96.522341
616.000000	96.536509
615.000000	96.548899
614.000000	96.559881
613.000000	96.562005
612.000000	96.548928
611.000000	96.527947
610.000000	96.514771
609.000000	96.517293
608.000000	96.529818
607.000000	96.540927
606.000000	96.543773
605.000000	96.542589
604.000000	96.546831
603.000000	96.557529
602.000000	96.564491
601.000000	96.559222
600.000000	96.546594
599.000000	96.537893
598.000000	96.539797
597.000000	96.553959
596.000000	96.581150
595.000000	96.617547
594.000000	96.651082
593.000000	96.671498
592.000000	96.680677
591.000000	96.684915
590.000000	96.681473
589.000000	96.663871
588.000000	96.637104
587.000000	96.616552
586.000000	96.610616
585.000000	96.612117
584.000000	96.611198
583.000000	96.607068
582.000000	96.604456
581.000000	96.605192
580.000000	96.610429
579.000000	96.623487
578.000000	96.645233
577.000000	96.666960
576.000000	96.673268
575.000000	96.655902
574.000000	96.623425
573.000000	96.593517
572.000000	96.575247
571.000000	96.561177
570.000000	96.534762
569.000000	96.489947
568.000000	96.441108
567.000000	96.409369
566.000000	96.399461
565.000000	96.395429
564.000000	96.383614
563.000000	96.370621
562.000000	96.374533
561.000000	96.400472
560.000000	96.430964
559.000000	96.440993
558.000000	96.420821
557.000000	96.384784
556.000000	96.360949
555.000000	96.368775
554.000000	96.401578
553.000000	96.432956
552.000000	96.442331
551.000000	96.431606
550.000000	96.418605
549.000000	96.420805
548.000000	96.445432
547.000000	96.488103
546.000000	96.536694
545.000000	96.580975
544.000000	96.619046
543.000000	96.647566
542.000000	96.651068
541.000000	96.613483
540.000000	96.540539
539.000000	96.455974
538.000000	96.375368
537.000000	96.297986
536.000000	96.228834
535.000000	96.185473
534.000000	96.170247
533.000000	96.154268
532.000000	96.115059
531.000000	96.070158
530.000000	96.048455
529.000000	96.044622
528.000000	96.034979
527.000000	96.025241
526.000000	96.053962
525.000000	96.139604
524.000000	96.250229
523.000000	96.343916
522.000000	96.408694
521.000000	96.458714
520.000000	96.513991
519.000000	96.586500
518.000000	96.673381
517.000000	96.763003
516.000000	96.853819
515.000000	96.959680
514.000000	97.087281
513.000000	97.217058
512.000000	97.319904
511.000000	97.387351
510.000000	97.435196
509.000000	97.478053
508.000000	97.518856
507.000000	97.554886
506.000000	97.581513
505.000000	97.592734
504.000000	97.588659
503.000000	97.587785
502.000000	97.617430
501.000000	97.686427
500.000000	97.780997
499.000000	97.881769
498.000000	97.970447
497.000000	98.025309
496.000000	98.031874
495.000000	97.999813
494.000000	97.954431
493.000000	97.912390
492.000000	97.875000
491.000000	97.838203
490.000000	97.803107
489.000000	97.769618
488.000000	97.733546
487.000000	97.691931
486.000000	97.645536
485.000000	97.598147
484.000000	97.556364
483.000000	97.525015
482.000000	97.501887
481.000000	97.481296
480.000000	97.462342
479.000000	97.452709
478.000000	97.463517
477.000000	97.494702
476.000000	97.525640
475.000000	97.516947
474.000000	97.435246
473.000000	97.291200
472.000000	97.158897
471.000000	97.116828
470.000000	97.172993
469.000000	97.275483
468.000000	97.373042
467.000000	97.443648
466.000000	97.484642
465.000000	97.496536
464.000000	97.490673
463.000000	97.499466
462.000000	97.551406
461.000000	97.640737
460.000000	97.743589
459.000000	98.089014
458.000000	98.293419
457.000000	98.470098
456.000000	98.599355
455.000000	98.725285
454.000000	98.868817
453.000000	98.976350
452.000000	98.978503
451.000000	98.893558
450.000000	98.819115
