PE IR       SUBTECH     SPECTRUM    ASCII       PEDS        4.00        
   -1
A10-C001_1.ASC
23/09/14
11:15:57.00
23/09/14
11:18:22.00
uco
Sample 001 By uco Date Thursday, September 14 2023
450.000000
#HDR
-1
-1
#GR
cm-1
%T
1.0
0.0
4000.000000
-1.000000
3551
8
98.989213
88.058984
#DATA
4000.000000	98.920577
3999.000000	98.919437
3998.000000	98.922538
3997.000000	98.926829
3996.000000	98.928899
3995.000000	98.927924
3994.000000	98.925728
3993.000000	98.924847
3992.000000	98.926188
3991.000000	98.928454
3990.000000	98.929268
3989.000000	98.927049
3988.000000	98.922065
3987.000000	98.916148
3986.000000	98.911480
3985.000000	98.909164
3984.000000	98.908600
3983.000000	98.908155
3982.000000	98.906407
3981.000000	98.903188
3980.000000	98.899862
3979.000000	98.898653
3978.000000	98.901001
3977.000000	98.906155
3976.000000	98.911404
3975.000000	98.913667
3974.000000	98.911432
3973.000000	98.905683
3972.000000	98.899480
3971.000000	98.896258
3970.000000	98.897698
3969.000000	98.902795
3968.000000	98.908633
3967.000000	98.912483
3966.000000	98.913548
3965.000000	98.912959
3964.000000	98.912420
3963.000000	98.912891
3962.000000	98.914164
3961.000000	98.915239
3960.000000	98.915345
3959.000000	98.914067
3958.000000	98.911060
3957.000000	98.906559
3956.000000	98.901453
3955.000000	98.896739
3954.000000	98.892766
3953.000000	98.889535
3952.000000	98.887846
3951.000000	98.889186
3950.000000	98.894282
3949.000000	98.901326
3948.000000	98.906543
3947.000000	98.907281
3946.000000	98.903671
3945.000000	98.897666
3944.000000	98.891333
3943.000000	98.885892
3942.000000	98.882261
3941.000000	98.880810
3940.000000	98.881124
3939.000000	98.882127
3938.000000	98.882578
3937.000000	98.882312
3936.000000	98.882006
3935.000000	98.882104
3934.000000	98.882063
3933.000000	98.880409
3932.000000	98.876669
3931.000000	98.871947
3930.000000	98.868020
3929.000000	98.865585
3928.000000	98.863795
3927.000000	98.862933
3926.000000	98.864506
3925.000000	98.869069
3924.000000	98.875070
3923.000000	98.879952
3922.000000	98.882165
3921.000000	98.882244
3920.000000	98.882125
3919.000000	98.883433
3918.000000	98.885225
3917.000000	98.884726
3916.000000	98.881127
3915.000000	98.876494
3914.000000	98.873115
3913.000000	98.870800
3912.000000	98.868185
3911.000000	98.864156
3910.000000	98.858493
3909.000000	98.852271
3908.000000	98.847869
3907.000000	98.848893
3906.000000	98.858816
3905.000000	98.878161
3904.000000	98.902076
3903.000000	98.921034
3902.000000	98.926351
3901.000000	98.916374
3900.000000	98.896701
3899.000000	98.877520
3898.000000	98.867162
3897.000000	98.866251
3896.000000	98.869805
3895.000000	98.872290
3894.000000	98.871216
3893.000000	98.868232
3892.000000	98.867297
3891.000000	98.870128
3890.000000	98.875347
3889.000000	98.881707
3888.000000	98.889555
3887.000000	98.898867
3886.000000	98.907554
3885.000000	98.912477
3884.000000	98.911701
3883.000000	98.905817
3882.000000	98.896705
3881.000000	98.887815
3880.000000	98.883068
3879.000000	98.883250
3878.000000	98.885546
3877.000000	98.886616
3876.000000	98.884620
3875.000000	98.880435
3874.000000	98.877414
3873.000000	98.878433
3872.000000	98.883634
3871.000000	98.890137
3870.000000	98.894276
3869.000000	98.895068
3868.000000	98.894905
3867.000000	98.895635
3866.000000	98.894565
3865.000000	98.888016
3864.000000	98.878237
3863.000000	98.871667
3862.000000	98.871751
3861.000000	98.876971
3860.000000	98.883460
3859.000000	98.888949
3858.000000	98.893452
3857.000000	98.897919
3856.000000	98.902381
3855.000000	98.905253
3854.000000	98.908645
3853.000000	98.911617
3852.000000	98.906449
3851.000000	98.895097
3850.000000	98.885613
3849.000000	98.879737
3848.000000	98.875463
3847.000000	98.870407
3846.000000	98.863328
3845.000000	98.855261
3844.000000	98.850291
3843.000000	98.852497
3842.000000	98.862256
3841.000000	98.874791
3840.000000	98.883293
3839.000000	98.884336
3838.000000	98.879726
3837.000000	98.873710
3836.000000	98.869583
3835.000000	98.868350
3834.000000	98.868739
3833.000000	98.867786
3832.000000	98.863046
3831.000000	98.856354
3830.000000	98.852396
3829.000000	98.854312
3828.000000	98.861046
3827.000000	98.868132
3826.000000	98.871523
3825.000000	98.870904
3824.000000	98.868699
3823.000000	98.864671
3822.000000	98.857615
3821.000000	98.849371
3820.000000	98.843470
3819.000000	98.843019
3818.000000	98.848562
3817.000000	98.856904
3816.000000	98.862930
3815.000000	98.865241
3814.000000	98.866072
3813.000000	98.867269
3812.000000	98.868529
3811.000000	98.869180
3810.000000	98.869596
3809.000000	98.869368
3808.000000	98.866467
3807.000000	98.859644
3806.000000	98.851094
3805.000000	98.844567
3804.000000	98.841663
3803.000000	98.839591
3802.000000	98.835745
3801.000000	98.832460
3800.000000	98.835158
3799.000000	98.845425
3798.000000	98.859843
3797.000000	98.871960
3796.000000	98.877413
3795.000000	98.877016
3794.000000	98.874311
3793.000000	98.871679
3792.000000	98.869353
3791.000000	98.866785
3790.000000	98.863370
3789.000000	98.858603
3788.000000	98.852368
3787.000000	98.845827
3786.000000	98.840849
3785.000000	98.838808
3784.000000	98.839715
3783.000000	98.842009
3782.000000	98.842492
3781.000000	98.838470
3780.000000	98.831856
3779.000000	98.828493
3778.000000	98.831673
3777.000000	98.838674
3776.000000	98.845072
3775.000000	98.848743
3774.000000	98.850356
3773.000000	98.851647
3772.000000	98.853830
3771.000000	98.857242
3770.000000	98.861732
3769.000000	98.866568
3768.000000	98.870021
3767.000000	98.870920
3766.000000	98.869092
3765.000000	98.865289
3764.000000	98.861804
3763.000000	98.861209
3762.000000	98.863456
3761.000000	98.866376
3760.000000	98.869074
3759.000000	98.872218
3758.000000	98.875145
3757.000000	98.876335
3756.000000	98.876757
3755.000000	98.878828
3754.000000	98.884076
3753.000000	98.893367
3752.000000	98.908262
3751.000000	98.927671
3750.000000	98.941768
3749.000000	98.941970
3748.000000	98.932687
3747.000000	98.922592
3746.000000	98.912648
3745.000000	98.898563
3744.000000	98.884039
3743.000000	98.879742
3742.000000	98.889689
3741.000000	98.908139
3740.000000	98.925129
3739.000000	98.933524
3738.000000	98.930493
3737.000000	98.918858
3736.000000	98.908405
3735.000000	98.910478
3734.000000	98.926793
3733.000000	98.944085
3732.000000	98.947399
3731.000000	98.934645
3730.000000	98.914433
3729.000000	98.896024
3728.000000	98.883936
3727.000000	98.878953
3726.000000	98.879566
3725.000000	98.882430
3724.000000	98.883993
3723.000000	98.883026
3722.000000	98.881565
3721.000000	98.881746
3720.000000	98.884433
3719.000000	98.889318
3718.000000	98.894194
3717.000000	98.896508
3716.000000	98.897059
3715.000000	98.898843
3714.000000	98.901237
3713.000000	98.898802
3712.000000	98.889664
3711.000000	98.881615
3710.000000	98.882439
3709.000000	98.891236
3708.000000	98.902202
3707.000000	98.911386
3706.000000	98.918885
3705.000000	98.925360
3704.000000	98.930954
3703.000000	98.935650
3702.000000	98.938371
3701.000000	98.936173
3700.000000	98.926862
3699.000000	98.912845
3698.000000	98.899581
3697.000000	98.891457
3696.000000	98.890668
3695.000000	98.896749
3694.000000	98.905849
3693.000000	98.912920
3692.000000	98.916063
3691.000000	98.918549
3690.000000	98.923265
3689.000000	98.925339
3688.000000	98.916953
3687.000000	98.899972
3686.000000	98.883260
3685.000000	98.872234
3684.000000	98.867263
3683.000000	98.866640
3682.000000	98.868061
3681.000000	98.869100
3680.000000	98.868707
3679.000000	98.869058
3678.000000	98.873658
3677.000000	98.881723
3676.000000	98.887672
3675.000000	98.887132
3674.000000	98.882465
3673.000000	98.877903
3672.000000	98.873336
3671.000000	98.863019
3670.000000	98.844547
3669.000000	98.825401
3668.000000	98.815078
3667.000000	98.815845
3666.000000	98.823663
3665.000000	98.831931
3664.000000	98.835898
3663.000000	98.834369
3662.000000	98.828744
3661.000000	98.821577
3660.000000	98.815966
3659.000000	98.814865
3658.000000	98.819116
3657.000000	98.826021
3656.000000	98.830688
3655.000000	98.830243
3654.000000	98.826351
3653.000000	98.821703
3652.000000	98.817278
3651.000000	98.813442
3650.000000	98.809013
3649.000000	98.797736
3648.000000	98.776862
3647.000000	98.756687
3646.000000	98.747105
3645.000000	98.746959
3644.000000	98.750042
3643.000000	98.751926
3642.000000	98.750977
3641.000000	98.747435
3640.000000	98.742009
3639.000000	98.735306
3638.000000	98.728559
3637.000000	98.723218
3636.000000	98.720151
3635.000000	98.719294
3634.000000	98.720868
3633.000000	98.726362
3632.000000	98.736366
3631.000000	98.745933
3630.000000	98.745158
3629.000000	98.728568
3628.000000	98.704899
3627.000000	98.688095
3626.000000	98.680386
3625.000000	98.676332
3624.000000	98.672720
3623.000000	98.671636
3622.000000	98.675212
3621.000000	98.679533
3620.000000	98.676592
3619.000000	98.663949
3618.000000	98.647805
3617.000000	98.635684
3616.000000	98.630411
3615.000000	98.630258
3614.000000	98.631464
3613.000000	98.630810
3612.000000	98.627671
3611.000000	98.621996
3610.000000	98.611319
3609.000000	98.592660
3608.000000	98.569085
3607.000000	98.549492
3606.000000	98.539209
3605.000000	98.535541
3604.000000	98.532266
3603.000000	98.525509
3602.000000	98.515022
3601.000000	98.502550
3600.000000	98.491112
3599.000000	98.483935
3598.000000	98.481004
3597.000000	98.478435
3596.000000	98.472542
3595.000000	98.462805
3594.000000	98.452545
3593.000000	98.445834
3592.000000	98.444121
3591.000000	98.444645
3590.000000	98.441448
3589.000000	98.429596
3588.000000	98.410902
3587.000000	98.393039
3586.000000	98.382056
3585.000000	98.376064
3584.000000	98.369512
3583.000000	98.359476
3582.000000	98.346357
3581.000000	98.331153
3580.000000	98.315531
3579.000000	98.302130
3578.000000	98.293047
3577.000000	98.288006
3576.000000	98.285155
3575.000000	98.282644
3574.000000	98.278618
3573.000000	98.272165
3572.000000	98.263856
3571.000000	98.255250
3570.000000	98.246618
3569.000000	98.236935
3568.000000	98.224966
3567.000000	98.210637
3566.000000	98.195386
3565.000000	98.181745
3564.000000	98.170136
3563.000000	98.159222
3562.000000	98.147803
3561.000000	98.135693
3560.000000	98.123725
3559.000000	98.113546
3558.000000	98.105441
3557.000000	98.097659
3556.000000	98.088350
3555.000000	98.077404
3554.000000	98.065300
3553.000000	98.052014
3552.000000	98.038286
3551.000000	98.026808
3550.000000	98.020348
3549.000000	98.019103
3548.000000	98.020429
3547.000000	98.019579
3546.000000	98.010939
3545.000000	97.991766
3544.000000	97.965892
3543.000000	97.940841
3542.000000	97.921893
3541.000000	97.909304
3540.000000	97.900036
3539.000000	97.891061
3538.000000	97.881051
3537.000000	97.870775
3536.000000	97.862236
3535.000000	97.856440
3534.000000	97.851898
3533.000000	97.845628
3532.000000	97.836213
3531.000000	97.824804
3530.000000	97.813714
3529.000000	97.805064
3528.000000	97.800431
3527.000000	97.799660
3526.000000	97.799216
3525.000000	97.793307
3524.000000	97.778285
3523.000000	97.755875
3522.000000	97.731545
3521.000000	97.710555
3520.000000	97.695750
3519.000000	97.687384
3518.000000	97.683206
3517.000000	97.679522
3516.000000	97.674150
3515.000000	97.667159
3514.000000	97.659174
3513.000000	97.650009
3512.000000	97.639623
3511.000000	97.628830
3510.000000	97.618163
3509.000000	97.607110
3508.000000	97.595798
3507.000000	97.586504
3506.000000	97.581822
3505.000000	97.582286
3504.000000	97.585449
3503.000000	97.586655
3502.000000	97.581369
3501.000000	97.568026
3500.000000	97.549150
3499.000000	97.529565
3498.000000	97.513536
3497.000000	97.502990
3496.000000	97.497757
3495.000000	97.495875
3494.000000	97.493441
3493.000000	97.486154
3492.000000	97.472636
3491.000000	97.455771
3490.000000	97.440072
3489.000000	97.427989
3488.000000	97.419334
3487.000000	97.413101
3486.000000	97.408487
3485.000000	97.404580
3484.000000	97.400432
3483.000000	97.395455
3482.000000	97.389465
3481.000000	97.382457
3480.000000	97.374538
3479.000000	97.365628
3478.000000	97.355005
3477.000000	97.341826
3476.000000	97.326197
3475.000000	97.309484
3474.000000	97.293664
3473.000000	97.280993
3472.000000	97.273622
3471.000000	97.271983
3470.000000	97.273761
3469.000000	97.275763
3468.000000	97.276740
3467.000000	97.277256
3466.000000	97.276943
3465.000000	97.273812
3464.000000	97.266473
3463.000000	97.255301
3462.000000	97.241214
3461.000000	97.224942
3460.000000	97.208106
3459.000000	97.193089
3458.000000	97.180861
3457.000000	97.170432
3456.000000	97.160793
3455.000000	97.152112
3454.000000	97.144877
3453.000000	97.139040
3452.000000	97.134591
3451.000000	97.131104
3450.000000	97.126784
3449.000000	97.119847
3448.000000	97.111129
3447.000000	97.103173
3446.000000	97.096156
3445.000000	97.087204
3444.000000	97.074828
3443.000000	97.061601
3442.000000	97.051022
3441.000000	97.043646
3440.000000	97.037660
3439.000000	97.031640
3438.000000	97.025085
3437.000000	97.017487
3436.000000	97.008747
3435.000000	97.000080
3434.000000	96.993492
3433.000000	96.989866
3432.000000	96.988308
3431.000000	96.986718
3430.000000	96.983173
3429.000000	96.977331
3428.000000	96.970382
3427.000000	96.963081
3426.000000	96.954380
3425.000000	96.943176
3424.000000	96.930748
3423.000000	96.919815
3422.000000	96.911264
3421.000000	96.903462
3420.000000	96.894807
3419.000000	96.885306
3418.000000	96.875586
3417.000000	96.866182
3416.000000	96.858249
3415.000000	96.853128
3414.000000	96.850528
3413.000000	96.848340
3412.000000	96.844441
3411.000000	96.837590
3410.000000	96.827081
3409.000000	96.813556
3408.000000	96.800401
3407.000000	96.792108
3406.000000	96.789980
3405.000000	96.790629
3404.000000	96.789339
3403.000000	96.783991
3402.000000	96.775791
3401.000000	96.767614
3400.000000	96.762210
3399.000000	96.760101
3398.000000	96.758147
3397.000000	96.751340
3396.000000	96.737384
3395.000000	96.719371
3394.000000	96.703644
3393.000000	96.695430
3392.000000	96.695761
3391.000000	96.700943
3390.000000	96.704615
3389.000000	96.701732
3388.000000	96.691888
3387.000000	96.678919
3386.000000	96.667168
3385.000000	96.658224
3384.000000	96.650846
3383.000000	96.642835
3382.000000	96.633082
3381.000000	96.622567
3380.000000	96.613408
3379.000000	96.605919
3378.000000	96.597321
3377.000000	96.584720
3376.000000	96.568914
3375.000000	96.553526
3374.000000	96.540497
3373.000000	96.528383
3372.000000	96.515222
3371.000000	96.501070
3370.000000	96.487008
3369.000000	96.473521
3368.000000	96.460621
3367.000000	96.448223
3366.000000	96.435623
3365.000000	96.421808
3364.000000	96.406739
3363.000000	96.391146
3362.000000	96.374801
3361.000000	96.356418
3360.000000	96.335499
3359.000000	96.312734
3358.000000	96.288502
3357.000000	96.262779
3356.000000	96.237017
3355.000000	96.214332
3354.000000	96.196679
3353.000000	96.182900
3352.000000	96.170050
3351.000000	96.155533
3350.000000	96.137851
3349.000000	96.117000
3348.000000	96.094502
3347.000000	96.071862
3346.000000	96.048711
3345.000000	96.023741
3344.000000	95.997678
3343.000000	95.973363
3342.000000	95.952393
3341.000000	95.933380
3340.000000	95.914086
3339.000000	95.893632
3338.000000	95.872086
3337.000000	95.849763
3336.000000	95.827752
3335.000000	95.807526
3334.000000	95.788918
3333.000000	95.769633
3332.000000	95.747802
3331.000000	95.724013
3330.000000	95.700256
3329.000000	95.678035
3328.000000	95.658086
3327.000000	95.640914
3326.000000	95.626683
3325.000000	95.614761
3324.000000	95.603405
3323.000000	95.589511
3322.000000	95.569979
3321.000000	95.545157
3320.000000	95.520354
3319.000000	95.501685
3318.000000	95.490098
3317.000000	95.481118
3316.000000	95.470592
3315.000000	95.458554
3314.000000	95.447309
3313.000000	95.438450
3312.000000	95.432438
3311.000000	95.428582
3310.000000	95.424157
3309.000000	95.415545
3308.000000	95.402072
3307.000000	95.387314
3306.000000	95.375218
3305.000000	95.366298
3304.000000	95.358429
3303.000000	95.349788
3302.000000	95.339943
3301.000000	95.329476
3300.000000	95.320080
3299.000000	95.314034
3298.000000	95.312316
3297.000000	95.313570
3296.000000	95.315577
3295.000000	95.316918
3294.000000	95.316681
3293.000000	95.313884
3292.000000	95.308267
3291.000000	95.300920
3290.000000	95.293503
3289.000000	95.287431
3288.000000	95.283995
3287.000000	95.284004
3286.000000	95.286487
3285.000000	95.288834
3284.000000	95.289198
3283.000000	95.288385
3282.000000	95.288911
3281.000000	95.292650
3280.000000	95.299559
3279.000000	95.307825
3278.000000	95.314771
3277.000000	95.318180
3276.000000	95.317442
3275.000000	95.313661
3274.000000	95.309319
3273.000000	95.307930
3272.000000	95.312390
3271.000000	95.321968
3270.000000	95.331741
3269.000000	95.336997
3268.000000	95.337860
3267.000000	95.338177
3266.000000	95.340739
3265.000000	95.345657
3264.000000	95.352817
3263.000000	95.362627
3262.000000	95.373881
3261.000000	95.383996
3260.000000	95.392535
3259.000000	95.402210
3258.000000	95.414961
3257.000000	95.429212
3256.000000	95.442268
3255.000000	95.453437
3254.000000	95.463064
3253.000000	95.470400
3252.000000	95.474990
3251.000000	95.479114
3250.000000	95.486634
3249.000000	95.499066
3248.000000	95.513913
3247.000000	95.526759
3246.000000	95.534480
3245.000000	95.537034
3244.000000	95.537032
3243.000000	95.537649
3242.000000	95.540818
3241.000000	95.547289
3240.000000	95.557500
3239.000000	95.571129
3238.000000	95.586150
3237.000000	95.599941
3236.000000	95.611502
3235.000000	95.621260
3234.000000	95.628643
3233.000000	95.631753
3232.000000	95.630275
3231.000000	95.627158
3230.000000	95.626380
3229.000000	95.629739
3228.000000	95.636109
3227.000000	95.642861
3226.000000	95.647847
3225.000000	95.651205
3224.000000	95.655641
3223.000000	95.663619
3222.000000	95.674056
3221.000000	95.683281
3220.000000	95.689278
3219.000000	95.693273
3218.000000	95.696528
3217.000000	95.698164
3216.000000	95.697732
3215.000000	95.698175
3214.000000	95.703989
3213.000000	95.716590
3212.000000	95.732719
3211.000000	95.747011
3210.000000	95.755581
3209.000000	95.757992
3208.000000	95.757039
3207.000000	95.756715
3206.000000	95.759775
3205.000000	95.766864
3204.000000	95.776852
3203.000000	95.787217
3202.000000	95.795016
3201.000000	95.799242
3200.000000	95.802125
3199.000000	95.806900
3198.000000	95.814584
3197.000000	95.824495
3196.000000	95.836793
3195.000000	95.851683
3194.000000	95.866347
3193.000000	95.876313
3192.000000	95.881235
3191.000000	95.886365
3190.000000	95.896228
3189.000000	95.909019
3188.000000	95.919568
3187.000000	95.926377
3186.000000	95.933062
3185.000000	95.943623
3184.000000	95.958246
3183.000000	95.973993
3182.000000	95.987843
3181.000000	95.998746
3180.000000	96.007441
3179.000000	96.014848
3178.000000	96.020968
3177.000000	96.025937
3176.000000	96.031655
3175.000000	96.040942
3174.000000	96.054689
3173.000000	96.071095
3172.000000	96.087929
3171.000000	96.104356
3170.000000	96.120165
3169.000000	96.134724
3168.000000	96.147477
3167.000000	96.158341
3166.000000	96.167099
3165.000000	96.173842
3164.000000	96.180445
3163.000000	96.189884
3162.000000	96.202923
3161.000000	96.216855
3160.000000	96.228686
3159.000000	96.238509
3158.000000	96.248856
3157.000000	96.261791
3156.000000	96.277551
3155.000000	96.294760
3154.000000	96.310805
3153.000000	96.322961
3152.000000	96.330557
3151.000000	96.335578
3150.000000	96.340610
3149.000000	96.346758
3148.000000	96.354026
3147.000000	96.362561
3146.000000	96.372586
3145.000000	96.383862
3144.000000	96.395820
3143.000000	96.407533
3142.000000	96.417237
3141.000000	96.423058
3140.000000	96.425303
3139.000000	96.427197
3138.000000	96.432550
3137.000000	96.442847
3136.000000	96.456775
3135.000000	96.471461
3134.000000	96.483918
3133.000000	96.492420
3132.000000	96.497537
3131.000000	96.501074
3130.000000	96.503970
3129.000000	96.506306
3128.000000	96.509478
3127.000000	96.516286
3126.000000	96.527792
3125.000000	96.541378
3124.000000	96.552908
3123.000000	96.559869
3122.000000	96.561659
3121.000000	96.558475
3120.000000	96.551561
3119.000000	96.544082
3118.000000	96.540169
3117.000000	96.542479
3116.000000	96.550120
3115.000000	96.558554
3114.000000	96.562204
3113.000000	96.558816
3112.000000	96.551466
3111.000000	96.545077
3110.000000	96.541003
3109.000000	96.536731
3108.000000	96.530706
3107.000000	96.524722
3106.000000	96.520602
3105.000000	96.516996
3104.000000	96.511305
3103.000000	96.503425
3102.000000	96.495771
3101.000000	96.490519
3100.000000	96.488076
3099.000000	96.487478
3098.000000	96.486825
3097.000000	96.483864
3096.000000	96.477593
3095.000000	96.469513
3094.000000	96.462443
3093.000000	96.457828
3092.000000	96.454364
3091.000000	96.449043
3090.000000	96.439686
3089.000000	96.427217
3088.000000	96.415679
3087.000000	96.409079
3086.000000	96.407801
3085.000000	96.408681
3084.000000	96.408599
3083.000000	96.407153
3082.000000	96.405471
3081.000000	96.403634
3080.000000	96.400080
3079.000000	96.393254
3078.000000	96.383432
3077.000000	96.373219
3076.000000	96.366084
3075.000000	96.363770
3074.000000	96.365174
3073.000000	96.368322
3072.000000	96.373049
3071.000000	96.380555
3070.000000	96.390765
3069.000000	96.401520
3068.000000	96.410313
3067.000000	96.415447
3066.000000	96.415791
3065.000000	96.411620
3064.000000	96.406262
3063.000000	96.405092
3062.000000	96.411468
3061.000000	96.424370
3060.000000	96.440299
3059.000000	96.456393
3058.000000	96.471227
3057.000000	96.483990
3056.000000	96.494202
3055.000000	96.501705
3054.000000	96.506468
3053.000000	96.508853
3052.000000	96.510471
3051.000000	96.513985
3050.000000	96.521422
3049.000000	96.533048
3048.000000	96.547961
3047.000000	96.565096
3046.000000	96.583374
3045.000000	96.601764
3044.000000	96.619560
3043.000000	96.636064
3042.000000	96.649962
3041.000000	96.660168
3040.000000	96.667550
3039.000000	96.674924
3038.000000	96.684864
3037.000000	96.698071
3036.000000	96.713861
3035.000000	96.730835
3034.000000	96.746677
3033.000000	96.758933
3032.000000	96.767241
3031.000000	96.774322
3030.000000	96.783793
3029.000000	96.797284
3028.000000	96.813875
3027.000000	96.831071
3026.000000	96.845748
3025.000000	96.855563
3024.000000	96.861021
3023.000000	96.865699
3022.000000	96.873156
3021.000000	96.883477
3020.000000	96.893404
3019.000000	96.900058
3018.000000	96.904254
3017.000000	96.910147
3016.000000	96.921386
3015.000000	96.937392
3014.000000	96.953446
3013.000000	96.964900
3012.000000	96.971008
3011.000000	96.974418
3010.000000	96.977635
3009.000000	96.981019
3008.000000	96.983684
3007.000000	96.984705
3006.000000	96.983496
3005.000000	96.980631
3004.000000	96.978814
3003.000000	96.981568
3002.000000	96.989916
3001.000000	97.000872
3000.000000	97.009844
2999.000000	97.014006
2998.000000	97.013294
2997.000000	97.009275
2996.000000	97.004001
2995.000000	96.999454
2994.000000	96.996858
2993.000000	96.995942
2992.000000	96.994827
2991.000000	96.990813
2990.000000	96.981973
2989.000000	96.968674
2988.000000	96.953537
2987.000000	96.939471
2986.000000	96.927898
2985.000000	96.919030
2984.000000	96.912899
2983.000000	96.908906
2982.000000	96.904974
2981.000000	96.898597
2980.000000	96.888945
2979.000000	96.877011
2978.000000	96.864004
2977.000000	96.850859
2976.000000	96.839078
2975.000000	96.830302
2974.000000	96.824419
2973.000000	96.819308
2972.000000	96.812948
2971.000000	96.805021
2970.000000	96.796149
2969.000000	96.786508
2968.000000	96.775601
2967.000000	96.762863
2966.000000	96.748443
2965.000000	96.733781
2964.000000	96.720853
2963.000000	96.710095
2962.000000	96.699934
2961.000000	96.689715
2960.000000	96.681973
2959.000000	96.679459
2958.000000	96.680491
2957.000000	96.679888
2956.000000	96.674948
2955.000000	96.667940
2954.000000	96.662225
2953.000000	96.658769
2952.000000	96.657666
2951.000000	96.660266
2950.000000	96.667143
2949.000000	96.675388
2948.000000	96.680397
2947.000000	96.679912
2946.000000	96.674872
2945.000000	96.666916
2944.000000	96.656935
2943.000000	96.645726
2942.000000	96.634421
2941.000000	96.623649
2940.000000	96.612863
2939.000000	96.600542
2938.000000	96.584765
2937.000000	96.564255
2936.000000	96.539693
2935.000000	96.513910
2934.000000	96.490127
2933.000000	96.469606
2932.000000	96.450677
2931.000000	96.429598
2930.000000	96.402954
2929.000000	96.370657
2928.000000	96.337060
2927.000000	96.307642
2926.000000	96.283635
2925.000000	96.260564
2924.000000	96.233033
2923.000000	96.200431
2922.000000	96.167713
2921.000000	96.141414
2920.000000	96.126032
2919.000000	96.123277
2918.000000	96.133436
2917.000000	96.156906
2916.000000	96.194402
2915.000000	96.245485
2914.000000	96.306644
2913.000000	96.371712
2912.000000	96.434792
2911.000000	96.492965
2910.000000	96.546291
2909.000000	96.595831
2908.000000	96.642194
2907.000000	96.684844
2906.000000	96.722354
2905.000000	96.753405
2904.000000	96.778238
2903.000000	96.798765
2902.000000	96.817019
2901.000000	96.832956
2900.000000	96.845937
2899.000000	96.855990
2898.000000	96.865062
2897.000000	96.876076
2896.000000	96.890536
2895.000000	96.906799
2894.000000	96.921215
2893.000000	96.931695
2892.000000	96.939784
2891.000000	96.948446
2890.000000	96.958052
2889.000000	96.965774
2888.000000	96.968903
2887.000000	96.967703
2886.000000	96.964815
2885.000000	96.963004
2884.000000	96.963678
2883.000000	96.966587
2882.000000	96.970333
2881.000000	96.973740
2880.000000	96.976867
2879.000000	96.979948
2878.000000	96.981641
2877.000000	96.979752
2876.000000	96.974104
2875.000000	96.967407
2874.000000	96.962740
2873.000000	96.961210
2872.000000	96.962570
2871.000000	96.966799
2870.000000	96.974008
2869.000000	96.983483
2868.000000	96.993725
2867.000000	97.003118
2866.000000	97.010376
2865.000000	97.015125
2864.000000	97.018098
2863.000000	97.019681
2862.000000	97.017965
2861.000000	97.009854
2860.000000	96.994870
2859.000000	96.976164
2858.000000	96.956663
2857.000000	96.935529
2856.000000	96.909948
2855.000000	96.879126
2854.000000	96.844956
2853.000000	96.809701
2852.000000	96.775581
2851.000000	96.747303
2850.000000	96.733061
2849.000000	96.741442
2848.000000	96.776004
2847.000000	96.832009
2846.000000	96.898037
2845.000000	96.962055
2844.000000	97.017382
2843.000000	97.063824
2842.000000	97.103777
2841.000000	97.138299
2840.000000	97.167267
2839.000000	97.191233
2838.000000	97.211512
2837.000000	97.229091
2836.000000	97.244725
2835.000000	97.259475
2834.000000	97.273668
2833.000000	97.285695
2832.000000	97.293423
2831.000000	97.297001
2830.000000	97.299134
2829.000000	97.302583
2828.000000	97.308390
2827.000000	97.316456
2826.000000	97.326494
2825.000000	97.337694
2824.000000	97.348234
2823.000000	97.355900
2822.000000	97.359300
2821.000000	97.358673
2820.000000	97.355919
2819.000000	97.353622
2818.000000	97.353433
2817.000000	97.355347
2816.000000	97.358842
2815.000000	97.364159
2814.000000	97.371597
2813.000000	97.379841
2812.000000	97.386241
2811.000000	97.389181
2810.000000	97.389441
2809.000000	97.389029
2808.000000	97.389361
2807.000000	97.390903
2806.000000	97.393572
2805.000000	97.396776
2804.000000	97.399415
2803.000000	97.400532
2802.000000	97.399989
2801.000000	97.398510
2800.000000	97.397442
2799.000000	97.398522
2798.000000	97.402985
2797.000000	97.410258
2796.000000	97.417975
2795.000000	97.424104
2794.000000	97.428810
2793.000000	97.433497
2792.000000	97.438353
2791.000000	97.442082
2790.000000	97.444413
2789.000000	97.447625
2788.000000	97.454242
2787.000000	97.463525
2786.000000	97.471577
2785.000000	97.475337
2784.000000	97.475790
2783.000000	97.476734
2782.000000	97.480893
2781.000000	97.487704
2780.000000	97.494392
2779.000000	97.498491
2778.000000	97.499625
2777.000000	97.499722
2776.000000	97.501756
2775.000000	97.507605
2774.000000	97.516692
2773.000000	97.526809
2772.000000	97.536261
2771.000000	97.544801
2770.000000	97.552412
2769.000000	97.557947
2768.000000	97.559655
2767.000000	97.557044
2766.000000	97.551906
2765.000000	97.547428
2764.000000	97.546307
2763.000000	97.549396
2762.000000	97.555508
2761.000000	97.562207
2760.000000	97.567199
2759.000000	97.569721
2758.000000	97.571033
2757.000000	97.573208
2756.000000	97.577052
2755.000000	97.581375
2754.000000	97.584756
2753.000000	97.587643
2752.000000	97.591872
2751.000000	97.598008
2750.000000	97.604235
2749.000000	97.608451
2748.000000	97.610840
2747.000000	97.613516
2746.000000	97.617866
2745.000000	97.622936
2744.000000	97.626473
2743.000000	97.627293
2742.000000	97.626784
2741.000000	97.628130
2740.000000	97.633375
2739.000000	97.640823
2738.000000	97.645982
2737.000000	97.645898
2736.000000	97.642225
2735.000000	97.639476
2734.000000	97.640719
2733.000000	97.645609
2732.000000	97.651751
2731.000000	97.656654
2730.000000	97.658679
2729.000000	97.657791
2728.000000	97.655905
2727.000000	97.655430
2726.000000	97.656911
2725.000000	97.658794
2724.000000	97.659895
2723.000000	97.661253
2722.000000	97.664870
2721.000000	97.671101
2720.000000	97.677957
2719.000000	97.683007
2718.000000	97.685806
2717.000000	97.688515
2716.000000	97.693861
2715.000000	97.701980
2714.000000	97.709497
2713.000000	97.712425
2712.000000	97.709964
2711.000000	97.704842
2710.000000	97.700192
2709.000000	97.697135
2708.000000	97.695483
2707.000000	97.695452
2706.000000	97.697781
2705.000000	97.702769
2704.000000	97.709895
2703.000000	97.717961
2702.000000	97.725067
2701.000000	97.728997
2700.000000	97.728594
2699.000000	97.725023
2698.000000	97.721411
2697.000000	97.720894
2696.000000	97.724531
2695.000000	97.730503
2694.000000	97.735390
2693.000000	97.736852
2692.000000	97.735524
2691.000000	97.734191
2690.000000	97.735147
2689.000000	97.738588
2688.000000	97.743206
2687.000000	97.747538
2686.000000	97.750736
2685.000000	97.752785
2684.000000	97.754223
2683.000000	97.755142
2682.000000	97.754534
2681.000000	97.751446
2680.000000	97.746899
2679.000000	97.743677
2678.000000	97.743690
2677.000000	97.746202
2676.000000	97.749021
2675.000000	97.750752
2674.000000	97.751532
2673.000000	97.752387
2672.000000	97.754430
2671.000000	97.758025
2670.000000	97.762092
2669.000000	97.764712
2668.000000	97.764983
2667.000000	97.763710
2666.000000	97.761747
2665.000000	97.758474
2664.000000	97.752975
2663.000000	97.746307
2662.000000	97.741482
2661.000000	97.741112
2660.000000	97.745624
2659.000000	97.753344
2658.000000	97.761323
2657.000000	97.766280
2656.000000	97.766433
2655.000000	97.763379
2654.000000	97.761345
2653.000000	97.763517
2652.000000	97.769220
2651.000000	97.775331
2650.000000	97.779964
2649.000000	97.783728
2648.000000	97.787524
2647.000000	97.790751
2646.000000	97.792617
2645.000000	97.794145
2644.000000	97.797265
2643.000000	97.802126
2642.000000	97.806812
2641.000000	97.809909
2640.000000	97.812006
2639.000000	97.814123
2638.000000	97.816248
2637.000000	97.818594
2636.000000	97.822970
2635.000000	97.830919
2634.000000	97.840924
2633.000000	97.849444
2632.000000	97.854955
2631.000000	97.859483
2630.000000	97.865586
2629.000000	97.873166
2628.000000	97.879827
2627.000000	97.883342
2626.000000	97.883186
2625.000000	97.880668
2624.000000	97.878384
2623.000000	97.878683
2622.000000	97.881776
2621.000000	97.885763
2620.000000	97.889181
2619.000000	97.893084
2618.000000	97.899959
2617.000000	97.910649
2616.000000	97.922579
2615.000000	97.930980
2614.000000	97.932295
2613.000000	97.927459
2612.000000	97.922041
2611.000000	97.921988
2610.000000	97.928486
2609.000000	97.937527
2608.000000	97.944693
2607.000000	97.949504
2606.000000	97.954603
2605.000000	97.961952
2604.000000	97.970887
2603.000000	97.979071
2602.000000	97.984214
2601.000000	97.985204
2600.000000	97.982595
2599.000000	97.978013
2598.000000	97.972671
2597.000000	97.966969
2596.000000	97.962043
2595.000000	97.960585
2594.000000	97.964751
2593.000000	97.973443
2592.000000	97.982890
2591.000000	97.990094
2590.000000	97.994975
2589.000000	97.999332
2588.000000	98.004681
2587.000000	98.011175
2586.000000	98.017551
2585.000000	98.021858
2584.000000	98.023104
2583.000000	98.022477
2582.000000	98.021978
2581.000000	98.021566
2580.000000	98.018759
2579.000000	98.012217
2578.000000	98.005174
2577.000000	98.003711
2576.000000	98.010987
2575.000000	98.023569
2574.000000	98.034050
2573.000000	98.037303
2572.000000	98.034214
2571.000000	98.029780
2570.000000	98.028131
2569.000000	98.029475
2568.000000	98.031380
2567.000000	98.032389
2566.000000	98.033730
2565.000000	98.037136
2564.000000	98.041405
2563.000000	98.042559
2562.000000	98.038509
2561.000000	98.032821
2560.000000	98.032145
2559.000000	98.039303
2558.000000	98.050343
2557.000000	98.059120
2556.000000	98.063600
2555.000000	98.066453
2554.000000	98.070671
2553.000000	98.076353
2552.000000	98.081036
2551.000000	98.081204
2550.000000	98.074070
2549.000000	98.060896
2548.000000	98.049213
2547.000000	98.048666
2546.000000	98.061852
2545.000000	98.080514
2544.000000	98.093045
2543.000000	98.095531
2542.000000	98.093574
2541.000000	98.094197
2540.000000	98.098512
2539.000000	98.102801
2538.000000	98.103616
2537.000000	98.099795
2536.000000	98.091120
2535.000000	98.078008
2534.000000	98.062944
2533.000000	98.050476
2532.000000	98.044463
2531.000000	98.045316
2530.000000	98.050129
2529.000000	98.055294
2528.000000	98.059221
2527.000000	98.063092
2526.000000	98.068919
2525.000000	98.076236
2524.000000	98.081040
2523.000000	98.078995
2522.000000	98.070219
2521.000000	98.060198
2520.000000	98.055539
2519.000000	98.058856
2518.000000	98.067443
2517.000000	98.075832
2516.000000	98.079933
2515.000000	98.080296
2514.000000	98.081814
2513.000000	98.088259
2512.000000	98.096055
2511.000000	98.096005
2510.000000	98.083701
2509.000000	98.066595
2508.000000	98.057191
2507.000000	98.059683
2506.000000	98.067086
2505.000000	98.071751
2504.000000	98.074234
2503.000000	98.079411
2502.000000	98.087611
2501.000000	98.094162
2500.000000	98.096421
2499.000000	98.097163
2498.000000	98.100215
2497.000000	98.105811
2496.000000	98.111546
2495.000000	98.115901
2494.000000	98.119154
2493.000000	98.121831
2492.000000	98.124037
2491.000000	98.126189
2490.000000	98.129044
2489.000000	98.132327
2488.000000	98.134063
2487.000000	98.132542
2486.000000	98.129350
2485.000000	98.129489
2484.000000	98.137044
2483.000000	98.150357
2482.000000	98.162466
2481.000000	98.166880
2480.000000	98.163101
2479.000000	98.156576
2478.000000	98.153899
2477.000000	98.157901
2476.000000	98.166302
2475.000000	98.174393
2474.000000	98.179170
2473.000000	98.180923
2472.000000	98.180849
2471.000000	98.178155
2470.000000	98.171267
2469.000000	98.161879
2468.000000	98.155647
2467.000000	98.157371
2466.000000	98.166198
2465.000000	98.176343
2464.000000	98.182078
2463.000000	98.181541
2462.000000	98.176893
2461.000000	98.172219
2460.000000	98.170617
2459.000000	98.171923
2458.000000	98.172882
2457.000000	98.170250
2456.000000	98.164221
2455.000000	98.158722
2454.000000	98.158050
2453.000000	98.163053
2452.000000	98.170386
2451.000000	98.175882
2450.000000	98.179033
2449.000000	98.183459
2448.000000	98.192172
2447.000000	98.202878
2446.000000	98.209197
2445.000000	98.206545
2444.000000	98.196084
2443.000000	98.183465
2442.000000	98.175013
2441.000000	98.174503
2440.000000	98.181073
2439.000000	98.189343
2438.000000	98.192880
2437.000000	98.188894
2436.000000	98.179626
2435.000000	98.170035
2434.000000	98.165165
2433.000000	98.168342
2432.000000	98.178647
2431.000000	98.189863
2430.000000	98.194897
2429.000000	98.192620
2428.000000	98.188573
2427.000000	98.188118
2426.000000	98.191417
2425.000000	98.196439
2424.000000	98.203736
2423.000000	98.215118
2422.000000	98.228684
2421.000000	98.238109
2420.000000	98.237303
2419.000000	98.225239
2418.000000	98.207186
2417.000000	98.192330
2416.000000	98.188594
2415.000000	98.197356
2414.000000	98.212669
2413.000000	98.226358
2412.000000	98.233834
2411.000000	98.235229
2410.000000	98.232907
2409.000000	98.229438
2408.000000	98.226886
2407.000000	98.226129
2406.000000	98.226740
2405.000000	98.227980
2404.000000	98.229511
2403.000000	98.230962
2402.000000	98.231983
2401.000000	98.233102
2400.000000	98.235220
2399.000000	98.237646
2398.000000	98.238077
2397.000000	98.235330
2396.000000	98.230821
2395.000000	98.226588
2394.000000	98.223155
2393.000000	98.220131
2392.000000	98.217256
2391.000000	98.214116
2390.000000	98.210076
2389.000000	98.205393
2388.000000	98.201509
2387.000000	98.199131
2386.000000	98.198552
2385.000000	98.201712
2384.000000	98.211288
2383.000000	98.227102
2382.000000	98.243936
2381.000000	98.256075
2380.000000	98.260788
2379.000000	98.256537
2378.000000	98.241973
2377.000000	98.219772
2376.000000	98.199314
2375.000000	98.190576
2374.000000	98.197317
2373.000000	98.217333
2372.000000	98.245276
2371.000000	98.271229
2370.000000	98.283369
2369.000000	98.279790
2368.000000	98.270482
2367.000000	98.264777
2366.000000	98.260666
2365.000000	98.250734
2364.000000	98.232387
2363.000000	98.206698
2362.000000	98.177287
2361.000000	98.153559
2360.000000	98.144125
2359.000000	98.147294
2358.000000	98.155699
2357.000000	98.167094
2356.000000	98.180967
2355.000000	98.189509
2354.000000	98.195089
2353.000000	98.208493
2352.000000	98.228581
2351.000000	98.238528
2350.000000	98.229036
2349.000000	98.205549
2348.000000	98.180630
2347.000000	98.167762
2346.000000	98.170598
2345.000000	98.174642
2344.000000	98.165094
2343.000000	98.144396
2342.000000	98.125972
2341.000000	98.119281
2340.000000	98.122310
2339.000000	98.127304
2338.000000	98.131174
2337.000000	98.137096
2336.000000	98.144403
2335.000000	98.150307
2334.000000	98.156978
2333.000000	98.172427
2332.000000	98.193311
2331.000000	98.208616
2330.000000	98.208925
2329.000000	98.197353
2328.000000	98.176783
2327.000000	98.149050
2326.000000	98.116660
2325.000000	98.087990
2324.000000	98.071330
2323.000000	98.069608
2322.000000	98.075996
2321.000000	98.079971
2320.000000	98.074438
2319.000000	98.063124
2318.000000	98.053550
2317.000000	98.053821
2316.000000	98.065889
2315.000000	98.087947
2314.000000	98.110757
2313.000000	98.125776
2312.000000	98.129846
2311.000000	98.129847
2310.000000	98.132533
2309.000000	98.140251
2308.000000	98.151759
2307.000000	98.168100
2306.000000	98.187517
2305.000000	98.202982
2304.000000	98.206992
2303.000000	98.201634
2302.000000	98.194995
2301.000000	98.192257
2300.000000	98.191238
2299.000000	98.190576
2298.000000	98.191522
2297.000000	98.195329
2296.000000	98.197492
2295.000000	98.192715
2294.000000	98.179464
2293.000000	98.161860
2292.000000	98.145720
2291.000000	98.135882
2290.000000	98.133960
2289.000000	98.137343
2288.000000	98.140747
2287.000000	98.140155
2286.000000	98.136102
2285.000000	98.132979
2284.000000	98.136753
2283.000000	98.150890
2282.000000	98.173398
2281.000000	98.197297
2280.000000	98.216850
2279.000000	98.232236
2278.000000	98.246153
2277.000000	98.256938
2276.000000	98.258716
2275.000000	98.249612
2274.000000	98.235941
2273.000000	98.226414
2272.000000	98.223970
2271.000000	98.225959
2270.000000	98.229651
2269.000000	98.234237
2268.000000	98.238153
2267.000000	98.239104
2266.000000	98.238205
2265.000000	98.241330
2264.000000	98.253574
2263.000000	98.272727
2262.000000	98.289798
2261.000000	98.295721
2260.000000	98.287708
2259.000000	98.270473
2258.000000	98.253712
2257.000000	98.247854
2256.000000	98.258944
2255.000000	98.284045
2254.000000	98.311790
2253.000000	98.329802
2252.000000	98.332986
2251.000000	98.324824
2250.000000	98.311544
2249.000000	98.297544
2248.000000	98.286547
2247.000000	98.283020
2246.000000	98.290662
2245.000000	98.308345
2244.000000	98.328888
2243.000000	98.342661
2242.000000	98.343819
2241.000000	98.334951
2240.000000	98.326127
2239.000000	98.327247
2238.000000	98.340363
2237.000000	98.359744
2236.000000	98.378526
2235.000000	98.392504
2234.000000	98.398034
2233.000000	98.391839
2232.000000	98.376790
2231.000000	98.363754
2230.000000	98.361807
2229.000000	98.367504
2228.000000	98.369001
2227.000000	98.360713
2226.000000	98.348286
2225.000000	98.337831
2224.000000	98.326865
2223.000000	98.310387
2222.000000	98.291269
2221.000000	98.278706
2220.000000	98.278324
2219.000000	98.289442
2218.000000	98.309743
2217.000000	98.334675
2216.000000	98.353198
2215.000000	98.354662
2214.000000	98.344305
2213.000000	98.343197
2212.000000	98.364433
2211.000000	98.394121
2210.000000	98.405177
2209.000000	98.388046
2208.000000	98.359439
2207.000000	98.340862
2206.000000	98.337279
2205.000000	98.339645
2204.000000	98.339579
2203.000000	98.336162
2202.000000	98.333560
2201.000000	98.338193
2200.000000	98.356371
2199.000000	98.388740
2198.000000	98.425756
2197.000000	98.450357
2196.000000	98.447964
2195.000000	98.416781
2194.000000	98.370652
2193.000000	98.330339
2192.000000	98.307509
2191.000000	98.297531
2190.000000	98.291795
2189.000000	98.293245
2188.000000	98.311130
2187.000000	98.340915
2186.000000	98.362398
2185.000000	98.364985
2184.000000	98.365565
2183.000000	98.389080
2182.000000	98.433702
2181.000000	98.467454
2180.000000	98.462266
2179.000000	98.423590
2178.000000	98.382658
2177.000000	98.366350
2176.000000	98.377145
2175.000000	98.397031
2174.000000	98.405798
2173.000000	98.395346
2172.000000	98.370344
2171.000000	98.341161
2170.000000	98.318771
2169.000000	98.312831
2168.000000	98.328316
2167.000000	98.362016
2166.000000	98.403211
2165.000000	98.436576
2164.000000	98.445629
2163.000000	98.422132
2162.000000	98.382055
2161.000000	98.369115
2160.000000	98.424108
2159.000000	98.536702
2158.000000	98.642622
2157.000000	98.688264
2156.000000	98.682732
2155.000000	98.671305
2154.000000	98.679789
2153.000000	98.696589
2152.000000	98.695216
2151.000000	98.663263
2150.000000	98.612022
2149.000000	98.564908
2148.000000	98.539155
2147.000000	98.536481
2146.000000	98.547881
2145.000000	98.563263
2144.000000	98.575304
2143.000000	98.578843
2142.000000	98.572051
2141.000000	98.558842
2140.000000	98.546912
2139.000000	98.542364
2138.000000	98.547190
2137.000000	98.559929
2136.000000	98.575695
2135.000000	98.587640
2134.000000	98.592388
2133.000000	98.593184
2132.000000	98.594292
2131.000000	98.593624
2130.000000	98.585354
2129.000000	98.568677
2128.000000	98.548854
2127.000000	98.529266
2126.000000	98.507697
2125.000000	98.482234
2124.000000	98.456007
2123.000000	98.433383
2122.000000	98.415683
2121.000000	98.403886
2120.000000	98.401611
2119.000000	98.410754
2118.000000	98.425759
2117.000000	98.435812
2116.000000	98.432661
2115.000000	98.415069
2114.000000	98.387625
2113.000000	98.358582
2112.000000	98.337193
2111.000000	98.328892
2110.000000	98.331760
2109.000000	98.338918
2108.000000	98.344851
2107.000000	98.349750
2106.000000	98.358253
2105.000000	98.373678
2104.000000	98.392311
2103.000000	98.404031
2102.000000	98.401516
2101.000000	98.388895
2100.000000	98.377542
2099.000000	98.372569
2098.000000	98.368560
2097.000000	98.360958
2096.000000	98.356248
2095.000000	98.364721
2094.000000	98.385795
2093.000000	98.406073
2092.000000	98.411440
2091.000000	98.398082
2090.000000	98.373732
2089.000000	98.351872
2088.000000	98.343096
2087.000000	98.348194
2086.000000	98.360105
2085.000000	98.372874
2084.000000	98.385718
2083.000000	98.396776
2082.000000	98.398334
2081.000000	98.384940
2080.000000	98.364586
2079.000000	98.355422
2078.000000	98.369984
2077.000000	98.405311
2076.000000	98.447287
2075.000000	98.480910
2074.000000	98.497433
2073.000000	98.497087
2072.000000	98.486662
2071.000000	98.471624
2070.000000	98.451073
2069.000000	98.423326
2068.000000	98.394695
2067.000000	98.377648
2066.000000	98.380273
2065.000000	98.400360
2064.000000	98.429485
2063.000000	98.459928
2062.000000	98.486299
2061.000000	98.503631
2060.000000	98.506085
2059.000000	98.488534
2058.000000	98.452418
2057.000000	98.411379
2056.000000	98.385433
2055.000000	98.383078
2054.000000	98.391949
2053.000000	98.393266
2052.000000	98.384060
2051.000000	98.379620
2050.000000	98.395879
2049.000000	98.434004
2048.000000	98.481323
2047.000000	98.523016
2046.000000	98.550518
2045.000000	98.563368
2044.000000	98.569659
2043.000000	98.582045
2042.000000	98.607841
2041.000000	98.642547
2040.000000	98.674025
2039.000000	98.691200
2038.000000	98.688823
2037.000000	98.669849
2036.000000	98.646121
2035.000000	98.633837
2034.000000	98.646245
2033.000000	98.688207
2032.000000	98.750004
2031.000000	98.803941
2030.000000	98.815649
2029.000000	98.771365
2028.000000	98.697452
2027.000000	98.642248
2026.000000	98.635318
2025.000000	98.668677
2024.000000	98.714381
2023.000000	98.754057
2022.000000	98.787635
2021.000000	98.819064
2020.000000	98.842762
2019.000000	98.845813
2018.000000	98.820763
2017.000000	98.776225
2016.000000	98.734284
2015.000000	98.712905
2014.000000	98.712811
2013.000000	98.721814
2012.000000	98.727249
2011.000000	98.725788
2010.000000	98.725983
2009.000000	98.741999
2008.000000	98.778287
2007.000000	98.817098
2006.000000	98.828767
2005.000000	98.799730
2004.000000	98.747407
2003.000000	98.702679
2002.000000	98.681509
2001.000000	98.676449
2000.000000	98.669205
1999.000000	98.648544
1998.000000	98.620997
1997.000000	98.607158
1996.000000	98.623994
1995.000000	98.668711
1994.000000	98.719853
1993.000000	98.751171
1992.000000	98.746571
1991.000000	98.708714
1990.000000	98.656590
1989.000000	98.616115
1988.000000	98.605834
1987.000000	98.623014
1986.000000	98.646428
1985.000000	98.656753
1984.000000	98.650229
1983.000000	98.629887
1982.000000	98.593549
1981.000000	98.543862
1980.000000	98.507614
1979.000000	98.527470
1978.000000	98.620141
1977.000000	98.742615
1976.000000	98.820238
1975.000000	98.819283
1974.000000	98.773893
1973.000000	98.741274
1972.000000	98.746524
1971.000000	98.775802
1970.000000	98.810168
1969.000000	98.845957
1968.000000	98.881548
1967.000000	98.903621
1966.000000	98.898473
1965.000000	98.868062
1964.000000	98.825086
1963.000000	98.781571
1962.000000	98.751134
1961.000000	98.749047
1960.000000	98.775225
1959.000000	98.805603
1958.000000	98.814687
1957.000000	98.801846
1956.000000	98.785056
1955.000000	98.774783
1954.000000	98.765880
1953.000000	98.750813
1952.000000	98.728842
1951.000000	98.703948
1950.000000	98.685684
1949.000000	98.691535
1948.000000	98.733805
1947.000000	98.799012
1946.000000	98.851602
1945.000000	98.864637
1944.000000	98.840169
1943.000000	98.797563
1942.000000	98.752356
1941.000000	98.713297
1940.000000	98.687386
1939.000000	98.677214
1938.000000	98.679822
1937.000000	98.690783
1936.000000	98.706039
1935.000000	98.719222
1934.000000	98.722006
1933.000000	98.711416
1932.000000	98.694341
1931.000000	98.679674
1930.000000	98.668540
1929.000000	98.657910
1928.000000	98.649610
1927.000000	98.648529
1926.000000	98.654322
1925.000000	98.660270
1924.000000	98.659853
1923.000000	98.651863
1922.000000	98.641502
1921.000000	98.638414
1920.000000	98.648715
1919.000000	98.667043
1918.000000	98.677377
1917.000000	98.668776
1916.000000	98.650458
1915.000000	98.637430
1914.000000	98.633800
1913.000000	98.637875
1912.000000	98.650836
1911.000000	98.672959
1910.000000	98.694671
1909.000000	98.701522
1908.000000	98.690281
1907.000000	98.670392
1906.000000	98.650685
1905.000000	98.634859
1904.000000	98.627651
1903.000000	98.635020
1902.000000	98.656190
1901.000000	98.681606
1900.000000	98.699518
1899.000000	98.702643
1898.000000	98.690427
1897.000000	98.669248
1896.000000	98.650656
1895.000000	98.644207
1894.000000	98.650464
1893.000000	98.663528
1892.000000	98.677667
1891.000000	98.689173
1890.000000	98.695816
1889.000000	98.698273
1888.000000	98.700645
1887.000000	98.701791
1886.000000	98.693215
1885.000000	98.672775
1884.000000	98.651968
1883.000000	98.642992
1882.000000	98.644830
1881.000000	98.649445
1880.000000	98.653828
1879.000000	98.658768
1878.000000	98.663038
1877.000000	98.666872
1876.000000	98.676396
1875.000000	98.695382
1874.000000	98.715821
1873.000000	98.725265
1872.000000	98.722574
1871.000000	98.718400
1870.000000	98.721137
1869.000000	98.726412
1868.000000	98.726363
1867.000000	98.724384
1866.000000	98.724326
1865.000000	98.723018
1864.000000	98.718114
1863.000000	98.710618
1862.000000	98.700116
1861.000000	98.685135
1860.000000	98.669460
1859.000000	98.661155
1858.000000	98.663677
1857.000000	98.673427
1856.000000	98.684928
1855.000000	98.692801
1854.000000	98.692446
1853.000000	98.684796
1852.000000	98.678045
1851.000000	98.678893
1850.000000	98.685487
1849.000000	98.692804
1848.000000	98.699975
1847.000000	98.708214
1846.000000	98.715193
1845.000000	98.719295
1844.000000	98.724410
1843.000000	98.732501
1842.000000	98.737719
1841.000000	98.733863
1840.000000	98.722270
1839.000000	98.710158
1838.000000	98.702081
1837.000000	98.695955
1836.000000	98.689881
1835.000000	98.686273
1834.000000	98.687197
1833.000000	98.691403
1832.000000	98.696217
1831.000000	98.700506
1830.000000	98.701796
1829.000000	98.695552
1828.000000	98.685036
1827.000000	98.676982
1826.000000	98.673927
1825.000000	98.675711
1824.000000	98.682897
1823.000000	98.696849
1822.000000	98.712922
1821.000000	98.722546
1820.000000	98.724046
1819.000000	98.725906
1818.000000	98.735163
1817.000000	98.747092
1816.000000	98.752341
1815.000000	98.748052
1814.000000	98.736394
1813.000000	98.720171
1812.000000	98.703940
1811.000000	98.694942
1810.000000	98.694814
1809.000000	98.695781
1808.000000	98.693193
1807.000000	98.690597
1806.000000	98.689365
1805.000000	98.684994
1804.000000	98.676401
1803.000000	98.669640
1802.000000	98.667855
1801.000000	98.663372
1800.000000	98.649921
1799.000000	98.634128
1798.000000	98.622713
1797.000000	98.615729
1796.000000	98.614970
1795.000000	98.624450
1794.000000	98.642559
1793.000000	98.660165
1792.000000	98.666831
1791.000000	98.663983
1790.000000	98.661394
1789.000000	98.660110
1788.000000	98.657313
1787.000000	98.656453
1786.000000	98.663742
1785.000000	98.678943
1784.000000	98.696700
1783.000000	98.713102
1782.000000	98.725973
1781.000000	98.734301
1780.000000	98.740304
1779.000000	98.748051
1778.000000	98.757022
1777.000000	98.764050
1776.000000	98.770652
1775.000000	98.779441
1774.000000	98.787391
1773.000000	98.790153
1772.000000	98.787171
1771.000000	98.784188
1770.000000	98.786134
1769.000000	98.786491
1768.000000	98.777448
1767.000000	98.764154
1766.000000	98.756957
1765.000000	98.754955
1764.000000	98.750486
1763.000000	98.743165
1762.000000	98.740312
1761.000000	98.744274
1760.000000	98.751075
1759.000000	98.757812
1758.000000	98.762101
1757.000000	98.762398
1756.000000	98.760199
1755.000000	98.761204
1754.000000	98.769361
1753.000000	98.782658
1752.000000	98.798086
1751.000000	98.811067
1750.000000	98.814766
1749.000000	98.808202
1748.000000	98.795583
1747.000000	98.781696
1746.000000	98.769272
1745.000000	98.757817
1744.000000	98.746137
1743.000000	98.736876
1742.000000	98.733923
1741.000000	98.735359
1740.000000	98.737504
1739.000000	98.743882
1738.000000	98.760788
1737.000000	98.785730
1736.000000	98.810184
1735.000000	98.836874
1734.000000	98.870748
1733.000000	98.895525
1732.000000	98.909494
1731.000000	98.921096
1730.000000	98.928491
1729.000000	98.929190
1728.000000	98.927582
1727.000000	98.928741
1726.000000	98.932211
1725.000000	98.934430
1724.000000	98.934363
1723.000000	98.934517
1722.000000	98.935797
1721.000000	98.933578
1720.000000	98.924118
1719.000000	98.914484
1718.000000	98.914411
1717.000000	98.900625
1716.000000	98.855874
1715.000000	98.802671
1714.000000	98.751552
1713.000000	98.696455
1712.000000	98.637461
1711.000000	98.580012
1710.000000	98.524069
1709.000000	98.462681
1708.000000	98.390450
1707.000000	98.307549
1706.000000	98.214463
1705.000000	98.115606
1704.000000	98.030996
1703.000000	97.969828
1702.000000	97.898044
1701.000000	97.762435
1700.000000	97.579490
1699.000000	97.451166
1698.000000	97.389293
1697.000000	97.306020
1696.000000	97.143233
1695.000000	96.955143
1694.000000	96.820136
1693.000000	96.728761
1692.000000	96.640413
1691.000000	96.537353
1690.000000	96.424532
1689.000000	96.315638
1688.000000	96.223259
1687.000000	96.146610
1686.000000	96.050704
1685.000000	95.876384
1684.000000	95.614694
1683.000000	95.375719
1682.000000	95.222745
1681.000000	95.098404
1680.000000	94.954888
1679.000000	94.797915
1678.000000	94.640227
1677.000000	94.457748
1676.000000	94.213688
1675.000000	93.927637
1674.000000	93.676185
1673.000000	93.485296
1672.000000	93.310711
1671.000000	93.100825
1670.000000	92.830933
1669.000000	92.524778
1668.000000	92.245563
1667.000000	92.028732
1666.000000	91.855279
1665.000000	91.677987
1664.000000	91.456409
1663.000000	91.191115
1662.000000	90.926778
1661.000000	90.701096
1660.000000	90.512465
1659.000000	90.346621
1658.000000	90.201486
1657.000000	90.081614
1656.000000	89.986252
1655.000000	89.889244
1654.000000	89.726928
1653.000000	89.455278
1652.000000	89.225556
1651.000000	89.143717
1650.000000	89.141492
1649.000000	89.142055
1648.000000	89.097749
1647.000000	88.997608
1646.000000	88.885759
1645.000000	88.811495
1644.000000	88.771424
1643.000000	88.745487
1642.000000	88.720090
1641.000000	88.685716
1640.000000	88.645207
1639.000000	88.613337
1638.000000	88.591105
1637.000000	88.543232
1636.000000	88.422335
1635.000000	88.255340
1634.000000	88.137453
1633.000000	88.089280
1632.000000	88.074417
1631.000000	88.067214
1630.000000	88.061329
1629.000000	88.058984
1628.000000	88.068010
1627.000000	88.100989
1626.000000	88.168143
1625.000000	88.270645
1624.000000	88.404363
1623.000000	88.562516
1622.000000	88.734241
1621.000000	88.915149
1620.000000	89.107307
1619.000000	89.313935
1618.000000	89.542801
1617.000000	89.798830
1616.000000	90.059144
1615.000000	90.293664
1614.000000	90.507065
1613.000000	90.720425
1612.000000	90.941793
1611.000000	91.163122
1610.000000	91.374586
1609.000000	91.580710
1608.000000	91.790043
1607.000000	91.996339
1606.000000	92.188429
1605.000000	92.369694
1604.000000	92.548813
1603.000000	92.720839
1602.000000	92.874747
1601.000000	93.012631
1600.000000	93.142178
1599.000000	93.260107
1598.000000	93.361285
1597.000000	93.453308
1596.000000	93.545907
1595.000000	93.633384
1594.000000	93.704614
1593.000000	93.763310
1592.000000	93.818442
1591.000000	93.864691
1590.000000	93.891722
1589.000000	93.904347
1588.000000	93.912179
1587.000000	93.908916
1586.000000	93.884015
1585.000000	93.844325
1584.000000	93.802538
1583.000000	93.752624
1582.000000	93.681930
1581.000000	93.601734
1580.000000	93.536685
1579.000000	93.487966
1578.000000	93.428137
1577.000000	93.329876
1576.000000	93.196594
1575.000000	93.062393
1574.000000	92.956877
1573.000000	92.881391
1572.000000	92.812016
1571.000000	92.711344
1570.000000	92.556598
1569.000000	92.380743
1568.000000	92.238085
1567.000000	92.123824
1566.000000	91.999476
1565.000000	91.853641
1564.000000	91.712319
1563.000000	91.601111
1562.000000	91.513603
1561.000000	91.415248
1560.000000	91.252097
1559.000000	90.966843
1558.000000	90.643644
1557.000000	90.463329
1556.000000	90.370150
1555.000000	90.268506
1554.000000	90.136972
1553.000000	90.007538
1552.000000	89.902507
1551.000000	89.810037
1550.000000	89.715474
1549.000000	89.628893
1548.000000	89.567373
1547.000000	89.526868
1546.000000	89.494070
1545.000000	89.466921
1544.000000	89.450067
1543.000000	89.445101
1542.000000	89.449443
1541.000000	89.454698
1540.000000	89.452838
1539.000000	89.461208
1538.000000	89.510778
1537.000000	89.595897
1536.000000	89.698367
1535.000000	89.809768
1534.000000	89.929886
1533.000000	90.049908
1532.000000	90.160236
1531.000000	90.267965
1530.000000	90.375639
1529.000000	90.480226
1528.000000	90.584799
1527.000000	90.696620
1526.000000	90.816731
1525.000000	90.936849
1524.000000	91.052098
1523.000000	91.165444
1522.000000	91.274436
1521.000000	91.357072
1520.000000	91.413387
1519.000000	91.475366
1518.000000	91.557326
1517.000000	91.651470
1516.000000	91.744943
1515.000000	91.839405
1514.000000	91.941652
1513.000000	92.047260
1512.000000	92.149127
1511.000000	92.248219
1510.000000	92.351115
1509.000000	92.463174
1508.000000	92.585080
1507.000000	92.698186
1506.000000	92.775771
1505.000000	92.846198
1504.000000	92.922347
1503.000000	93.001265
1502.000000	93.080643
1501.000000	93.153963
1500.000000	93.214597
1499.000000	93.265756
1498.000000	93.317798
1497.000000	93.368750
1496.000000	93.410547
1495.000000	93.454128
1494.000000	93.510567
1493.000000	93.570675
1492.000000	93.622393
1491.000000	93.666626
1490.000000	93.704065
1489.000000	93.717225
1488.000000	93.704852
1487.000000	93.689159
1486.000000	93.677604
1485.000000	93.662650
1484.000000	93.639734
1483.000000	93.608094
1482.000000	93.566640
1481.000000	93.513584
1480.000000	93.453017
1479.000000	93.390053
1478.000000	93.320188
1477.000000	93.237160
1476.000000	93.147585
1475.000000	93.065584
1474.000000	92.981357
1473.000000	92.859574
1472.000000	92.695941
1471.000000	92.547025
1470.000000	92.442880
1469.000000	92.360828
1468.000000	92.276196
1467.000000	92.180432
1466.000000	92.067406
1465.000000	91.931998
1464.000000	91.790769
1463.000000	91.673068
1462.000000	91.582037
1461.000000	91.498414
1460.000000	91.407284
1459.000000	91.298758
1458.000000	91.154929
1457.000000	90.963342
1456.000000	90.778742
1455.000000	90.664232
1454.000000	90.599267
1453.000000	90.544492
1452.000000	90.488035
1451.000000	90.436460
1450.000000	90.392681
1449.000000	90.351786
1448.000000	90.314736
1447.000000	90.292311
1446.000000	90.291003
1445.000000	90.306575
1444.000000	90.332119
1443.000000	90.361970
1442.000000	90.391476
1441.000000	90.419913
1440.000000	90.448384
1439.000000	90.473941
1438.000000	90.494185
1437.000000	90.515086
1436.000000	90.544314
1435.000000	90.584184
1434.000000	90.630388
1433.000000	90.671879
1432.000000	90.700097
1431.000000	90.712491
1430.000000	90.713416
1429.000000	90.711500
1428.000000	90.712901
1427.000000	90.717273
1426.000000	90.720108
1425.000000	90.721674
1424.000000	90.725170
1423.000000	90.730526
1422.000000	90.736119
1421.000000	90.737319
1420.000000	90.731429
1419.000000	90.723034
1418.000000	90.725012
1417.000000	90.749677
1416.000000	90.790770
1415.000000	90.832164
1414.000000	90.864944
1413.000000	90.890800
1412.000000	90.912415
1411.000000	90.928569
1410.000000	90.941637
1409.000000	90.957292
1408.000000	90.974854
1407.000000	90.987949
1406.000000	90.993581
1405.000000	90.996054
1404.000000	90.999978
1403.000000	91.006078
1402.000000	91.013003
1401.000000	91.018514
1400.000000	91.022397
1399.000000	91.026250
1398.000000	91.035903
1397.000000	91.058013
1396.000000	91.090452
1395.000000	91.123726
1394.000000	91.156087
1393.000000	91.196947
1392.000000	91.245719
1391.000000	91.291775
1390.000000	91.330715
1389.000000	91.369108
1388.000000	91.412983
1387.000000	91.457445
1386.000000	91.499000
1385.000000	91.546099
1384.000000	91.602965
1383.000000	91.662583
1382.000000	91.717855
1381.000000	91.769415
1380.000000	91.820812
1379.000000	91.870688
1378.000000	91.917222
1377.000000	91.966252
1376.000000	92.026386
1375.000000	92.098058
1374.000000	92.174305
1373.000000	92.253639
1372.000000	92.340731
1371.000000	92.433966
1370.000000	92.528400
1369.000000	92.628005
1368.000000	92.737682
1367.000000	92.851853
1366.000000	92.962083
1365.000000	93.069238
1364.000000	93.181093
1363.000000	93.297218
1362.000000	93.405233
1361.000000	93.499777
1360.000000	93.584510
1359.000000	93.658522
1358.000000	93.718750
1357.000000	93.767706
1356.000000	93.807892
1355.000000	93.835019
1354.000000	93.844416
1353.000000	93.838110
1352.000000	93.820374
1351.000000	93.791542
1350.000000	93.751612
1349.000000	93.707668
1348.000000	93.664859
1347.000000	93.618199
1346.000000	93.562009
1345.000000	93.501043
1344.000000	93.442962
1343.000000	93.386929
1342.000000	93.328955
1341.000000	93.273729
1340.000000	93.230488
1339.000000	93.200507
1338.000000	93.181625
1337.000000	93.177201
1336.000000	93.189831
1335.000000	93.216922
1334.000000	93.256922
1333.000000	93.313167
1332.000000	93.385733
1331.000000	93.465536
1330.000000	93.543269
1329.000000	93.619084
1328.000000	93.695309
1327.000000	93.765835
1326.000000	93.822059
1325.000000	93.864464
1324.000000	93.896831
1323.000000	93.917524
1322.000000	93.926342
1321.000000	93.932175
1320.000000	93.944112
1319.000000	93.960919
1318.000000	93.977635
1317.000000	93.995646
1316.000000	94.018138
1315.000000	94.044228
1314.000000	94.075291
1313.000000	94.118108
1312.000000	94.173905
1311.000000	94.232778
1310.000000	94.286223
1309.000000	94.336350
1308.000000	94.386370
1307.000000	94.432104
1306.000000	94.469999
1305.000000	94.505830
1304.000000	94.545112
1303.000000	94.584609
1302.000000	94.620303
1301.000000	94.654943
1300.000000	94.690252
1299.000000	94.721221
1298.000000	94.745126
1297.000000	94.766034
1296.000000	94.783861
1295.000000	94.788930
1294.000000	94.776166
1293.000000	94.753160
1292.000000	94.726952
1291.000000	94.694480
1290.000000	94.653406
1289.000000	94.610931
1288.000000	94.572283
1287.000000	94.531646
1286.000000	94.484601
1285.000000	94.438991
1284.000000	94.403308
1283.000000	94.375094
1282.000000	94.350202
1281.000000	94.333985
1280.000000	94.332698
1279.000000	94.340968
1278.000000	94.348859
1277.000000	94.354982
1276.000000	94.363489
1275.000000	94.374705
1274.000000	94.387557
1273.000000	94.404240
1272.000000	94.423496
1271.000000	94.435663
1270.000000	94.433494
1269.000000	94.421721
1268.000000	94.408458
1267.000000	94.394282
1266.000000	94.377109
1265.000000	94.358651
1264.000000	94.338689
1263.000000	94.311507
1262.000000	94.275148
1261.000000	94.236493
1260.000000	94.200117
1259.000000	94.160985
1258.000000	94.115119
1257.000000	94.066738
1256.000000	94.018444
1255.000000	93.964693
1254.000000	93.901931
1253.000000	93.835818
1252.000000	93.771353
1251.000000	93.704904
1250.000000	93.632590
1249.000000	93.557577
1248.000000	93.482559
1247.000000	93.403723
1246.000000	93.319785
1245.000000	93.237914
1244.000000	93.163794
1243.000000	93.093769
1242.000000	93.023655
1241.000000	92.957207
1240.000000	92.899768
1239.000000	92.852033
1238.000000	92.815564
1237.000000	92.796861
1236.000000	92.798681
1235.000000	92.815272
1234.000000	92.843053
1233.000000	92.887052
1232.000000	92.951191
1231.000000	93.030179
1230.000000	93.118279
1229.000000	93.218345
1228.000000	93.333463
1227.000000	93.459403
1226.000000	93.592417
1225.000000	93.735319
1224.000000	93.887460
1223.000000	94.037223
1222.000000	94.174264
1221.000000	94.300424
1220.000000	94.419983
1219.000000	94.528032
1218.000000	94.618734
1217.000000	94.695074
1216.000000	94.760035
1215.000000	94.807270
1214.000000	94.829582
1213.000000	94.830715
1212.000000	94.819306
1211.000000	94.798760
1210.000000	94.770539
1209.000000	94.738190
1208.000000	94.702296
1207.000000	94.659434
1206.000000	94.612635
1205.000000	94.574468
1204.000000	94.554141
1203.000000	94.549928
1202.000000	94.559133
1201.000000	94.586367
1200.000000	94.635297
1199.000000	94.702244
1198.000000	94.782716
1197.000000	94.875140
1196.000000	94.973858
1195.000000	95.068656
1194.000000	95.157203
1193.000000	95.246481
1192.000000	95.337404
1191.000000	95.420880
1190.000000	95.494321
1189.000000	95.567332
1188.000000	95.644122
1187.000000	95.714993
1186.000000	95.772648
1185.000000	95.822805
1184.000000	95.870329
1183.000000	95.910516
1182.000000	95.942945
1181.000000	95.977978
1180.000000	96.019248
1179.000000	96.054152
1178.000000	96.073193
1177.000000	96.083961
1176.000000	96.095537
1175.000000	96.105205
1174.000000	96.110634
1173.000000	96.119913
1172.000000	96.137631
1171.000000	96.154283
1170.000000	96.160930
1169.000000	96.161262
1168.000000	96.159063
1167.000000	96.148283
1166.000000	96.126860
1165.000000	96.106850
1164.000000	96.099217
1163.000000	96.101198
1162.000000	96.108179
1161.000000	96.124150
1160.000000	96.150074
1159.000000	96.176615
1158.000000	96.200282
1157.000000	96.231931
1156.000000	96.278612
1155.000000	96.331414
1154.000000	96.382657
1153.000000	96.439354
1152.000000	96.506703
1151.000000	96.574480
1150.000000	96.633803
1149.000000	96.692185
1148.000000	96.756875
1147.000000	96.818201
1146.000000	96.864592
1145.000000	96.900672
1144.000000	96.936097
1143.000000	96.969741
1142.000000	96.998713
1141.000000	97.029186
1140.000000	97.064312
1139.000000	97.094722
1138.000000	97.113910
1137.000000	97.130396
1136.000000	97.152208
1135.000000	97.172771
1134.000000	97.184355
1133.000000	97.191397
1132.000000	97.199062
1131.000000	97.202881
1130.000000	97.201519
1129.000000	97.204821
1128.000000	97.217085
1127.000000	97.227264
1126.000000	97.227595
1125.000000	97.226467
1124.000000	97.231129
1123.000000	97.234205
1122.000000	97.230206
1121.000000	97.229175
1120.000000	97.239356
1119.000000	97.251263
1118.000000	97.252164
1117.000000	97.243146
1116.000000	97.230281
1115.000000	97.214124
1114.000000	97.198530
1113.000000	97.193495
1112.000000	97.197919
1111.000000	97.196058
1110.000000	97.181510
1109.000000	97.167058
1108.000000	97.159989
1107.000000	97.148456
1106.000000	97.124613
1105.000000	97.100343
1104.000000	97.086208
1103.000000	97.074229
1102.000000	97.056060
1101.000000	97.038933
1100.000000	97.027738
1099.000000	97.013660
1098.000000	96.991731
1097.000000	96.972824
1096.000000	96.961487
1095.000000	96.940877
1094.000000	96.896171
1093.000000	96.835725
1092.000000	96.773220
1091.000000	96.707384
1090.000000	96.633474
1089.000000	96.557188
1088.000000	96.481271
1087.000000	96.395674
1086.000000	96.296416
1085.000000	96.198199
1084.000000	96.115165
1083.000000	96.045757
1082.000000	95.989612
1081.000000	95.959384
1080.000000	95.962182
1079.000000	95.986583
1078.000000	96.023217
1077.000000	96.080389
1076.000000	96.162743
1075.000000	96.253736
1074.000000	96.335039
1073.000000	96.406071
1072.000000	96.469207
1071.000000	96.514856
1070.000000	96.537553
1069.000000	96.548981
1068.000000	96.558867
1067.000000	96.560277
1066.000000	96.548863
1065.000000	96.537655
1064.000000	96.536686
1063.000000	96.536853
1062.000000	96.529266
1061.000000	96.522858
1060.000000	96.526848
1059.000000	96.533921
1058.000000	96.536507
1057.000000	96.541618
1056.000000	96.554206
1055.000000	96.563597
1054.000000	96.563025
1053.000000	96.564935
1052.000000	96.581421
1051.000000	96.605482
1050.000000	96.627006
1049.000000	96.648530
1048.000000	96.670595
1047.000000	96.682464
1046.000000	96.682210
1045.000000	96.684482
1044.000000	96.693852
1043.000000	96.692674
1042.000000	96.668943
1041.000000	96.635445
1040.000000	96.605203
1039.000000	96.569109
1038.000000	96.514583
1037.000000	96.446891
1036.000000	96.376090
1035.000000	96.302349
1034.000000	96.230058
1033.000000	96.176862
1032.000000	96.152666
1031.000000	96.147408
1030.000000	96.153389
1029.000000	96.180369
1028.000000	96.233373
1027.000000	96.296382
1026.000000	96.355428
1025.000000	96.417476
1024.000000	96.490315
1023.000000	96.562330
1022.000000	96.620265
1021.000000	96.668638
1020.000000	96.715034
1019.000000	96.754697
1018.000000	96.784705
1017.000000	96.814369
1016.000000	96.846648
1015.000000	96.870369
1014.000000	96.884586
1013.000000	96.909197
1012.000000	96.955166
1011.000000	97.006771
1010.000000	97.048698
1009.000000	97.089006
1008.000000	97.138550
1007.000000	97.189938
1006.000000	97.235470
1005.000000	97.284344
1004.000000	97.344245
1003.000000	97.404515
1002.000000	97.455535
1001.000000	97.505672
1000.000000	97.562944
999.000000	97.618106
998.000000	97.662169
997.000000	97.701853
996.000000	97.743062
995.000000	97.779129
994.000000	97.809446
993.000000	97.848008
992.000000	97.897935
991.000000	97.940021
990.000000	97.962713
989.000000	97.981814
988.000000	98.012548
987.000000	98.045516
986.000000	98.067268
985.000000	98.082903
984.000000	98.098620
983.000000	98.103401
982.000000	98.088522
981.000000	98.065344
980.000000	98.045624
979.000000	98.022824
978.000000	97.990793
977.000000	97.960407
976.000000	97.940559
975.000000	97.922604
974.000000	97.901806
973.000000	97.893123
972.000000	97.907145
971.000000	97.930499
970.000000	97.948650
969.000000	97.968225
968.000000	97.997817
967.000000	98.027465
966.000000	98.047520
965.000000	98.069423
964.000000	98.106093
963.000000	98.149148
962.000000	98.184238
961.000000	98.213759
960.000000	98.246609
959.000000	98.281578
958.000000	98.316223
957.000000	98.354731
956.000000	98.392528
955.000000	98.412513
954.000000	98.411414
953.000000	98.408752
952.000000	98.416243
951.000000	98.420646
950.000000	98.412640
949.000000	98.406399
948.000000	98.412107
947.000000	98.413739
946.000000	98.395924
945.000000	98.370323
944.000000	98.353861
943.000000	98.342282
942.000000	98.326108
941.000000	98.312990
940.000000	98.311781
939.000000	98.313742
938.000000	98.309772
937.000000	98.309365
936.000000	98.322851
935.000000	98.343455
934.000000	98.364133
933.000000	98.393148
932.000000	98.434053
931.000000	98.470109
930.000000	98.487961
929.000000	98.497583
928.000000	98.511612
927.000000	98.524474
926.000000	98.530248
925.000000	98.538957
924.000000	98.556952
923.000000	98.571500
922.000000	98.574678
921.000000	98.580886
920.000000	98.601520
919.000000	98.623660
918.000000	98.634210
917.000000	98.644174
916.000000	98.667263
915.000000	98.695592
914.000000	98.716837
913.000000	98.736168
912.000000	98.759194
911.000000	98.773905
910.000000	98.771395
909.000000	98.766943
908.000000	98.778587
907.000000	98.801475
906.000000	98.822003
905.000000	98.838641
904.000000	98.851548
903.000000	98.851412
902.000000	98.837881
901.000000	98.829139
900.000000	98.836576
899.000000	98.849686
898.000000	98.861309
897.000000	98.882495
896.000000	98.915531
895.000000	98.938952
894.000000	98.940973
893.000000	98.941911
892.000000	98.960659
891.000000	98.983768
890.000000	98.989213
889.000000	98.976592
888.000000	98.949127
887.000000	98.890191
886.000000	98.784294
885.000000	98.641034
884.000000	98.473572
883.000000	98.274295
882.000000	98.031553
881.000000	97.750954
880.000000	97.439961
879.000000	97.096147
878.000000	96.732300
877.000000	96.389034
876.000000	96.103208
875.000000	95.889265
874.000000	95.772998
873.000000	95.806502
872.000000	96.018903
871.000000	96.367574
870.000000	96.766995
869.000000	97.149943
868.000000	97.479618
867.000000	97.734585
866.000000	97.916305
865.000000	98.055212
864.000000	98.178078
863.000000	98.282258
862.000000	98.357768
861.000000	98.414141
860.000000	98.463138
859.000000	98.497902
858.000000	98.513063
857.000000	98.523687
856.000000	98.541988
855.000000	98.557088
854.000000	98.559162
853.000000	98.560687
852.000000	98.571766
851.000000	98.578042
850.000000	98.567454
849.000000	98.556133
848.000000	98.565096
847.000000	98.591870
846.000000	98.626068
845.000000	98.669310
844.000000	98.719004
843.000000	98.757236
842.000000	98.778408
841.000000	98.803875
840.000000	98.847229
839.000000	98.889790
838.000000	98.911318
837.000000	98.920348
836.000000	98.931660
835.000000	98.940509
834.000000	98.941026
833.000000	98.944341
832.000000	98.955225
831.000000	98.956634
830.000000	98.940464
829.000000	98.927347
828.000000	98.932265
827.000000	98.937526
826.000000	98.925129
825.000000	98.907204
824.000000	98.898971
823.000000	98.891867
822.000000	98.879859
821.000000	98.878515
820.000000	98.892630
819.000000	98.898184
818.000000	98.880996
817.000000	98.860948
816.000000	98.855456
815.000000	98.852061
814.000000	98.840582
813.000000	98.839325
812.000000	98.862127
811.000000	98.890679
810.000000	98.906017
809.000000	98.918012
808.000000	98.936983
807.000000	98.947300
806.000000	98.937045
805.000000	98.924467
804.000000	98.927381
803.000000	98.934325
802.000000	98.932043
801.000000	98.931375
800.000000	98.939838
799.000000	98.938864
798.000000	98.915453
797.000000	98.886892
796.000000	98.869430
795.000000	98.854051
794.000000	98.837002
793.000000	98.838413
792.000000	98.862705
791.000000	98.875223
790.000000	98.850118
789.000000	98.811295
788.000000	98.794991
787.000000	98.800068
786.000000	98.804292
785.000000	98.803150
784.000000	98.803854
783.000000	98.804345
782.000000	98.804185
781.000000	98.813580
780.000000	98.829849
779.000000	98.830061
778.000000	98.807321
777.000000	98.787228
776.000000	98.788343
775.000000	98.796425
774.000000	98.798254
773.000000	98.807741
772.000000	98.833475
771.000000	98.853218
770.000000	98.848458
769.000000	98.834780
768.000000	98.830943
767.000000	98.826701
766.000000	98.807929
765.000000	98.784980
764.000000	98.769500
763.000000	98.750933
762.000000	98.722507
761.000000	98.702057
760.000000	98.701050
759.000000	98.700405
758.000000	98.683274
757.000000	98.664073
756.000000	98.659460
755.000000	98.658217
754.000000	98.645616
753.000000	98.630806
752.000000	98.624607
751.000000	98.617301
750.000000	98.600960
749.000000	98.586587
748.000000	98.577168
747.000000	98.554524
746.000000	98.514548
745.000000	98.483980
744.000000	98.479217
743.000000	98.481605
742.000000	98.474997
741.000000	98.470815
740.000000	98.472378
739.000000	98.453979
738.000000	98.405265
737.000000	98.358403
736.000000	98.340272
735.000000	98.331448
734.000000	98.304162
733.000000	98.265693
732.000000	98.233250
731.000000	98.200141
730.000000	98.159237
729.000000	98.126016
728.000000	98.108945
727.000000	98.088575
726.000000	98.051244
725.000000	98.013926
724.000000	97.987756
723.000000	97.951774
722.000000	97.891281
721.000000	97.829655
720.000000	97.789797
719.000000	97.754279
718.000000	97.694754
717.000000	97.605375
716.000000	97.478292
715.000000	97.291824
714.000000	97.064948
713.000000	96.883443
712.000000	96.825751
711.000000	96.883567
710.000000	96.990067
709.000000	97.093595
708.000000	97.169904
707.000000	97.200267
706.000000	97.180581
705.000000	97.135722
704.000000	97.091092
703.000000	97.043781
702.000000	96.989373
701.000000	96.950514
700.000000	96.945089
699.000000	96.958171
698.000000	96.968941
697.000000	96.979490
696.000000	96.991731
695.000000	96.984529
694.000000	96.950318
693.000000	96.918792
692.000000	96.908506
691.000000	96.895750
690.000000	96.858307
689.000000	96.814760
688.000000	96.787297
687.000000	96.759215
686.000000	96.716626
685.000000	96.684975
684.000000	96.680692
683.000000	96.673076
682.000000	96.634829
681.000000	96.587493
680.000000	96.557060
679.000000	96.529150
678.000000	96.487503
677.000000	96.444659
676.000000	96.409520
675.000000	96.363232
674.000000	96.301586
673.000000	96.262683
672.000000	96.279250
671.000000	96.341264
670.000000	96.425207
669.000000	96.509779
668.000000	96.506554
667.000000	96.340158
666.000000	96.159393
665.000000	96.043043
664.000000	95.978951
663.000000	95.935631
662.000000	95.886155
661.000000	95.839913
660.000000	95.820995
659.000000	95.828550
658.000000	95.845733
657.000000	95.860703
656.000000	95.869045
655.000000	95.862610
654.000000	95.836999
653.000000	95.804383
652.000000	95.780201
651.000000	95.759935
650.000000	95.732042
649.000000	95.702734
648.000000	95.687196
647.000000	95.683339
646.000000	95.675559
645.000000	95.662842
644.000000	95.654596
643.000000	95.647168
642.000000	95.634227
641.000000	95.624296
640.000000	95.624385
639.000000	95.623023
638.000000	95.609153
637.000000	95.592409
636.000000	95.585036
635.000000	95.576419
634.000000	95.554407
633.000000	95.532010
632.000000	95.524169
631.000000	95.520990
630.000000	95.508805
629.000000	95.495332
628.000000	95.490660
627.000000	95.485888
626.000000	95.472868
625.000000	95.468138
624.000000	95.486434
623.000000	95.513763
622.000000	95.534526
621.000000	95.557448
620.000000	95.585255
619.000000	95.593172
618.000000	95.570851
617.000000	95.554897
616.000000	95.579908
615.000000	95.627006
614.000000	95.657763
613.000000	95.666244
612.000000	95.663367
611.000000	95.643582
610.000000	95.605223
609.000000	95.572724
608.000000	95.563326
607.000000	95.557277
606.000000	95.534642
605.000000	95.515037
604.000000	95.524577
603.000000	95.554603
602.000000	95.587041
601.000000	95.624221
600.000000	95.660858
599.000000	95.666982
598.000000	95.637728
597.000000	95.617519
596.000000	95.636342
595.000000	95.666996
594.000000	95.677493
593.000000	95.682392
592.000000	95.699983
591.000000	95.706959
590.000000	95.684690
589.000000	95.664046
588.000000	95.676327
587.000000	95.704514
586.000000	95.724090
585.000000	95.744205
584.000000	95.769870
583.000000	95.769530
582.000000	95.730016
581.000000	95.692286
580.000000	95.687458
579.000000	95.685534
578.000000	95.657562
577.000000	95.631334
576.000000	95.634043
575.000000	95.636791
574.000000	95.610066
573.000000	95.579171
572.000000	95.566861
571.000000	95.543387
570.000000	95.482729
569.000000	95.418636
568.000000	95.385099
567.000000	95.356392
566.000000	95.302074
565.000000	95.243382
564.000000	95.204254
563.000000	95.165463
562.000000	95.119489
561.000000	95.104951
560.000000	95.132591
559.000000	95.141588
558.000000	95.092434
557.000000	95.037289
556.000000	95.035606
555.000000	95.062678
554.000000	95.069072
553.000000	95.067372
552.000000	95.085249
551.000000	95.094400
550.000000	95.065037
549.000000	95.042720
548.000000	95.086773
547.000000	95.177365
546.000000	95.252728
545.000000	95.299306
544.000000	95.334573
543.000000	95.345784
542.000000	95.319118
541.000000	95.287103
540.000000	95.280982
539.000000	95.273953
538.000000	95.229482
537.000000	95.162166
536.000000	95.098010
535.000000	95.020601
534.000000	94.916561
533.000000	94.818440
532.000000	94.754049
531.000000	94.699667
530.000000	94.632140
529.000000	94.576726
528.000000	94.560409
527.000000	94.566489
526.000000	94.583190
525.000000	94.643532
524.000000	94.754643
523.000000	94.860589
522.000000	94.926139
521.000000	94.987541
520.000000	95.075619
519.000000	95.152323
518.000000	95.183460
517.000000	95.214945
516.000000	95.294800
515.000000	95.391828
514.000000	95.468560
513.000000	95.553137
512.000000	95.676426
511.000000	95.801626
510.000000	95.883606
509.000000	95.942755
508.000000	96.015878
507.000000	96.078571
506.000000	96.092321
505.000000	96.079675
504.000000	96.080312
503.000000	96.091945
502.000000	96.110610
501.000000	96.173800
500.000000	96.299930
499.000000	96.440969
498.000000	96.548235
497.000000	96.623453
496.000000	96.673424
495.000000	96.676862
494.000000	96.635865
493.000000	96.600078
492.000000	96.595961
491.000000	96.594117
490.000000	96.591185
489.000000	96.631112
488.000000	96.704802
487.000000	96.729598
486.000000	96.679243
485.000000	96.644021
484.000000	96.695039
483.000000	96.779453
482.000000	96.834322
481.000000	96.890223
480.000000	96.977776
479.000000	97.050818
478.000000	97.090532
477.000000	97.169044
476.000000	97.314025
475.000000	97.415399
474.000000	97.376321
473.000000	97.266567
472.000000	97.220253
471.000000	97.246600
470.000000	97.293647
469.000000	97.375488
468.000000	97.490708
467.000000	97.544167
466.000000	97.484523
465.000000	97.411843
464.000000	97.426687
463.000000	97.497439
462.000000	97.562733
461.000000	97.654874
460.000000	97.805033
459.000000	97.934747
458.000000	97.974355
457.000000	98.018577
456.000000	98.181899
455.000000	98.541730
454.000000	98.699636
453.000000	98.832407
452.000000	98.925967
451.000000	98.949715
450.000000	98.930993
