PE IR       SUBTECH     SPECTRUM    ASCII       PEDS        4.00        
   -1
A10-C002_1.ASC
23/09/14
11:16:52.00
23/09/14
11:18:22.00
uco
Sample 002 By uco Date Thursday, September 14 2023
450.000000
#HDR
-1
-1
#GR
cm-1
%T
1.0
0.0
4000.000000
-1.000000
3551
8
99.071981
88.822451
#DATA
4000.000000	98.992526
3999.000000	98.990757
3998.000000	98.991912
3997.000000	98.994767
3996.000000	98.997774
3995.000000	98.999853
3994.000000	99.000427
3993.000000	98.999375
3992.000000	98.996845
3991.000000	98.993234
3990.000000	98.989364
3989.000000	98.986496
3988.000000	98.985651
3987.000000	98.986640
3986.000000	98.987923
3985.000000	98.987755
3984.000000	98.985536
3983.000000	98.982231
3982.000000	98.979395
3981.000000	98.977882
3980.000000	98.977570
3979.000000	98.977924
3978.000000	98.978277
3977.000000	98.977917
3976.000000	98.976601
3975.000000	98.974922
3974.000000	98.973871
3973.000000	98.973952
3972.000000	98.975074
3971.000000	98.977000
3970.000000	98.979492
3969.000000	98.982220
3968.000000	98.984706
3967.000000	98.986766
3966.000000	98.988754
3965.000000	98.990915
3964.000000	98.992465
3963.000000	98.991773
3962.000000	98.987969
3961.000000	98.982287
3960.000000	98.977787
3959.000000	98.976742
3958.000000	98.978335
3957.000000	98.979565
3956.000000	98.977967
3955.000000	98.973475
3954.000000	98.968157
3953.000000	98.964687
3952.000000	98.964979
3951.000000	98.969132
3950.000000	98.975241
3949.000000	98.980126
3948.000000	98.981187
3947.000000	98.978483
3946.000000	98.974391
3945.000000	98.971232
3944.000000	98.969215
3943.000000	98.966592
3942.000000	98.962382
3941.000000	98.957269
3940.000000	98.952673
3939.000000	98.949552
3938.000000	98.948140
3937.000000	98.949367
3936.000000	98.954649
3935.000000	98.963862
3934.000000	98.973896
3933.000000	98.979545
3932.000000	98.977755
3931.000000	98.969602
3930.000000	98.958441
3929.000000	98.946824
3928.000000	98.935641
3927.000000	98.926866
3926.000000	98.923324
3925.000000	98.926206
3924.000000	98.934089
3923.000000	98.943796
3922.000000	98.952090
3921.000000	98.957211
3920.000000	98.959618
3919.000000	98.961475
3918.000000	98.963676
3917.000000	98.963984
3916.000000	98.959736
3915.000000	98.950859
3914.000000	98.939737
3913.000000	98.928681
3912.000000	98.919887
3911.000000	98.914922
3910.000000	98.913966
3909.000000	98.916042
3908.000000	98.920671
3907.000000	98.929258
3906.000000	98.943854
3905.000000	98.963793
3904.000000	98.984005
3903.000000	98.997353
3902.000000	98.999636
3901.000000	98.992820
3900.000000	98.981559
3899.000000	98.970004
3898.000000	98.960359
3897.000000	98.952273
3896.000000	98.945014
3895.000000	98.938848
3894.000000	98.935043
3893.000000	98.935221
3892.000000	98.939976
3891.000000	98.946857
3890.000000	98.952675
3889.000000	98.957805
3888.000000	98.965592
3887.000000	98.976205
3886.000000	98.984248
3885.000000	98.984842
3884.000000	98.979244
3883.000000	98.972826
3882.000000	98.969090
3881.000000	98.968475
3880.000000	98.969671
3879.000000	98.969802
3878.000000	98.966837
3877.000000	98.962022
3876.000000	98.957332
3875.000000	98.952972
3874.000000	98.948608
3873.000000	98.945396
3872.000000	98.945407
3871.000000	98.948002
3870.000000	98.949446
3869.000000	98.948111
3868.000000	98.947661
3867.000000	98.952622
3866.000000	98.960865
3865.000000	98.964737
3864.000000	98.961327
3863.000000	98.955411
3862.000000	98.952404
3861.000000	98.953084
3860.000000	98.954359
3859.000000	98.953006
3858.000000	98.948496
3857.000000	98.943971
3856.000000	98.944153
3855.000000	98.949443
3854.000000	98.955539
3853.000000	98.958417
3852.000000	98.956438
3851.000000	98.953582
3850.000000	98.954089
3849.000000	98.955349
3848.000000	98.953348
3847.000000	98.947090
3846.000000	98.938125
3845.000000	98.928969
3844.000000	98.922670
3843.000000	98.920555
3842.000000	98.921581
3841.000000	98.923202
3840.000000	98.923775
3839.000000	98.924732
3838.000000	98.928694
3837.000000	98.934907
3836.000000	98.940315
3835.000000	98.943569
3834.000000	98.945388
3833.000000	98.945809
3832.000000	98.943415
3831.000000	98.938429
3830.000000	98.933405
3829.000000	98.931217
3828.000000	98.932814
3827.000000	98.935816
3826.000000	98.936129
3825.000000	98.931729
3824.000000	98.924390
3823.000000	98.915045
3822.000000	98.903547
3821.000000	98.892893
3820.000000	98.887506
3819.000000	98.888787
3818.000000	98.896300
3817.000000	98.907526
3816.000000	98.917463
3815.000000	98.925057
3814.000000	98.932911
3813.000000	98.941330
3812.000000	98.946475
3811.000000	98.944996
3810.000000	98.938413
3809.000000	98.930934
3808.000000	98.923942
3807.000000	98.914680
3806.000000	98.901482
3805.000000	98.887883
3804.000000	98.880654
3803.000000	98.883120
3802.000000	98.892553
3801.000000	98.903087
3800.000000	98.911417
3799.000000	98.917970
3798.000000	98.924114
3797.000000	98.928688
3796.000000	98.930242
3795.000000	98.929642
3794.000000	98.928503
3793.000000	98.927181
3792.000000	98.924946
3791.000000	98.921628
3790.000000	98.917971
3789.000000	98.914949
3788.000000	98.913241
3787.000000	98.913659
3786.000000	98.916174
3785.000000	98.919257
3784.000000	98.921285
3783.000000	98.922440
3782.000000	98.923336
3781.000000	98.923152
3780.000000	98.921085
3779.000000	98.918183
3778.000000	98.916108
3777.000000	98.914969
3776.000000	98.914350
3775.000000	98.913883
3774.000000	98.914009
3773.000000	98.916458
3772.000000	98.923220
3771.000000	98.933908
3770.000000	98.945056
3769.000000	98.952350
3768.000000	98.953175
3767.000000	98.948201
3766.000000	98.940123
3765.000000	98.932128
3764.000000	98.927965
3763.000000	98.930646
3762.000000	98.938946
3761.000000	98.947415
3760.000000	98.952274
3759.000000	98.955019
3758.000000	98.957534
3757.000000	98.957694
3756.000000	98.953924
3755.000000	98.948279
3754.000000	98.944683
3753.000000	98.947244
3752.000000	98.960505
3751.000000	98.985431
3750.000000	99.009925
3749.000000	99.017849
3748.000000	99.010110
3747.000000	99.000638
3746.000000	98.996936
3745.000000	98.992309
3744.000000	98.980551
3743.000000	98.968430
3742.000000	98.966243
3741.000000	98.974849
3740.000000	98.986698
3739.000000	98.995487
3738.000000	98.998979
3737.000000	98.996780
3736.000000	98.991167
3735.000000	98.988790
3734.000000	98.995092
3733.000000	99.004575
3732.000000	99.006585
3731.000000	98.997882
3730.000000	98.984051
3729.000000	98.973214
3728.000000	98.970086
3727.000000	98.974629
3726.000000	98.983228
3725.000000	98.991235
3724.000000	98.995595
3723.000000	98.996484
3722.000000	98.996501
3721.000000	98.996308
3720.000000	98.994294
3719.000000	98.989857
3718.000000	98.983759
3717.000000	98.977017
3716.000000	98.972089
3715.000000	98.971565
3714.000000	98.973965
3713.000000	98.973739
3712.000000	98.969305
3711.000000	98.967764
3710.000000	98.973446
3709.000000	98.981535
3708.000000	98.985710
3707.000000	98.985063
3706.000000	98.984383
3705.000000	98.988270
3704.000000	98.997361
3703.000000	99.007577
3702.000000	99.012386
3701.000000	99.007858
3700.000000	98.995792
3699.000000	98.982080
3698.000000	98.971185
3697.000000	98.962997
3696.000000	98.956522
3695.000000	98.952877
3694.000000	98.952326
3693.000000	98.951955
3692.000000	98.949077
3691.000000	98.946481
3690.000000	98.950111
3689.000000	98.959729
3688.000000	98.966324
3687.000000	98.963948
3686.000000	98.955980
3685.000000	98.947700
3684.000000	98.941533
3683.000000	98.938079
3682.000000	98.936572
3681.000000	98.934344
3680.000000	98.928441
3679.000000	98.920494
3678.000000	98.916829
3677.000000	98.920308
3676.000000	98.925711
3675.000000	98.927962
3674.000000	98.927381
3673.000000	98.925952
3672.000000	98.924873
3671.000000	98.920321
3670.000000	98.909848
3669.000000	98.900717
3668.000000	98.900176
3667.000000	98.907078
3666.000000	98.916779
3665.000000	98.924582
3664.000000	98.928132
3663.000000	98.927447
3662.000000	98.922917
3661.000000	98.914877
3660.000000	98.905486
3659.000000	98.899257
3658.000000	98.899183
3657.000000	98.903027
3656.000000	98.905296
3655.000000	98.903855
3654.000000	98.902484
3653.000000	98.905395
3652.000000	98.911442
3651.000000	98.914301
3650.000000	98.907731
3649.000000	98.891750
3648.000000	98.874121
3647.000000	98.864302
3646.000000	98.863490
3645.000000	98.865310
3644.000000	98.864205
3643.000000	98.859328
3642.000000	98.852864
3641.000000	98.847457
3640.000000	98.843752
3639.000000	98.839700
3638.000000	98.833398
3637.000000	98.825571
3636.000000	98.819086
3635.000000	98.815887
3634.000000	98.815779
3633.000000	98.818870
3632.000000	98.826805
3631.000000	98.838738
3630.000000	98.847767
3629.000000	98.846157
3628.000000	98.835560
3627.000000	98.822463
3626.000000	98.809129
3625.000000	98.796178
3624.000000	98.785611
3623.000000	98.781069
3622.000000	98.783481
3621.000000	98.786639
3620.000000	98.781009
3619.000000	98.764785
3618.000000	98.745315
3617.000000	98.729866
3616.000000	98.722003
3615.000000	98.722363
3614.000000	98.728318
3613.000000	98.735252
3612.000000	98.740359
3611.000000	98.742811
3610.000000	98.740257
3609.000000	98.728318
3608.000000	98.707327
3607.000000	98.685280
3606.000000	98.669235
3605.000000	98.658808
3604.000000	98.649137
3603.000000	98.636741
3602.000000	98.621619
3601.000000	98.605999
3600.000000	98.593478
3599.000000	98.587934
3598.000000	98.589762
3597.000000	98.594696
3596.000000	98.597432
3595.000000	98.594874
3594.000000	98.587975
3593.000000	98.580384
3592.000000	98.575897
3591.000000	98.576294
3590.000000	98.579516
3589.000000	98.579837
3588.000000	98.572594
3587.000000	98.558760
3586.000000	98.543074
3585.000000	98.527008
3584.000000	98.509446
3583.000000	98.490853
3582.000000	98.473570
3581.000000	98.458554
3580.000000	98.445135
3579.000000	98.433107
3578.000000	98.424204
3577.000000	98.420719
3576.000000	98.423346
3575.000000	98.430157
3574.000000	98.437044
3573.000000	98.440751
3572.000000	98.440455
3571.000000	98.437137
3570.000000	98.431085
3569.000000	98.421120
3568.000000	98.405597
3567.000000	98.385312
3566.000000	98.364153
3565.000000	98.346259
3564.000000	98.332303
3563.000000	98.320462
3562.000000	98.308733
3561.000000	98.296518
3560.000000	98.284617
3559.000000	98.274223
3558.000000	98.264984
3557.000000	98.255329
3556.000000	98.244315
3555.000000	98.232330
3554.000000	98.219872
3553.000000	98.207623
3552.000000	98.197724
3551.000000	98.192753
3550.000000	98.192891
3549.000000	98.195282
3548.000000	98.195794
3547.000000	98.190064
3546.000000	98.174295
3545.000000	98.148484
3544.000000	98.119293
3543.000000	98.095829
3542.000000	98.082791
3541.000000	98.078622
3540.000000	98.078994
3539.000000	98.080223
3538.000000	98.079401
3537.000000	98.074143
3536.000000	98.064120
3535.000000	98.051549
3534.000000	98.039055
3533.000000	98.027422
3532.000000	98.016419
3531.000000	98.006359
3530.000000	97.998325
3529.000000	97.993803
3528.000000	97.994130
3527.000000	97.998821
3526.000000	98.003816
3525.000000	98.002805
3524.000000	97.991811
3523.000000	97.972568
3522.000000	97.950773
3521.000000	97.931709
3520.000000	97.917738
3519.000000	97.908299
3518.000000	97.900766
3517.000000	97.892188
3516.000000	97.882136
3515.000000	97.872566
3514.000000	97.865229
3513.000000	97.859813
3512.000000	97.854809
3511.000000	97.848735
3510.000000	97.840316
3509.000000	97.828876
3508.000000	97.815809
3507.000000	97.804968
3506.000000	97.800177
3505.000000	97.802779
3504.000000	97.810463
3503.000000	97.817470
3502.000000	97.816885
3501.000000	97.804702
3500.000000	97.782508
3499.000000	97.756219
3498.000000	97.732594
3497.000000	97.716257
3496.000000	97.708507
3495.000000	97.707018
3494.000000	97.706762
3493.000000	97.703099
3492.000000	97.694834
3491.000000	97.683836
3490.000000	97.672190
3489.000000	97.660771
3488.000000	97.650453
3487.000000	97.642570
3486.000000	97.637301
3485.000000	97.633139
3484.000000	97.628994
3483.000000	97.625337
3482.000000	97.622541
3481.000000	97.619020
3480.000000	97.612105
3479.000000	97.600400
3478.000000	97.584888
3477.000000	97.568568
3476.000000	97.554784
3475.000000	97.544607
3474.000000	97.535716
3473.000000	97.525467
3472.000000	97.514758
3471.000000	97.506916
3470.000000	97.503029
3469.000000	97.500880
3468.000000	97.498630
3467.000000	97.497101
3466.000000	97.497117
3465.000000	97.496826
3464.000000	97.493304
3463.000000	97.485394
3462.000000	97.473981
3461.000000	97.460743
3460.000000	97.447805
3459.000000	97.437035
3458.000000	97.428300
3457.000000	97.419804
3456.000000	97.411006
3455.000000	97.403967
3454.000000	97.400952
3453.000000	97.401456
3452.000000	97.402767
3451.000000	97.402194
3450.000000	97.398358
3449.000000	97.391715
3448.000000	97.384612
3447.000000	97.379379
3446.000000	97.375425
3445.000000	97.369553
3444.000000	97.359824
3443.000000	97.347477
3442.000000	97.334646
3441.000000	97.322272
3440.000000	97.310904
3439.000000	97.301505
3438.000000	97.294096
3437.000000	97.287054
3436.000000	97.279247
3435.000000	97.271589
3434.000000	97.265557
3433.000000	97.260853
3432.000000	97.256324
3431.000000	97.251965
3430.000000	97.248660
3429.000000	97.246327
3428.000000	97.243348
3427.000000	97.237930
3426.000000	97.229470
3425.000000	97.219014
3424.000000	97.208648
3423.000000	97.200002
3422.000000	97.193144
3421.000000	97.187108
3420.000000	97.181110
3419.000000	97.174582
3418.000000	97.166883
3417.000000	97.158260
3416.000000	97.150637
3415.000000	97.145792
3414.000000	97.142821
3413.000000	97.139047
3412.000000	97.133314
3411.000000	97.126621
3410.000000	97.119576
3409.000000	97.111366
3408.000000	97.101979
3407.000000	97.093584
3406.000000	97.088283
3405.000000	97.085459
3404.000000	97.082113
3403.000000	97.075201
3402.000000	97.063751
3401.000000	97.049803
3400.000000	97.037649
3399.000000	97.030480
3398.000000	97.026948
3397.000000	97.022111
3396.000000	97.012691
3395.000000	97.000850
3394.000000	96.992198
3393.000000	96.990586
3392.000000	96.994623
3391.000000	96.998520
3390.000000	96.996427
3389.000000	96.987143
3388.000000	96.975241
3387.000000	96.966960
3386.000000	96.964483
3385.000000	96.964481
3384.000000	96.962050
3383.000000	96.954804
3382.000000	96.943476
3381.000000	96.930258
3380.000000	96.917527
3379.000000	96.906761
3378.000000	96.897767
3377.000000	96.889298
3376.000000	96.880560
3375.000000	96.871472
3374.000000	96.861551
3373.000000	96.849746
3372.000000	96.835571
3371.000000	96.819588
3370.000000	96.802765
3369.000000	96.786517
3368.000000	96.772904
3367.000000	96.762949
3366.000000	96.754392
3365.000000	96.742955
3364.000000	96.726604
3363.000000	96.707367
3362.000000	96.688545
3361.000000	96.671436
3360.000000	96.655206
3359.000000	96.638361
3358.000000	96.619606
3357.000000	96.598479
3356.000000	96.576120
3355.000000	96.554784
3354.000000	96.535750
3353.000000	96.518150
3352.000000	96.500050
3351.000000	96.480043
3350.000000	96.457820
3349.000000	96.434181
3348.000000	96.410516
3347.000000	96.387674
3346.000000	96.365434
3345.000000	96.343609
3344.000000	96.323352
3343.000000	96.306120
3342.000000	96.291725
3341.000000	96.278642
3340.000000	96.265627
3339.000000	96.251724
3338.000000	96.235480
3337.000000	96.216275
3336.000000	96.196197
3335.000000	96.178384
3334.000000	96.163185
3333.000000	96.147699
3332.000000	96.129474
3331.000000	96.108823
3330.000000	96.087433
3329.000000	96.066686
3328.000000	96.047744
3327.000000	96.031461
3326.000000	96.017415
3325.000000	96.004087
3324.000000	95.990376
3323.000000	95.975727
3322.000000	95.959275
3321.000000	95.940879
3320.000000	95.922764
3319.000000	95.907695
3318.000000	95.895140
3317.000000	95.881595
3316.000000	95.865780
3315.000000	95.851171
3314.000000	95.841786
3313.000000	95.837213
3312.000000	95.833242
3311.000000	95.826135
3310.000000	95.815175
3309.000000	95.802256
3308.000000	95.790477
3307.000000	95.782277
3306.000000	95.777508
3305.000000	95.773497
3304.000000	95.767360
3303.000000	95.757990
3302.000000	95.746127
3301.000000	95.733690
3300.000000	95.723269
3299.000000	95.716777
3298.000000	95.714026
3297.000000	95.713238
3296.000000	95.713089
3295.000000	95.713127
3294.000000	95.712364
3293.000000	95.709555
3292.000000	95.705381
3291.000000	95.702588
3290.000000	95.703029
3289.000000	95.705599
3288.000000	95.707662
3287.000000	95.707237
3286.000000	95.703255
3285.000000	95.695525
3284.000000	95.685915
3283.000000	95.678642
3282.000000	95.677707
3281.000000	95.683761
3280.000000	95.693708
3279.000000	95.702943
3278.000000	95.708149
3277.000000	95.708925
3276.000000	95.707529
3275.000000	95.706834
3274.000000	95.708491
3273.000000	95.713145
3272.000000	95.721311
3271.000000	95.732574
3270.000000	95.744180
3269.000000	95.752261
3268.000000	95.754956
3267.000000	95.753735
3266.000000	95.751872
3265.000000	95.752413
3264.000000	95.757091
3263.000000	95.765593
3262.000000	95.775892
3261.000000	95.786745
3260.000000	95.799401
3259.000000	95.815085
3258.000000	95.831196
3257.000000	95.842610
3256.000000	95.847323
3255.000000	95.848874
3254.000000	95.852274
3253.000000	95.859358
3252.000000	95.869077
3251.000000	95.880073
3250.000000	95.891401
3249.000000	95.901983
3248.000000	95.911104
3247.000000	95.918899
3246.000000	95.925331
3245.000000	95.929300
3244.000000	95.929890
3243.000000	95.928261
3242.000000	95.927653
3241.000000	95.931538
3240.000000	95.941323
3239.000000	95.955059
3238.000000	95.968532
3237.000000	95.978838
3236.000000	95.987055
3235.000000	95.996357
3234.000000	96.007489
3233.000000	96.017433
3232.000000	96.022887
3231.000000	96.023848
3230.000000	96.023380
3229.000000	96.024958
3228.000000	96.030251
3227.000000	96.038273
3226.000000	96.046303
3225.000000	96.052498
3224.000000	96.057811
3223.000000	96.064290
3222.000000	96.071623
3221.000000	96.077137
3220.000000	96.079318
3219.000000	96.079680
3218.000000	96.080257
3217.000000	96.081171
3216.000000	96.081945
3215.000000	96.083939
3214.000000	96.089880
3213.000000	96.101043
3212.000000	96.115639
3211.000000	96.129664
3210.000000	96.139240
3209.000000	96.143020
3208.000000	96.142908
3207.000000	96.142270
3206.000000	96.143423
3205.000000	96.147240
3204.000000	96.153939
3203.000000	96.162755
3202.000000	96.171178
3201.000000	96.176528
3200.000000	96.178620
3199.000000	96.179960
3198.000000	96.183309
3197.000000	96.190412
3196.000000	96.202253
3195.000000	96.218180
3194.000000	96.234649
3193.000000	96.247289
3192.000000	96.255277
3191.000000	96.261877
3190.000000	96.269898
3189.000000	96.278617
3188.000000	96.286153
3187.000000	96.292949
3186.000000	96.301144
3185.000000	96.311867
3184.000000	96.324465
3183.000000	96.337537
3182.000000	96.349400
3181.000000	96.358332
3180.000000	96.363639
3179.000000	96.366226
3178.000000	96.367754
3177.000000	96.369842
3176.000000	96.374126
3175.000000	96.381776
3174.000000	96.392413
3173.000000	96.404697
3172.000000	96.418426
3171.000000	96.434665
3170.000000	96.453078
3169.000000	96.470625
3168.000000	96.483985
3167.000000	96.492424
3166.000000	96.497638
3165.000000	96.502226
3164.000000	96.508927
3163.000000	96.519754
3162.000000	96.534245
3161.000000	96.549479
3160.000000	96.562945
3159.000000	96.574728
3158.000000	96.586240
3157.000000	96.597999
3156.000000	96.609771
3155.000000	96.621715
3154.000000	96.633990
3153.000000	96.645915
3152.000000	96.656699
3151.000000	96.666287
3150.000000	96.674524
3149.000000	96.680124
3148.000000	96.681841
3147.000000	96.680670
3146.000000	96.679986
3145.000000	96.683397
3144.000000	96.692356
3143.000000	96.705070
3142.000000	96.717457
3141.000000	96.725933
3140.000000	96.730293
3139.000000	96.733533
3138.000000	96.738810
3137.000000	96.746954
3136.000000	96.756932
3135.000000	96.767310
3134.000000	96.776845
3133.000000	96.784763
3132.000000	96.791542
3131.000000	96.798430
3130.000000	96.805597
3129.000000	96.811670
3128.000000	96.815942
3127.000000	96.820004
3126.000000	96.826259
3125.000000	96.835437
3124.000000	96.846200
3123.000000	96.856121
3122.000000	96.862153
3121.000000	96.861665
3120.000000	96.855039
3119.000000	96.846960
3118.000000	96.843453
3117.000000	96.847132
3116.000000	96.855566
3115.000000	96.864086
3114.000000	96.869363
3113.000000	96.870576
3112.000000	96.868502
3111.000000	96.864183
3110.000000	96.858194
3109.000000	96.850829
3108.000000	96.842694
3107.000000	96.834669
3106.000000	96.827146
3105.000000	96.819600
3104.000000	96.811153
3103.000000	96.801646
3102.000000	96.792138
3101.000000	96.784622
3100.000000	96.780975
3099.000000	96.781752
3098.000000	96.785740
3097.000000	96.790364
3096.000000	96.792396
3095.000000	96.789172
3094.000000	96.780466
3093.000000	96.769455
3092.000000	96.760393
3091.000000	96.754466
3090.000000	96.748729
3089.000000	96.740057
3088.000000	96.729353
3087.000000	96.720719
3086.000000	96.717139
3085.000000	96.718363
3084.000000	96.722346
3083.000000	96.726999
3082.000000	96.730278
3081.000000	96.730241
3080.000000	96.725883
3079.000000	96.717613
3078.000000	96.706910
3077.000000	96.696156
3076.000000	96.688327
3075.000000	96.685511
3074.000000	96.687462
3073.000000	96.692341
3072.000000	96.698913
3071.000000	96.707097
3070.000000	96.716471
3069.000000	96.725302
3068.000000	96.731405
3067.000000	96.733633
3066.000000	96.732701
3065.000000	96.731136
3064.000000	96.731936
3063.000000	96.736495
3062.000000	96.743900
3061.000000	96.752601
3060.000000	96.761990
3059.000000	96.771829
3058.000000	96.781282
3057.000000	96.789760
3056.000000	96.797969
3055.000000	96.806497
3054.000000	96.814169
3053.000000	96.819562
3052.000000	96.823928
3051.000000	96.830565
3050.000000	96.840866
3049.000000	96.852679
3048.000000	96.863180
3047.000000	96.872093
3046.000000	96.881216
3045.000000	96.891883
3044.000000	96.903813
3043.000000	96.915793
3042.000000	96.926538
3041.000000	96.935397
3040.000000	96.942922
3039.000000	96.950967
3038.000000	96.961690
3037.000000	96.976029
3036.000000	96.992791
3035.000000	97.009093
3034.000000	97.022107
3033.000000	97.031012
3032.000000	97.037317
3031.000000	97.043329
3030.000000	97.050581
3029.000000	97.059599
3028.000000	97.070281
3027.000000	97.081715
3026.000000	97.092390
3025.000000	97.101573
3024.000000	97.110204
3023.000000	97.119707
3022.000000	97.130284
3021.000000	97.141032
3020.000000	97.151218
3019.000000	97.160884
3018.000000	97.170665
3017.000000	97.181557
3016.000000	97.193948
3015.000000	97.206359
3014.000000	97.216211
3013.000000	97.222869
3012.000000	97.228708
3011.000000	97.235862
3010.000000	97.243112
3009.000000	97.247562
3008.000000	97.248475
3007.000000	97.247539
3006.000000	97.246108
3005.000000	97.244273
3004.000000	97.242366
3003.000000	97.241455
3002.000000	97.242121
3001.000000	97.244309
3000.000000	97.248272
2999.000000	97.254101
2998.000000	97.260103
2997.000000	97.263457
2996.000000	97.263050
2995.000000	97.260519
2994.000000	97.257955
2993.000000	97.255541
2992.000000	97.252020
2991.000000	97.246584
2990.000000	97.239762
2989.000000	97.232604
2988.000000	97.225116
2987.000000	97.215566
2986.000000	97.202218
2985.000000	97.186303
2984.000000	97.172028
2983.000000	97.162316
2982.000000	97.155484
2981.000000	97.147653
2980.000000	97.137877
2979.000000	97.128823
2978.000000	97.122704
2977.000000	97.118622
2976.000000	97.114148
2975.000000	97.107677
2974.000000	97.098831
2973.000000	97.088411
2972.000000	97.078598
2971.000000	97.071537
2970.000000	97.066684
2969.000000	97.060464
2968.000000	97.049579
2967.000000	97.034233
2966.000000	97.017840
2965.000000	97.004123
2964.000000	96.994610
2963.000000	96.988315
2962.000000	96.983399
2961.000000	96.979201
2960.000000	96.976189
2959.000000	96.973841
2958.000000	96.970010
2957.000000	96.963497
2956.000000	96.956239
2955.000000	96.951307
2954.000000	96.949675
2953.000000	96.950813
2952.000000	96.955276
2951.000000	96.963908
2950.000000	96.974502
2949.000000	96.982230
2948.000000	96.984393
2947.000000	96.982630
2946.000000	96.979378
2945.000000	96.974060
2944.000000	96.964359
2943.000000	96.949993
2942.000000	96.933734
2941.000000	96.918926
2940.000000	96.906793
2939.000000	96.895855
2938.000000	96.883672
2937.000000	96.869342
2936.000000	96.853933
2935.000000	96.837914
2934.000000	96.819287
2933.000000	96.795860
2932.000000	96.768780
2931.000000	96.741607
2930.000000	96.715996
2929.000000	96.690722
2928.000000	96.665274
2927.000000	96.641662
2926.000000	96.621097
2925.000000	96.601136
2924.000000	96.578253
2923.000000	96.552287
2922.000000	96.526979
2921.000000	96.506953
2920.000000	96.495623
2919.000000	96.494923
2918.000000	96.505442
2917.000000	96.526828
2916.000000	96.558817
2915.000000	96.601363
2914.000000	96.652693
2913.000000	96.708087
2912.000000	96.762018
2911.000000	96.811891
2910.000000	96.858764
2909.000000	96.904052
2908.000000	96.946442
2907.000000	96.982404
2906.000000	97.009958
2905.000000	97.031266
2904.000000	97.051161
2903.000000	97.072610
2902.000000	97.094162
2901.000000	97.111418
2900.000000	97.122555
2899.000000	97.129681
2898.000000	97.136785
2897.000000	97.146414
2896.000000	97.158362
2895.000000	97.170464
2894.000000	97.180331
2893.000000	97.187129
2892.000000	97.192373
2891.000000	97.198746
2890.000000	97.207766
2889.000000	97.218542
2888.000000	97.228493
2887.000000	97.234978
2886.000000	97.236804
2885.000000	97.234971
2884.000000	97.231951
2883.000000	97.229631
2882.000000	97.228128
2881.000000	97.227006
2880.000000	97.226917
2879.000000	97.228762
2878.000000	97.231453
2877.000000	97.231955
2876.000000	97.228136
2875.000000	97.220947
2874.000000	97.213739
2873.000000	97.210030
2872.000000	97.211633
2871.000000	97.217710
2870.000000	97.225258
2869.000000	97.231475
2868.000000	97.235999
2867.000000	97.240341
2866.000000	97.245297
2865.000000	97.249990
2864.000000	97.253337
2863.000000	97.254974
2862.000000	97.254185
2861.000000	97.249371
2860.000000	97.239619
2859.000000	97.225942
2858.000000	97.210081
2857.000000	97.192531
2856.000000	97.172296
2855.000000	97.147986
2854.000000	97.118782
2853.000000	97.085290
2852.000000	97.050862
2851.000000	97.022469
2850.000000	97.009207
2849.000000	97.018699
2848.000000	97.052966
2847.000000	97.106451
2846.000000	97.168018
2845.000000	97.226366
2844.000000	97.275118
2843.000000	97.314184
2842.000000	97.347335
2841.000000	97.378431
2840.000000	97.408740
2839.000000	97.436028
2838.000000	97.456539
2837.000000	97.469040
2836.000000	97.476974
2835.000000	97.485317
2834.000000	97.495327
2833.000000	97.503723
2832.000000	97.507260
2831.000000	97.506751
2830.000000	97.505872
2829.000000	97.507467
2828.000000	97.512132
2827.000000	97.519483
2826.000000	97.529242
2825.000000	97.540748
2824.000000	97.552174
2823.000000	97.560936
2822.000000	97.565336
2821.000000	97.565939
2820.000000	97.565058
2819.000000	97.564578
2818.000000	97.564791
2817.000000	97.565699
2816.000000	97.568434
2815.000000	97.574092
2814.000000	97.581545
2813.000000	97.588046
2812.000000	97.592133
2811.000000	97.594797
2810.000000	97.597663
2809.000000	97.601223
2808.000000	97.604995
2807.000000	97.608103
2806.000000	97.609456
2805.000000	97.608839
2804.000000	97.608293
2803.000000	97.610748
2802.000000	97.616445
2801.000000	97.622083
2800.000000	97.624605
2799.000000	97.624599
2798.000000	97.624854
2797.000000	97.626750
2796.000000	97.629663
2795.000000	97.633053
2794.000000	97.637159
2793.000000	97.641690
2792.000000	97.645498
2791.000000	97.648153
2790.000000	97.650936
2789.000000	97.655657
2788.000000	97.662690
2787.000000	97.670298
2786.000000	97.675753
2785.000000	97.677519
2784.000000	97.676836
2783.000000	97.676926
2782.000000	97.680155
2781.000000	97.686035
2780.000000	97.692231
2779.000000	97.697013
2778.000000	97.700294
2777.000000	97.702888
2776.000000	97.705767
2775.000000	97.709938
2774.000000	97.716114
2773.000000	97.724155
2772.000000	97.733153
2771.000000	97.741997
2770.000000	97.749436
2769.000000	97.753955
2768.000000	97.754633
2767.000000	97.752452
2766.000000	97.750020
2765.000000	97.749278
2764.000000	97.749830
2763.000000	97.750036
2762.000000	97.749514
2761.000000	97.749765
2760.000000	97.752233
2759.000000	97.756531
2758.000000	97.761064
2757.000000	97.764886
2756.000000	97.768164
2755.000000	97.771215
2754.000000	97.774221
2753.000000	97.778113
2752.000000	97.784476
2751.000000	97.793566
2750.000000	97.802995
2749.000000	97.809527
2748.000000	97.812258
2747.000000	97.813198
2746.000000	97.814640
2745.000000	97.816674
2744.000000	97.817591
2743.000000	97.816243
2742.000000	97.813674
2741.000000	97.812534
2740.000000	97.814757
2739.000000	97.819561
2738.000000	97.823979
2737.000000	97.825927
2736.000000	97.826592
2735.000000	97.829053
2734.000000	97.834525
2733.000000	97.840726
2732.000000	97.844198
2731.000000	97.843583
2730.000000	97.840336
2729.000000	97.836939
2728.000000	97.834995
2727.000000	97.834698
2726.000000	97.835450
2725.000000	97.836939
2724.000000	97.839770
2723.000000	97.844815
2722.000000	97.851721
2721.000000	97.858421
2720.000000	97.862616
2719.000000	97.863797
2718.000000	97.863584
2717.000000	97.864160
2716.000000	97.866552
2715.000000	97.870284
2714.000000	97.874375
2713.000000	97.878390
2712.000000	97.882469
2711.000000	97.886481
2710.000000	97.889592
2709.000000	97.891004
2708.000000	97.890997
2707.000000	97.890845
2706.000000	97.891628
2705.000000	97.893413
2704.000000	97.895608
2703.000000	97.897761
2702.000000	97.899819
2701.000000	97.901879
2700.000000	97.904013
2699.000000	97.906278
2698.000000	97.908672
2697.000000	97.910945
2696.000000	97.912572
2695.000000	97.913114
2694.000000	97.912712
2693.000000	97.912092
2692.000000	97.911860
2691.000000	97.911946
2690.000000	97.912132
2689.000000	97.912981
2688.000000	97.915529
2687.000000	97.919758
2686.000000	97.924070
2685.000000	97.926771
2684.000000	97.927639
2683.000000	97.927462
2682.000000	97.926630
2681.000000	97.925081
2680.000000	97.923347
2679.000000	97.922566
2678.000000	97.923217
2677.000000	97.924587
2676.000000	97.925741
2675.000000	97.926440
2674.000000	97.926987
2673.000000	97.927886
2672.000000	97.929910
2671.000000	97.933721
2670.000000	97.938844
2669.000000	97.943466
2668.000000	97.945860
2667.000000	97.945802
2666.000000	97.944246
2665.000000	97.942085
2664.000000	97.939878
2663.000000	97.938389
2662.000000	97.938303
2661.000000	97.939097
2660.000000	97.939066
2659.000000	97.937066
2658.000000	97.933733
2657.000000	97.930440
2656.000000	97.927702
2655.000000	97.925689
2654.000000	97.925976
2653.000000	97.931001
2652.000000	97.940862
2651.000000	97.951848
2650.000000	97.959487
2649.000000	97.962756
2648.000000	97.964328
2647.000000	97.967130
2646.000000	97.971901
2645.000000	97.977822
2644.000000	97.983818
2643.000000	97.988723
2642.000000	97.991564
2641.000000	97.992518
2640.000000	97.992900
2639.000000	97.993749
2638.000000	97.995253
2637.000000	97.997843
2636.000000	98.002584
2635.000000	98.009591
2634.000000	98.017084
2633.000000	98.023122
2632.000000	98.027640
2631.000000	98.031851
2630.000000	98.036231
2629.000000	98.040095
2628.000000	98.042744
2627.000000	98.044151
2626.000000	98.044895
2625.000000	98.046084
2624.000000	98.048930
2623.000000	98.053667
2622.000000	98.059329
2621.000000	98.065073
2620.000000	98.070892
2619.000000	98.076417
2618.000000	98.080135
2617.000000	98.081029
2616.000000	98.080173
2615.000000	98.079309
2614.000000	98.078637
2613.000000	98.077633
2612.000000	98.077662
2611.000000	98.081687
2610.000000	98.090800
2609.000000	98.102304
2608.000000	98.111894
2607.000000	98.117357
2606.000000	98.120000
2605.000000	98.122860
2604.000000	98.127328
2603.000000	98.131075
2602.000000	98.130029
2601.000000	98.123425
2600.000000	98.116153
2599.000000	98.114650
2598.000000	98.120469
2597.000000	98.129017
2596.000000	98.134664
2595.000000	98.135739
2594.000000	98.134468
2593.000000	98.133551
2592.000000	98.133894
2591.000000	98.135192
2590.000000	98.137891
2589.000000	98.144089
2588.000000	98.155842
2587.000000	98.171918
2586.000000	98.186745
2585.000000	98.193798
2584.000000	98.190782
2583.000000	98.181425
2582.000000	98.172205
2581.000000	98.167623
2580.000000	98.167983
2579.000000	98.170724
2578.000000	98.173417
2577.000000	98.175473
2576.000000	98.177263
2575.000000	98.178324
2574.000000	98.177722
2573.000000	98.176276
2572.000000	98.176792
2571.000000	98.180831
2570.000000	98.186231
2569.000000	98.189255
2568.000000	98.188709
2567.000000	98.186801
2566.000000	98.186438
2565.000000	98.189049
2564.000000	98.194578
2563.000000	98.201993
2562.000000	98.209468
2561.000000	98.215115
2560.000000	98.217911
2559.000000	98.217604
2558.000000	98.214426
2557.000000	98.210006
2556.000000	98.207951
2555.000000	98.211723
2554.000000	98.221374
2553.000000	98.233080
2552.000000	98.241549
2551.000000	98.242241
2550.000000	98.232812
2549.000000	98.215668
2548.000000	98.199691
2547.000000	98.195998
2546.000000	98.208486
2545.000000	98.229011
2544.000000	98.244058
2543.000000	98.246821
2542.000000	98.241516
2541.000000	98.236587
2540.000000	98.236023
2539.000000	98.238447
2538.000000	98.241815
2537.000000	98.245834
2536.000000	98.249761
2535.000000	98.250880
2534.000000	98.246887
2533.000000	98.238764
2532.000000	98.230123
2531.000000	98.224334
2530.000000	98.223028
2529.000000	98.226217
2528.000000	98.232368
2527.000000	98.238751
2526.000000	98.242859
2525.000000	98.243229
2524.000000	98.238594
2523.000000	98.228082
2522.000000	98.214094
2521.000000	98.203560
2520.000000	98.203181
2519.000000	98.212974
2518.000000	98.226363
2517.000000	98.236776
2516.000000	98.242657
2515.000000	98.246232
2514.000000	98.249663
2513.000000	98.252804
2512.000000	98.253126
2511.000000	98.247966
2510.000000	98.238609
2509.000000	98.231422
2508.000000	98.232063
2507.000000	98.238744
2506.000000	98.244514
2505.000000	98.246142
2504.000000	98.246949
2503.000000	98.250028
2502.000000	98.253417
2501.000000	98.254707
2500.000000	98.256272
2499.000000	98.262107
2498.000000	98.271417
2497.000000	98.279100
2496.000000	98.281159
2495.000000	98.276923
2494.000000	98.267580
2493.000000	98.255917
2492.000000	98.246886
2491.000000	98.245049
2490.000000	98.251003
2489.000000	98.261627
2488.000000	98.273207
2487.000000	98.282817
2486.000000	98.288342
2485.000000	98.289863
2484.000000	98.290353
2483.000000	98.292565
2482.000000	98.295828
2481.000000	98.298039
2480.000000	98.299657
2479.000000	98.302822
2478.000000	98.307218
2477.000000	98.310364
2476.000000	98.312343
2475.000000	98.317027
2474.000000	98.327288
2473.000000	98.341011
2472.000000	98.352895
2471.000000	98.358348
2470.000000	98.355198
2469.000000	98.344283
2468.000000	98.330258
2467.000000	98.320114
2466.000000	98.318346
2465.000000	98.323392
2464.000000	98.329715
2463.000000	98.332601
2462.000000	98.330208
2461.000000	98.322432
2460.000000	98.310528
2459.000000	98.298235
2458.000000	98.290696
2457.000000	98.290159
2456.000000	98.293497
2455.000000	98.295949
2454.000000	98.297017
2453.000000	98.300517
2452.000000	98.308555
2451.000000	98.318090
2450.000000	98.324872
2449.000000	98.328415
2448.000000	98.330983
2447.000000	98.333774
2446.000000	98.336930
2445.000000	98.341603
2444.000000	98.348026
2443.000000	98.352031
2442.000000	98.348108
2441.000000	98.337223
2440.000000	98.327945
2439.000000	98.327575
2438.000000	98.334317
2437.000000	98.339616
2436.000000	98.336405
2435.000000	98.324261
2434.000000	98.309177
2433.000000	98.299846
2432.000000	98.301504
2431.000000	98.311058
2430.000000	98.320197
2429.000000	98.324810
2428.000000	98.329183
2427.000000	98.339014
2426.000000	98.352960
2425.000000	98.364304
2424.000000	98.369201
2423.000000	98.369723
2422.000000	98.369228
2421.000000	98.368176
2420.000000	98.365228
2419.000000	98.360137
2418.000000	98.354223
2417.000000	98.349046
2416.000000	98.345509
2415.000000	98.344102
2414.000000	98.345500
2413.000000	98.350438
2412.000000	98.358431
2411.000000	98.367013
2410.000000	98.373389
2409.000000	98.376852
2408.000000	98.378868
2407.000000	98.381185
2406.000000	98.384832
2405.000000	98.389892
2404.000000	98.394299
2403.000000	98.394150
2402.000000	98.388376
2401.000000	98.382398
2400.000000	98.383232
2399.000000	98.390544
2398.000000	98.396712
2397.000000	98.396759
2396.000000	98.393756
2395.000000	98.392337
2394.000000	98.391350
2393.000000	98.386648
2392.000000	98.377826
2391.000000	98.368142
2390.000000	98.359642
2389.000000	98.352307
2388.000000	98.347545
2387.000000	98.348369
2386.000000	98.356712
2385.000000	98.371540
2384.000000	98.388735
2383.000000	98.402620
2382.000000	98.408385
2381.000000	98.407021
2380.000000	98.404670
2379.000000	98.404315
2378.000000	98.400515
2377.000000	98.385417
2376.000000	98.359666
2375.000000	98.333788
2374.000000	98.321040
2373.000000	98.329434
2372.000000	98.356219
2371.000000	98.385365
2370.000000	98.396954
2369.000000	98.386845
2368.000000	98.370092
2367.000000	98.363033
2366.000000	98.366677
2365.000000	98.371637
2364.000000	98.370499
2363.000000	98.357842
2362.000000	98.330239
2361.000000	98.293844
2360.000000	98.261628
2359.000000	98.241528
2358.000000	98.234074
2357.000000	98.239680
2356.000000	98.257539
2355.000000	98.277244
2354.000000	98.294753
2353.000000	98.313532
2352.000000	98.332565
2351.000000	98.342183
2350.000000	98.336926
2349.000000	98.319343
2348.000000	98.298219
2347.000000	98.286866
2346.000000	98.290455
2345.000000	98.294168
2344.000000	98.281402
2343.000000	98.255212
2342.000000	98.232957
2341.000000	98.226713
2340.000000	98.233410
2339.000000	98.242580
2338.000000	98.249110
2337.000000	98.254817
2336.000000	98.258961
2335.000000	98.261479
2334.000000	98.268504
2333.000000	98.288500
2332.000000	98.314009
2331.000000	98.330484
2330.000000	98.329002
2329.000000	98.314703
2328.000000	98.289626
2327.000000	98.254389
2326.000000	98.213880
2325.000000	98.181556
2324.000000	98.167421
2323.000000	98.170230
2322.000000	98.178249
2321.000000	98.181540
2320.000000	98.177451
2319.000000	98.170894
2318.000000	98.164950
2317.000000	98.163472
2316.000000	98.169943
2315.000000	98.188876
2314.000000	98.215385
2313.000000	98.239196
2312.000000	98.251533
2311.000000	98.255626
2310.000000	98.258218
2309.000000	98.262690
2308.000000	98.268138
2307.000000	98.277867
2306.000000	98.295538
2305.000000	98.318003
2304.000000	98.334469
2303.000000	98.339128
2302.000000	98.336072
2301.000000	98.333424
2300.000000	98.332474
2299.000000	98.330406
2298.000000	98.325424
2297.000000	98.320286
2296.000000	98.315329
2295.000000	98.307910
2294.000000	98.295968
2293.000000	98.283617
2292.000000	98.277276
2291.000000	98.279347
2290.000000	98.286246
2289.000000	98.293444
2288.000000	98.299971
2287.000000	98.306988
2286.000000	98.314169
2285.000000	98.319171
2284.000000	98.321734
2283.000000	98.325039
2282.000000	98.333023
2281.000000	98.346088
2280.000000	98.360897
2279.000000	98.373139
2278.000000	98.380402
2277.000000	98.382962
2276.000000	98.382071
2275.000000	98.378641
2274.000000	98.374036
2273.000000	98.371971
2272.000000	98.376634
2271.000000	98.388354
2270.000000	98.402570
2269.000000	98.414575
2268.000000	98.423207
2267.000000	98.428842
2266.000000	98.430275
2265.000000	98.427078
2264.000000	98.423401
2263.000000	98.425078
2262.000000	98.432432
2261.000000	98.438872
2260.000000	98.437732
2259.000000	98.428369
2258.000000	98.415688
2257.000000	98.406203
2256.000000	98.405226
2255.000000	98.414079
2254.000000	98.427844
2253.000000	98.438268
2252.000000	98.441493
2251.000000	98.442183
2250.000000	98.447698
2249.000000	98.459093
2248.000000	98.470028
2247.000000	98.474283
2246.000000	98.473969
2245.000000	98.477873
2244.000000	98.491130
2243.000000	98.507199
2242.000000	98.512241
2241.000000	98.498784
2240.000000	98.474251
2239.000000	98.454820
2238.000000	98.452299
2237.000000	98.467843
2236.000000	98.495218
2235.000000	98.526008
2234.000000	98.552102
2233.000000	98.567212
2232.000000	98.568616
2231.000000	98.556668
2230.000000	98.532824
2229.000000	98.500483
2228.000000	98.467384
2227.000000	98.443411
2226.000000	98.433942
2225.000000	98.436062
2224.000000	98.442091
2223.000000	98.445994
2222.000000	98.446271
2221.000000	98.444470
2220.000000	98.443244
2219.000000	98.445244
2218.000000	98.450654
2217.000000	98.452733
2216.000000	98.438293
2215.000000	98.399617
2214.000000	98.350119
2213.000000	98.322860
2212.000000	98.344155
2211.000000	98.406522
2210.000000	98.473490
2209.000000	98.512108
2208.000000	98.516810
2207.000000	98.502805
2206.000000	98.485639
2205.000000	98.473685
2204.000000	98.471316
2203.000000	98.478174
2202.000000	98.486126
2201.000000	98.485763
2200.000000	98.478273
2199.000000	98.476151
2198.000000	98.490020
2197.000000	98.516812
2196.000000	98.541193
2195.000000	98.547338
2194.000000	98.530387
2193.000000	98.499019
2192.000000	98.466763
2191.000000	98.440259
2190.000000	98.418990
2189.000000	98.405760
2188.000000	98.409629
2187.000000	98.433437
2186.000000	98.465467
2185.000000	98.492436
2184.000000	98.517268
2183.000000	98.552500
2182.000000	98.594716
2181.000000	98.619026
2180.000000	98.607447
2179.000000	98.573737
2178.000000	98.549447
2177.000000	98.550172
2176.000000	98.565659
2175.000000	98.582481
2174.000000	98.603698
2173.000000	98.635737
2172.000000	98.663420
2171.000000	98.656764
2170.000000	98.606602
2169.000000	98.542939
2168.000000	98.508096
2167.000000	98.515149
2166.000000	98.542360
2165.000000	98.562078
2164.000000	98.563849
2163.000000	98.553867
2162.000000	98.550299
2161.000000	98.583659
2160.000000	98.679043
2159.000000	98.818794
2158.000000	98.939108
2157.000000	98.988204
2156.000000	98.973139
2155.000000	98.934886
2154.000000	98.902620
2153.000000	98.882926
2152.000000	98.870544
2151.000000	98.853550
2150.000000	98.817476
2149.000000	98.759149
2148.000000	98.697267
2147.000000	98.659905
2146.000000	98.660010
2145.000000	98.685361
2144.000000	98.710283
2143.000000	98.715039
2142.000000	98.697439
2141.000000	98.671586
2140.000000	98.655088
2139.000000	98.654217
2138.000000	98.661812
2137.000000	98.669313
2136.000000	98.676210
2135.000000	98.685835
2134.000000	98.697222
2133.000000	98.706670
2132.000000	98.713626
2131.000000	98.719517
2130.000000	98.722887
2129.000000	98.720560
2128.000000	98.711433
2127.000000	98.694371
2126.000000	98.664920
2125.000000	98.621254
2124.000000	98.573458
2123.000000	98.539377
2122.000000	98.527844
2121.000000	98.529616
2120.000000	98.528463
2119.000000	98.519128
2118.000000	98.510721
2117.000000	98.513264
2116.000000	98.523970
2115.000000	98.528707
2114.000000	98.516481
2113.000000	98.491830
2112.000000	98.472128
2111.000000	98.471430
2110.000000	98.486846
2109.000000	98.501682
2108.000000	98.502222
2107.000000	98.492068
2106.000000	98.489177
2105.000000	98.507846
2104.000000	98.542850
2103.000000	98.572131
2102.000000	98.577019
2101.000000	98.559498
2100.000000	98.537763
2099.000000	98.525759
2098.000000	98.522117
2097.000000	98.519987
2096.000000	98.521414
2095.000000	98.534262
2094.000000	98.556719
2093.000000	98.573084
2092.000000	98.568089
2091.000000	98.541663
2090.000000	98.507674
2089.000000	98.481132
2088.000000	98.468416
2087.000000	98.467870
2086.000000	98.476106
2085.000000	98.490895
2084.000000	98.508671
2083.000000	98.522452
2082.000000	98.525796
2081.000000	98.519895
2080.000000	98.515114
2079.000000	98.523220
2078.000000	98.547239
2077.000000	98.578673
2076.000000	98.604487
2075.000000	98.616953
2074.000000	98.618157
2073.000000	98.616332
2072.000000	98.617051
2071.000000	98.618459
2070.000000	98.616080
2069.000000	98.611285
2068.000000	98.611598
2067.000000	98.621362
2066.000000	98.635357
2065.000000	98.643802
2064.000000	98.642860
2063.000000	98.638285
2062.000000	98.638326
2061.000000	98.644365
2060.000000	98.647990
2059.000000	98.638908
2058.000000	98.617964
2057.000000	98.599688
2056.000000	98.596820
2055.000000	98.602611
2054.000000	98.595858
2053.000000	98.566689
2052.000000	98.531269
2051.000000	98.517977
2050.000000	98.543371
2049.000000	98.599980
2048.000000	98.661114
2047.000000	98.699289
2046.000000	98.705417
2045.000000	98.693959
2044.000000	98.689509
2043.000000	98.704942
2042.000000	98.732617
2041.000000	98.756497
2040.000000	98.768932
2039.000000	98.772004
2038.000000	98.767536
2037.000000	98.755218
2036.000000	98.739960
2035.000000	98.734737
2034.000000	98.753031
2033.000000	98.797199
2032.000000	98.851436
2031.000000	98.888487
2030.000000	98.888808
2029.000000	98.856047
2028.000000	98.813177
2027.000000	98.781991
2026.000000	98.769783
2025.000000	98.774875
2024.000000	98.794558
2023.000000	98.826933
2022.000000	98.871044
2021.000000	98.925168
2020.000000	98.980223
2019.000000	99.015957
2018.000000	99.012032
2017.000000	98.968634
2016.000000	98.911305
2015.000000	98.866945
2014.000000	98.842942
2013.000000	98.833721
2012.000000	98.834903
2011.000000	98.845584
2010.000000	98.864530
2009.000000	98.890760
2008.000000	98.923466
2007.000000	98.956795
2006.000000	98.978678
2005.000000	98.979327
2004.000000	98.957110
2003.000000	98.914625
2002.000000	98.855150
2001.000000	98.786700
2000.000000	98.723649
1999.000000	98.679275
1998.000000	98.664868
1997.000000	98.692607
1996.000000	98.764603
1995.000000	98.857510
1994.000000	98.928789
1993.000000	98.945423
1992.000000	98.910619
1991.000000	98.858353
1990.000000	98.820318
1989.000000	98.806811
1988.000000	98.811053
1987.000000	98.819162
1986.000000	98.819575
1985.000000	98.809838
1984.000000	98.793410
1983.000000	98.769936
1982.000000	98.737629
1981.000000	98.708745
1980.000000	98.711392
1979.000000	98.762042
1978.000000	98.840884
1977.000000	98.903817
1976.000000	98.923556
1975.000000	98.910973
1974.000000	98.895975
1973.000000	98.900895
1972.000000	98.930222
1971.000000	98.974697
1970.000000	99.019454
1969.000000	99.048233
1968.000000	99.046156
1967.000000	99.009555
1966.000000	98.954251
1965.000000	98.904568
1964.000000	98.870771
1963.000000	98.846094
1962.000000	98.829033
1961.000000	98.834829
1960.000000	98.871710
1959.000000	98.917270
1958.000000	98.939774
1957.000000	98.937914
1956.000000	98.939716
1955.000000	98.961108
1954.000000	98.983853
1953.000000	98.981529
1952.000000	98.952714
1951.000000	98.918713
1950.000000	98.896514
1949.000000	98.888241
1948.000000	98.892678
1947.000000	98.911257
1946.000000	98.939523
1945.000000	98.961292
1944.000000	98.957013
1943.000000	98.919231
1942.000000	98.862690
1941.000000	98.817270
1940.000000	98.803750
1939.000000	98.818766
1938.000000	98.842883
1937.000000	98.856997
1936.000000	98.853612
1935.000000	98.837018
1934.000000	98.817209
1933.000000	98.805497
1932.000000	98.810468
1931.000000	98.832971
1930.000000	98.860986
1929.000000	98.876023
1928.000000	98.869255
1927.000000	98.847659
1926.000000	98.826247
1925.000000	98.813245
1924.000000	98.807041
1923.000000	98.803089
1922.000000	98.801258
1921.000000	98.805156
1920.000000	98.814892
1919.000000	98.822627
1918.000000	98.817563
1917.000000	98.798267
1916.000000	98.777299
1915.000000	98.765417
1914.000000	98.763423
1913.000000	98.768875
1912.000000	98.780377
1911.000000	98.795123
1910.000000	98.805404
1909.000000	98.804510
1908.000000	98.794853
1907.000000	98.782873
1906.000000	98.772744
1905.000000	98.766474
1904.000000	98.768129
1903.000000	98.779102
1902.000000	98.791899
1901.000000	98.798358
1900.000000	98.800619
1899.000000	98.805843
1898.000000	98.815382
1897.000000	98.823024
1896.000000	98.825098
1895.000000	98.825422
1894.000000	98.827849
1893.000000	98.830880
1892.000000	98.831075
1891.000000	98.826587
1890.000000	98.818095
1889.000000	98.809017
1888.000000	98.803173
1887.000000	98.798510
1886.000000	98.789178
1885.000000	98.775915
1884.000000	98.767805
1883.000000	98.771058
1882.000000	98.780271
1881.000000	98.787595
1880.000000	98.793177
1879.000000	98.799780
1878.000000	98.805715
1877.000000	98.808615
1876.000000	98.811808
1875.000000	98.820702
1874.000000	98.833491
1873.000000	98.841800
1872.000000	98.841197
1871.000000	98.834461
1870.000000	98.825339
1869.000000	98.815051
1868.000000	98.807599
1867.000000	98.807669
1866.000000	98.810685
1865.000000	98.811058
1864.000000	98.811424
1863.000000	98.815844
1862.000000	98.821304
1861.000000	98.821729
1860.000000	98.818240
1859.000000	98.817872
1858.000000	98.823202
1857.000000	98.831398
1856.000000	98.841547
1855.000000	98.853271
1854.000000	98.861211
1853.000000	98.858795
1852.000000	98.847819
1851.000000	98.833313
1850.000000	98.819639
1849.000000	98.812629
1848.000000	98.818692
1847.000000	98.835640
1846.000000	98.849697
1845.000000	98.849087
1844.000000	98.840383
1843.000000	98.842404
1842.000000	98.856600
1841.000000	98.867061
1840.000000	98.864308
1839.000000	98.851880
1838.000000	98.837828
1837.000000	98.825816
1836.000000	98.818781
1835.000000	98.820728
1834.000000	98.831595
1833.000000	98.845746
1832.000000	98.855024
1831.000000	98.852752
1830.000000	98.842394
1829.000000	98.835639
1828.000000	98.837187
1827.000000	98.841150
1826.000000	98.842888
1825.000000	98.842622
1824.000000	98.841523
1823.000000	98.839249
1822.000000	98.833438
1821.000000	98.824986
1820.000000	98.819453
1819.000000	98.822475
1818.000000	98.834223
1817.000000	98.846997
1816.000000	98.854164
1815.000000	98.854993
1814.000000	98.848848
1813.000000	98.834895
1812.000000	98.815580
1811.000000	98.801392
1810.000000	98.799822
1809.000000	98.803245
1808.000000	98.802679
1807.000000	98.799517
1806.000000	98.796441
1805.000000	98.790337
1804.000000	98.779760
1803.000000	98.770069
1802.000000	98.764484
1801.000000	98.758733
1800.000000	98.747112
1799.000000	98.733866
1798.000000	98.724902
1797.000000	98.723039
1796.000000	98.732010
1795.000000	98.752931
1794.000000	98.777246
1793.000000	98.789668
1792.000000	98.781812
1791.000000	98.768640
1790.000000	98.765609
1789.000000	98.768676
1788.000000	98.771311
1787.000000	98.775746
1786.000000	98.786406
1785.000000	98.802892
1784.000000	98.823087
1783.000000	98.843795
1782.000000	98.857085
1781.000000	98.861321
1780.000000	98.862301
1779.000000	98.867282
1778.000000	98.874330
1777.000000	98.878099
1776.000000	98.879930
1775.000000	98.882024
1774.000000	98.883802
1773.000000	98.885025
1772.000000	98.888362
1771.000000	98.897432
1770.000000	98.904091
1769.000000	98.894845
1768.000000	98.874296
1767.000000	98.863673
1766.000000	98.872957
1765.000000	98.888624
1764.000000	98.892930
1763.000000	98.882726
1762.000000	98.867409
1761.000000	98.859562
1760.000000	98.859930
1759.000000	98.862425
1758.000000	98.860590
1757.000000	98.856219
1756.000000	98.857091
1755.000000	98.862703
1754.000000	98.863600
1753.000000	98.854907
1752.000000	98.843965
1751.000000	98.838584
1750.000000	98.840355
1749.000000	98.844241
1748.000000	98.844947
1747.000000	98.840482
1746.000000	98.831349
1745.000000	98.820378
1744.000000	98.810736
1743.000000	98.809718
1742.000000	98.821094
1741.000000	98.836118
1740.000000	98.844895
1739.000000	98.854961
1738.000000	98.874572
1737.000000	98.891478
1736.000000	98.893347
1735.000000	98.892460
1734.000000	98.904938
1733.000000	98.932648
1732.000000	98.967302
1731.000000	98.991832
1730.000000	98.996112
1729.000000	98.990090
1728.000000	98.989425
1727.000000	98.995650
1726.000000	99.002489
1725.000000	99.006588
1724.000000	99.007005
1723.000000	99.010105
1722.000000	99.019940
1721.000000	99.025166
1720.000000	99.006703
1719.000000	98.960563
1718.000000	98.908171
1717.000000	98.867462
1716.000000	98.839590
1715.000000	98.821723
1714.000000	98.799868
1713.000000	98.762423
1712.000000	98.714587
1711.000000	98.667633
1710.000000	98.624133
1709.000000	98.578585
1708.000000	98.522043
1707.000000	98.444169
1706.000000	98.344586
1705.000000	98.242825
1704.000000	98.164731
1703.000000	98.106401
1702.000000	98.040320
1701.000000	97.929678
1700.000000	97.768006
1699.000000	97.626209
1698.000000	97.512557
1697.000000	97.362026
1696.000000	97.170598
1695.000000	97.024045
1694.000000	96.961952
1693.000000	96.925034
1692.000000	96.855421
1691.000000	96.748169
1690.000000	96.627108
1689.000000	96.510931
1688.000000	96.402770
1687.000000	96.292417
1686.000000	96.166729
1685.000000	95.994796
1684.000000	95.780285
1683.000000	95.616460
1682.000000	95.506095
1681.000000	95.376630
1680.000000	95.214788
1679.000000	95.053110
1678.000000	94.904150
1677.000000	94.738058
1676.000000	94.522968
1675.000000	94.276896
1674.000000	94.054681
1673.000000	93.868362
1672.000000	93.681133
1671.000000	93.464985
1670.000000	93.214497
1669.000000	92.949540
1668.000000	92.706380
1667.000000	92.503123
1666.000000	92.327654
1665.000000	92.149047
1664.000000	91.939860
1663.000000	91.703713
1662.000000	91.472187
1661.000000	91.265085
1660.000000	91.075878
1659.000000	90.901383
1658.000000	90.748331
1657.000000	90.611198
1656.000000	90.466319
1655.000000	90.298274
1654.000000	90.107538
1653.000000	89.923580
1652.000000	89.818691
1651.000000	89.795338
1650.000000	89.796938
1649.000000	89.767800
1648.000000	89.695615
1647.000000	89.615288
1646.000000	89.563552
1645.000000	89.530985
1644.000000	89.496246
1643.000000	89.458299
1642.000000	89.418995
1641.000000	89.379422
1640.000000	89.338164
1639.000000	89.290478
1638.000000	89.232050
1637.000000	89.159927
1636.000000	89.079550
1635.000000	89.010478
1634.000000	88.963565
1633.000000	88.923181
1632.000000	88.879605
1631.000000	88.840974
1630.000000	88.822451
1629.000000	88.830708
1628.000000	88.862650
1627.000000	88.912443
1626.000000	88.976740
1625.000000	89.063519
1624.000000	89.187952
1623.000000	89.354989
1622.000000	89.538635
1621.000000	89.706967
1620.000000	89.850749
1619.000000	89.982897
1618.000000	90.143330
1617.000000	90.376150
1616.000000	90.667213
1615.000000	90.945562
1614.000000	91.174696
1613.000000	91.371086
1612.000000	91.565433
1611.000000	91.770489
1610.000000	91.974992
1609.000000	92.171997
1608.000000	92.367785
1607.000000	92.560372
1606.000000	92.737548
1605.000000	92.902385
1604.000000	93.066934
1603.000000	93.228463
1602.000000	93.373768
1601.000000	93.501567
1600.000000	93.620170
1599.000000	93.728199
1598.000000	93.819482
1597.000000	93.899678
1596.000000	93.979867
1595.000000	94.058127
1594.000000	94.123360
1593.000000	94.175518
1592.000000	94.222103
1591.000000	94.260232
1590.000000	94.281469
1589.000000	94.290892
1588.000000	94.298909
1587.000000	94.299627
1586.000000	94.279350
1585.000000	94.241526
1584.000000	94.202284
1583.000000	94.159148
1582.000000	94.099579
1581.000000	94.028290
1580.000000	93.956821
1579.000000	93.873223
1578.000000	93.758223
1577.000000	93.622847
1576.000000	93.512562
1575.000000	93.451826
1574.000000	93.413440
1573.000000	93.366839
1572.000000	93.299256
1571.000000	93.205104
1570.000000	93.076120
1569.000000	92.930261
1568.000000	92.800348
1567.000000	92.678651
1566.000000	92.543186
1565.000000	92.395841
1564.000000	92.257557
1563.000000	92.128281
1562.000000	91.990507
1561.000000	91.842577
1560.000000	91.683610
1559.000000	91.483160
1558.000000	91.298116
1557.000000	91.171160
1556.000000	91.052312
1555.000000	90.917694
1554.000000	90.777668
1553.000000	90.654730
1552.000000	90.547459
1551.000000	90.442417
1550.000000	90.343916
1549.000000	90.266867
1548.000000	90.211337
1547.000000	90.160611
1546.000000	90.106696
1545.000000	90.056507
1544.000000	90.019343
1543.000000	89.994211
1542.000000	89.978408
1541.000000	89.978726
1540.000000	90.021868
1539.000000	90.110110
1538.000000	90.203795
1537.000000	90.282741
1536.000000	90.346805
1535.000000	90.414478
1534.000000	90.516886
1533.000000	90.652388
1532.000000	90.775524
1531.000000	90.867302
1530.000000	90.943157
1529.000000	91.017439
1528.000000	91.096835
1527.000000	91.190664
1526.000000	91.301561
1525.000000	91.411039
1524.000000	91.495936
1523.000000	91.561988
1522.000000	91.641851
1521.000000	91.746553
1520.000000	91.850501
1519.000000	91.938863
1518.000000	92.016666
1517.000000	92.096514
1516.000000	92.182581
1515.000000	92.265800
1514.000000	92.340125
1513.000000	92.410970
1512.000000	92.483339
1511.000000	92.554901
1510.000000	92.616844
1509.000000	92.666907
1508.000000	92.723742
1507.000000	92.824527
1506.000000	92.974663
1505.000000	93.108518
1504.000000	93.196270
1503.000000	93.256954
1502.000000	93.306044
1501.000000	93.354796
1500.000000	93.403297
1499.000000	93.440561
1498.000000	93.466845
1497.000000	93.493039
1496.000000	93.529074
1495.000000	93.583835
1494.000000	93.651082
1493.000000	93.709936
1492.000000	93.747830
1491.000000	93.770077
1490.000000	93.785723
1489.000000	93.791248
1488.000000	93.783703
1487.000000	93.775504
1486.000000	93.769268
1485.000000	93.754260
1484.000000	93.726054
1483.000000	93.684363
1482.000000	93.633012
1481.000000	93.575164
1480.000000	93.513957
1479.000000	93.449720
1478.000000	93.377449
1477.000000	93.292038
1476.000000	93.197464
1475.000000	93.105475
1474.000000	93.010283
1473.000000	92.889806
1472.000000	92.747264
1471.000000	92.621939
1470.000000	92.524157
1469.000000	92.433375
1468.000000	92.337180
1467.000000	92.237278
1466.000000	92.130691
1465.000000	92.010375
1464.000000	91.884699
1463.000000	91.772277
1462.000000	91.676539
1461.000000	91.582279
1460.000000	91.471218
1459.000000	91.331230
1458.000000	91.163181
1457.000000	90.990589
1456.000000	90.858984
1455.000000	90.779467
1454.000000	90.716508
1453.000000	90.644231
1452.000000	90.570349
1451.000000	90.513105
1450.000000	90.470868
1449.000000	90.430516
1448.000000	90.391196
1447.000000	90.365513
1446.000000	90.356842
1445.000000	90.360975
1444.000000	90.372082
1443.000000	90.385528
1442.000000	90.399025
1441.000000	90.413694
1440.000000	90.429280
1439.000000	90.441462
1438.000000	90.455086
1437.000000	90.481930
1436.000000	90.523595
1435.000000	90.564032
1434.000000	90.592222
1433.000000	90.609284
1432.000000	90.624135
1431.000000	90.638804
1430.000000	90.646396
1429.000000	90.643711
1428.000000	90.635073
1427.000000	90.624176
1426.000000	90.610421
1425.000000	90.601996
1424.000000	90.606874
1423.000000	90.614801
1422.000000	90.609490
1421.000000	90.591495
1420.000000	90.578995
1419.000000	90.585534
1418.000000	90.614598
1417.000000	90.659878
1416.000000	90.705736
1415.000000	90.740566
1414.000000	90.763816
1413.000000	90.784115
1412.000000	90.808902
1411.000000	90.836004
1410.000000	90.860757
1409.000000	90.882647
1408.000000	90.901357
1407.000000	90.915304
1406.000000	90.925070
1405.000000	90.939302
1404.000000	90.962532
1403.000000	90.985252
1402.000000	90.998179
1401.000000	91.003779
1400.000000	91.011860
1399.000000	91.025341
1398.000000	91.040719
1397.000000	91.059246
1396.000000	91.088092
1395.000000	91.129794
1394.000000	91.178614
1393.000000	91.230763
1392.000000	91.281490
1391.000000	91.325035
1390.000000	91.361205
1389.000000	91.399344
1388.000000	91.449616
1387.000000	91.509614
1386.000000	91.568837
1385.000000	91.624466
1384.000000	91.679035
1383.000000	91.733212
1382.000000	91.786836
1381.000000	91.840533
1380.000000	91.896201
1379.000000	91.953511
1378.000000	92.010889
1377.000000	92.070317
1376.000000	92.136106
1375.000000	92.209035
1374.000000	92.287358
1373.000000	92.372075
1372.000000	92.462127
1371.000000	92.552023
1370.000000	92.639398
1369.000000	92.734320
1368.000000	92.844824
1367.000000	92.961315
1366.000000	93.069296
1365.000000	93.168434
1364.000000	93.270041
1363.000000	93.379758
1362.000000	93.489778
1361.000000	93.592021
1360.000000	93.684204
1359.000000	93.763259
1358.000000	93.826587
1357.000000	93.877546
1356.000000	93.919753
1355.000000	93.950119
1354.000000	93.964833
1353.000000	93.966120
1352.000000	93.957018
1351.000000	93.936541
1350.000000	93.902870
1349.000000	93.863547
1348.000000	93.825807
1347.000000	93.785526
1346.000000	93.735420
1345.000000	93.678668
1344.000000	93.623054
1343.000000	93.568476
1342.000000	93.510781
1341.000000	93.454196
1340.000000	93.409042
1339.000000	93.378939
1338.000000	93.363256
1337.000000	93.366459
1336.000000	93.391543
1335.000000	93.432497
1334.000000	93.480589
1333.000000	93.534257
1332.000000	93.595822
1331.000000	93.663199
1330.000000	93.732539
1329.000000	93.805093
1328.000000	93.881163
1327.000000	93.951972
1326.000000	94.006975
1325.000000	94.047470
1324.000000	94.079701
1323.000000	94.102669
1322.000000	94.114118
1321.000000	94.121023
1320.000000	94.132679
1319.000000	94.148998
1318.000000	94.165885
1317.000000	94.185570
1316.000000	94.211922
1315.000000	94.243115
1314.000000	94.278019
1313.000000	94.321747
1312.000000	94.375840
1311.000000	94.431152
1310.000000	94.479374
1309.000000	94.523437
1308.000000	94.568215
1307.000000	94.610911
1306.000000	94.647766
1305.000000	94.683804
1304.000000	94.723642
1303.000000	94.763101
1302.000000	94.798400
1301.000000	94.834220
1300.000000	94.873109
1299.000000	94.907158
1298.000000	94.930399
1297.000000	94.948851
1296.000000	94.968518
1295.000000	94.982143
1294.000000	94.979970
1293.000000	94.963577
1292.000000	94.938738
1291.000000	94.904993
1290.000000	94.862550
1289.000000	94.820403
1288.000000	94.785708
1287.000000	94.753028
1286.000000	94.714853
1285.000000	94.674703
1284.000000	94.639596
1283.000000	94.609031
1282.000000	94.581262
1281.000000	94.561926
1280.000000	94.556402
1279.000000	94.559906
1278.000000	94.565577
1277.000000	94.574843
1276.000000	94.590451
1275.000000	94.606895
1274.000000	94.617996
1273.000000	94.626538
1272.000000	94.636459
1271.000000	94.642725
1270.000000	94.639653
1269.000000	94.631997
1268.000000	94.627189
1267.000000	94.622995
1266.000000	94.613018
1265.000000	94.596642
1264.000000	94.574836
1263.000000	94.544455
1262.000000	94.505446
1261.000000	94.465910
1260.000000	94.431255
1259.000000	94.396268
1258.000000	94.356489
1257.000000	94.316473
1256.000000	94.278749
1255.000000	94.235438
1254.000000	94.179885
1253.000000	94.117118
1252.000000	94.054021
1251.000000	93.988596
1250.000000	93.917724
1249.000000	93.845946
1248.000000	93.777156
1247.000000	93.705846
1246.000000	93.627102
1245.000000	93.546618
1244.000000	93.471631
1243.000000	93.399894
1242.000000	93.327210
1241.000000	93.258152
1240.000000	93.200062
1239.000000	93.153689
1238.000000	93.117810
1237.000000	93.097080
1236.000000	93.095922
1235.000000	93.110928
1234.000000	93.137761
1233.000000	93.178441
1232.000000	93.235269
1231.000000	93.304260
1230.000000	93.382394
1229.000000	93.474117
1228.000000	93.581615
1227.000000	93.698543
1226.000000	93.821166
1225.000000	93.955875
1224.000000	94.105747
1223.000000	94.258486
1222.000000	94.399504
1221.000000	94.527891
1220.000000	94.648623
1219.000000	94.757683
1218.000000	94.847851
1217.000000	94.920493
1216.000000	94.979553
1215.000000	95.021854
1214.000000	95.043080
1213.000000	95.047371
1212.000000	95.040359
1211.000000	95.021115
1210.000000	94.990395
1209.000000	94.956867
1208.000000	94.926482
1207.000000	94.894034
1206.000000	94.854764
1205.000000	94.816482
1204.000000	94.791528
1203.000000	94.784254
1202.000000	94.794103
1201.000000	94.822719
1200.000000	94.868927
1199.000000	94.925631
1198.000000	94.989535
1197.000000	95.065923
1196.000000	95.156540
1195.000000	95.251198
1194.000000	95.339738
1193.000000	95.422616
1192.000000	95.502622
1191.000000	95.577238
1190.000000	95.647208
1189.000000	95.720879
1188.000000	95.800585
1187.000000	95.875536
1186.000000	95.936463
1185.000000	95.986686
1184.000000	96.030934
1183.000000	96.067044
1182.000000	96.097327
1181.000000	96.133054
1180.000000	96.176853
1179.000000	96.213870
1178.000000	96.232505
1177.000000	96.240292
1176.000000	96.248240
1175.000000	96.255022
1174.000000	96.257612
1173.000000	96.263130
1172.000000	96.276879
1171.000000	96.290522
1170.000000	96.294878
1169.000000	96.293144
1168.000000	96.290534
1167.000000	96.283298
1166.000000	96.269271
1165.000000	96.257045
1164.000000	96.253124
1163.000000	96.252327
1162.000000	96.251315
1161.000000	96.258376
1160.000000	96.278764
1159.000000	96.304353
1158.000000	96.330032
1157.000000	96.365224
1156.000000	96.416374
1155.000000	96.472154
1154.000000	96.520375
1153.000000	96.566334
1152.000000	96.619851
1151.000000	96.677894
1150.000000	96.734519
1149.000000	96.794689
1148.000000	96.862291
1147.000000	96.926792
1146.000000	96.976967
1145.000000	97.016755
1144.000000	97.054005
1143.000000	97.085577
1142.000000	97.107255
1141.000000	97.125750
1140.000000	97.147573
1139.000000	97.168452
1138.000000	97.185487
1137.000000	97.206560
1136.000000	97.235266
1135.000000	97.260547
1134.000000	97.274053
1133.000000	97.283557
1132.000000	97.297126
1131.000000	97.308854
1130.000000	97.312857
1129.000000	97.315756
1128.000000	97.321712
1127.000000	97.321241
1126.000000	97.309209
1125.000000	97.298207
1124.000000	97.299185
1123.000000	97.303877
1122.000000	97.301286
1121.000000	97.297012
1120.000000	97.300865
1119.000000	97.309417
1118.000000	97.315313
1117.000000	97.320317
1116.000000	97.325278
1115.000000	97.321674
1114.000000	97.306529
1113.000000	97.291225
1112.000000	97.282875
1111.000000	97.272799
1110.000000	97.255474
1109.000000	97.241475
1108.000000	97.237217
1107.000000	97.230815
1106.000000	97.212805
1105.000000	97.192620
1104.000000	97.179576
1103.000000	97.165811
1102.000000	97.144355
1101.000000	97.125691
1100.000000	97.117317
1099.000000	97.107720
1098.000000	97.084274
1097.000000	97.053951
1096.000000	97.027320
1095.000000	96.998132
1094.000000	96.956365
1093.000000	96.906775
1092.000000	96.856695
1091.000000	96.800286
1090.000000	96.730364
1089.000000	96.652771
1088.000000	96.573793
1087.000000	96.487818
1086.000000	96.391932
1085.000000	96.298090
1084.000000	96.217278
1083.000000	96.146423
1082.000000	96.085098
1081.000000	96.047899
1080.000000	96.046052
1079.000000	96.070746
1078.000000	96.109286
1077.000000	96.162761
1076.000000	96.232394
1075.000000	96.306004
1074.000000	96.373378
1073.000000	96.439583
1072.000000	96.507787
1071.000000	96.564773
1070.000000	96.598339
1069.000000	96.613759
1068.000000	96.619333
1067.000000	96.612637
1066.000000	96.594970
1065.000000	96.580904
1064.000000	96.578090
1063.000000	96.575144
1062.000000	96.563003
1061.000000	96.551349
1060.000000	96.549838
1059.000000	96.552061
1058.000000	96.552613
1057.000000	96.560959
1056.000000	96.582672
1055.000000	96.604783
1054.000000	96.616245
1053.000000	96.625343
1052.000000	96.641892
1051.000000	96.659325
1050.000000	96.670833
1049.000000	96.684065
1048.000000	96.703584
1047.000000	96.718163
1046.000000	96.720677
1045.000000	96.720483
1044.000000	96.722458
1043.000000	96.715489
1042.000000	96.694437
1041.000000	96.672169
1040.000000	96.654312
1039.000000	96.623437
1038.000000	96.564664
1037.000000	96.487574
1036.000000	96.408108
1035.000000	96.329444
1034.000000	96.255642
1033.000000	96.202391
1032.000000	96.177904
1031.000000	96.172503
1030.000000	96.181074
1029.000000	96.214755
1028.000000	96.274921
1027.000000	96.339080
1026.000000	96.391564
1025.000000	96.445273
1024.000000	96.515014
1023.000000	96.589989
1022.000000	96.653144
1021.000000	96.706718
1020.000000	96.757994
1019.000000	96.799658
1018.000000	96.824672
1017.000000	96.843099
1016.000000	96.865307
1015.000000	96.887256
1014.000000	96.907778
1013.000000	96.940193
1012.000000	96.989023
1011.000000	97.036944
1010.000000	97.072104
1009.000000	97.108023
1008.000000	97.158401
1007.000000	97.213607
1006.000000	97.261142
1005.000000	97.307663
1004.000000	97.361929
1003.000000	97.415535
1002.000000	97.460744
1001.000000	97.507800
1000.000000	97.565613
999.000000	97.623318
998.000000	97.670096
997.000000	97.714656
996.000000	97.767004
995.000000	97.819619
994.000000	97.863981
993.000000	97.906549
992.000000	97.950478
991.000000	97.982560
990.000000	97.997131
989.000000	98.013126
988.000000	98.046486
987.000000	98.085457
986.000000	98.111649
985.000000	98.127263
984.000000	98.141255
983.000000	98.147615
982.000000	98.138794
981.000000	98.122853
980.000000	98.107838
979.000000	98.085139
978.000000	98.047553
977.000000	98.007142
976.000000	97.978093
975.000000	97.958097
974.000000	97.943345
973.000000	97.943335
972.000000	97.963285
971.000000	97.989810
970.000000	98.011421
969.000000	98.035698
968.000000	98.069685
967.000000	98.102600
966.000000	98.125544
965.000000	98.149490
964.000000	98.184489
963.000000	98.220549
962.000000	98.247065
961.000000	98.273487
960.000000	98.311184
959.000000	98.352434
958.000000	98.385133
957.000000	98.411203
956.000000	98.433939
955.000000	98.445816
954.000000	98.446103
953.000000	98.450514
952.000000	98.466791
951.000000	98.479410
950.000000	98.475644
949.000000	98.465610
948.000000	98.460088
947.000000	98.450513
946.000000	98.430325
945.000000	98.413934
944.000000	98.413454
943.000000	98.416283
942.000000	98.406189
941.000000	98.389267
940.000000	98.379270
939.000000	98.375935
938.000000	98.375854
937.000000	98.386844
936.000000	98.412620
935.000000	98.441309
934.000000	98.465324
933.000000	98.494271
932.000000	98.531644
931.000000	98.560272
930.000000	98.569134
929.000000	98.573246
928.000000	98.588709
927.000000	98.607875
926.000000	98.618500
925.000000	98.626076
924.000000	98.639138
923.000000	98.651815
922.000000	98.659526
921.000000	98.671482
920.000000	98.690594
919.000000	98.702421
918.000000	98.701882
917.000000	98.708251
916.000000	98.734636
915.000000	98.765908
914.000000	98.785111
913.000000	98.799428
912.000000	98.819057
911.000000	98.835043
910.000000	98.839639
909.000000	98.846521
908.000000	98.867729
907.000000	98.891604
906.000000	98.904587
905.000000	98.913248
904.000000	98.925083
903.000000	98.930421
902.000000	98.925118
901.000000	98.926790
900.000000	98.946857
899.000000	98.968869
898.000000	98.976866
897.000000	98.980940
896.000000	98.992994
895.000000	99.002429
894.000000	99.000586
893.000000	99.004555
892.000000	99.029648
891.000000	99.060351
890.000000	99.071981
889.000000	99.059730
888.000000	99.021948
887.000000	98.939626
886.000000	98.801273
885.000000	98.627257
884.000000	98.440455
883.000000	98.231739
882.000000	97.976796
881.000000	97.670563
880.000000	97.323547
879.000000	96.946395
878.000000	96.561572
877.000000	96.209029
876.000000	95.919094
875.000000	95.701090
874.000000	95.579459
873.000000	95.607882
872.000000	95.819962
871.000000	96.179470
870.000000	96.605308
869.000000	97.028307
868.000000	97.403095
867.000000	97.697950
866.000000	97.908483
865.000000	98.065841
864.000000	98.200668
863.000000	98.312887
862.000000	98.392762
861.000000	98.449637
860.000000	98.495956
859.000000	98.526362
858.000000	98.538180
857.000000	98.550301
856.000000	98.577151
855.000000	98.605086
854.000000	98.617626
853.000000	98.622458
852.000000	98.630994
851.000000	98.634052
850.000000	98.622855
849.000000	98.612124
848.000000	98.619188
847.000000	98.640086
846.000000	98.667036
845.000000	98.705854
844.000000	98.755800
843.000000	98.797475
842.000000	98.823153
841.000000	98.853643
840.000000	98.902535
839.000000	98.950049
838.000000	98.974436
837.000000	98.983793
836.000000	98.993255
835.000000	98.998840
834.000000	98.997111
833.000000	99.002899
832.000000	99.021710
831.000000	99.031732
830.000000	99.019220
829.000000	99.004710
828.000000	99.007768
827.000000	99.013693
826.000000	99.003973
825.000000	98.989914
824.000000	98.986239
823.000000	98.981939
822.000000	98.968569
821.000000	98.963953
820.000000	98.977790
819.000000	98.986847
818.000000	98.973338
817.000000	98.955750
816.000000	98.953472
815.000000	98.953006
814.000000	98.939026
813.000000	98.929055
812.000000	98.944162
811.000000	98.971871
810.000000	98.989242
809.000000	98.998840
808.000000	99.011583
807.000000	99.018476
806.000000	99.009391
805.000000	98.997531
804.000000	98.997671
803.000000	99.001578
802.000000	98.999437
801.000000	99.000610
800.000000	99.009470
799.000000	99.007603
798.000000	98.985237
797.000000	98.962947
796.000000	98.958060
795.000000	98.958192
794.000000	98.951715
793.000000	98.952549
792.000000	98.968476
791.000000	98.975942
790.000000	98.955378
789.000000	98.924153
788.000000	98.907214
787.000000	98.901698
786.000000	98.895544
785.000000	98.893962
784.000000	98.902012
783.000000	98.907084
782.000000	98.903697
781.000000	98.909952
780.000000	98.935584
779.000000	98.959640
778.000000	98.962653
777.000000	98.955000
776.000000	98.951583
775.000000	98.946975
774.000000	98.937946
773.000000	98.940458
772.000000	98.959175
771.000000	98.969539
770.000000	98.955973
769.000000	98.939654
768.000000	98.943036
767.000000	98.955041
766.000000	98.956704
765.000000	98.952788
764.000000	98.951756
763.000000	98.941989
762.000000	98.915032
761.000000	98.886195
760.000000	98.867678
759.000000	98.847350
758.000000	98.817772
757.000000	98.797916
756.000000	98.801645
755.000000	98.811816
754.000000	98.808909
753.000000	98.798003
752.000000	98.785990
751.000000	98.763652
750.000000	98.732311
749.000000	98.715986
748.000000	98.722356
747.000000	98.724155
746.000000	98.702840
745.000000	98.677478
744.000000	98.665814
743.000000	98.653704
742.000000	98.630382
741.000000	98.616122
740.000000	98.624214
739.000000	98.630284
738.000000	98.611907
737.000000	98.584797
736.000000	98.568484
735.000000	98.548374
734.000000	98.505575
733.000000	98.452892
732.000000	98.409614
731.000000	98.371207
730.000000	98.333729
729.000000	98.314059
728.000000	98.317040
727.000000	98.314577
726.000000	98.284865
725.000000	98.244860
724.000000	98.214354
723.000000	98.180190
722.000000	98.125636
721.000000	98.065439
720.000000	98.019005
719.000000	97.975139
718.000000	97.912621
717.000000	97.824277
716.000000	97.695242
715.000000	97.499949
714.000000	97.258821
713.000000	97.059817
712.000000	96.982068
711.000000	97.020211
710.000000	97.115273
709.000000	97.223516
708.000000	97.320923
707.000000	97.379706
706.000000	97.384468
705.000000	97.354958
704.000000	97.318882
703.000000	97.277778
702.000000	97.229061
701.000000	97.194010
700.000000	97.187201
699.000000	97.189376
698.000000	97.177797
697.000000	97.161330
696.000000	97.157354
695.000000	97.157262
694.000000	97.150611
693.000000	97.150679
692.000000	97.161476
691.000000	97.157058
690.000000	97.120237
689.000000	97.072799
688.000000	97.037915
687.000000	97.001891
686.000000	96.954181
685.000000	96.919635
684.000000	96.912820
683.000000	96.906101
682.000000	96.878716
681.000000	96.852786
680.000000	96.844097
679.000000	96.824508
678.000000	96.772332
677.000000	96.708534
676.000000	96.658794
675.000000	96.616278
674.000000	96.575388
673.000000	96.560926
672.000000	96.590567
671.000000	96.647103
670.000000	96.709555
669.000000	96.766051
668.000000	96.746071
667.000000	96.597618
666.000000	96.452327
665.000000	96.353666
664.000000	96.284637
663.000000	96.228074
662.000000	96.172601
661.000000	96.128081
660.000000	96.106199
659.000000	96.098949
658.000000	96.096182
657.000000	96.097263
656.000000	96.102262
655.000000	96.100096
654.000000	96.081971
653.000000	96.058096
652.000000	96.044852
651.000000	96.039901
650.000000	96.030494
649.000000	96.014042
648.000000	95.994653
647.000000	95.969356
646.000000	95.936191
645.000000	95.910201
644.000000	95.904454
643.000000	95.906769
642.000000	95.901291
641.000000	95.893524
640.000000	95.891827
639.000000	95.886378
638.000000	95.868132
637.000000	95.849252
636.000000	95.842810
635.000000	95.837384
634.000000	95.822587
633.000000	95.817090
632.000000	95.838336
631.000000	95.867791
630.000000	95.875121
629.000000	95.856876
628.000000	95.826054
627.000000	95.785980
626.000000	95.740315
625.000000	95.712065
624.000000	95.717961
623.000000	95.742227
622.000000	95.764016
621.000000	95.788405
620.000000	95.821496
619.000000	95.844251
618.000000	95.842089
617.000000	95.835367
616.000000	95.847154
615.000000	95.866795
614.000000	95.875504
613.000000	95.877866
612.000000	95.879463
611.000000	95.865473
610.000000	95.832265
609.000000	95.807724
608.000000	95.811341
607.000000	95.822687
606.000000	95.818669
605.000000	95.811624
604.000000	95.817039
603.000000	95.819491
602.000000	95.806522
601.000000	95.798398
600.000000	95.811527
599.000000	95.829406
598.000000	95.843676
597.000000	95.879931
596.000000	95.944883
595.000000	95.994904
594.000000	95.994489
593.000000	95.968061
592.000000	95.952531
591.000000	95.940438
590.000000	95.912605
589.000000	95.883709
588.000000	95.872014
587.000000	95.865488
586.000000	95.855176
585.000000	95.857658
584.000000	95.874346
583.000000	95.872735
582.000000	95.846510
581.000000	95.839987
580.000000	95.876205
579.000000	95.911766
578.000000	95.907296
577.000000	95.883385
576.000000	95.865031
575.000000	95.833435
574.000000	95.777461
573.000000	95.732068
572.000000	95.714093
571.000000	95.684084
570.000000	95.614248
569.000000	95.541885
568.000000	95.502942
567.000000	95.473564
566.000000	95.427092
565.000000	95.385495
564.000000	95.368125
563.000000	95.350969
562.000000	95.325423
561.000000	95.330336
560.000000	95.376340
559.000000	95.403007
558.000000	95.366977
557.000000	95.307029
556.000000	95.272194
555.000000	95.251268
554.000000	95.225865
553.000000	95.222523
552.000000	95.253026
551.000000	95.271509
550.000000	95.251071
549.000000	95.242683
548.000000	95.292730
547.000000	95.366523
546.000000	95.411848
545.000000	95.439433
544.000000	95.477275
543.000000	95.509460
542.000000	95.522134
541.000000	95.542788
540.000000	95.573134
539.000000	95.549237
538.000000	95.433872
537.000000	95.287153
536.000000	95.184857
535.000000	95.122467
534.000000	95.060079
533.000000	94.993881
532.000000	94.933363
531.000000	94.864170
530.000000	94.787078
529.000000	94.736746
528.000000	94.723249
527.000000	94.711611
526.000000	94.700045
525.000000	94.746924
524.000000	94.861576
523.000000	94.970946
522.000000	95.040435
521.000000	95.129799
520.000000	95.279373
519.000000	95.421315
518.000000	95.474990
517.000000	95.467713
516.000000	95.470345
515.000000	95.494134
514.000000	95.536688
513.000000	95.631722
512.000000	95.778740
511.000000	95.897550
510.000000	95.932199
509.000000	95.936160
508.000000	95.988229
507.000000	96.080145
506.000000	96.160780
505.000000	96.227388
504.000000	96.292735
503.000000	96.333374
502.000000	96.347908
501.000000	96.402162
500.000000	96.531472
499.000000	96.671066
498.000000	96.750349
497.000000	96.778961
496.000000	96.793172
495.000000	96.788516
494.000000	96.763709
493.000000	96.765799
492.000000	96.824676
491.000000	96.896400
490.000000	96.937925
489.000000	96.961440
488.000000	96.967295
487.000000	96.914178
486.000000	96.812584
485.000000	96.759287
484.000000	96.806339
483.000000	96.880854
482.000000	96.914993
481.000000	96.944645
480.000000	97.004731
479.000000	97.049693
478.000000	97.063342
477.000000	97.126274
476.000000	97.278595
475.000000	97.418704
474.000000	97.440436
473.000000	97.382501
472.000000	97.351704
471.000000	97.365305
470.000000	97.400076
469.000000	97.472654
468.000000	97.555937
467.000000	97.551073
466.000000	97.451882
465.000000	97.398785
464.000000	97.471496
463.000000	97.577238
462.000000	97.620696
461.000000	97.662175
460.000000	97.781760
459.000000	97.923680
458.000000	98.012427
457.000000	98.116625
456.000000	98.523967
455.000000	98.679153
454.000000	98.814045
453.000000	98.918214
452.000000	98.986242
451.000000	98.994620
450.000000	98.989386
