PE IR       SUBTECH     SPECTRUM    ASCII       PEDS        4.00        
   -1
POD9-2C-C001_1.ASC
23/09/08
12:16:21.00
23/09/08
12:25:17.00
uco
Sample 001 By uco Date Friday, September 08 2023
450.000000
#HDR
-1
-1
#GR
cm-1
%T
1.0
0.0
4000.000000
-1.000000
3551
8
99.116264
87.826808
#DATA
4000.000000	98.964135
3999.000000	98.963403
3998.000000	98.958632
3997.000000	98.951276
3996.000000	98.944686
3995.000000	98.941918
3994.000000	98.944135
3993.000000	98.949903
3992.000000	98.956022
3991.000000	98.959540
3990.000000	98.959552
3989.000000	98.957274
3988.000000	98.954600
3987.000000	98.952672
3986.000000	98.951763
3985.000000	98.951976
3984.000000	98.953377
3983.000000	98.955243
3982.000000	98.955731
3981.000000	98.952990
3980.000000	98.946732
3979.000000	98.938647
3978.000000	98.931367
3977.000000	98.927146
3976.000000	98.927145
3975.000000	98.931081
3974.000000	98.936998
3973.000000	98.941780
3972.000000	98.942927
3971.000000	98.940597
3970.000000	98.937585
3969.000000	98.936753
3968.000000	98.938375
3967.000000	98.940205
3966.000000	98.940230
3965.000000	98.938776
3964.000000	98.937830
3963.000000	98.938634
3962.000000	98.940436
3961.000000	98.941720
3960.000000	98.942011
3959.000000	98.942226
3958.000000	98.943432
3957.000000	98.945541
3956.000000	98.947542
3955.000000	98.948501
3954.000000	98.948088
3953.000000	98.946414
3952.000000	98.943823
3951.000000	98.941207
3950.000000	98.939757
3949.000000	98.940025
3948.000000	98.941251
3947.000000	98.941944
3946.000000	98.941543
3945.000000	98.940555
3944.000000	98.939036
3943.000000	98.935798
3942.000000	98.929663
3941.000000	98.922065
3940.000000	98.916896
3939.000000	98.917216
3938.000000	98.922558
3937.000000	98.929214
3936.000000	98.933649
3935.000000	98.935010
3934.000000	98.934686
3933.000000	98.934751
3932.000000	98.936493
3931.000000	98.940192
3930.000000	98.944936
3929.000000	98.949238
3928.000000	98.952395
3927.000000	98.953912
3926.000000	98.952916
3925.000000	98.948552
3924.000000	98.941078
3923.000000	98.932429
3922.000000	98.925218
3921.000000	98.920956
3920.000000	98.919540
3919.000000	98.920345
3918.000000	98.923796
3917.000000	98.930478
3916.000000	98.938531
3915.000000	98.944234
3914.000000	98.945208
3913.000000	98.942354
3912.000000	98.938358
3911.000000	98.935631
3910.000000	98.935136
3909.000000	98.936119
3908.000000	98.936633
3907.000000	98.934266
3906.000000	98.927262
3905.000000	98.916251
3904.000000	98.905142
3903.000000	98.898977
3902.000000	98.900033
3901.000000	98.906634
3900.000000	98.915884
3899.000000	98.924846
3898.000000	98.930646
3897.000000	98.931636
3896.000000	98.927904
3895.000000	98.921305
3894.000000	98.914878
3893.000000	98.911148
3892.000000	98.910139
3891.000000	98.909514
3890.000000	98.907241
3889.000000	98.904396
3888.000000	98.904456
3887.000000	98.910005
3886.000000	98.918875
3885.000000	98.924832
3884.000000	98.924609
3883.000000	98.921470
3882.000000	98.921209
3881.000000	98.925891
3880.000000	98.931730
3879.000000	98.934063
3878.000000	98.933397
3877.000000	98.934372
3876.000000	98.940765
3875.000000	98.951102
3874.000000	98.958850
3873.000000	98.958782
3872.000000	98.951580
3871.000000	98.941690
3870.000000	98.932495
3869.000000	98.924418
3868.000000	98.917314
3867.000000	98.912842
3866.000000	98.913810
3865.000000	98.920595
3864.000000	98.928589
3863.000000	98.932132
3862.000000	98.930052
3861.000000	98.925363
3860.000000	98.921655
3859.000000	98.919780
3858.000000	98.917881
3857.000000	98.914092
3856.000000	98.909228
3855.000000	98.906922
3854.000000	98.907225
3853.000000	98.909604
3852.000000	98.916547
3851.000000	98.925120
3850.000000	98.930255
3849.000000	98.930884
3848.000000	98.928245
3847.000000	98.924386
3846.000000	98.921003
3845.000000	98.918319
3844.000000	98.915010
3843.000000	98.910465
3842.000000	98.905990
3841.000000	98.903774
3840.000000	98.905469
3839.000000	98.911148
3838.000000	98.918924
3837.000000	98.925490
3836.000000	98.928158
3835.000000	98.927149
3834.000000	98.924974
3833.000000	98.923617
3832.000000	98.922502
3831.000000	98.919154
3830.000000	98.913184
3829.000000	98.908022
3828.000000	98.907664
3827.000000	98.912074
3826.000000	98.916243
3825.000000	98.915087
3824.000000	98.908475
3823.000000	98.901744
3822.000000	98.899400
3821.000000	98.900283
3820.000000	98.900191
3819.000000	98.896498
3818.000000	98.891059
3817.000000	98.889312
3816.000000	98.896420
3815.000000	98.911078
3814.000000	98.926540
3813.000000	98.937188
3812.000000	98.941460
3811.000000	98.940202
3810.000000	98.934993
3809.000000	98.928246
3808.000000	98.922299
3807.000000	98.917896
3806.000000	98.914039
3805.000000	98.910210
3804.000000	98.908134
3803.000000	98.911192
3802.000000	98.919502
3801.000000	98.927993
3800.000000	98.932114
3799.000000	98.933781
3798.000000	98.937433
3797.000000	98.944381
3796.000000	98.950997
3795.000000	98.952903
3794.000000	98.950175
3793.000000	98.946638
3792.000000	98.945824
3791.000000	98.947976
3790.000000	98.950191
3789.000000	98.949430
3788.000000	98.945497
3787.000000	98.940887
3786.000000	98.938514
3785.000000	98.939702
3784.000000	98.943910
3783.000000	98.949890
3782.000000	98.956817
3781.000000	98.963391
3780.000000	98.966476
3779.000000	98.962860
3778.000000	98.952775
3777.000000	98.940110
3776.000000	98.929292
3775.000000	98.923173
3774.000000	98.922249
3773.000000	98.925322
3772.000000	98.930639
3771.000000	98.936258
3770.000000	98.939974
3769.000000	98.940736
3768.000000	98.940599
3767.000000	98.942863
3766.000000	98.948547
3765.000000	98.955175
3764.000000	98.959033
3763.000000	98.958792
3762.000000	98.956245
3761.000000	98.953297
3760.000000	98.949377
3759.000000	98.942734
3758.000000	98.933564
3757.000000	98.923683
3756.000000	98.913764
3755.000000	98.903170
3754.000000	98.891040
3753.000000	98.877661
3752.000000	98.866457
3751.000000	98.863898
3750.000000	98.872731
3749.000000	98.885748
3748.000000	98.894761
3747.000000	98.899567
3746.000000	98.906216
3745.000000	98.918844
3744.000000	98.932584
3743.000000	98.939867
3742.000000	98.938701
3741.000000	98.931441
3740.000000	98.923447
3739.000000	98.921065
3738.000000	98.928964
3737.000000	98.945581
3736.000000	98.960922
3735.000000	98.964489
3734.000000	98.954770
3733.000000	98.938703
3732.000000	98.923431
3731.000000	98.911299
3730.000000	98.901597
3729.000000	98.894049
3728.000000	98.890462
3727.000000	98.893248
3726.000000	98.902709
3725.000000	98.916294
3724.000000	98.930720
3723.000000	98.943970
3722.000000	98.954920
3721.000000	98.963016
3720.000000	98.968010
3719.000000	98.969714
3718.000000	98.968578
3717.000000	98.965786
3716.000000	98.962048
3715.000000	98.957282
3714.000000	98.951465
3713.000000	98.945018
3712.000000	98.938949
3711.000000	98.934924
3710.000000	98.933756
3709.000000	98.933791
3708.000000	98.934022
3707.000000	98.935153
3706.000000	98.937374
3705.000000	98.940660
3704.000000	98.945014
3703.000000	98.950120
3702.000000	98.954660
3701.000000	98.957042
3700.000000	98.956787
3699.000000	98.954536
3698.000000	98.950972
3697.000000	98.946637
3696.000000	98.941962
3695.000000	98.937321
3694.000000	98.932771
3693.000000	98.927149
3692.000000	98.918500
3691.000000	98.907345
3690.000000	98.900818
3689.000000	98.907888
3688.000000	98.926342
3687.000000	98.943329
3686.000000	98.950342
3685.000000	98.948822
3684.000000	98.945397
3683.000000	98.946242
3682.000000	98.952765
3681.000000	98.960712
3680.000000	98.963579
3679.000000	98.958650
3678.000000	98.949251
3677.000000	98.940954
3676.000000	98.933882
3675.000000	98.922497
3674.000000	98.905105
3673.000000	98.887374
3672.000000	98.875783
3671.000000	98.874678
3670.000000	98.883421
3669.000000	98.896344
3668.000000	98.908187
3667.000000	98.917318
3666.000000	98.923330
3665.000000	98.926046
3664.000000	98.925957
3663.000000	98.924279
3662.000000	98.921517
3661.000000	98.917045
3660.000000	98.911112
3659.000000	98.906466
3658.000000	98.906307
3657.000000	98.909823
3656.000000	98.911768
3655.000000	98.909052
3654.000000	98.904537
3653.000000	98.903112
3652.000000	98.906048
3651.000000	98.907170
3650.000000	98.897397
3649.000000	98.879452
3648.000000	98.864146
3647.000000	98.852182
3646.000000	98.840355
3645.000000	98.831332
3644.000000	98.829802
3643.000000	98.836722
3642.000000	98.848419
3641.000000	98.859420
3640.000000	98.866311
3639.000000	98.868614
3638.000000	98.866995
3637.000000	98.862720
3636.000000	98.857562
3635.000000	98.852711
3634.000000	98.847364
3633.000000	98.839469
3632.000000	98.828158
3631.000000	98.814925
3630.000000	98.801684
3629.000000	98.790392
3628.000000	98.784307
3627.000000	98.782899
3626.000000	98.782369
3625.000000	98.780184
3624.000000	98.776556
3623.000000	98.772994
3622.000000	98.771088
3621.000000	98.771813
3620.000000	98.774636
3619.000000	98.776965
3618.000000	98.776029
3617.000000	98.770825
3616.000000	98.761919
3615.000000	98.750445
3614.000000	98.737299
3613.000000	98.723085
3612.000000	98.708456
3611.000000	98.694884
3610.000000	98.684842
3609.000000	98.680913
3608.000000	98.683426
3607.000000	98.689032
3606.000000	98.693285
3605.000000	98.694244
3604.000000	98.692713
3603.000000	98.689499
3602.000000	98.683795
3601.000000	98.674629
3600.000000	98.662640
3599.000000	98.649654
3598.000000	98.637743
3597.000000	98.629170
3596.000000	98.626209
3595.000000	98.629710
3594.000000	98.636619
3593.000000	98.641296
3592.000000	98.640469
3591.000000	98.635502
3590.000000	98.629298
3589.000000	98.621988
3588.000000	98.610953
3587.000000	98.596508
3586.000000	98.582945
3585.000000	98.574425
3584.000000	98.572337
3583.000000	98.574889
3582.000000	98.577981
3581.000000	98.578207
3580.000000	98.575176
3579.000000	98.571438
3578.000000	98.569303
3577.000000	98.568144
3576.000000	98.564821
3575.000000	98.556462
3574.000000	98.543064
3573.000000	98.527172
3572.000000	98.512217
3571.000000	98.500335
3570.000000	98.491248
3569.000000	98.482214
3568.000000	98.471314
3567.000000	98.461576
3566.000000	98.457066
3565.000000	98.455175
3564.000000	98.451227
3563.000000	98.444603
3562.000000	98.437906
3561.000000	98.433331
3560.000000	98.430593
3559.000000	98.427373
3558.000000	98.422275
3557.000000	98.416419
3556.000000	98.412246
3555.000000	98.410804
3554.000000	98.410422
3553.000000	98.407666
3552.000000	98.400143
3551.000000	98.388458
3550.000000	98.375212
3549.000000	98.362457
3548.000000	98.350445
3547.000000	98.338789
3546.000000	98.328160
3545.000000	98.319531
3544.000000	98.311885
3543.000000	98.302911
3542.000000	98.291644
3541.000000	98.279607
3540.000000	98.269533
3539.000000	98.263003
3538.000000	98.259431
3537.000000	98.257052
3536.000000	98.254737
3535.000000	98.252591
3534.000000	98.250761
3533.000000	98.248425
3532.000000	98.243930
3531.000000	98.236185
3530.000000	98.225965
3529.000000	98.215606
3528.000000	98.206906
3527.000000	98.199194
3526.000000	98.189954
3525.000000	98.177698
3524.000000	98.163716
3523.000000	98.150946
3522.000000	98.141672
3521.000000	98.136550
3520.000000	98.134874
3519.000000	98.134567
3518.000000	98.132694
3517.000000	98.127790
3516.000000	98.121622
3515.000000	98.117627
3514.000000	98.116827
3513.000000	98.116292
3512.000000	98.112172
3511.000000	98.103760
3510.000000	98.093977
3509.000000	98.085936
3508.000000	98.079810
3507.000000	98.073407
3506.000000	98.065186
3505.000000	98.055746
3504.000000	98.047151
3503.000000	98.040811
3502.000000	98.035734
3501.000000	98.029418
3500.000000	98.020490
3499.000000	98.009907
3498.000000	97.999862
3497.000000	97.992281
3496.000000	97.987630
3495.000000	97.984707
3494.000000	97.981689
3493.000000	97.977630
3492.000000	97.972538
3491.000000	97.965922
3490.000000	97.956435
3489.000000	97.944228
3488.000000	97.932780
3487.000000	97.926349
3486.000000	97.925476
3485.000000	97.926844
3484.000000	97.927403
3483.000000	97.926584
3482.000000	97.923917
3481.000000	97.916963
3480.000000	97.904141
3479.000000	97.888506
3478.000000	97.876024
3477.000000	97.869933
3476.000000	97.868229
3475.000000	97.866545
3474.000000	97.862311
3473.000000	97.855548
3472.000000	97.847047
3471.000000	97.837300
3470.000000	97.826951
3469.000000	97.817203
3468.000000	97.809427
3467.000000	97.804445
3466.000000	97.802201
3465.000000	97.801850
3464.000000	97.802019
3463.000000	97.801140
3462.000000	97.797869
3461.000000	97.791744
3460.000000	97.783614
3459.000000	97.775201
3458.000000	97.767807
3457.000000	97.761317
3456.000000	97.754846
3455.000000	97.748459
3454.000000	97.743585
3453.000000	97.741380
3452.000000	97.740663
3451.000000	97.738162
3450.000000	97.731134
3449.000000	97.719859
3448.000000	97.707851
3447.000000	97.699390
3446.000000	97.696168
3445.000000	97.696617
3444.000000	97.698299
3443.000000	97.699781
3442.000000	97.700124
3441.000000	97.697768
3440.000000	97.691364
3439.000000	97.681731
3438.000000	97.672024
3437.000000	97.665283
3436.000000	97.662093
3435.000000	97.660943
3434.000000	97.660245
3433.000000	97.659547
3432.000000	97.658713
3431.000000	97.656802
3430.000000	97.652123
3429.000000	97.643531
3428.000000	97.631779
3427.000000	97.619397
3426.000000	97.609027
3425.000000	97.601649
3424.000000	97.596511
3423.000000	97.592522
3422.000000	97.589139
3421.000000	97.585884
3420.000000	97.581740
3419.000000	97.575777
3418.000000	97.568254
3417.000000	97.560764
3416.000000	97.555263
3415.000000	97.552997
3414.000000	97.554009
3413.000000	97.557186
3412.000000	97.560708
3411.000000	97.562416
3410.000000	97.560027
3409.000000	97.551858
3408.000000	97.538292
3407.000000	97.522504
3406.000000	97.509053
3405.000000	97.501220
3404.000000	97.499589
3403.000000	97.502721
3402.000000	97.508331
3401.000000	97.513806
3400.000000	97.516498
3399.000000	97.514587
3398.000000	97.508030
3397.000000	97.498798
3396.000000	97.490106
3395.000000	97.484650
3394.000000	97.482534
3393.000000	97.480607
3392.000000	97.474855
3391.000000	97.464401
3390.000000	97.453040
3389.000000	97.446324
3388.000000	97.447146
3387.000000	97.453633
3386.000000	97.460369
3385.000000	97.461626
3384.000000	97.454816
3383.000000	97.442193
3382.000000	97.428920
3381.000000	97.418780
3380.000000	97.411734
3379.000000	97.405962
3378.000000	97.401210
3377.000000	97.398681
3376.000000	97.398037
3375.000000	97.396449
3374.000000	97.391474
3373.000000	97.383697
3372.000000	97.375729
3371.000000	97.369521
3370.000000	97.365482
3369.000000	97.363130
3368.000000	97.361191
3367.000000	97.357438
3366.000000	97.349820
3365.000000	97.338180
3364.000000	97.324403
3363.000000	97.311159
3362.000000	97.300830
3361.000000	97.294524
3360.000000	97.290682
3359.000000	97.285073
3358.000000	97.273899
3357.000000	97.257572
3356.000000	97.240574
3355.000000	97.227240
3354.000000	97.218371
3353.000000	97.211915
3352.000000	97.205499
3351.000000	97.197497
3350.000000	97.187018
3349.000000	97.174337
3348.000000	97.161133
3347.000000	97.149239
3346.000000	97.138968
3345.000000	97.129117
3344.000000	97.118503
3343.000000	97.107169
3342.000000	97.096214
3341.000000	97.086839
3340.000000	97.079334
3339.000000	97.072549
3338.000000	97.064495
3337.000000	97.054029
3336.000000	97.042052
3335.000000	97.030702
3334.000000	97.021293
3333.000000	97.013308
3332.000000	97.005383
3331.000000	96.997002
3330.000000	96.989141
3329.000000	96.983422
3328.000000	96.980627
3327.000000	96.979784
3326.000000	96.978512
3325.000000	96.974313
3324.000000	96.965947
3323.000000	96.954227
3322.000000	96.941713
3321.000000	96.931088
3320.000000	96.923169
3319.000000	96.916544
3318.000000	96.909624
3317.000000	96.902913
3316.000000	96.898550
3315.000000	96.897623
3314.000000	96.898673
3313.000000	96.899185
3312.000000	96.897847
3311.000000	96.895058
3310.000000	96.891803
3309.000000	96.888676
3308.000000	96.885684
3307.000000	96.882373
3306.000000	96.878146
3305.000000	96.872850
3304.000000	96.867298
3303.000000	96.863322
3302.000000	96.863042
3301.000000	96.867286
3300.000000	96.873948
3299.000000	96.878370
3298.000000	96.876671
3297.000000	96.869198
3296.000000	96.859988
3295.000000	96.852625
3294.000000	96.847486
3293.000000	96.843185
3292.000000	96.839146
3291.000000	96.835793
3290.000000	96.833316
3289.000000	96.831652
3288.000000	96.831288
3287.000000	96.832797
3286.000000	96.835755
3285.000000	96.839219
3284.000000	96.843074
3283.000000	96.847981
3282.000000	96.853944
3281.000000	96.859848
3280.000000	96.864696
3279.000000	96.868493
3278.000000	96.871856
3277.000000	96.875558
3276.000000	96.880538
3275.000000	96.887390
3274.000000	96.895212
3273.000000	96.901628
3272.000000	96.904795
3271.000000	96.905310
3270.000000	96.905548
3269.000000	96.907060
3268.000000	96.909021
3267.000000	96.909608
3266.000000	96.908945
3265.000000	96.910195
3264.000000	96.916868
3263.000000	96.928829
3262.000000	96.941559
3261.000000	96.949609
3260.000000	96.950698
3259.000000	96.946510
3258.000000	96.940723
3257.000000	96.937120
3256.000000	96.938565
3255.000000	96.945906
3254.000000	96.957131
3253.000000	96.968358
3252.000000	96.976418
3251.000000	96.980904
3250.000000	96.984205
3249.000000	96.989649
3248.000000	96.998872
3247.000000	97.010191
3246.000000	97.019843
3245.000000	97.025552
3244.000000	97.028500
3243.000000	97.031224
3242.000000	97.034533
3241.000000	97.037532
3240.000000	97.039784
3239.000000	97.041518
3238.000000	97.042012
3237.000000	97.039952
3236.000000	97.036269
3235.000000	97.034985
3234.000000	97.039712
3233.000000	97.049909
3232.000000	97.061242
3231.000000	97.069314
3230.000000	97.072462
3229.000000	97.071937
3228.000000	97.070738
3227.000000	97.071896
3226.000000	97.076457
3225.000000	97.082657
3224.000000	97.087550
3223.000000	97.089901
3222.000000	97.091167
3221.000000	97.093535
3220.000000	97.097448
3219.000000	97.101193
3218.000000	97.102836
3217.000000	97.102188
3216.000000	97.101005
3215.000000	97.101608
3214.000000	97.105100
3213.000000	97.110541
3212.000000	97.115742
3211.000000	97.119246
3210.000000	97.121810
3209.000000	97.125441
3208.000000	97.130681
3207.000000	97.135373
3206.000000	97.137251
3205.000000	97.137452
3204.000000	97.140076
3203.000000	97.147484
3202.000000	97.156993
3201.000000	97.163255
3200.000000	97.163431
3199.000000	97.159341
3198.000000	97.155055
3197.000000	97.153774
3196.000000	97.156739
3195.000000	97.163585
3194.000000	97.172840
3193.000000	97.182623
3192.000000	97.191836
3191.000000	97.200786
3190.000000	97.210440
3189.000000	97.221207
3188.000000	97.232294
3187.000000	97.241957
3186.000000	97.248483
3185.000000	97.251544
3184.000000	97.252828
3183.000000	97.254892
3182.000000	97.259096
3181.000000	97.264712
3180.000000	97.270026
3179.000000	97.273810
3178.000000	97.275825
3177.000000	97.276610
3176.000000	97.277478
3175.000000	97.280336
3174.000000	97.286566
3173.000000	97.295489
3172.000000	97.304173
3171.000000	97.309585
3170.000000	97.311456
3169.000000	97.313086
3168.000000	97.318795
3167.000000	97.330048
3166.000000	97.343944
3165.000000	97.355402
3164.000000	97.361138
3163.000000	97.361956
3162.000000	97.361916
3161.000000	97.365025
3160.000000	97.372178
3159.000000	97.380836
3158.000000	97.388011
3157.000000	97.393410
3156.000000	97.399069
3155.000000	97.406013
3154.000000	97.412739
3153.000000	97.417823
3152.000000	97.422832
3151.000000	97.430811
3150.000000	97.442006
3149.000000	97.452610
3148.000000	97.458315
3147.000000	97.458127
3146.000000	97.454499
3145.000000	97.450987
3144.000000	97.450626
3143.000000	97.455320
3142.000000	97.465205
3141.000000	97.478186
3140.000000	97.490860
3139.000000	97.500351
3138.000000	97.505524
3137.000000	97.507012
3136.000000	97.506627
3135.000000	97.506536
3134.000000	97.508185
3133.000000	97.511444
3132.000000	97.514749
3131.000000	97.516444
3130.000000	97.516264
3129.000000	97.515719
3128.000000	97.516867
3127.000000	97.520486
3126.000000	97.525318
3125.000000	97.529280
3124.000000	97.531418
3123.000000	97.532540
3122.000000	97.534076
3121.000000	97.536603
3120.000000	97.539543
3119.000000	97.541972
3118.000000	97.543395
3117.000000	97.543905
3116.000000	97.543951
3115.000000	97.544015
3114.000000	97.544347
3113.000000	97.544725
3112.000000	97.544498
3111.000000	97.543276
3110.000000	97.541947
3109.000000	97.542618
3108.000000	97.546653
3107.000000	97.552543
3106.000000	97.556335
3105.000000	97.554966
3104.000000	97.549208
3103.000000	97.543012
3102.000000	97.539908
3101.000000	97.540157
3100.000000	97.541172
3099.000000	97.540413
3098.000000	97.537844
3097.000000	97.535848
3096.000000	97.536595
3095.000000	97.539233
3094.000000	97.540266
3093.000000	97.537450
3092.000000	97.532635
3091.000000	97.529543
3090.000000	97.529103
3089.000000	97.528737
3088.000000	97.526622
3087.000000	97.524695
3086.000000	97.525828
3085.000000	97.529163
3084.000000	97.530312
3083.000000	97.526205
3082.000000	97.518420
3081.000000	97.511440
3080.000000	97.508614
3079.000000	97.509906
3078.000000	97.512533
3077.000000	97.513356
3076.000000	97.511466
3075.000000	97.509170
3074.000000	97.509941
3073.000000	97.514789
3072.000000	97.520874
3071.000000	97.524112
3070.000000	97.522836
3069.000000	97.518667
3068.000000	97.514444
3067.000000	97.512054
3066.000000	97.511947
3065.000000	97.513725
3064.000000	97.516736
3063.000000	97.520421
3062.000000	97.524638
3061.000000	97.529690
3060.000000	97.536085
3059.000000	97.544210
3058.000000	97.554160
3057.000000	97.565562
3056.000000	97.577268
3055.000000	97.587412
3054.000000	97.594056
3053.000000	97.596154
3052.000000	97.594163
3051.000000	97.590156
3050.000000	97.587507
3049.000000	97.589734
3048.000000	97.598466
3047.000000	97.611870
3046.000000	97.625586
3045.000000	97.635933
3044.000000	97.642283
3043.000000	97.646249
3042.000000	97.649331
3041.000000	97.652257
3040.000000	97.656378
3039.000000	97.663811
3038.000000	97.675175
3037.000000	97.687739
3036.000000	97.697051
3035.000000	97.700626
3034.000000	97.699775
3033.000000	97.697968
3032.000000	97.697977
3031.000000	97.700343
3030.000000	97.703826
3029.000000	97.707067
3028.000000	97.710097
3027.000000	97.714372
3026.000000	97.720898
3025.000000	97.728212
3024.000000	97.732839
3023.000000	97.732604
3022.000000	97.729397
3021.000000	97.727887
3020.000000	97.731048
3019.000000	97.737133
3018.000000	97.741509
3017.000000	97.741334
3016.000000	97.738018
3015.000000	97.735011
3014.000000	97.734042
3013.000000	97.734117
3012.000000	97.733785
3011.000000	97.733132
3010.000000	97.733199
3009.000000	97.734236
3008.000000	97.735269
3007.000000	97.735153
3006.000000	97.733493
3005.000000	97.730734
3004.000000	97.727857
3003.000000	97.725989
3002.000000	97.725872
3001.000000	97.727527
3000.000000	97.730531
2999.000000	97.734579
2998.000000	97.739574
2997.000000	97.745204
2996.000000	97.750625
2995.000000	97.754440
2994.000000	97.754873
2993.000000	97.750386
2992.000000	97.740866
2991.000000	97.728244
2990.000000	97.715424
2989.000000	97.704154
2988.000000	97.694257
2987.000000	97.684992
2986.000000	97.676532
2985.000000	97.669477
2984.000000	97.663204
2983.000000	97.655659
2982.000000	97.645075
2981.000000	97.631502
2980.000000	97.616434
2979.000000	97.601298
2978.000000	97.586393
2977.000000	97.570790
2976.000000	97.552807
2975.000000	97.531176
2974.000000	97.506469
2973.000000	97.481156
2972.000000	97.457438
2971.000000	97.434715
2970.000000	97.409772
2969.000000	97.379649
2968.000000	97.343923
2967.000000	97.304224
2966.000000	97.262239
2965.000000	97.218987
2964.000000	97.175591
2963.000000	97.133908
2962.000000	97.095918
2961.000000	97.062638
2960.000000	97.033844
2959.000000	97.008851
2958.000000	96.987545
2957.000000	96.970351
2956.000000	96.957232
2955.000000	96.947126
2954.000000	96.938899
2953.000000	96.932579
2952.000000	96.928919
2951.000000	96.927919
2950.000000	96.928371
2949.000000	96.928832
2948.000000	96.927862
2947.000000	96.922951
2946.000000	96.910366
2945.000000	96.887169
2944.000000	96.853433
2943.000000	96.811600
2942.000000	96.763861
2941.000000	96.710444
2940.000000	96.650328
2939.000000	96.582942
2938.000000	96.508921
2937.000000	96.429698
2936.000000	96.346424
2935.000000	96.259412
2934.000000	96.168603
2933.000000	96.074325
2932.000000	95.977376
2931.000000	95.878552
2930.000000	95.778913
2929.000000	95.680389
2928.000000	95.585372
2927.000000	95.495439
2926.000000	95.411325
2925.000000	95.334732
2924.000000	95.269153
2923.000000	95.218310
2922.000000	95.184046
2921.000000	95.166202
2920.000000	95.164065
2919.000000	95.177244
2918.000000	95.206413
2917.000000	95.254100
2916.000000	95.323984
2915.000000	95.417584
2914.000000	95.530713
2913.000000	95.653980
2912.000000	95.777023
2911.000000	95.892563
2910.000000	95.997060
2909.000000	96.089435
2908.000000	96.170306
2907.000000	96.241447
2906.000000	96.304572
2905.000000	96.360135
2904.000000	96.408111
2903.000000	96.450064
2902.000000	96.489525
2901.000000	96.529783
2900.000000	96.570472
2899.000000	96.608509
2898.000000	96.641900
2897.000000	96.672616
2896.000000	96.704644
2895.000000	96.739517
2894.000000	96.774758
2893.000000	96.807068
2892.000000	96.835806
2891.000000	96.862559
2890.000000	96.888245
2889.000000	96.912205
2888.000000	96.934024
2887.000000	96.954855
2886.000000	96.976263
2885.000000	96.998402
2884.000000	97.019711
2883.000000	97.038087
2882.000000	97.052096
2881.000000	97.061557
2880.000000	97.067305
2879.000000	97.070117
2878.000000	97.069625
2877.000000	97.064366
2876.000000	97.053242
2875.000000	97.037210
2874.000000	97.019959
2873.000000	97.006654
2872.000000	97.000831
2871.000000	97.001410
2870.000000	97.002949
2869.000000	97.000079
2868.000000	96.991855
2867.000000	96.981124
2866.000000	96.969534
2865.000000	96.954050
2864.000000	96.928704
2863.000000	96.889223
2862.000000	96.835689
2861.000000	96.771559
2860.000000	96.700572
2859.000000	96.624047
2858.000000	96.540731
2857.000000	96.449681
2856.000000	96.353635
2855.000000	96.258986
2854.000000	96.173031
2853.000000	96.102114
2852.000000	96.052849
2851.000000	96.033546
2850.000000	96.051834
2849.000000	96.110247
2848.000000	96.203872
2847.000000	96.322043
2846.000000	96.452013
2845.000000	96.582493
2844.000000	96.705650
2843.000000	96.817618
2842.000000	96.917230
2841.000000	97.004128
2840.000000	97.078434
2839.000000	97.141197
2838.000000	97.194202
2837.000000	97.239129
2836.000000	97.277512
2835.000000	97.311478
2834.000000	97.343482
2833.000000	97.374619
2832.000000	97.403829
2831.000000	97.429469
2830.000000	97.451268
2829.000000	97.470189
2828.000000	97.486716
2827.000000	97.500412
2826.000000	97.511594
2825.000000	97.522567
2824.000000	97.536269
2823.000000	97.553718
2822.000000	97.573242
2821.000000	97.592189
2820.000000	97.608856
2819.000000	97.622933
2818.000000	97.634989
2817.000000	97.646100
2816.000000	97.657406
2815.000000	97.669257
2814.000000	97.680742
2813.000000	97.690496
2812.000000	97.698008
2811.000000	97.704114
2810.000000	97.710476
2809.000000	97.718697
2808.000000	97.729277
2807.000000	97.740806
2806.000000	97.750570
2805.000000	97.756767
2804.000000	97.760163
2803.000000	97.763108
2802.000000	97.767320
2801.000000	97.773379
2800.000000	97.781629
2799.000000	97.791829
2798.000000	97.801651
2797.000000	97.807309
2796.000000	97.806998
2795.000000	97.803037
2794.000000	97.799649
2793.000000	97.799259
2792.000000	97.801720
2791.000000	97.806267
2790.000000	97.812719
2789.000000	97.820651
2788.000000	97.828612
2787.000000	97.834744
2786.000000	97.837980
2785.000000	97.838832
2784.000000	97.839582
2783.000000	97.843384
2782.000000	97.852020
2781.000000	97.863895
2780.000000	97.874849
2779.000000	97.881517
2778.000000	97.883798
2777.000000	97.883973
2776.000000	97.884090
2775.000000	97.884705
2774.000000	97.885723
2773.000000	97.887369
2772.000000	97.889972
2771.000000	97.893375
2770.000000	97.897270
2769.000000	97.901947
2768.000000	97.908084
2767.000000	97.915609
2766.000000	97.923235
2765.000000	97.929443
2764.000000	97.933580
2763.000000	97.935734
2762.000000	97.936082
2761.000000	97.935089
2760.000000	97.933992
2759.000000	97.934114
2758.000000	97.935461
2757.000000	97.936657
2756.000000	97.936607
2755.000000	97.935831
2754.000000	97.935868
2753.000000	97.937722
2752.000000	97.941038
2751.000000	97.944451
2750.000000	97.946677
2749.000000	97.947670
2748.000000	97.948813
2747.000000	97.951430
2746.000000	97.955078
2745.000000	97.958060
2744.000000	97.959811
2743.000000	97.961817
2742.000000	97.965451
2741.000000	97.969682
2740.000000	97.972076
2739.000000	97.971851
2738.000000	97.970957
2737.000000	97.971924
2736.000000	97.975284
2735.000000	97.979368
2734.000000	97.982211
2733.000000	97.983435
2732.000000	97.984427
2731.000000	97.986693
2730.000000	97.989926
2729.000000	97.991937
2728.000000	97.990880
2727.000000	97.987425
2726.000000	97.984341
2725.000000	97.984074
2724.000000	97.987102
2723.000000	97.992434
2722.000000	97.998959
2721.000000	98.006032
2720.000000	98.013206
2719.000000	98.019804
2718.000000	98.024735
2717.000000	98.026878
2716.000000	98.026078
2715.000000	98.023832
2714.000000	98.022486
2713.000000	98.023385
2712.000000	98.025900
2711.000000	98.028465
2710.000000	98.030416
2709.000000	98.032612
2708.000000	98.036369
2707.000000	98.041944
2706.000000	98.048041
2705.000000	98.052594
2704.000000	98.054000
2703.000000	98.051825
2702.000000	98.046825
2701.000000	98.040750
2700.000000	98.036083
2699.000000	98.035146
2698.000000	98.038612
2697.000000	98.044830
2696.000000	98.051091
2695.000000	98.055779
2694.000000	98.059077
2693.000000	98.061713
2692.000000	98.063719
2691.000000	98.064662
2690.000000	98.064490
2689.000000	98.063567
2688.000000	98.062272
2687.000000	98.061217
2686.000000	98.061439
2685.000000	98.063348
2684.000000	98.065261
2683.000000	98.064112
2682.000000	98.058575
2681.000000	98.051061
2680.000000	98.045834
2679.000000	98.045251
2678.000000	98.048477
2677.000000	98.053529
2676.000000	98.059335
2675.000000	98.065309
2674.000000	98.070030
2673.000000	98.071683
2672.000000	98.069924
2671.000000	98.066571
2670.000000	98.064147
2669.000000	98.063921
2668.000000	98.065366
2667.000000	98.067177
2666.000000	98.068544
2665.000000	98.069579
2664.000000	98.070686
2663.000000	98.071695
2662.000000	98.071832
2661.000000	98.070506
2660.000000	98.067829
2659.000000	98.064289
2658.000000	98.060414
2657.000000	98.057182
2656.000000	98.056218
2655.000000	98.058614
2654.000000	98.063387
2653.000000	98.067905
2652.000000	98.070331
2651.000000	98.071390
2650.000000	98.073389
2649.000000	98.077814
2648.000000	98.084187
2647.000000	98.090809
2646.000000	98.095942
2645.000000	98.098440
2644.000000	98.098303
2643.000000	98.097369
2642.000000	98.098897
2641.000000	98.105279
2640.000000	98.115585
2639.000000	98.125898
2638.000000	98.132630
2637.000000	98.135290
2636.000000	98.135710
2635.000000	98.135364
2634.000000	98.134703
2633.000000	98.134839
2632.000000	98.138026
2631.000000	98.145354
2630.000000	98.154723
2629.000000	98.162179
2628.000000	98.164946
2627.000000	98.162785
2626.000000	98.157481
2625.000000	98.152197
2624.000000	98.150601
2623.000000	98.154657
2622.000000	98.162764
2621.000000	98.170901
2620.000000	98.175955
2619.000000	98.177499
2618.000000	98.176924
2617.000000	98.176156
2616.000000	98.177298
2615.000000	98.181874
2614.000000	98.189444
2613.000000	98.197612
2612.000000	98.204052
2611.000000	98.208096
2610.000000	98.210022
2609.000000	98.209666
2608.000000	98.206475
2607.000000	98.200681
2606.000000	98.194101
2605.000000	98.190028
2604.000000	98.192133
2603.000000	98.202228
2602.000000	98.218060
2601.000000	98.233587
2600.000000	98.242549
2599.000000	98.242634
2598.000000	98.236854
2597.000000	98.231265
2596.000000	98.230929
2595.000000	98.236812
2594.000000	98.245620
2593.000000	98.252415
2592.000000	98.253675
2591.000000	98.248612
2590.000000	98.238891
2589.000000	98.228143
2588.000000	98.221072
2587.000000	98.221200
2586.000000	98.228439
2585.000000	98.239068
2584.000000	98.248360
2583.000000	98.253427
2582.000000	98.254358
2581.000000	98.253616
2580.000000	98.254133
2579.000000	98.256897
2578.000000	98.260340
2577.000000	98.262799
2576.000000	98.265153
2575.000000	98.269826
2574.000000	98.277262
2573.000000	98.284974
2572.000000	98.290324
2571.000000	98.292783
2570.000000	98.292771
2569.000000	98.289854
2568.000000	98.283488
2567.000000	98.274813
2566.000000	98.266451
2565.000000	98.260638
2564.000000	98.258162
2563.000000	98.258919
2562.000000	98.262864
2561.000000	98.270335
2560.000000	98.281648
2559.000000	98.296142
2558.000000	98.311356
2557.000000	98.323505
2556.000000	98.329424
2555.000000	98.328628
2554.000000	98.323772
2553.000000	98.318833
2552.000000	98.315951
2551.000000	98.313851
2550.000000	98.310106
2549.000000	98.305183
2548.000000	98.302850
2547.000000	98.305839
2546.000000	98.312440
2545.000000	98.318681
2544.000000	98.322297
2543.000000	98.322796
2542.000000	98.319415
2541.000000	98.312220
2540.000000	98.304661
2539.000000	98.301307
2538.000000	98.302458
2537.000000	98.303724
2536.000000	98.301874
2535.000000	98.298254
2534.000000	98.295276
2533.000000	98.292574
2532.000000	98.288829
2531.000000	98.285271
2530.000000	98.284702
2529.000000	98.288093
2528.000000	98.293762
2527.000000	98.298781
2526.000000	98.299738
2525.000000	98.293910
2524.000000	98.282010
2523.000000	98.268965
2522.000000	98.259923
2521.000000	98.256103
2520.000000	98.255839
2519.000000	98.257904
2518.000000	98.261192
2517.000000	98.262494
2516.000000	98.258468
2515.000000	98.250261
2514.000000	98.243262
2513.000000	98.241331
2512.000000	98.243578
2511.000000	98.247670
2510.000000	98.253295
2509.000000	98.260443
2508.000000	98.266558
2507.000000	98.268441
2506.000000	98.266317
2505.000000	98.263292
2504.000000	98.260697
2503.000000	98.256367
2502.000000	98.248807
2501.000000	98.241580
2500.000000	98.241575
2499.000000	98.252772
2498.000000	98.272337
2497.000000	98.292783
2496.000000	98.307414
2495.000000	98.313774
2494.000000	98.313504
2493.000000	98.310453
2492.000000	98.309094
2491.000000	98.312795
2490.000000	98.321558
2489.000000	98.331084
2488.000000	98.335623
2487.000000	98.333214
2486.000000	98.328030
2485.000000	98.326851
2484.000000	98.332753
2483.000000	98.342479
2482.000000	98.349928
2481.000000	98.351492
2480.000000	98.348174
2479.000000	98.343570
2478.000000	98.341072
2477.000000	98.342617
2476.000000	98.348467
2475.000000	98.357078
2474.000000	98.365736
2473.000000	98.372323
2472.000000	98.376551
2471.000000	98.379018
2470.000000	98.379357
2469.000000	98.376526
2468.000000	98.371393
2467.000000	98.367819
2466.000000	98.369575
2465.000000	98.376078
2464.000000	98.382523
2463.000000	98.384951
2462.000000	98.384189
2461.000000	98.383726
2460.000000	98.384486
2459.000000	98.383703
2458.000000	98.379074
2457.000000	98.372001
2456.000000	98.365735
2455.000000	98.361922
2454.000000	98.360532
2453.000000	98.361931
2452.000000	98.366831
2451.000000	98.374517
2450.000000	98.383003
2449.000000	98.390980
2448.000000	98.398261
2447.000000	98.404560
2446.000000	98.409524
2445.000000	98.413597
2444.000000	98.416724
2443.000000	98.416069
2442.000000	98.407838
2441.000000	98.392632
2440.000000	98.377082
2439.000000	98.368493
2438.000000	98.368936
2437.000000	98.375211
2436.000000	98.382870
2435.000000	98.388786
2434.000000	98.391224
2433.000000	98.389813
2432.000000	98.386048
2431.000000	98.383306
2430.000000	98.386101
2429.000000	98.397923
2428.000000	98.417700
2427.000000	98.438314
2426.000000	98.451115
2425.000000	98.453134
2424.000000	98.448654
2423.000000	98.443549
2422.000000	98.440022
2421.000000	98.437354
2420.000000	98.434492
2419.000000	98.430283
2418.000000	98.423857
2417.000000	98.417187
2416.000000	98.414899
2415.000000	98.419077
2414.000000	98.426116
2413.000000	98.431183
2412.000000	98.433787
2411.000000	98.436032
2410.000000	98.437412
2409.000000	98.435222
2408.000000	98.429405
2407.000000	98.423458
2406.000000	98.420644
2405.000000	98.422256
2404.000000	98.428970
2403.000000	98.440402
2402.000000	98.452901
2401.000000	98.460977
2400.000000	98.461929
2399.000000	98.457359
2398.000000	98.450086
2397.000000	98.442055
2396.000000	98.435391
2395.000000	98.432587
2394.000000	98.434387
2393.000000	98.439057
2392.000000	98.444065
2391.000000	98.447088
2390.000000	98.446022
2389.000000	98.440984
2388.000000	98.436400
2387.000000	98.437888
2386.000000	98.445727
2385.000000	98.454147
2384.000000	98.458587
2383.000000	98.461056
2382.000000	98.466297
2381.000000	98.474813
2380.000000	98.482931
2379.000000	98.488869
2378.000000	98.495323
2377.000000	98.504964
2376.000000	98.515447
2375.000000	98.520474
2374.000000	98.515290
2373.000000	98.500728
2372.000000	98.482594
2371.000000	98.467512
2370.000000	98.458294
2369.000000	98.452834
2368.000000	98.447967
2367.000000	98.443323
2366.000000	98.440982
2365.000000	98.442730
2364.000000	98.448453
2363.000000	98.455542
2362.000000	98.460859
2361.000000	98.463029
2360.000000	98.460359
2359.000000	98.452558
2358.000000	98.441269
2357.000000	98.429439
2356.000000	98.423943
2355.000000	98.425983
2354.000000	98.430010
2353.000000	98.429996
2352.000000	98.427003
2351.000000	98.424331
2350.000000	98.421670
2349.000000	98.419551
2348.000000	98.419109
2347.000000	98.421580
2346.000000	98.425661
2345.000000	98.426812
2344.000000	98.421747
2343.000000	98.409205
2342.000000	98.396863
2341.000000	98.391665
2340.000000	98.393462
2339.000000	98.399092
2338.000000	98.407602
2337.000000	98.419917
2336.000000	98.433261
2335.000000	98.441443
2334.000000	98.437571
2333.000000	98.422578
2332.000000	98.402972
2331.000000	98.387756
2330.000000	98.378195
2329.000000	98.375987
2328.000000	98.377281
2327.000000	98.376737
2326.000000	98.366583
2325.000000	98.347651
2324.000000	98.330581
2323.000000	98.325578
2322.000000	98.332849
2321.000000	98.344800
2320.000000	98.355880
2319.000000	98.366971
2318.000000	98.377034
2317.000000	98.383775
2316.000000	98.383957
2315.000000	98.380510
2314.000000	98.377015
2313.000000	98.379143
2312.000000	98.388941
2311.000000	98.405334
2310.000000	98.420041
2309.000000	98.426304
2308.000000	98.423195
2307.000000	98.417364
2306.000000	98.414254
2305.000000	98.415219
2304.000000	98.417580
2303.000000	98.418133
2302.000000	98.413305
2301.000000	98.403132
2300.000000	98.391384
2299.000000	98.384347
2298.000000	98.383444
2297.000000	98.386508
2296.000000	98.390251
2295.000000	98.394218
2294.000000	98.397575
2293.000000	98.399852
2292.000000	98.402311
2291.000000	98.407668
2290.000000	98.415273
2289.000000	98.420079
2288.000000	98.417873
2287.000000	98.409577
2286.000000	98.400035
2285.000000	98.393386
2284.000000	98.391122
2283.000000	98.391793
2282.000000	98.393132
2281.000000	98.394757
2280.000000	98.399141
2279.000000	98.407126
2278.000000	98.414484
2277.000000	98.416157
2276.000000	98.413160
2275.000000	98.411146
2274.000000	98.412378
2273.000000	98.415180
2272.000000	98.420610
2271.000000	98.433498
2270.000000	98.454239
2269.000000	98.475764
2268.000000	98.491898
2267.000000	98.504174
2266.000000	98.516489
2265.000000	98.527361
2264.000000	98.531751
2263.000000	98.528522
2262.000000	98.522089
2261.000000	98.517702
2260.000000	98.517730
2259.000000	98.521100
2258.000000	98.525259
2257.000000	98.528099
2256.000000	98.528227
2255.000000	98.523563
2254.000000	98.512850
2253.000000	98.500578
2252.000000	98.495030
2251.000000	98.496823
2250.000000	98.493621
2249.000000	98.474948
2248.000000	98.449708
2247.000000	98.439764
2246.000000	98.454536
2245.000000	98.480996
2244.000000	98.500424
2243.000000	98.506760
2242.000000	98.504725
2241.000000	98.498766
2240.000000	98.491430
2239.000000	98.487752
2238.000000	98.494053
2237.000000	98.512482
2236.000000	98.539435
2235.000000	98.567794
2234.000000	98.589381
2233.000000	98.597776
2232.000000	98.591192
2231.000000	98.572213
2230.000000	98.546334
2229.000000	98.522913
2228.000000	98.512641
2227.000000	98.517042
2226.000000	98.523369
2225.000000	98.518298
2224.000000	98.505904
2223.000000	98.502976
2222.000000	98.517067
2221.000000	98.538573
2220.000000	98.555311
2219.000000	98.564685
2218.000000	98.568967
2217.000000	98.569440
2216.000000	98.569643
2215.000000	98.575010
2214.000000	98.583354
2213.000000	98.583494
2212.000000	98.569231
2211.000000	98.549249
2210.000000	98.538601
2209.000000	98.545292
2208.000000	98.567262
2207.000000	98.596191
2206.000000	98.621298
2205.000000	98.635461
2204.000000	98.641663
2203.000000	98.649030
2202.000000	98.661779
2201.000000	98.676969
2200.000000	98.691033
2199.000000	98.699359
2198.000000	98.691223
2197.000000	98.657682
2196.000000	98.607263
2195.000000	98.561482
2194.000000	98.532631
2193.000000	98.517788
2192.000000	98.516560
2191.000000	98.538687
2190.000000	98.584781
2189.000000	98.631911
2188.000000	98.650492
2187.000000	98.631984
2186.000000	98.593983
2185.000000	98.565104
2184.000000	98.567241
2183.000000	98.600579
2182.000000	98.639189
2181.000000	98.652013
2180.000000	98.635923
2179.000000	98.617989
2178.000000	98.619354
2177.000000	98.630597
2176.000000	98.630943
2175.000000	98.619454
2174.000000	98.615247
2173.000000	98.633490
2172.000000	98.672204
2171.000000	98.717119
2170.000000	98.748991
2169.000000	98.751501
2168.000000	98.724226
2167.000000	98.686905
2166.000000	98.662948
2165.000000	98.658559
2164.000000	98.660333
2163.000000	98.653524
2162.000000	98.640935
2161.000000	98.645821
2160.000000	98.693738
2159.000000	98.781833
2158.000000	98.869754
2157.000000	98.917900
2156.000000	98.927408
2155.000000	98.924805
2154.000000	98.922825
2153.000000	98.914824
2152.000000	98.895556
2151.000000	98.868218
2150.000000	98.834938
2149.000000	98.796433
2148.000000	98.761284
2147.000000	98.741221
2146.000000	98.736810
2145.000000	98.739155
2144.000000	98.745149
2143.000000	98.757619
2142.000000	98.770474
2141.000000	98.769338
2140.000000	98.751430
2139.000000	98.731915
2138.000000	98.724847
2137.000000	98.729002
2136.000000	98.737213
2135.000000	98.749690
2134.000000	98.769972
2133.000000	98.793959
2132.000000	98.810360
2131.000000	98.809787
2130.000000	98.791325
2129.000000	98.764003
2128.000000	98.741690
2127.000000	98.730703
2126.000000	98.721994
2125.000000	98.701007
2124.000000	98.665518
2123.000000	98.627654
2122.000000	98.598601
2121.000000	98.578827
2120.000000	98.565140
2119.000000	98.559307
2118.000000	98.564466
2117.000000	98.577282
2116.000000	98.588153
2115.000000	98.588220
2114.000000	98.574904
2113.000000	98.553975
2112.000000	98.536931
2111.000000	98.532021
2110.000000	98.536450
2109.000000	98.540981
2108.000000	98.541862
2107.000000	98.543410
2106.000000	98.548485
2105.000000	98.553568
2104.000000	98.555803
2103.000000	98.558923
2102.000000	98.568740
2101.000000	98.586427
2100.000000	98.608007
2099.000000	98.626547
2098.000000	98.634555
2097.000000	98.630350
2096.000000	98.623531
2095.000000	98.627253
2094.000000	98.642891
2093.000000	98.658703
2092.000000	98.665608
2091.000000	98.667229
2090.000000	98.671513
2089.000000	98.678608
2088.000000	98.680421
2087.000000	98.668642
2086.000000	98.641342
2085.000000	98.606189
2084.000000	98.578134
2083.000000	98.568377
2082.000000	98.573638
2081.000000	98.580564
2080.000000	98.581484
2079.000000	98.580843
2078.000000	98.585584
2077.000000	98.595744
2076.000000	98.606964
2075.000000	98.616407
2074.000000	98.623349
2073.000000	98.628251
2072.000000	98.632654
2071.000000	98.636062
2070.000000	98.634266
2069.000000	98.626786
2068.000000	98.623289
2067.000000	98.633459
2066.000000	98.652690
2065.000000	98.668343
2064.000000	98.679235
2063.000000	98.695152
2062.000000	98.716273
2061.000000	98.729332
2060.000000	98.727265
2059.000000	98.717911
2058.000000	98.708316
2057.000000	98.696374
2056.000000	98.683963
2055.000000	98.681478
2054.000000	98.688708
2053.000000	98.686425
2052.000000	98.661874
2051.000000	98.632258
2050.000000	98.630249
2049.000000	98.669862
2048.000000	98.733289
2047.000000	98.788045
2046.000000	98.808243
2045.000000	98.785495
2044.000000	98.735940
2043.000000	98.693248
2042.000000	98.682903
2041.000000	98.703125
2040.000000	98.733337
2039.000000	98.755843
2038.000000	98.764756
2037.000000	98.766387
2036.000000	98.779860
2035.000000	98.821682
2034.000000	98.877027
2033.000000	98.901758
2032.000000	98.871566
2031.000000	98.816261
2030.000000	98.786581
2029.000000	98.799672
2028.000000	98.830261
2027.000000	98.846396
2026.000000	98.838552
2025.000000	98.818122
2024.000000	98.802219
2023.000000	98.800137
2022.000000	98.807670
2021.000000	98.813935
2020.000000	98.814372
2019.000000	98.813324
2018.000000	98.814777
2017.000000	98.817028
2016.000000	98.815658
2015.000000	98.806074
2014.000000	98.786658
2013.000000	98.768031
2012.000000	98.774435
2011.000000	98.822826
2010.000000	98.901869
2009.000000	98.979760
2008.000000	99.029678
2007.000000	99.040100
2006.000000	99.009055
2005.000000	98.949516
2004.000000	98.894150
2003.000000	98.870567
2002.000000	98.873739
2001.000000	98.876656
2000.000000	98.864229
1999.000000	98.842319
1998.000000	98.818879
1997.000000	98.797087
1996.000000	98.785203
1995.000000	98.791284
1994.000000	98.805403
1993.000000	98.804827
1992.000000	98.782383
1991.000000	98.753117
1990.000000	98.728091
1989.000000	98.704944
1988.000000	98.687350
1987.000000	98.687218
1986.000000	98.700091
1985.000000	98.701311
1984.000000	98.677514
1983.000000	98.643372
1982.000000	98.617380
1981.000000	98.601044
1980.000000	98.594533
1979.000000	98.614090
1978.000000	98.674726
1977.000000	98.763438
1976.000000	98.848758
1975.000000	98.910666
1974.000000	98.946539
1973.000000	98.963215
1972.000000	98.974758
1971.000000	98.991255
1970.000000	99.002983
1969.000000	98.991049
1968.000000	98.957144
1967.000000	98.925694
1966.000000	98.912400
1965.000000	98.911285
1964.000000	98.915428
1963.000000	98.925821
1962.000000	98.935630
1961.000000	98.928393
1960.000000	98.900128
1959.000000	98.865898
1958.000000	98.839618
1957.000000	98.824606
1956.000000	98.824341
1955.000000	98.842765
1954.000000	98.870815
1953.000000	98.890059
1952.000000	98.893758
1951.000000	98.889905
1950.000000	98.881806
1949.000000	98.863361
1948.000000	98.836319
1947.000000	98.813982
1946.000000	98.802052
1945.000000	98.791630
1944.000000	98.777643
1943.000000	98.769603
1942.000000	98.775063
1941.000000	98.786546
1940.000000	98.795511
1939.000000	98.802665
1938.000000	98.807667
1937.000000	98.804423
1936.000000	98.792954
1935.000000	98.784533
1934.000000	98.788168
1933.000000	98.801358
1932.000000	98.818485
1931.000000	98.838945
1930.000000	98.861478
1929.000000	98.879884
1928.000000	98.890509
1927.000000	98.895908
1926.000000	98.897704
1925.000000	98.892473
1924.000000	98.879721
1923.000000	98.865229
1922.000000	98.851269
1921.000000	98.832797
1920.000000	98.808574
1919.000000	98.787995
1918.000000	98.781347
1917.000000	98.785331
1916.000000	98.787823
1915.000000	98.782842
1914.000000	98.771604
1913.000000	98.758062
1912.000000	98.748579
1911.000000	98.749828
1910.000000	98.762863
1909.000000	98.781910
1908.000000	98.801695
1907.000000	98.821216
1906.000000	98.837715
1905.000000	98.843397
1904.000000	98.835209
1903.000000	98.821723
1902.000000	98.814319
1901.000000	98.815552
1900.000000	98.820282
1899.000000	98.823674
1898.000000	98.824116
1897.000000	98.822060
1896.000000	98.820774
1895.000000	98.825216
1894.000000	98.836922
1893.000000	98.852026
1892.000000	98.865381
1891.000000	98.873490
1890.000000	98.873967
1889.000000	98.868547
1888.000000	98.865733
1887.000000	98.871916
1886.000000	98.881366
1885.000000	98.882334
1884.000000	98.872377
1883.000000	98.861082
1882.000000	98.856257
1881.000000	98.855812
1880.000000	98.855832
1879.000000	98.857713
1878.000000	98.863617
1877.000000	98.871314
1876.000000	98.877519
1875.000000	98.881967
1874.000000	98.884819
1873.000000	98.885123
1872.000000	98.884221
1871.000000	98.885732
1870.000000	98.889406
1869.000000	98.889308
1868.000000	98.883373
1867.000000	98.878802
1866.000000	98.880367
1865.000000	98.882903
1864.000000	98.880284
1863.000000	98.873585
1862.000000	98.867309
1861.000000	98.864082
1860.000000	98.865492
1859.000000	98.872408
1858.000000	98.881763
1857.000000	98.887686
1856.000000	98.888819
1855.000000	98.890021
1854.000000	98.893180
1853.000000	98.892387
1852.000000	98.883438
1851.000000	98.870474
1850.000000	98.860980
1849.000000	98.858352
1848.000000	98.861775
1847.000000	98.869581
1846.000000	98.880024
1845.000000	98.890799
1844.000000	98.899247
1843.000000	98.904795
1842.000000	98.909677
1841.000000	98.914116
1840.000000	98.917685
1839.000000	98.922008
1838.000000	98.927055
1837.000000	98.929462
1836.000000	98.928442
1835.000000	98.927236
1834.000000	98.926894
1833.000000	98.925586
1832.000000	98.926080
1831.000000	98.935158
1830.000000	98.950815
1829.000000	98.957454
1828.000000	98.948098
1827.000000	98.932481
1826.000000	98.921756
1825.000000	98.920797
1824.000000	98.927028
1823.000000	98.934024
1822.000000	98.936468
1821.000000	98.934000
1820.000000	98.932712
1819.000000	98.937683
1818.000000	98.945212
1817.000000	98.947749
1816.000000	98.945717
1815.000000	98.946654
1814.000000	98.953264
1813.000000	98.960879
1812.000000	98.964517
1811.000000	98.962777
1810.000000	98.955212
1809.000000	98.942692
1808.000000	98.929444
1807.000000	98.919295
1806.000000	98.909776
1805.000000	98.893804
1804.000000	98.869529
1803.000000	98.844499
1802.000000	98.826732
1801.000000	98.816228
1800.000000	98.806341
1799.000000	98.793724
1798.000000	98.782188
1797.000000	98.777108
1796.000000	98.779749
1795.000000	98.786736
1794.000000	98.792334
1793.000000	98.794000
1792.000000	98.794623
1791.000000	98.798124
1790.000000	98.805161
1789.000000	98.812423
1788.000000	98.815422
1787.000000	98.814690
1786.000000	98.816136
1785.000000	98.825455
1784.000000	98.843636
1783.000000	98.867531
1782.000000	98.890807
1781.000000	98.908391
1780.000000	98.919128
1779.000000	98.925919
1778.000000	98.931357
1777.000000	98.936042
1776.000000	98.942560
1775.000000	98.954345
1774.000000	98.970415
1773.000000	98.984827
1772.000000	98.989867
1771.000000	98.980772
1770.000000	98.960713
1769.000000	98.937848
1768.000000	98.924372
1767.000000	98.930678
1766.000000	98.950604
1765.000000	98.966806
1764.000000	98.969380
1763.000000	98.964152
1762.000000	98.960689
1761.000000	98.958332
1760.000000	98.952918
1759.000000	98.944385
1758.000000	98.930519
1757.000000	98.908130
1756.000000	98.881838
1755.000000	98.860038
1754.000000	98.837741
1753.000000	98.798144
1752.000000	98.736277
1751.000000	98.675027
1750.000000	98.641511
1749.000000	98.629283
1748.000000	98.617056
1747.000000	98.598526
1746.000000	98.575352
1745.000000	98.547154
1744.000000	98.517688
1743.000000	98.497557
1742.000000	98.489581
1741.000000	98.483364
1740.000000	98.472669
1739.000000	98.466259
1738.000000	98.469245
1737.000000	98.471881
1736.000000	98.464871
1735.000000	98.461277
1734.000000	98.489214
1733.000000	98.537443
1732.000000	98.577707
1731.000000	98.609165
1730.000000	98.637169
1729.000000	98.658814
1728.000000	98.671396
1727.000000	98.679253
1726.000000	98.685345
1725.000000	98.688497
1724.000000	98.689595
1723.000000	98.695056
1722.000000	98.706485
1721.000000	98.716411
1720.000000	98.719253
1719.000000	98.717037
1718.000000	98.708660
1717.000000	98.686258
1716.000000	98.654004
1715.000000	98.628155
1714.000000	98.616527
1713.000000	98.610245
1712.000000	98.598796
1711.000000	98.583517
1710.000000	98.571976
1709.000000	98.566879
1708.000000	98.564742
1707.000000	98.560729
1706.000000	98.552164
1705.000000	98.537373
1704.000000	98.517377
1703.000000	98.490438
1702.000000	98.443966
1701.000000	98.372339
1700.000000	98.304551
1699.000000	98.276557
1698.000000	98.274096
1697.000000	98.253412
1696.000000	98.194422
1695.000000	98.120368
1694.000000	98.064916
1693.000000	98.026784
1692.000000	97.986053
1691.000000	97.934621
1690.000000	97.876775
1689.000000	97.823445
1688.000000	97.786715
1687.000000	97.767978
1686.000000	97.750017
1685.000000	97.701037
1684.000000	97.598830
1683.000000	97.475675
1682.000000	97.374746
1681.000000	97.288908
1680.000000	97.201180
1679.000000	97.115740
1678.000000	97.035052
1677.000000	96.942830
1676.000000	96.823955
1675.000000	96.697150
1674.000000	96.596988
1673.000000	96.520701
1672.000000	96.437947
1671.000000	96.330159
1670.000000	96.199218
1669.000000	96.059053
1668.000000	95.930172
1667.000000	95.828158
1666.000000	95.745546
1665.000000	95.659302
1664.000000	95.552503
1663.000000	95.432112
1662.000000	95.320664
1661.000000	95.228406
1660.000000	95.150910
1659.000000	95.087598
1658.000000	95.042070
1657.000000	95.011010
1656.000000	94.983820
1655.000000	94.949239
1654.000000	94.906547
1653.000000	94.858397
1652.000000	94.811181
1651.000000	94.791770
1650.000000	94.790365
1649.000000	94.783853
1648.000000	94.765914
1647.000000	94.746272
1646.000000	94.737566
1645.000000	94.733964
1644.000000	94.733300
1643.000000	94.737308
1642.000000	94.744109
1641.000000	94.748850
1640.000000	94.749420
1639.000000	94.750363
1638.000000	94.756404
1637.000000	94.764822
1636.000000	94.769788
1635.000000	94.767696
1634.000000	94.766550
1633.000000	94.775833
1632.000000	94.792800
1631.000000	94.817380
1630.000000	94.855677
1629.000000	94.910685
1628.000000	94.977268
1627.000000	95.047984
1626.000000	95.120771
1625.000000	95.200955
1624.000000	95.298552
1623.000000	95.415782
1622.000000	95.533872
1621.000000	95.635899
1620.000000	95.726384
1619.000000	95.818935
1618.000000	95.926138
1617.000000	96.049763
1616.000000	96.165756
1615.000000	96.251580
1614.000000	96.315950
1613.000000	96.374322
1612.000000	96.436036
1611.000000	96.505813
1610.000000	96.582282
1609.000000	96.659441
1608.000000	96.732408
1607.000000	96.799517
1606.000000	96.858358
1605.000000	96.907224
1604.000000	96.948394
1603.000000	96.986151
1602.000000	97.022874
1601.000000	97.058995
1600.000000	97.095473
1599.000000	97.132477
1598.000000	97.166353
1597.000000	97.193124
1596.000000	97.213449
1595.000000	97.230382
1594.000000	97.244296
1593.000000	97.253165
1592.000000	97.256794
1591.000000	97.256944
1590.000000	97.253655
1589.000000	97.245169
1588.000000	97.231368
1587.000000	97.214101
1586.000000	97.193975
1585.000000	97.169067
1584.000000	97.138344
1583.000000	97.101267
1582.000000	97.058461
1581.000000	97.014765
1580.000000	96.977661
1579.000000	96.948660
1578.000000	96.918310
1577.000000	96.872696
1576.000000	96.811728
1575.000000	96.754366
1574.000000	96.711649
1573.000000	96.677455
1572.000000	96.642920
1571.000000	96.602913
1570.000000	96.555128
1569.000000	96.498787
1568.000000	96.442688
1567.000000	96.394514
1566.000000	96.347292
1565.000000	96.290911
1564.000000	96.230037
1563.000000	96.177753
1562.000000	96.134543
1561.000000	96.084253
1560.000000	96.011205
1559.000000	95.919360
1558.000000	95.840021
1557.000000	95.777681
1556.000000	95.730913
1555.000000	95.690912
1554.000000	95.654835
1553.000000	95.619465
1552.000000	95.582076
1551.000000	95.544069
1550.000000	95.512014
1549.000000	95.486889
1548.000000	95.463478
1547.000000	95.436076
1546.000000	95.403200
1545.000000	95.370388
1544.000000	95.347066
1543.000000	95.337621
1542.000000	95.336421
1541.000000	95.336708
1540.000000	95.344481
1539.000000	95.356122
1538.000000	95.360649
1537.000000	95.362505
1536.000000	95.363996
1535.000000	95.373945
1534.000000	95.403588
1533.000000	95.444846
1532.000000	95.475587
1531.000000	95.494655
1530.000000	95.509306
1529.000000	95.517524
1528.000000	95.517083
1527.000000	95.513811
1526.000000	95.516300
1525.000000	95.526416
1524.000000	95.538884
1523.000000	95.547433
1522.000000	95.548679
1521.000000	95.541499
1520.000000	95.530395
1519.000000	95.524002
1518.000000	95.518751
1517.000000	95.505601
1516.000000	95.486450
1515.000000	95.470956
1514.000000	95.457804
1513.000000	95.437607
1512.000000	95.411867
1511.000000	95.393525
1510.000000	95.385319
1509.000000	95.375310
1508.000000	95.357096
1507.000000	95.347474
1506.000000	95.334777
1505.000000	95.298519
1504.000000	95.266210
1503.000000	95.241801
1502.000000	95.216403
1501.000000	95.182164
1500.000000	95.138708
1499.000000	95.091654
1498.000000	95.038630
1497.000000	94.974526
1496.000000	94.913672
1495.000000	94.875584
1494.000000	94.851488
1493.000000	94.816539
1492.000000	94.756745
1491.000000	94.677709
1490.000000	94.592856
1489.000000	94.511279
1488.000000	94.436575
1487.000000	94.367187
1486.000000	94.297075
1485.000000	94.219848
1484.000000	94.135643
1483.000000	94.045978
1482.000000	93.948267
1481.000000	93.842742
1480.000000	93.739252
1479.000000	93.643143
1478.000000	93.545241
1477.000000	93.436127
1476.000000	93.322120
1475.000000	93.210679
1474.000000	93.082462
1473.000000	92.913877
1472.000000	92.735371
1471.000000	92.601624
1470.000000	92.511768
1469.000000	92.434439
1468.000000	92.352738
1467.000000	92.263845
1466.000000	92.160938
1465.000000	92.039880
1464.000000	91.922663
1463.000000	91.836870
1462.000000	91.778854
1461.000000	91.727026
1460.000000	91.666971
1459.000000	91.584945
1458.000000	91.452104
1457.000000	91.262837
1456.000000	91.099586
1455.000000	91.015986
1454.000000	90.968910
1453.000000	90.913877
1452.000000	90.847657
1451.000000	90.785485
1450.000000	90.728047
1449.000000	90.660940
1448.000000	90.581684
1447.000000	90.507317
1446.000000	90.447253
1445.000000	90.396235
1444.000000	90.347710
1443.000000	90.299559
1442.000000	90.251645
1441.000000	90.206330
1440.000000	90.167525
1439.000000	90.131090
1438.000000	90.082117
1437.000000	90.013710
1436.000000	89.950756
1435.000000	89.918638
1434.000000	89.898174
1433.000000	89.858454
1432.000000	89.793503
1431.000000	89.717090
1430.000000	89.637802
1429.000000	89.554518
1428.000000	89.475082
1427.000000	89.408993
1426.000000	89.344346
1425.000000	89.260175
1424.000000	89.158596
1423.000000	89.065795
1422.000000	88.987171
1421.000000	88.895859
1420.000000	88.769617
1419.000000	88.624445
1418.000000	88.499278
1417.000000	88.407713
1416.000000	88.340685
1415.000000	88.286412
1414.000000	88.230389
1413.000000	88.160920
1412.000000	88.082126
1411.000000	88.009433
1410.000000	87.949512
1409.000000	87.899882
1408.000000	87.864906
1407.000000	87.850516
1406.000000	87.846221
1405.000000	87.835957
1404.000000	87.826808
1403.000000	87.837596
1402.000000	87.863320
1401.000000	87.883426
1400.000000	87.892828
1399.000000	87.906333
1398.000000	87.931805
1397.000000	87.961775
1396.000000	87.995396
1395.000000	88.042058
1394.000000	88.101854
1393.000000	88.168627
1392.000000	88.245313
1391.000000	88.332550
1390.000000	88.419838
1389.000000	88.499346
1388.000000	88.580206
1387.000000	88.676001
1386.000000	88.780880
1385.000000	88.882075
1384.000000	88.981728
1383.000000	89.086277
1382.000000	89.191827
1381.000000	89.290578
1380.000000	89.384411
1379.000000	89.479715
1378.000000	89.575982
1377.000000	89.671032
1376.000000	89.771371
1375.000000	89.885988
1374.000000	90.012184
1373.000000	90.139777
1372.000000	90.266319
1371.000000	90.392766
1370.000000	90.516016
1369.000000	90.637207
1368.000000	90.764284
1367.000000	90.897391
1366.000000	91.023748
1365.000000	91.135794
1364.000000	91.242847
1363.000000	91.358510
1362.000000	91.482563
1361.000000	91.605959
1360.000000	91.726375
1359.000000	91.843072
1358.000000	91.950394
1357.000000	92.045766
1356.000000	92.134575
1355.000000	92.221109
1354.000000	92.302643
1353.000000	92.377400
1352.000000	92.448731
1351.000000	92.516490
1350.000000	92.574072
1349.000000	92.618745
1348.000000	92.656976
1347.000000	92.695238
1346.000000	92.732954
1345.000000	92.768307
1344.000000	92.802325
1343.000000	92.833234
1342.000000	92.855385
1341.000000	92.868948
1340.000000	92.884789
1339.000000	92.913099
1338.000000	92.951385
1337.000000	92.993344
1336.000000	93.040050
1335.000000	93.094309
1334.000000	93.154387
1333.000000	93.217812
1332.000000	93.284685
1331.000000	93.353904
1330.000000	93.421528
1329.000000	93.485665
1328.000000	93.548374
1327.000000	93.610837
1326.000000	93.671443
1325.000000	93.729030
1324.000000	93.783292
1323.000000	93.830912
1322.000000	93.867668
1321.000000	93.895397
1320.000000	93.921130
1319.000000	93.948437
1318.000000	93.975239
1317.000000	94.001735
1316.000000	94.032802
1315.000000	94.070889
1314.000000	94.113406
1313.000000	94.158440
1312.000000	94.206425
1311.000000	94.255145
1310.000000	94.300004
1309.000000	94.340761
1308.000000	94.381531
1307.000000	94.423165
1306.000000	94.462114
1305.000000	94.497497
1304.000000	94.533166
1303.000000	94.571005
1302.000000	94.608820
1301.000000	94.646110
1300.000000	94.685183
1299.000000	94.724640
1298.000000	94.758426
1297.000000	94.783543
1296.000000	94.802636
1295.000000	94.816892
1294.000000	94.823128
1293.000000	94.820381
1292.000000	94.813341
1291.000000	94.806557
1290.000000	94.799895
1289.000000	94.792732
1288.000000	94.787421
1287.000000	94.785334
1286.000000	94.783661
1285.000000	94.779685
1284.000000	94.774962
1283.000000	94.772648
1282.000000	94.773851
1281.000000	94.778371
1280.000000	94.786440
1279.000000	94.798130
1278.000000	94.813421
1277.000000	94.833544
1276.000000	94.858938
1275.000000	94.885715
1274.000000	94.907970
1273.000000	94.924386
1272.000000	94.939030
1271.000000	94.954864
1270.000000	94.970375
1269.000000	94.983510
1268.000000	94.994593
1267.000000	95.003843
1266.000000	95.009782
1265.000000	95.011543
1264.000000	95.009720
1263.000000	95.004215
1262.000000	94.994499
1261.000000	94.982703
1260.000000	94.972322
1259.000000	94.963131
1258.000000	94.950751
1257.000000	94.932254
1256.000000	94.909274
1255.000000	94.885080
1254.000000	94.861365
1253.000000	94.837675
1252.000000	94.810902
1251.000000	94.776314
1250.000000	94.732483
1249.000000	94.684901
1248.000000	94.641119
1247.000000	94.602473
1246.000000	94.564671
1245.000000	94.525882
1244.000000	94.488663
1243.000000	94.453002
1242.000000	94.413870
1241.000000	94.369118
1240.000000	94.324891
1239.000000	94.289704
1238.000000	94.266169
1237.000000	94.252099
1236.000000	94.245976
1235.000000	94.247273
1234.000000	94.254628
1233.000000	94.267537
1232.000000	94.288914
1231.000000	94.322142
1230.000000	94.367099
1229.000000	94.421934
1228.000000	94.485784
1227.000000	94.557300
1226.000000	94.632515
1225.000000	94.707449
1224.000000	94.781780
1223.000000	94.857328
1222.000000	94.934461
1221.000000	95.011223
1220.000000	95.084533
1219.000000	95.151358
1218.000000	95.210587
1217.000000	95.263675
1216.000000	95.311479
1215.000000	95.351306
1214.000000	95.379165
1213.000000	95.394865
1212.000000	95.401582
1211.000000	95.401354
1210.000000	95.394797
1209.000000	95.383829
1208.000000	95.371009
1207.000000	95.355994
1206.000000	95.336910
1205.000000	95.316007
1204.000000	95.300218
1203.000000	95.295262
1202.000000	95.302149
1201.000000	95.319694
1200.000000	95.346182
1199.000000	95.378153
1198.000000	95.411645
1197.000000	95.446754
1196.000000	95.487620
1195.000000	95.535676
1194.000000	95.586780
1193.000000	95.636398
1192.000000	95.684162
1191.000000	95.731327
1190.000000	95.777028
1189.000000	95.819586
1188.000000	95.859102
1187.000000	95.896452
1186.000000	95.930946
1185.000000	95.960866
1184.000000	95.985237
1183.000000	96.004484
1182.000000	96.020394
1181.000000	96.035078
1180.000000	96.049051
1179.000000	96.060676
1178.000000	96.068713
1177.000000	96.074318
1176.000000	96.079099
1175.000000	96.083199
1174.000000	96.086920
1173.000000	96.091981
1172.000000	96.098608
1171.000000	96.103311
1170.000000	96.102938
1169.000000	96.099414
1168.000000	96.097146
1167.000000	96.097169
1166.000000	96.097542
1165.000000	96.098403
1164.000000	96.102326
1163.000000	96.109799
1162.000000	96.118263
1161.000000	96.126512
1160.000000	96.136897
1159.000000	96.152585
1158.000000	96.174741
1157.000000	96.202012
1156.000000	96.230853
1155.000000	96.257112
1154.000000	96.279932
1153.000000	96.303366
1152.000000	96.331536
1151.000000	96.363537
1150.000000	96.395437
1149.000000	96.425383
1148.000000	96.453404
1147.000000	96.478519
1146.000000	96.500395
1145.000000	96.522211
1144.000000	96.547332
1143.000000	96.574211
1142.000000	96.598790
1141.000000	96.620765
1140.000000	96.643178
1139.000000	96.667009
1138.000000	96.690571
1137.000000	96.713302
1136.000000	96.735632
1135.000000	96.755880
1134.000000	96.772042
1133.000000	96.785738
1132.000000	96.799730
1131.000000	96.811700
1130.000000	96.815198
1129.000000	96.807372
1128.000000	96.791560
1127.000000	96.772706
1126.000000	96.753995
1125.000000	96.737753
1124.000000	96.725582
1123.000000	96.716920
1122.000000	96.710608
1121.000000	96.707728
1120.000000	96.709602
1119.000000	96.713392
1118.000000	96.713804
1117.000000	96.709456
1116.000000	96.704070
1115.000000	96.701214
1114.000000	96.700995
1113.000000	96.701926
1112.000000	96.703020
1111.000000	96.704364
1110.000000	96.708493
1109.000000	96.719485
1108.000000	96.736696
1107.000000	96.750465
1106.000000	96.750121
1105.000000	96.736642
1104.000000	96.722127
1103.000000	96.716016
1102.000000	96.716932
1101.000000	96.719008
1100.000000	96.720452
1099.000000	96.720838
1098.000000	96.716122
1097.000000	96.700570
1096.000000	96.673769
1095.000000	96.642654
1094.000000	96.616026
1093.000000	96.597410
1092.000000	96.582731
1091.000000	96.564575
1090.000000	96.538702
1089.000000	96.506609
1088.000000	96.471836
1087.000000	96.435893
1086.000000	96.399144
1085.000000	96.363706
1084.000000	96.333078
1083.000000	96.309871
1082.000000	96.296288
1081.000000	96.294855
1080.000000	96.305603
1079.000000	96.322917
1078.000000	96.339146
1077.000000	96.352661
1076.000000	96.369300
1075.000000	96.395905
1074.000000	96.433792
1073.000000	96.477939
1072.000000	96.519801
1071.000000	96.551474
1070.000000	96.570274
1069.000000	96.579482
1068.000000	96.583247
1067.000000	96.582589
1066.000000	96.578673
1065.000000	96.576683
1064.000000	96.581596
1063.000000	96.591604
1062.000000	96.600254
1061.000000	96.604903
1060.000000	96.609010
1059.000000	96.616396
1058.000000	96.627349
1057.000000	96.640229
1056.000000	96.652807
1055.000000	96.661961
1054.000000	96.666564
1053.000000	96.671182
1052.000000	96.682694
1051.000000	96.701631
1050.000000	96.720549
1049.000000	96.732417
1048.000000	96.737082
1047.000000	96.738611
1046.000000	96.740379
1045.000000	96.744573
1044.000000	96.752603
1043.000000	96.763243
1042.000000	96.771590
1041.000000	96.771997
1040.000000	96.761767
1039.000000	96.741640
1038.000000	96.714211
1037.000000	96.682314
1036.000000	96.648885
1035.000000	96.618075
1034.000000	96.595613
1033.000000	96.586210
1032.000000	96.589747
1031.000000	96.601386
1030.000000	96.616251
1029.000000	96.632994
1028.000000	96.652041
1027.000000	96.673218
1026.000000	96.696921
1025.000000	96.724887
1024.000000	96.757439
1023.000000	96.791636
1022.000000	96.824589
1021.000000	96.856313
1020.000000	96.886900
1019.000000	96.913682
1018.000000	96.934239
1017.000000	96.949685
1016.000000	96.961950
1015.000000	96.971305
1014.000000	96.980113
1013.000000	96.995316
1012.000000	97.021793
1011.000000	97.055785
1010.000000	97.089956
1009.000000	97.122955
1008.000000	97.158312
1007.000000	97.195596
1006.000000	97.229676
1005.000000	97.258543
1004.000000	97.286165
1003.000000	97.316372
1002.000000	97.348638
1001.000000	97.381050
1000.000000	97.413355
999.000000	97.445676
998.000000	97.477268
997.000000	97.507780
996.000000	97.537816
995.000000	97.568205
994.000000	97.600330
993.000000	97.635722
992.000000	97.672847
991.000000	97.705704
990.000000	97.728881
989.000000	97.742982
988.000000	97.752321
987.000000	97.759723
986.000000	97.767111
985.000000	97.778678
984.000000	97.797731
983.000000	97.820412
982.000000	97.837581
981.000000	97.843412
980.000000	97.839337
979.000000	97.829972
978.000000	97.819487
977.000000	97.811936
976.000000	97.810817
975.000000	97.816786
974.000000	97.827930
973.000000	97.842508
972.000000	97.859121
971.000000	97.875197
970.000000	97.888850
969.000000	97.902416
968.000000	97.920561
967.000000	97.943953
966.000000	97.967165
965.000000	97.983938
964.000000	97.993014
963.000000	97.998630
962.000000	98.006640
961.000000	98.019746
960.000000	98.035633
959.000000	98.050647
958.000000	98.065088
957.000000	98.082211
956.000000	98.101117
955.000000	98.115271
954.000000	98.121092
953.000000	98.123620
952.000000	98.129558
951.000000	98.138184
950.000000	98.144662
949.000000	98.149136
948.000000	98.156323
947.000000	98.167704
946.000000	98.179981
945.000000	98.190393
944.000000	98.197796
943.000000	98.199590
942.000000	98.194157
941.000000	98.186701
940.000000	98.186300
939.000000	98.195887
938.000000	98.209577
937.000000	98.220959
936.000000	98.229366
935.000000	98.237177
934.000000	98.246117
933.000000	98.257665
932.000000	98.272438
931.000000	98.287358
930.000000	98.297527
929.000000	98.302530
928.000000	98.307389
927.000000	98.316045
926.000000	98.327847
925.000000	98.341401
924.000000	98.357142
923.000000	98.373981
922.000000	98.387952
921.000000	98.397499
920.000000	98.407010
919.000000	98.422057
918.000000	98.443121
917.000000	98.466433
916.000000	98.488759
915.000000	98.508845
914.000000	98.526039
913.000000	98.539876
912.000000	98.550650
911.000000	98.559783
910.000000	98.570767
909.000000	98.588857
908.000000	98.616367
907.000000	98.647535
906.000000	98.671943
905.000000	98.685454
904.000000	98.695166
903.000000	98.710938
902.000000	98.734629
901.000000	98.760214
900.000000	98.782072
899.000000	98.799714
898.000000	98.815691
897.000000	98.832764
896.000000	98.854003
895.000000	98.882410
894.000000	98.918040
893.000000	98.956796
892.000000	98.994030
891.000000	99.028989
890.000000	99.063741
889.000000	99.096251
888.000000	99.116264
887.000000	99.107169
886.000000	99.049781
885.000000	98.920250
884.000000	98.686606
883.000000	98.317232
882.000000	97.792174
881.000000	97.108038
880.000000	96.275937
879.000000	95.330128
878.000000	94.341881
877.000000	93.407782
876.000000	92.609887
875.000000	91.985270
874.000000	91.551176
873.000000	91.357460
872.000000	91.498162
871.000000	92.032570
870.000000	92.890023
869.000000	93.878317
868.000000	94.792863
867.000000	95.520664
866.000000	96.055347
865.000000	96.444112
864.000000	96.734974
863.000000	96.960548
862.000000	97.141847
861.000000	97.292006
860.000000	97.418006
859.000000	97.523426
858.000000	97.612135
857.000000	97.687205
856.000000	97.750228
855.000000	97.804816
854.000000	97.857956
853.000000	97.913180
852.000000	97.961605
851.000000	97.986266
850.000000	97.980617
849.000000	97.961530
848.000000	97.959887
847.000000	97.996037
846.000000	98.064698
845.000000	98.143272
844.000000	98.212053
843.000000	98.266307
842.000000	98.312995
841.000000	98.360156
840.000000	98.409840
839.000000	98.458056
838.000000	98.499033
837.000000	98.529799
836.000000	98.552180
835.000000	98.571833
834.000000	98.594967
833.000000	98.624266
832.000000	98.656459
831.000000	98.683736
830.000000	98.699320
829.000000	98.703557
828.000000	98.704859
827.000000	98.713143
826.000000	98.731079
825.000000	98.751683
824.000000	98.765289
823.000000	98.769224
822.000000	98.769784
821.000000	98.775280
820.000000	98.788355
819.000000	98.804594
818.000000	98.817068
817.000000	98.821705
816.000000	98.819577
815.000000	98.815530
814.000000	98.814290
813.000000	98.816840
812.000000	98.820405
811.000000	98.821842
810.000000	98.821166
809.000000	98.822274
808.000000	98.830466
807.000000	98.848174
806.000000	98.871706
805.000000	98.892748
804.000000	98.905219
803.000000	98.910665
802.000000	98.915195
801.000000	98.921501
800.000000	98.926598
799.000000	98.927837
798.000000	98.927020
797.000000	98.926616
796.000000	98.925984
795.000000	98.924691
794.000000	98.926166
793.000000	98.933059
792.000000	98.940453
791.000000	98.938553
790.000000	98.922513
789.000000	98.896291
788.000000	98.867709
787.000000	98.843984
786.000000	98.831783
785.000000	98.835517
784.000000	98.852332
783.000000	98.871794
782.000000	98.883621
781.000000	98.884743
780.000000	98.878095
779.000000	98.867353
778.000000	98.855575
777.000000	98.846907
776.000000	98.845589
775.000000	98.852219
774.000000	98.862399
773.000000	98.869677
772.000000	98.869719
771.000000	98.862855
770.000000	98.853998
769.000000	98.849452
768.000000	98.852087
767.000000	98.858908
766.000000	98.864033
765.000000	98.864439
764.000000	98.862711
763.000000	98.864213
762.000000	98.871544
761.000000	98.881453
760.000000	98.886996
759.000000	98.882903
758.000000	98.869090
757.000000	98.849626
756.000000	98.829605
755.000000	98.813591
754.000000	98.805268
753.000000	98.805691
752.000000	98.811383
751.000000	98.816247
750.000000	98.816819
749.000000	98.814742
748.000000	98.813245
747.000000	98.812141
746.000000	98.807749
745.000000	98.797382
744.000000	98.782357
743.000000	98.766174
742.000000	98.750882
741.000000	98.736375
740.000000	98.722934
739.000000	98.712876
738.000000	98.708564
737.000000	98.708524
736.000000	98.706514
735.000000	98.695578
734.000000	98.673785
733.000000	98.645949
732.000000	98.619205
731.000000	98.596315
730.000000	98.573071
729.000000	98.543165
728.000000	98.505393
727.000000	98.464897
726.000000	98.427044
725.000000	98.391020
724.000000	98.351578
723.000000	98.306553
722.000000	98.259144
721.000000	98.210486
720.000000	98.151519
719.000000	98.064503
718.000000	97.931687
717.000000	97.741262
716.000000	97.491832
715.000000	97.204793
714.000000	96.936148
713.000000	96.762216
712.000000	96.734813
711.000000	96.842426
710.000000	97.018729
709.000000	97.190780
708.000000	97.319964
707.000000	97.406088
706.000000	97.467122
705.000000	97.521065
704.000000	97.577053
703.000000	97.632617
702.000000	97.677981
701.000000	97.706955
700.000000	97.723240
699.000000	97.733773
698.000000	97.739528
697.000000	97.737445
696.000000	97.729361
695.000000	97.723032
694.000000	97.723852
693.000000	97.730795
692.000000	97.741275
691.000000	97.754617
690.000000	97.769965
689.000000	97.784414
688.000000	97.795094
687.000000	97.801166
686.000000	97.802372
685.000000	97.798349
684.000000	97.789887
683.000000	97.778341
682.000000	97.764400
681.000000	97.749822
680.000000	97.737515
679.000000	97.725859
678.000000	97.707097
677.000000	97.678645
676.000000	97.653083
675.000000	97.646540
674.000000	97.658170
673.000000	97.671480
672.000000	97.676005
671.000000	97.676207
670.000000	97.677386
669.000000	97.674864
668.000000	97.664006
667.000000	97.636314
666.000000	97.597851
665.000000	97.567588
664.000000	97.546241
663.000000	97.531798
662.000000	97.525110
661.000000	97.526442
660.000000	97.534388
659.000000	97.545555
658.000000	97.551719
657.000000	97.543406
656.000000	97.520063
655.000000	97.493749
654.000000	97.480022
653.000000	97.485533
652.000000	97.505676
651.000000	97.529667
650.000000	97.544831
649.000000	97.542424
648.000000	97.524083
647.000000	97.501202
646.000000	97.485511
645.000000	97.480945
644.000000	97.486981
643.000000	97.504700
642.000000	97.532762
641.000000	97.560750
640.000000	97.573292
639.000000	97.561484
638.000000	97.529695
637.000000	97.492712
636.000000	97.467225
635.000000	97.462507
634.000000	97.472849
633.000000	97.481388
632.000000	97.476416
631.000000	97.462101
630.000000	97.451303
629.000000	97.450462
628.000000	97.455080
627.000000	97.457388
626.000000	97.454858
625.000000	97.451792
624.000000	97.454563
623.000000	97.464181
622.000000	97.472453
621.000000	97.469746
620.000000	97.458541
619.000000	97.452568
618.000000	97.458873
617.000000	97.466880
616.000000	97.462734
615.000000	97.449062
614.000000	97.440844
613.000000	97.446034
612.000000	97.460028
611.000000	97.476137
610.000000	97.491608
609.000000	97.504121
608.000000	97.511065
607.000000	97.514207
606.000000	97.518905
605.000000	97.526878
604.000000	97.534785
603.000000	97.539807
602.000000	97.541075
601.000000	97.535708
600.000000	97.519781
599.000000	97.496175
598.000000	97.475218
597.000000	97.465983
596.000000	97.471485
595.000000	97.489626
594.000000	97.512150
593.000000	97.524535
592.000000	97.516519
591.000000	97.495081
590.000000	97.478723
589.000000	97.476247
588.000000	97.479740
587.000000	97.479127
586.000000	97.474870
585.000000	97.473073
584.000000	97.474005
583.000000	97.472945
582.000000	97.469607
581.000000	97.470888
580.000000	97.481863
579.000000	97.498021
578.000000	97.509842
577.000000	97.513982
576.000000	97.515541
575.000000	97.516447
574.000000	97.507978
573.000000	97.483698
572.000000	97.453466
571.000000	97.432145
570.000000	97.416024
569.000000	97.383490
568.000000	97.327409
567.000000	97.271379
566.000000	97.243745
565.000000	97.248812
564.000000	97.273558
563.000000	97.305849
562.000000	97.332501
561.000000	97.336514
560.000000	97.312999
559.000000	97.280639
558.000000	97.262411
557.000000	97.261734
556.000000	97.270430
555.000000	97.290570
554.000000	97.328844
553.000000	97.373449
552.000000	97.397330
551.000000	97.386734
550.000000	97.358341
549.000000	97.343518
548.000000	97.359756
547.000000	97.397206
546.000000	97.426629
545.000000	97.426458
544.000000	97.408174
543.000000	97.406725
542.000000	97.441591
541.000000	97.494359
540.000000	97.529336
539.000000	97.527070
538.000000	97.492215
537.000000	97.442760
536.000000	97.401286
535.000000	97.384324
534.000000	97.384592
533.000000	97.374592
532.000000	97.339061
531.000000	97.294663
530.000000	97.266668
529.000000	97.261340
528.000000	97.276547
527.000000	97.320196
526.000000	97.388745
525.000000	97.442668
524.000000	97.447732
523.000000	97.422708
522.000000	97.414454
521.000000	97.442678
520.000000	97.488611
519.000000	97.531696
518.000000	97.574698
517.000000	97.625681
516.000000	97.676574
515.000000	97.710945
514.000000	97.718770
513.000000	97.701349
512.000000	97.678589
511.000000	97.686690
510.000000	97.743540
509.000000	97.820578
508.000000	97.869778
507.000000	97.878656
506.000000	97.875832
505.000000	97.879438
504.000000	97.876866
503.000000	97.865149
502.000000	97.876406
501.000000	97.935084
500.000000	98.013752
499.000000	98.065280
498.000000	98.070707
497.000000	98.042407
496.000000	98.002952
495.000000	97.973617
494.000000	97.972626
493.000000	98.003602
492.000000	98.047377
491.000000	98.083476
490.000000	98.112818
489.000000	98.146467
488.000000	98.182578
487.000000	98.211271
486.000000	98.234414
485.000000	98.262451
484.000000	98.288198
483.000000	98.285280
482.000000	98.244181
481.000000	98.193061
480.000000	98.173570
479.000000	98.199340
478.000000	98.242016
477.000000	98.264223
476.000000	98.266124
475.000000	98.286034
474.000000	98.349064
473.000000	98.425819
472.000000	98.457096
471.000000	98.430644
470.000000	98.387601
469.000000	98.355399
468.000000	98.330263
467.000000	98.315528
466.000000	98.340979
465.000000	98.430616
464.000000	98.568537
463.000000	98.704107
462.000000	98.786780
461.000000	98.806030
460.000000	98.794469
459.000000	98.795060
458.000000	98.830886
457.000000	98.891997
456.000000	98.953864
455.000000	98.996884
454.000000	99.004417
453.000000	98.969038
452.000000	98.915523
451.000000	98.898084
450.000000	98.945441
