PE IR       SUBTECH     SPECTRUM    ASCII       PEDS        4.00        
   -1
11768-Hull16-F001_1.ASC
23/09/13
11:45:42.00
23/09/13
12:05:54.00
uco
Sample 001 By uco Date Wednesday, September 13 2023
450.000000
#HDR
-1
-1
#GR
cm-1
%T
1.0
0.0
4000.000000
-1.000000
3551
8
99.047835
85.311904
#DATA
4000.000000	98.880212
3999.000000	98.880614
3998.000000	98.888294
3997.000000	98.897939
3996.000000	98.903638
3995.000000	98.863297
3994.000000	98.862144
3993.000000	98.867230
3992.000000	98.878361
3991.000000	98.891120
3990.000000	98.900193
3989.000000	98.902227
3988.000000	98.897006
3987.000000	98.886661
3986.000000	98.874645
3985.000000	98.864521
3984.000000	98.858609
3983.000000	98.857188
3982.000000	98.858800
3981.000000	98.861582
3980.000000	98.864522
3979.000000	98.867574
3978.000000	98.870580
3977.000000	98.872614
3976.000000	98.872586
3975.000000	98.870245
3974.000000	98.866355
3973.000000	98.861978
3972.000000	98.858126
3971.000000	98.855809
3970.000000	98.855883
3969.000000	98.858090
3968.000000	98.860304
3967.000000	98.860168
3966.000000	98.857374
3965.000000	98.853847
3964.000000	98.851544
3963.000000	98.850701
3962.000000	98.850548
3961.000000	98.850878
3960.000000	98.852209
3959.000000	98.853811
3958.000000	98.853356
3957.000000	98.849061
3956.000000	98.841097
3955.000000	98.831320
3954.000000	98.822015
3953.000000	98.815824
3952.000000	98.815807
3951.000000	98.823720
3950.000000	98.837766
3949.000000	98.851374
3948.000000	98.856785
3947.000000	98.851146
3946.000000	98.837692
3945.000000	98.822961
3944.000000	98.813292
3943.000000	98.811334
3942.000000	98.814988
3941.000000	98.818987
3940.000000	98.819010
3939.000000	98.814714
3938.000000	98.810130
3937.000000	98.811021
3936.000000	98.819645
3935.000000	98.833006
3934.000000	98.845218
3933.000000	98.850783
3932.000000	98.848018
3931.000000	98.839841
3930.000000	98.831650
3929.000000	98.826529
3928.000000	98.823543
3927.000000	98.822024
3926.000000	98.823464
3925.000000	98.829049
3924.000000	98.836683
3923.000000	98.842679
3922.000000	98.845618
3921.000000	98.847436
3920.000000	98.850706
3919.000000	98.855261
3918.000000	98.856841
3917.000000	98.851189
3916.000000	98.839400
3915.000000	98.826591
3914.000000	98.817054
3913.000000	98.811500
3912.000000	98.808612
3911.000000	98.805793
3910.000000	98.801123
3909.000000	98.794700
3908.000000	98.788257
3907.000000	98.785584
3906.000000	98.791517
3905.000000	98.809298
3904.000000	98.835729
3903.000000	98.860004
3902.000000	98.871930
3901.000000	98.869288
3900.000000	98.856665
3899.000000	98.842441
3898.000000	98.832863
3897.000000	98.828373
3896.000000	98.826852
3895.000000	98.826591
3894.000000	98.828179
3893.000000	98.832646
3892.000000	98.838182
3891.000000	98.840305
3890.000000	98.838300
3889.000000	98.834518
3888.000000	98.830015
3887.000000	98.824757
3886.000000	98.818837
3885.000000	98.813919
3884.000000	98.812063
3883.000000	98.812379
3882.000000	98.812487
3881.000000	98.811263
3880.000000	98.808235
3879.000000	98.803977
3878.000000	98.799226
3877.000000	98.793551
3876.000000	98.786440
3875.000000	98.780437
3874.000000	98.781231
3873.000000	98.791390
3872.000000	98.806127
3871.000000	98.816204
3870.000000	98.816069
3869.000000	98.811554
3868.000000	98.812772
3867.000000	98.820436
3866.000000	98.827344
3865.000000	98.828874
3864.000000	98.826894
3863.000000	98.825964
3862.000000	98.828640
3861.000000	98.832936
3860.000000	98.833011
3859.000000	98.824258
3858.000000	98.806359
3857.000000	98.786046
3856.000000	98.775095
3855.000000	98.779465
3854.000000	98.795692
3853.000000	98.805413
3852.000000	98.801781
3851.000000	98.799605
3850.000000	98.805733
3849.000000	98.813852
3848.000000	98.819149
3847.000000	98.819671
3846.000000	98.816090
3845.000000	98.810930
3844.000000	98.806862
3843.000000	98.805052
3842.000000	98.805584
3841.000000	98.806722
3840.000000	98.807194
3839.000000	98.806497
3838.000000	98.803272
3837.000000	98.799165
3836.000000	98.798265
3835.000000	98.802120
3834.000000	98.808692
3833.000000	98.813935
3832.000000	98.813551
3831.000000	98.807129
3830.000000	98.798475
3829.000000	98.792994
3828.000000	98.793448
3827.000000	98.798800
3826.000000	98.807541
3825.000000	98.818548
3824.000000	98.829329
3823.000000	98.832967
3822.000000	98.824859
3821.000000	98.810060
3820.000000	98.796828
3819.000000	98.789047
3818.000000	98.786421
3817.000000	98.788167
3816.000000	98.791131
3815.000000	98.793723
3814.000000	98.797690
3813.000000	98.803235
3812.000000	98.809153
3811.000000	98.814432
3810.000000	98.819098
3809.000000	98.822451
3808.000000	98.822383
3807.000000	98.817863
3806.000000	98.812408
3805.000000	98.808656
3804.000000	98.804266
3803.000000	98.793763
3802.000000	98.777752
3801.000000	98.766230
3800.000000	98.770852
3799.000000	98.787669
3798.000000	98.802752
3797.000000	98.806369
3796.000000	98.799037
3795.000000	98.788455
3794.000000	98.781170
3793.000000	98.779142
3792.000000	98.780521
3791.000000	98.781730
3790.000000	98.780062
3789.000000	98.775361
3788.000000	98.768871
3787.000000	98.762277
3786.000000	98.757350
3785.000000	98.755653
3784.000000	98.757840
3783.000000	98.762891
3782.000000	98.768537
3781.000000	98.773446
3780.000000	98.779035
3779.000000	98.786240
3778.000000	98.793252
3777.000000	98.796763
3776.000000	98.794954
3775.000000	98.788962
3774.000000	98.783477
3773.000000	98.783905
3772.000000	98.791318
3771.000000	98.801542
3770.000000	98.810099
3769.000000	98.817391
3768.000000	98.825650
3767.000000	98.833790
3766.000000	98.837024
3765.000000	98.832416
3764.000000	98.823015
3763.000000	98.813736
3762.000000	98.806257
3761.000000	98.799961
3760.000000	98.796132
3759.000000	98.795893
3758.000000	98.798468
3757.000000	98.802544
3756.000000	98.806246
3755.000000	98.807828
3754.000000	98.809561
3753.000000	98.818749
3752.000000	98.840777
3751.000000	98.867620
3750.000000	98.882729
3749.000000	98.884158
3748.000000	98.879769
3747.000000	98.871703
3746.000000	98.855936
3745.000000	98.829300
3744.000000	98.801482
3743.000000	98.794828
3742.000000	98.815090
3741.000000	98.847870
3740.000000	98.876644
3739.000000	98.892823
3738.000000	98.894068
3737.000000	98.886276
3736.000000	98.880341
3735.000000	98.883342
3734.000000	98.893579
3733.000000	98.901026
3732.000000	98.896863
3731.000000	98.883043
3730.000000	98.868734
3729.000000	98.860213
3728.000000	98.857172
3727.000000	98.856880
3726.000000	98.858019
3725.000000	98.861137
3724.000000	98.865423
3723.000000	98.868350
3722.000000	98.869098
3721.000000	98.867449
3720.000000	98.863505
3719.000000	98.856362
3718.000000	98.845473
3717.000000	98.833152
3716.000000	98.823570
3715.000000	98.819535
3714.000000	98.818717
3713.000000	98.814815
3712.000000	98.805312
3711.000000	98.795981
3710.000000	98.795252
3709.000000	98.806024
3708.000000	98.823175
3707.000000	98.840036
3706.000000	98.853876
3705.000000	98.863783
3704.000000	98.869431
3703.000000	98.870783
3702.000000	98.868195
3701.000000	98.861976
3700.000000	98.852750
3699.000000	98.841469
3698.000000	98.828817
3697.000000	98.816271
3696.000000	98.806628
3695.000000	98.801551
3694.000000	98.799220
3693.000000	98.796250
3692.000000	98.792518
3691.000000	98.792980
3690.000000	98.800259
3689.000000	98.806290
3688.000000	98.804389
3687.000000	98.801272
3686.000000	98.802761
3685.000000	98.806024
3684.000000	98.807154
3683.000000	98.805020
3682.000000	98.800894
3681.000000	98.797080
3680.000000	98.795429
3679.000000	98.796768
3678.000000	98.800844
3677.000000	98.803199
3676.000000	98.798834
3675.000000	98.788741
3674.000000	98.783801
3673.000000	98.787228
3672.000000	98.791674
3671.000000	98.785795
3670.000000	98.765724
3669.000000	98.743370
3668.000000	98.734094
3667.000000	98.737712
3666.000000	98.744840
3665.000000	98.747327
3664.000000	98.741826
3663.000000	98.729579
3662.000000	98.716055
3661.000000	98.708040
3660.000000	98.708002
3659.000000	98.712737
3658.000000	98.715680
3657.000000	98.710704
3656.000000	98.696224
3655.000000	98.677744
3654.000000	98.662885
3653.000000	98.654058
3652.000000	98.650748
3651.000000	98.655070
3650.000000	98.666372
3649.000000	98.666221
3648.000000	98.641112
3647.000000	98.608376
3646.000000	98.587880
3645.000000	98.581394
3644.000000	98.581662
3643.000000	98.580855
3642.000000	98.574415
3641.000000	98.562835
3640.000000	98.549082
3639.000000	98.536100
3638.000000	98.526460
3637.000000	98.521207
3636.000000	98.518423
3635.000000	98.515033
3634.000000	98.511842
3633.000000	98.513407
3632.000000	98.521393
3631.000000	98.528984
3630.000000	98.523899
3629.000000	98.499724
3628.000000	98.467755
3627.000000	98.448826
3626.000000	98.446385
3625.000000	98.450927
3624.000000	98.453108
3623.000000	98.449278
3622.000000	98.440247
3621.000000	98.428347
3620.000000	98.414273
3619.000000	98.396989
3618.000000	98.377844
3617.000000	98.363150
3616.000000	98.356977
3615.000000	98.356641
3614.000000	98.356290
3613.000000	98.352343
3612.000000	98.346123
3611.000000	98.338128
3610.000000	98.322526
3609.000000	98.292116
3608.000000	98.250410
3607.000000	98.213014
3606.000000	98.193583
3605.000000	98.192431
3604.000000	98.198544
3603.000000	98.199564
3602.000000	98.189256
3601.000000	98.170580
3600.000000	98.153020
3599.000000	98.144076
3598.000000	98.141541
3597.000000	98.135957
3596.000000	98.118281
3595.000000	98.086877
3594.000000	98.050502
3593.000000	98.021546
3592.000000	98.006237
3591.000000	98.001303
3590.000000	97.999108
3589.000000	97.993581
3588.000000	97.981330
3587.000000	97.960141
3586.000000	97.935718
3585.000000	97.915877
3584.000000	97.900484
3583.000000	97.885210
3582.000000	97.868358
3581.000000	97.851502
3580.000000	97.836648
3579.000000	97.822828
3578.000000	97.806698
3577.000000	97.786490
3576.000000	97.764618
3575.000000	97.745470
3574.000000	97.731359
3573.000000	97.721145
3572.000000	97.711060
3571.000000	97.697937
3570.000000	97.681719
3569.000000	97.666665
3568.000000	97.655753
3567.000000	97.643895
3566.000000	97.626569
3565.000000	97.611094
3564.000000	97.601783
3563.000000	97.592797
3562.000000	97.577862
3561.000000	97.557595
3560.000000	97.537420
3559.000000	97.521441
3558.000000	97.508611
3557.000000	97.495544
3556.000000	97.480797
3555.000000	97.465590
3554.000000	97.451016
3553.000000	97.436402
3552.000000	97.420325
3551.000000	97.403124
3550.000000	97.386971
3549.000000	97.373848
3548.000000	97.364341
3547.000000	97.356301
3546.000000	97.344680
3545.000000	97.326086
3544.000000	97.303164
3543.000000	97.281271
3542.000000	97.263635
3541.000000	97.249461
3540.000000	97.235054
3539.000000	97.217052
3538.000000	97.195030
3537.000000	97.171933
3536.000000	97.150869
3535.000000	97.132732
3534.000000	97.116431
3533.000000	97.100487
3532.000000	97.084348
3531.000000	97.068541
3530.000000	97.054436
3529.000000	97.043392
3528.000000	97.035429
3527.000000	97.029025
3526.000000	97.022307
3525.000000	97.013370
3524.000000	97.000365
3523.000000	96.983227
3522.000000	96.965164
3521.000000	96.950277
3520.000000	96.939211
3519.000000	96.929006
3518.000000	96.916643
3517.000000	96.901918
3516.000000	96.886725
3515.000000	96.872237
3514.000000	96.858233
3513.000000	96.844113
3512.000000	96.829860
3511.000000	96.816193
3510.000000	96.803840
3509.000000	96.792377
3508.000000	96.779948
3507.000000	96.765151
3506.000000	96.749225
3505.000000	96.736338
3504.000000	96.729428
3503.000000	96.725959
3502.000000	96.719997
3501.000000	96.707761
3500.000000	96.689413
3499.000000	96.667301
3498.000000	96.644796
3497.000000	96.625281
3496.000000	96.611068
3495.000000	96.602626
3494.000000	96.598740
3493.000000	96.597005
3492.000000	96.594494
3491.000000	96.589179
3490.000000	96.580757
3489.000000	96.569276
3488.000000	96.553818
3487.000000	96.534108
3486.000000	96.512917
3485.000000	96.494833
3484.000000	96.482245
3483.000000	96.473478
3482.000000	96.465045
3481.000000	96.454969
3480.000000	96.443380
3479.000000	96.431138
3478.000000	96.418894
3477.000000	96.407087
3476.000000	96.395915
3475.000000	96.385413
3474.000000	96.375626
3473.000000	96.366137
3472.000000	96.355406
3471.000000	96.341871
3470.000000	96.326436
3469.000000	96.312539
3468.000000	96.303134
3467.000000	96.298182
3466.000000	96.294935
3465.000000	96.289635
3464.000000	96.278762
3463.000000	96.260651
3462.000000	96.237479
3461.000000	96.214329
3460.000000	96.194757
3459.000000	96.177756
3458.000000	96.160243
3457.000000	96.142110
3456.000000	96.126832
3455.000000	96.117454
3454.000000	96.113062
3453.000000	96.109411
3452.000000	96.102406
3451.000000	96.090541
3450.000000	96.075568
3449.000000	96.061359
3448.000000	96.051275
3447.000000	96.045328
3446.000000	96.040150
3445.000000	96.031711
3444.000000	96.017888
3443.000000	95.999292
3442.000000	95.978553
3441.000000	95.958755
3440.000000	95.941492
3439.000000	95.926256
3438.000000	95.911556
3437.000000	95.896612
3436.000000	95.881896
3435.000000	95.868776
3434.000000	95.858423
3433.000000	95.850173
3432.000000	95.841365
3431.000000	95.829216
3430.000000	95.813537
3429.000000	95.796539
3428.000000	95.779914
3427.000000	95.763321
3426.000000	95.745650
3425.000000	95.726366
3424.000000	95.705192
3423.000000	95.682445
3422.000000	95.660386
3421.000000	95.642127
3420.000000	95.627670
3419.000000	95.612880
3418.000000	95.594165
3417.000000	95.572415
3416.000000	95.550957
3415.000000	95.530999
3414.000000	95.510822
3413.000000	95.488556
3412.000000	95.463765
3411.000000	95.436913
3410.000000	95.408831
3409.000000	95.380299
3408.000000	95.351047
3407.000000	95.319772
3406.000000	95.285786
3405.000000	95.249712
3404.000000	95.211532
3403.000000	95.169700
3402.000000	95.123857
3401.000000	95.077092
3400.000000	95.033965
3399.000000	94.996770
3398.000000	94.964875
3397.000000	94.936511
3396.000000	94.909693
3395.000000	94.882552
3394.000000	94.854979
3393.000000	94.829985
3392.000000	94.812053
3391.000000	94.803787
3390.000000	94.804482
3389.000000	94.811559
3388.000000	94.822280
3387.000000	94.834507
3386.000000	94.846713
3385.000000	94.857496
3384.000000	94.865339
3383.000000	94.869660
3382.000000	94.872047
3381.000000	94.874939
3380.000000	94.878663
3379.000000	94.880661
3378.000000	94.878315
3377.000000	94.871438
3376.000000	94.861931
3375.000000	94.852402
3374.000000	94.845311
3373.000000	94.841639
3372.000000	94.839244
3371.000000	94.833798
3370.000000	94.822432
3369.000000	94.805816
3368.000000	94.786526
3367.000000	94.767114
3366.000000	94.750317
3365.000000	94.738689
3364.000000	94.731826
3363.000000	94.725293
3362.000000	94.714192
3361.000000	94.697201
3360.000000	94.676018
3359.000000	94.652304
3358.000000	94.627249
3357.000000	94.603344
3356.000000	94.583963
3355.000000	94.570392
3354.000000	94.560413
3353.000000	94.550113
3352.000000	94.536304
3351.000000	94.517579
3350.000000	94.494495
3349.000000	94.469340
3348.000000	94.445032
3347.000000	94.423796
3346.000000	94.406219
3345.000000	94.390796
3344.000000	94.374341
3343.000000	94.353963
3342.000000	94.329760
3341.000000	94.304916
3340.000000	94.282560
3339.000000	94.263088
3338.000000	94.244819
3337.000000	94.226283
3336.000000	94.207199
3335.000000	94.188053
3334.000000	94.169503
3333.000000	94.151679
3332.000000	94.133578
3331.000000	94.113962
3330.000000	94.093220
3329.000000	94.073330
3328.000000	94.055446
3327.000000	94.038751
3326.000000	94.022193
3325.000000	94.005882
3324.000000	93.989698
3323.000000	93.971724
3322.000000	93.949758
3321.000000	93.923625
3320.000000	93.895097
3319.000000	93.866596
3318.000000	93.840798
3317.000000	93.820132
3316.000000	93.805140
3315.000000	93.793947
3314.000000	93.784653
3313.000000	93.777527
3312.000000	93.773434
3311.000000	93.771165
3310.000000	93.767958
3309.000000	93.762138
3308.000000	93.753790
3307.000000	93.743196
3306.000000	93.730265
3305.000000	93.715518
3304.000000	93.700113
3303.000000	93.684703
3302.000000	93.669248
3301.000000	93.654235
3300.000000	93.641154
3299.000000	93.631349
3298.000000	93.624720
3297.000000	93.619400
3296.000000	93.612966
3295.000000	93.604580
3294.000000	93.595981
3293.000000	93.589502
3292.000000	93.584842
3291.000000	93.579243
3290.000000	93.571437
3289.000000	93.563730
3288.000000	93.558826
3287.000000	93.555931
3286.000000	93.551931
3285.000000	93.545804
3284.000000	93.540225
3283.000000	93.538841
3282.000000	93.542782
3281.000000	93.549812
3280.000000	93.556126
3279.000000	93.559197
3278.000000	93.559590
3277.000000	93.560095
3276.000000	93.563362
3275.000000	93.571013
3274.000000	93.584213
3273.000000	93.602613
3272.000000	93.621976
3271.000000	93.635355
3270.000000	93.638950
3269.000000	93.635920
3268.000000	93.633207
3267.000000	93.635621
3266.000000	93.643939
3265.000000	93.656891
3264.000000	93.672552
3263.000000	93.688390
3262.000000	93.702528
3261.000000	93.715572
3260.000000	93.729814
3259.000000	93.746187
3258.000000	93.762770
3257.000000	93.776639
3256.000000	93.786693
3255.000000	93.794864
3254.000000	93.804754
3253.000000	93.818804
3252.000000	93.836586
3251.000000	93.855941
3250.000000	93.875559
3249.000000	93.895214
3248.000000	93.913610
3247.000000	93.927938
3246.000000	93.936538
3245.000000	93.940854
3244.000000	93.943810
3243.000000	93.947226
3242.000000	93.951822
3241.000000	93.958345
3240.000000	93.967210
3239.000000	93.977836
3238.000000	93.989409
3237.000000	94.001617
3236.000000	94.013637
3235.000000	94.023523
3234.000000	94.029787
3233.000000	94.032828
3232.000000	94.033964
3231.000000	94.034005
3230.000000	94.034154
3229.000000	94.036991
3228.000000	94.044480
3227.000000	94.055243
3226.000000	94.065407
3225.000000	94.072233
3224.000000	94.076128
3223.000000	94.079344
3222.000000	94.083595
3221.000000	94.088679
3220.000000	94.092644
3219.000000	94.093693
3218.000000	94.092440
3217.000000	94.091691
3216.000000	94.093714
3215.000000	94.098573
3214.000000	94.105655
3213.000000	94.115269
3212.000000	94.127240
3211.000000	94.138870
3210.000000	94.146331
3209.000000	94.148305
3208.000000	94.147020
3207.000000	94.145822
3206.000000	94.146619
3205.000000	94.149531
3204.000000	94.153786
3203.000000	94.158836
3202.000000	94.165235
3201.000000	94.174064
3200.000000	94.184769
3199.000000	94.194330
3198.000000	94.199885
3197.000000	94.202012
3196.000000	94.204320
3195.000000	94.209702
3194.000000	94.217857
3193.000000	94.226274
3192.000000	94.232823
3191.000000	94.237752
3190.000000	94.244000
3189.000000	94.255148
3188.000000	94.272097
3187.000000	94.291948
3186.000000	94.310868
3185.000000	94.327788
3184.000000	94.344534
3183.000000	94.363143
3182.000000	94.384458
3181.000000	94.408853
3180.000000	94.436365
3179.000000	94.465475
3178.000000	94.493187
3177.000000	94.517304
3176.000000	94.538096
3175.000000	94.557627
3174.000000	94.578007
3173.000000	94.600328
3172.000000	94.624003
3171.000000	94.646753
3170.000000	94.666298
3169.000000	94.682767
3168.000000	94.699221
3167.000000	94.719274
3166.000000	94.744498
3165.000000	94.773925
3164.000000	94.805078
3163.000000	94.834907
3162.000000	94.860560
3161.000000	94.880621
3160.000000	94.896095
3159.000000	94.909999
3158.000000	94.925560
3157.000000	94.944361
3156.000000	94.965604
3155.000000	94.987164
3154.000000	95.007655
3153.000000	95.027514
3152.000000	95.047816
3151.000000	95.068384
3150.000000	95.087728
3149.000000	95.104905
3148.000000	95.120699
3147.000000	95.136692
3146.000000	95.153657
3145.000000	95.171281
3144.000000	95.189027
3143.000000	95.206635
3142.000000	95.223469
3141.000000	95.237954
3140.000000	95.248677
3139.000000	95.256433
3138.000000	95.264540
3137.000000	95.276303
3136.000000	95.292482
3135.000000	95.311538
3134.000000	95.331609
3133.000000	95.351045
3132.000000	95.367718
3131.000000	95.379784
3130.000000	95.387892
3129.000000	95.395268
3128.000000	95.404617
3127.000000	95.415604
3126.000000	95.426247
3125.000000	95.435822
3124.000000	95.444946
3123.000000	95.453532
3122.000000	95.460424
3121.000000	95.465183
3120.000000	95.468710
3119.000000	95.471849
3118.000000	95.474412
3117.000000	95.475826
3116.000000	95.475699
3115.000000	95.473810
3114.000000	95.470537
3113.000000	95.467543
3112.000000	95.466915
3111.000000	95.469035
3110.000000	95.472023
3109.000000	95.473431
3108.000000	95.471653
3107.000000	95.465777
3106.000000	95.456020
3105.000000	95.445065
3104.000000	95.437333
3103.000000	95.435328
3102.000000	95.437241
3101.000000	95.439179
3100.000000	95.439073
3099.000000	95.437557
3098.000000	95.435794
3097.000000	95.433864
3096.000000	95.431108
3095.000000	95.426814
3094.000000	95.420276
3093.000000	95.410952
3092.000000	95.399182
3091.000000	95.386663
3090.000000	95.375884
3089.000000	95.368738
3088.000000	95.365517
3087.000000	95.365207
3086.000000	95.366853
3085.000000	95.370207
3084.000000	95.374590
3083.000000	95.377713
3082.000000	95.376661
3081.000000	95.370468
3080.000000	95.360919
3079.000000	95.350522
3078.000000	95.340397
3077.000000	95.330949
3076.000000	95.323874
3075.000000	95.322106
3074.000000	95.327170
3073.000000	95.337051
3072.000000	95.347383
3071.000000	95.354714
3070.000000	95.358541
3069.000000	95.360284
3068.000000	95.360915
3067.000000	95.360229
3066.000000	95.358208
3065.000000	95.356187
3064.000000	95.356172
3063.000000	95.359595
3062.000000	95.367220
3061.000000	95.379628
3060.000000	95.396691
3059.000000	95.416653
3058.000000	95.436405
3057.000000	95.453227
3056.000000	95.466513
3055.000000	95.478094
3054.000000	95.491021
3053.000000	95.507263
3052.000000	95.526154
3051.000000	95.545102
3050.000000	95.562043
3049.000000	95.577011
3048.000000	95.591297
3047.000000	95.605909
3046.000000	95.621323
3045.000000	95.637919
3044.000000	95.655765
3043.000000	95.674140
3042.000000	95.691897
3041.000000	95.708357
3040.000000	95.723541
3039.000000	95.737981
3038.000000	95.752531
3037.000000	95.768034
3036.000000	95.784798
3035.000000	95.802518
3034.000000	95.820769
3033.000000	95.839028
3032.000000	95.856058
3031.000000	95.870047
3030.000000	95.880040
3029.000000	95.887059
3028.000000	95.893673
3027.000000	95.902443
3026.000000	95.914641
3025.000000	95.929642
3024.000000	95.945234
3023.000000	95.959197
3022.000000	95.971060
3021.000000	95.982070
3020.000000	95.993142
3019.000000	96.003388
3018.000000	96.011085
3017.000000	96.015516
3016.000000	96.017321
3015.000000	96.017632
3014.000000	96.017281
3013.000000	96.016364
3012.000000	96.014127
3011.000000	96.010060
3010.000000	96.005447
3009.000000	96.002930
3008.000000	96.004139
3007.000000	96.008568
3006.000000	96.015191
3005.000000	96.023656
3004.000000	96.032961
3003.000000	96.040641
3002.000000	96.045205
3001.000000	96.048580
3000.000000	96.054065
2999.000000	96.062139
2998.000000	96.069903
2997.000000	96.074492
2996.000000	96.075121
2995.000000	96.071862
2994.000000	96.064475
2993.000000	96.053377
2992.000000	96.040287
2991.000000	96.026672
2990.000000	96.012178
2989.000000	95.995100
2988.000000	95.974107
2987.000000	95.949271
2986.000000	95.922055
2985.000000	95.894639
2984.000000	95.868731
2983.000000	95.844713
2982.000000	95.822076
2981.000000	95.800332
2980.000000	95.778911
2979.000000	95.756353
2978.000000	95.730747
2977.000000	95.701335
2976.000000	95.668839
2975.000000	95.633910
2974.000000	95.595793
2973.000000	95.552852
2972.000000	95.504039
2971.000000	95.449531
2970.000000	95.390182
2969.000000	95.326344
2968.000000	95.257403
2967.000000	95.183186
2966.000000	95.106172
2965.000000	95.031203
2964.000000	94.961397
2963.000000	94.895015
2962.000000	94.828026
2961.000000	94.760001
2960.000000	94.695840
2959.000000	94.641242
2958.000000	94.598447
2957.000000	94.567101
2956.000000	94.547746
2955.000000	94.542381
2954.000000	94.551882
2953.000000	94.573800
2952.000000	94.602159
2951.000000	94.628983
2950.000000	94.646465
2949.000000	94.649430
2948.000000	94.636058
2947.000000	94.606588
2946.000000	94.561934
2945.000000	94.503993
2944.000000	94.436529
2943.000000	94.363959
2942.000000	94.288658
2941.000000	94.209173
2940.000000	94.121200
2939.000000	94.020341
2938.000000	93.904538
2937.000000	93.774913
2936.000000	93.634535
2935.000000	93.486364
2934.000000	93.332199
2933.000000	93.172663
2932.000000	93.007190
2931.000000	92.833394
2930.000000	92.647043
2929.000000	92.443380
2928.000000	92.218537
2927.000000	91.970754
2926.000000	91.701591
2925.000000	91.417279
2924.000000	91.128427
2923.000000	90.848263
2922.000000	90.591732
2921.000000	90.375625
2920.000000	90.218788
2919.000000	90.139683
2918.000000	90.153412
2917.000000	90.269491
2916.000000	90.488826
2915.000000	90.800185
2914.000000	91.177923
2913.000000	91.585993
2912.000000	91.987527
2911.000000	92.356002
2910.000000	92.679942
2909.000000	92.958996
2908.000000	93.196936
2907.000000	93.397529
2906.000000	93.565396
2905.000000	93.706895
2904.000000	93.828238
2903.000000	93.933739
2902.000000	94.025299
2901.000000	94.105978
2900.000000	94.180396
2899.000000	94.252651
2898.000000	94.325032
2897.000000	94.398214
2896.000000	94.472013
2895.000000	94.545176
2894.000000	94.615679
2893.000000	94.682091
2892.000000	94.744403
2891.000000	94.803097
2890.000000	94.858110
2889.000000	94.909403
2888.000000	94.957759
2887.000000	95.003740
2886.000000	95.045980
2885.000000	95.081561
2884.000000	95.108459
2883.000000	95.127067
2882.000000	95.139201
2881.000000	95.146341
2880.000000	95.148952
2879.000000	95.146910
2878.000000	95.139980
2877.000000	95.128238
2876.000000	95.112622
2875.000000	95.095336
2874.000000	95.079625
2873.000000	95.068619
2872.000000	95.063907
2871.000000	95.064924
2870.000000	95.069670
2869.000000	95.075832
2868.000000	95.080929
2867.000000	95.081486
2866.000000	95.072905
2865.000000	95.050988
2864.000000	95.013390
2863.000000	94.959495
2862.000000	94.889135
2861.000000	94.802084
2860.000000	94.698456
2859.000000	94.578050
2858.000000	94.438640
2857.000000	94.275173
2856.000000	94.081402
2855.000000	93.852746
2854.000000	93.589794
2853.000000	93.302456
2852.000000	93.015838
2851.000000	92.774273
2850.000000	92.634527
2849.000000	92.646465
2848.000000	92.828737
2847.000000	93.156537
2846.000000	93.571147
2845.000000	94.004876
2844.000000	94.404534
2843.000000	94.742988
2842.000000	95.017071
2841.000000	95.237079
2840.000000	95.416326
2839.000000	95.564666
2838.000000	95.687928
2837.000000	95.790207
2836.000000	95.874903
2835.000000	95.944377
2834.000000	96.000735
2833.000000	96.047431
2832.000000	96.089024
2831.000000	96.128659
2830.000000	96.166431
2829.000000	96.201041
2828.000000	96.231956
2827.000000	96.259304
2826.000000	96.283153
2825.000000	96.304568
2824.000000	96.326675
2823.000000	96.352371
2822.000000	96.380500
2821.000000	96.406023
2820.000000	96.425062
2819.000000	96.439126
2818.000000	96.453434
2817.000000	96.471566
2816.000000	96.492471
2815.000000	96.512383
2814.000000	96.528755
2813.000000	96.541958
2812.000000	96.553823
2811.000000	96.565446
2810.000000	96.576646
2809.000000	96.586954
2808.000000	96.596389
2807.000000	96.605362
2806.000000	96.614605
2805.000000	96.625280
2804.000000	96.638330
2803.000000	96.653232
2802.000000	96.668081
2801.000000	96.681456
2800.000000	96.693562
2799.000000	96.704920
2798.000000	96.714687
2797.000000	96.721499
2796.000000	96.725743
2795.000000	96.729832
2794.000000	96.736063
2793.000000	96.744955
2792.000000	96.755658
2791.000000	96.766966
2790.000000	96.777613
2789.000000	96.786507
2788.000000	96.793442
2787.000000	96.799356
2786.000000	96.805543
2785.000000	96.812861
2784.000000	96.821703
2783.000000	96.832156
2782.000000	96.843773
2781.000000	96.855542
2780.000000	96.866459
2779.000000	96.875932
2778.000000	96.883582
2777.000000	96.889212
2776.000000	96.893482
2775.000000	96.898258
2774.000000	96.905569
2773.000000	96.915880
2772.000000	96.927462
2771.000000	96.937644
2770.000000	96.944874
2769.000000	96.949794
2768.000000	96.954484
2767.000000	96.960631
2766.000000	96.968359
2765.000000	96.976705
2764.000000	96.984875
2763.000000	96.992798
2762.000000	97.000705
2761.000000	97.008615
2760.000000	97.016294
2759.000000	97.023373
2758.000000	97.029381
2757.000000	97.033983
2756.000000	97.037609
2755.000000	97.041871
2754.000000	97.048902
2753.000000	97.059687
2752.000000	97.072786
2751.000000	97.085030
2750.000000	97.093903
2749.000000	97.099305
2748.000000	97.103095
2747.000000	97.107293
2746.000000	97.112882
2745.000000	97.119568
2744.000000	97.125951
2743.000000	97.130412
2742.000000	97.132786
2741.000000	97.135007
2740.000000	97.139184
2739.000000	97.145177
2738.000000	97.151106
2737.000000	97.156140
2736.000000	97.161321
2735.000000	97.167334
2734.000000	97.172988
2733.000000	97.176965
2732.000000	97.180112
2731.000000	97.184906
2730.000000	97.193030
2729.000000	97.204019
2728.000000	97.215598
2727.000000	97.224726
2726.000000	97.229209
2725.000000	97.229497
2724.000000	97.228801
2723.000000	97.230738
2722.000000	97.236754
2721.000000	97.245635
2720.000000	97.254662
2719.000000	97.261071
2718.000000	97.263699
2717.000000	97.264142
2716.000000	97.265472
2715.000000	97.268904
2714.000000	97.272487
2713.000000	97.273870
2712.000000	97.273489
2711.000000	97.273902
2710.000000	97.276717
2709.000000	97.281541
2708.000000	97.287547
2707.000000	97.294680
2706.000000	97.303083
2705.000000	97.312062
2704.000000	97.319941
2703.000000	97.325037
2702.000000	97.327314
2701.000000	97.329178
2700.000000	97.333586
2699.000000	97.340764
2698.000000	97.347727
2697.000000	97.351551
2696.000000	97.352159
2695.000000	97.351404
2694.000000	97.350786
2693.000000	97.351008
2692.000000	97.352240
2691.000000	97.353437
2690.000000	97.352764
2689.000000	97.350346
2688.000000	97.349459
2687.000000	97.353164
2686.000000	97.360519
2685.000000	97.367691
2684.000000	97.371853
2683.000000	97.372317
2682.000000	97.369260
2681.000000	97.364094
2680.000000	97.360401
2679.000000	97.361334
2678.000000	97.365625
2677.000000	97.368640
2676.000000	97.368117
2675.000000	97.366901
2674.000000	97.369350
2673.000000	97.376802
2672.000000	97.387025
2671.000000	97.396230
2670.000000	97.400890
2669.000000	97.399645
2668.000000	97.394902
2667.000000	97.391256
2666.000000	97.390993
2665.000000	97.391925
2664.000000	97.390523
2663.000000	97.386173
2662.000000	97.381456
2661.000000	97.379125
2660.000000	97.379843
2659.000000	97.382209
2658.000000	97.383999
2657.000000	97.383750
2656.000000	97.382076
2655.000000	97.381463
2654.000000	97.384374
2653.000000	97.391584
2652.000000	97.402090
2651.000000	97.413885
2650.000000	97.424691
2649.000000	97.432954
2648.000000	97.438926
2647.000000	97.444325
2646.000000	97.450409
2645.000000	97.456568
2644.000000	97.461132
2643.000000	97.463428
2642.000000	97.465080
2641.000000	97.469376
2640.000000	97.478717
2639.000000	97.491912
2638.000000	97.504406
2637.000000	97.512209
2636.000000	97.515550
2635.000000	97.517810
2634.000000	97.521355
2633.000000	97.525708
2632.000000	97.529561
2631.000000	97.532780
2630.000000	97.535871
2629.000000	97.538945
2628.000000	97.542101
2627.000000	97.546014
2626.000000	97.551461
2625.000000	97.558668
2624.000000	97.567422
2623.000000	97.577451
2622.000000	97.588509
2621.000000	97.600261
2620.000000	97.611774
2619.000000	97.620985
2618.000000	97.625675
2617.000000	97.626056
2616.000000	97.625657
2615.000000	97.628315
2614.000000	97.634625
2613.000000	97.642271
2612.000000	97.649215
2611.000000	97.655364
2610.000000	97.661709
2609.000000	97.669134
2608.000000	97.677620
2607.000000	97.685744
2606.000000	97.691854
2605.000000	97.696516
2604.000000	97.702219
2603.000000	97.709453
2602.000000	97.715140
2601.000000	97.716977
2600.000000	97.716834
2599.000000	97.717228
2598.000000	97.716906
2597.000000	97.713979
2596.000000	97.711651
2595.000000	97.715664
2594.000000	97.726349
2593.000000	97.737728
2592.000000	97.745028
2591.000000	97.748874
2590.000000	97.751427
2589.000000	97.752792
2588.000000	97.752783
2587.000000	97.752617
2586.000000	97.752990
2585.000000	97.753478
2584.000000	97.755236
2583.000000	97.761163
2582.000000	97.771519
2581.000000	97.782172
2580.000000	97.789277
2579.000000	97.793761
2578.000000	97.799309
2577.000000	97.807568
2576.000000	97.816859
2575.000000	97.824453
2574.000000	97.829270
2573.000000	97.833261
2572.000000	97.839938
2571.000000	97.849748
2570.000000	97.857407
2569.000000	97.856729
2568.000000	97.848465
2567.000000	97.840369
2566.000000	97.838894
2565.000000	97.843608
2564.000000	97.850405
2563.000000	97.856936
2562.000000	97.862979
2561.000000	97.868018
2560.000000	97.870756
2559.000000	97.870247
2558.000000	97.866833
2557.000000	97.863212
2556.000000	97.864181
2555.000000	97.872532
2554.000000	97.884422
2553.000000	97.891471
2552.000000	97.888948
2551.000000	97.880455
2550.000000	97.873853
2549.000000	97.874091
2548.000000	97.880387
2547.000000	97.888249
2546.000000	97.893366
2545.000000	97.894953
2544.000000	97.895825
2543.000000	97.898333
2542.000000	97.900862
2541.000000	97.900109
2540.000000	97.895871
2539.000000	97.890883
2538.000000	97.886749
2537.000000	97.883349
2536.000000	97.882164
2535.000000	97.886190
2534.000000	97.895212
2533.000000	97.904240
2532.000000	97.908300
2531.000000	97.907018
2530.000000	97.903479
2529.000000	97.900649
2528.000000	97.899615
2527.000000	97.899103
2526.000000	97.895810
2525.000000	97.887204
2524.000000	97.875057
2523.000000	97.864740
2522.000000	97.860335
2521.000000	97.861648
2520.000000	97.865800
2519.000000	97.869742
2518.000000	97.871236
2517.000000	97.869962
2516.000000	97.868605
2515.000000	97.870815
2514.000000	97.877203
2513.000000	97.884696
2512.000000	97.890238
2511.000000	97.893465
2510.000000	97.895278
2509.000000	97.895715
2508.000000	97.894445
2507.000000	97.892460
2506.000000	97.892336
2505.000000	97.896709
2504.000000	97.906095
2503.000000	97.917824
2502.000000	97.927966
2501.000000	97.934772
2500.000000	97.939011
2499.000000	97.940460
2498.000000	97.936617
2497.000000	97.926933
2496.000000	97.916236
2495.000000	97.911139
2494.000000	97.913861
2493.000000	97.921720
2492.000000	97.931573
2491.000000	97.942355
2490.000000	97.953939
2489.000000	97.965517
2488.000000	97.974844
2487.000000	97.978493
2486.000000	97.974942
2485.000000	97.968619
2484.000000	97.967764
2483.000000	97.975704
2482.000000	97.987107
2481.000000	97.995787
2480.000000	98.003124
2479.000000	98.014492
2478.000000	98.029723
2477.000000	98.042166
2476.000000	98.046326
2475.000000	98.042592
2474.000000	98.035093
2473.000000	98.028315
2472.000000	98.025045
2471.000000	98.024111
2470.000000	98.021201
2469.000000	98.014959
2468.000000	98.010565
2467.000000	98.013813
2466.000000	98.023411
2465.000000	98.032737
2464.000000	98.037306
2463.000000	98.036419
2462.000000	98.030062
2461.000000	98.020008
2460.000000	98.012611
2459.000000	98.014290
2458.000000	98.023811
2457.000000	98.033668
2456.000000	98.039172
2455.000000	98.041570
2454.000000	98.042439
2453.000000	98.040791
2452.000000	98.037039
2451.000000	98.035089
2450.000000	98.037970
2449.000000	98.044006
2448.000000	98.048677
2447.000000	98.048646
2446.000000	98.044331
2445.000000	98.040577
2444.000000	98.043674
2443.000000	98.055080
2442.000000	98.068904
2441.000000	98.077883
2440.000000	98.080191
2439.000000	98.078119
2438.000000	98.073481
2437.000000	98.068509
2436.000000	98.067932
2435.000000	98.074219
2434.000000	98.082411
2433.000000	98.085196
2432.000000	98.082085
2431.000000	98.078565
2430.000000	98.077630
2429.000000	98.077899
2428.000000	98.079082
2427.000000	98.083249
2426.000000	98.090354
2425.000000	98.097500
2424.000000	98.102811
2423.000000	98.105772
2422.000000	98.104526
2421.000000	98.097881
2420.000000	98.089652
2419.000000	98.086045
2418.000000	98.088704
2417.000000	98.094549
2416.000000	98.101688
2415.000000	98.110504
2414.000000	98.119265
2413.000000	98.124010
2412.000000	98.123661
2411.000000	98.121243
2410.000000	98.119589
2409.000000	98.119238
2408.000000	98.120147
2407.000000	98.121933
2406.000000	98.122953
2405.000000	98.122529
2404.000000	98.123203
2403.000000	98.127558
2402.000000	98.134307
2401.000000	98.140707
2400.000000	98.146532
2399.000000	98.151818
2398.000000	98.153523
2397.000000	98.149372
2396.000000	98.142801
2395.000000	98.138848
2394.000000	98.136982
2393.000000	98.133424
2392.000000	98.128445
2391.000000	98.125626
2390.000000	98.124915
2389.000000	98.122300
2388.000000	98.116368
2387.000000	98.109353
2386.000000	98.103730
2385.000000	98.101982
2384.000000	98.108594
2383.000000	98.127196
2382.000000	98.154068
2381.000000	98.180700
2380.000000	98.200493
2379.000000	98.208733
2378.000000	98.199767
2377.000000	98.171261
2376.000000	98.131631
2375.000000	98.095600
2374.000000	98.073272
2373.000000	98.067492
2372.000000	98.077717
2371.000000	98.096969
2370.000000	98.110506
2369.000000	98.109141
2368.000000	98.098055
2367.000000	98.087678
2366.000000	98.081085
2365.000000	98.077170
2364.000000	98.077516
2363.000000	98.078892
2362.000000	98.070274
2361.000000	98.046275
2360.000000	98.016388
2359.000000	97.993813
2358.000000	97.984401
2357.000000	97.990009
2356.000000	98.002914
2355.000000	98.010633
2354.000000	98.019069
2353.000000	98.044489
2352.000000	98.076881
2351.000000	98.084904
2350.000000	98.059464
2349.000000	98.018702
2348.000000	97.988693
2347.000000	97.987274
2346.000000	98.003682
2345.000000	98.001017
2344.000000	97.964699
2343.000000	97.925734
2342.000000	97.916148
2341.000000	97.936820
2340.000000	97.964853
2339.000000	97.979051
2338.000000	97.977602
2337.000000	97.969947
2336.000000	97.962426
2335.000000	97.958338
2334.000000	97.965827
2333.000000	97.991442
2332.000000	98.024745
2331.000000	98.044571
2330.000000	98.039122
2329.000000	98.009726
2328.000000	97.964047
2327.000000	97.912266
2326.000000	97.869129
2325.000000	97.848574
2324.000000	97.854226
2323.000000	97.878098
2322.000000	97.902809
2321.000000	97.911940
2320.000000	97.901679
2319.000000	97.882759
2318.000000	97.869197
2317.000000	97.867914
2316.000000	97.881136
2315.000000	97.908894
2314.000000	97.944201
2313.000000	97.972640
2312.000000	97.985480
2311.000000	97.990293
2310.000000	98.001365
2309.000000	98.021447
2308.000000	98.040472
2307.000000	98.049187
2306.000000	98.047408
2305.000000	98.041373
2304.000000	98.038104
2303.000000	98.041563
2302.000000	98.049170
2301.000000	98.053524
2300.000000	98.051359
2299.000000	98.047304
2298.000000	98.046114
2297.000000	98.045829
2296.000000	98.042491
2295.000000	98.037704
2294.000000	98.036107
2293.000000	98.038023
2292.000000	98.039778
2291.000000	98.039925
2290.000000	98.040652
2289.000000	98.044046
2288.000000	98.049999
2287.000000	98.056659
2286.000000	98.060588
2285.000000	98.059171
2284.000000	98.055607
2283.000000	98.058208
2282.000000	98.072645
2281.000000	98.097879
2280.000000	98.130470
2279.000000	98.166919
2278.000000	98.199278
2277.000000	98.215931
2276.000000	98.211665
2275.000000	98.192863
2274.000000	98.170587
2273.000000	98.153348
2272.000000	98.147621
2271.000000	98.156707
2270.000000	98.174721
2269.000000	98.188637
2268.000000	98.190942
2267.000000	98.185446
2266.000000	98.178136
2265.000000	98.170094
2264.000000	98.163758
2263.000000	98.167654
2262.000000	98.187895
2261.000000	98.219029
2260.000000	98.247604
2259.000000	98.262608
2258.000000	98.261594
2257.000000	98.252272
2256.000000	98.248253
2255.000000	98.255812
2254.000000	98.265183
2253.000000	98.263531
2252.000000	98.255337
2251.000000	98.258139
2250.000000	98.277284
2249.000000	98.298467
2248.000000	98.307308
2247.000000	98.305318
2246.000000	98.302863
2245.000000	98.306270
2244.000000	98.316343
2243.000000	98.329646
2242.000000	98.338775
2241.000000	98.340128
2240.000000	98.341061
2239.000000	98.347966
2238.000000	98.349668
2237.000000	98.329173
2236.000000	98.292099
2235.000000	98.264979
2234.000000	98.262303
2233.000000	98.273022
2232.000000	98.282293
2231.000000	98.286827
2230.000000	98.283506
2229.000000	98.265265
2228.000000	98.239271
2227.000000	98.229868
2226.000000	98.250652
2225.000000	98.287329
2224.000000	98.316993
2223.000000	98.329207
2222.000000	98.320983
2221.000000	98.291614
2220.000000	98.256485
2219.000000	98.247552
2218.000000	98.282098
2217.000000	98.339927
2216.000000	98.383180
2215.000000	98.390703
2214.000000	98.364961
2213.000000	98.319367
2212.000000	98.271878
2211.000000	98.240421
2210.000000	98.232039
2209.000000	98.239463
2208.000000	98.251112
2207.000000	98.258006
2206.000000	98.253007
2205.000000	98.237919
2204.000000	98.231459
2203.000000	98.252161
2202.000000	98.289682
2201.000000	98.310976
2200.000000	98.300869
2199.000000	98.278792
2198.000000	98.269730
2197.000000	98.277519
2196.000000	98.293322
2195.000000	98.310775
2194.000000	98.322640
2193.000000	98.318929
2192.000000	98.299301
2191.000000	98.275613
2190.000000	98.257369
2189.000000	98.247999
2188.000000	98.255492
2187.000000	98.288135
2186.000000	98.337121
2185.000000	98.382093
2184.000000	98.417411
2183.000000	98.454102
2182.000000	98.494195
2181.000000	98.526215
2180.000000	98.546824
2179.000000	98.560629
2178.000000	98.558694
2177.000000	98.526761
2176.000000	98.476744
2175.000000	98.441386
2174.000000	98.436017
2173.000000	98.452847
2172.000000	98.488676
2171.000000	98.541782
2170.000000	98.582482
2169.000000	98.567205
2168.000000	98.495104
2167.000000	98.418709
2166.000000	98.385853
2165.000000	98.396963
2164.000000	98.422648
2163.000000	98.434479
2162.000000	98.416530
2161.000000	98.387159
2160.000000	98.416183
2159.000000	98.564243
2158.000000	98.786005
2157.000000	98.962789
2156.000000	99.039257
2155.000000	99.047835
2154.000000	99.016415
2153.000000	98.938894
2152.000000	98.827940
2151.000000	98.728703
2150.000000	98.671127
2149.000000	98.649720
2148.000000	98.654374
2147.000000	98.681662
2146.000000	98.711499
2145.000000	98.713016
2144.000000	98.684644
2143.000000	98.654786
2142.000000	98.636611
2141.000000	98.614496
2140.000000	98.579312
2139.000000	98.545156
2138.000000	98.524597
2137.000000	98.516309
2136.000000	98.521742
2135.000000	98.545338
2134.000000	98.573229
2133.000000	98.581322
2132.000000	98.570913
2131.000000	98.568954
2130.000000	98.587166
2129.000000	98.605230
2128.000000	98.599991
2127.000000	98.570297
2126.000000	98.527244
2125.000000	98.479816
2124.000000	98.438289
2123.000000	98.414426
2122.000000	98.409118
2121.000000	98.411073
2120.000000	98.412391
2119.000000	98.413510
2118.000000	98.410415
2117.000000	98.392357
2116.000000	98.358026
2115.000000	98.321529
2114.000000	98.297313
2113.000000	98.289408
2112.000000	98.296639
2111.000000	98.315368
2110.000000	98.334990
2109.000000	98.344457
2108.000000	98.346358
2107.000000	98.351687
2106.000000	98.359684
2105.000000	98.358148
2104.000000	98.344865
2103.000000	98.331966
2102.000000	98.326593
2101.000000	98.323597
2100.000000	98.320048
2099.000000	98.321157
2098.000000	98.328953
2097.000000	98.340005
2096.000000	98.356305
2095.000000	98.382299
2094.000000	98.410532
2093.000000	98.427240
2092.000000	98.431887
2091.000000	98.434143
2090.000000	98.433867
2089.000000	98.423142
2088.000000	98.406372
2087.000000	98.397233
2086.000000	98.395888
2085.000000	98.390547
2084.000000	98.381342
2083.000000	98.380182
2082.000000	98.385142
2081.000000	98.378849
2080.000000	98.356423
2079.000000	98.332622
2078.000000	98.317722
2077.000000	98.310207
2076.000000	98.316893
2075.000000	98.352682
2074.000000	98.412268
2073.000000	98.466165
2072.000000	98.493895
2071.000000	98.500219
2070.000000	98.493940
2069.000000	98.477461
2068.000000	98.463238
2067.000000	98.471059
2066.000000	98.499009
2065.000000	98.521469
2064.000000	98.524916
2063.000000	98.519744
2062.000000	98.511583
2061.000000	98.494953
2060.000000	98.480833
2059.000000	98.493452
2058.000000	98.527805
2057.000000	98.544035
2056.000000	98.518485
2055.000000	98.470743
2054.000000	98.426749
2053.000000	98.386588
2052.000000	98.345619
2051.000000	98.317714
2050.000000	98.317828
2049.000000	98.342663
2048.000000	98.384907
2047.000000	98.445091
2046.000000	98.512896
2045.000000	98.565569
2044.000000	98.602128
2043.000000	98.645062
2042.000000	98.692855
2041.000000	98.709960
2040.000000	98.684411
2039.000000	98.653217
2038.000000	98.650128
2037.000000	98.670368
2036.000000	98.700558
2035.000000	98.739454
2034.000000	98.770923
2033.000000	98.765054
2032.000000	98.731247
2031.000000	98.719406
2030.000000	98.748916
2029.000000	98.785886
2028.000000	98.802838
2027.000000	98.809783
2026.000000	98.814004
2025.000000	98.804492
2024.000000	98.788648
2023.000000	98.789017
2022.000000	98.792759
2021.000000	98.761167
2020.000000	98.698823
2019.000000	98.654889
2018.000000	98.648044
2017.000000	98.650266
2016.000000	98.655854
2015.000000	98.694586
2014.000000	98.760222
2013.000000	98.798754
2012.000000	98.786754
2011.000000	98.762848
2010.000000	98.763566
2009.000000	98.783910
2008.000000	98.815947
2007.000000	98.864022
2006.000000	98.903439
2005.000000	98.889541
2004.000000	98.828480
2003.000000	98.779416
2002.000000	98.774743
2001.000000	98.792446
2000.000000	98.809948
1999.000000	98.830649
1998.000000	98.850544
1997.000000	98.850469
1996.000000	98.835560
1995.000000	98.835084
1994.000000	98.850721
1993.000000	98.846201
1992.000000	98.805972
1991.000000	98.762264
1990.000000	98.739333
1989.000000	98.723460
1988.000000	98.706069
1987.000000	98.702024
1986.000000	98.711394
1985.000000	98.710686
1984.000000	98.695118
1983.000000	98.684767
1982.000000	98.678288
1981.000000	98.652042
1980.000000	98.617604
1979.000000	98.625733
1978.000000	98.694414
1977.000000	98.783442
1976.000000	98.862292
1975.000000	98.937046
1974.000000	98.989793
1973.000000	98.976219
1972.000000	98.906356
1971.000000	98.848511
1970.000000	98.834258
1969.000000	98.827394
1968.000000	98.801771
1967.000000	98.785065
1966.000000	98.798376
1965.000000	98.818360
1964.000000	98.829534
1963.000000	98.850848
1962.000000	98.888225
1961.000000	98.913868
1960.000000	98.913945
1959.000000	98.909290
1958.000000	98.909453
1957.000000	98.895532
1956.000000	98.863119
1955.000000	98.834457
1954.000000	98.817612
1953.000000	98.797198
1952.000000	98.775875
1951.000000	98.781450
1950.000000	98.818015
1949.000000	98.853357
1948.000000	98.868062
1947.000000	98.874329
1946.000000	98.875058
1945.000000	98.849027
1944.000000	98.794620
1943.000000	98.749138
1942.000000	98.740516
1941.000000	98.755103
1940.000000	98.772519
1939.000000	98.792242
1938.000000	98.811897
1937.000000	98.814894
1936.000000	98.797526
1935.000000	98.782237
1934.000000	98.786310
1933.000000	98.799583
1932.000000	98.807863
1931.000000	98.813490
1930.000000	98.815435
1929.000000	98.801769
1928.000000	98.773941
1927.000000	98.751573
1926.000000	98.744480
1925.000000	98.741337
1924.000000	98.736107
1923.000000	98.736445
1922.000000	98.738831
1921.000000	98.727298
1920.000000	98.702004
1919.000000	98.686386
1918.000000	98.693504
1917.000000	98.705000
1916.000000	98.704089
1915.000000	98.697690
1914.000000	98.695453
1913.000000	98.696125
1912.000000	98.698775
1911.000000	98.708292
1910.000000	98.719019
1909.000000	98.717488
1908.000000	98.707954
1907.000000	98.709020
1906.000000	98.722637
1905.000000	98.730832
1904.000000	98.727748
1903.000000	98.724972
1902.000000	98.723334
1901.000000	98.711477
1900.000000	98.692343
1899.000000	98.685528
1898.000000	98.699392
1897.000000	98.720223
1896.000000	98.736799
1895.000000	98.752755
1894.000000	98.766982
1893.000000	98.767733
1892.000000	98.751317
1891.000000	98.728066
1890.000000	98.706058
1889.000000	98.688324
1888.000000	98.687003
1887.000000	98.708872
1886.000000	98.735353
1885.000000	98.742680
1884.000000	98.734167
1883.000000	98.733135
1882.000000	98.744810
1881.000000	98.753441
1880.000000	98.753391
1879.000000	98.754633
1878.000000	98.759090
1877.000000	98.755246
1876.000000	98.742740
1875.000000	98.738075
1874.000000	98.746830
1873.000000	98.755412
1872.000000	98.757380
1871.000000	98.764404
1870.000000	98.784772
1869.000000	98.803076
1868.000000	98.805126
1867.000000	98.801635
1866.000000	98.796574
1865.000000	98.780687
1864.000000	98.760471
1863.000000	98.754527
1862.000000	98.765089
1861.000000	98.774264
1860.000000	98.772728
1859.000000	98.769077
1858.000000	98.767005
1857.000000	98.760872
1856.000000	98.754866
1855.000000	98.760503
1854.000000	98.773870
1853.000000	98.779899
1852.000000	98.776957
1851.000000	98.775431
1850.000000	98.779571
1849.000000	98.785612
1848.000000	98.798784
1847.000000	98.829314
1846.000000	98.867680
1845.000000	98.886602
1844.000000	98.878468
1843.000000	98.863408
1842.000000	98.849450
1841.000000	98.831885
1840.000000	98.816994
1839.000000	98.814852
1838.000000	98.821127
1837.000000	98.819927
1836.000000	98.810947
1835.000000	98.808835
1834.000000	98.814189
1833.000000	98.812588
1832.000000	98.797812
1831.000000	98.784751
1830.000000	98.785934
1829.000000	98.787660
1828.000000	98.778216
1827.000000	98.766631
1826.000000	98.766433
1825.000000	98.778902
1824.000000	98.797029
1823.000000	98.817513
1822.000000	98.832023
1821.000000	98.830669
1820.000000	98.819170
1819.000000	98.816528
1818.000000	98.828431
1817.000000	98.837728
1816.000000	98.836263
1815.000000	98.833956
1814.000000	98.833096
1813.000000	98.822781
1812.000000	98.800792
1811.000000	98.785980
1810.000000	98.786995
1809.000000	98.785907
1808.000000	98.775363
1807.000000	98.769660
1806.000000	98.770692
1805.000000	98.758885
1804.000000	98.728515
1803.000000	98.701818
1802.000000	98.697326
1801.000000	98.702306
1800.000000	98.699536
1799.000000	98.698712
1798.000000	98.706996
1797.000000	98.714381
1796.000000	98.720780
1795.000000	98.735757
1794.000000	98.755769
1793.000000	98.762142
1792.000000	98.748282
1791.000000	98.735649
1790.000000	98.736859
1789.000000	98.737898
1788.000000	98.730423
1787.000000	98.723997
1786.000000	98.728122
1785.000000	98.738133
1784.000000	98.748053
1783.000000	98.756909
1782.000000	98.761341
1781.000000	98.758094
1780.000000	98.753044
1779.000000	98.761046
1778.000000	98.780778
1777.000000	98.800755
1776.000000	98.828017
1775.000000	98.875076
1774.000000	98.932485
1773.000000	98.968007
1772.000000	98.956826
1771.000000	98.913692
1770.000000	98.869220
1769.000000	98.832681
1768.000000	98.808444
1767.000000	98.806869
1766.000000	98.822148
1765.000000	98.831029
1764.000000	98.822037
1763.000000	98.808540
1762.000000	98.809911
1761.000000	98.821111
1760.000000	98.822118
1759.000000	98.811318
1758.000000	98.797583
1757.000000	98.788342
1756.000000	98.789414
1755.000000	98.803988
1754.000000	98.827122
1753.000000	98.846112
1752.000000	98.854003
1751.000000	98.856552
1750.000000	98.852835
1749.000000	98.827163
1748.000000	98.782444
1747.000000	98.741021
1746.000000	98.711855
1745.000000	98.683685
1744.000000	98.651241
1743.000000	98.629899
1742.000000	98.627299
1741.000000	98.622109
1740.000000	98.599855
1739.000000	98.585573
1738.000000	98.605046
1737.000000	98.656531
1736.000000	98.725809
1735.000000	98.811390
1734.000000	98.902986
1733.000000	98.931719
1732.000000	98.862941
1731.000000	98.758398
1730.000000	98.682323
1729.000000	98.647490
1728.000000	98.637360
1727.000000	98.637468
1726.000000	98.639975
1725.000000	98.637041
1724.000000	98.625820
1723.000000	98.618052
1722.000000	98.618113
1721.000000	98.619584
1720.000000	98.624744
1719.000000	98.659554
1718.000000	98.736286
1717.000000	98.769790
1716.000000	98.689688
1715.000000	98.555745
1714.000000	98.434964
1713.000000	98.333784
1712.000000	98.241970
1711.000000	98.160547
1710.000000	98.091379
1709.000000	98.020458
1708.000000	97.930863
1707.000000	97.824265
1706.000000	97.709647
1705.000000	97.590606
1704.000000	97.497206
1703.000000	97.454941
1702.000000	97.423172
1701.000000	97.308096
1700.000000	97.125659
1699.000000	96.992717
1698.000000	96.903471
1697.000000	96.753616
1696.000000	96.493140
1695.000000	96.207167
1694.000000	95.967771
1693.000000	95.745989
1692.000000	95.534318
1691.000000	95.341736
1690.000000	95.165651
1689.000000	95.009703
1688.000000	94.901222
1687.000000	94.851316
1686.000000	94.798068
1685.000000	94.612341
1684.000000	94.264873
1683.000000	93.924760
1682.000000	93.676383
1681.000000	93.450394
1680.000000	93.219926
1679.000000	93.013129
1678.000000	92.842359
1677.000000	92.666351
1676.000000	92.431684
1675.000000	92.161687
1674.000000	91.923381
1673.000000	91.718852
1672.000000	91.507684
1671.000000	91.270141
1670.000000	90.994069
1669.000000	90.690820
1668.000000	90.406908
1667.000000	90.174304
1666.000000	89.982823
1665.000000	89.791496
1664.000000	89.559248
1663.000000	89.289571
1662.000000	89.023110
1661.000000	88.781841
1660.000000	88.553961
1659.000000	88.340553
1658.000000	88.149899
1657.000000	88.006457
1656.000000	87.914554
1655.000000	87.848210
1654.000000	87.681105
1653.000000	87.330806
1652.000000	86.972928
1651.000000	86.671432
1650.000000	86.377555
1649.000000	86.114625
1648.000000	85.859510
1647.000000	85.599839
1646.000000	85.412133
1645.000000	85.333000
1644.000000	85.311904
1643.000000	85.333163
1642.000000	85.407703
1641.000000	85.510122
1640.000000	85.609039
1639.000000	85.707489
1638.000000	85.820908
1637.000000	85.928643
1636.000000	85.982919
1635.000000	85.984362
1634.000000	85.970224
1633.000000	85.939056
1632.000000	85.903558
1631.000000	85.893959
1630.000000	85.918483
1629.000000	85.975446
1628.000000	86.063629
1627.000000	86.182610
1626.000000	86.327599
1625.000000	86.498324
1624.000000	86.708280
1623.000000	86.958797
1622.000000	87.207145
1621.000000	87.419566
1620.000000	87.620971
1619.000000	87.860295
1618.000000	88.162245
1617.000000	88.501400
1616.000000	88.796677
1615.000000	88.986967
1614.000000	89.109002
1613.000000	89.240101
1612.000000	89.419418
1611.000000	89.637737
1610.000000	89.865673
1609.000000	90.086737
1608.000000	90.300148
1607.000000	90.501123
1606.000000	90.680393
1605.000000	90.841560
1604.000000	90.996273
1603.000000	91.146064
1602.000000	91.280883
1601.000000	91.397543
1600.000000	91.505164
1599.000000	91.608046
1598.000000	91.700956
1597.000000	91.780945
1596.000000	91.852920
1595.000000	91.918440
1594.000000	91.970332
1593.000000	92.006440
1592.000000	92.033212
1591.000000	92.050900
1590.000000	92.049989
1589.000000	92.027851
1588.000000	91.991277
1587.000000	91.940319
1586.000000	91.866658
1585.000000	91.770188
1584.000000	91.657924
1583.000000	91.525389
1582.000000	91.363231
1581.000000	91.186138
1580.000000	91.037652
1579.000000	90.951559
1578.000000	90.916940
1577.000000	90.880951
1576.000000	90.804804
1575.000000	90.696105
1574.000000	90.580392
1573.000000	90.490499
1572.000000	90.442614
1571.000000	90.416488
1570.000000	90.380430
1569.000000	90.328935
1568.000000	90.274550
1567.000000	90.212469
1566.000000	90.129731
1565.000000	90.033106
1564.000000	89.949134
1563.000000	89.906198
1562.000000	89.905089
1561.000000	89.884419
1560.000000	89.778476
1559.000000	89.549566
1558.000000	89.278255
1557.000000	89.088146
1556.000000	88.916682
1555.000000	88.718034
1554.000000	88.515169
1553.000000	88.309900
1552.000000	88.106991
1551.000000	87.899861
1550.000000	87.702164
1549.000000	87.530371
1548.000000	87.390189
1547.000000	87.255276
1546.000000	87.102721
1545.000000	86.936080
1544.000000	86.778405
1543.000000	86.653194
1542.000000	86.566154
1541.000000	86.489453
1540.000000	86.416066
1539.000000	86.396900
1538.000000	86.416240
1537.000000	86.420874
1536.000000	86.442514
1535.000000	86.529311
1534.000000	86.693370
1533.000000	86.892785
1532.000000	87.063245
1531.000000	87.198099
1530.000000	87.311750
1529.000000	87.412044
1528.000000	87.515275
1527.000000	87.640387
1526.000000	87.784054
1525.000000	87.918520
1524.000000	88.032425
1523.000000	88.147929
1522.000000	88.272598
1521.000000	88.358209
1520.000000	88.374218
1519.000000	88.358214
1518.000000	88.360856
1517.000000	88.396706
1516.000000	88.451959
1515.000000	88.522424
1514.000000	88.605963
1513.000000	88.690459
1512.000000	88.772710
1511.000000	88.867687
1510.000000	89.000715
1509.000000	89.185821
1508.000000	89.423263
1507.000000	89.651521
1506.000000	89.812084
1505.000000	89.906080
1504.000000	89.915901
1503.000000	89.896547
1502.000000	89.921273
1501.000000	89.985060
1500.000000	90.065653
1499.000000	90.162884
1498.000000	90.295437
1497.000000	90.435287
1496.000000	90.532281
1495.000000	90.582469
1494.000000	90.606073
1493.000000	90.612506
1492.000000	90.610900
1491.000000	90.629986
1490.000000	90.686714
1489.000000	90.736878
1488.000000	90.753245
1487.000000	90.766568
1486.000000	90.782700
1485.000000	90.779203
1484.000000	90.747278
1483.000000	90.695956
1482.000000	90.634514
1481.000000	90.554576
1480.000000	90.450690
1479.000000	90.330494
1478.000000	90.198868
1477.000000	90.057395
1476.000000	89.924237
1475.000000	89.816289
1474.000000	89.696186
1473.000000	89.472353
1472.000000	89.138143
1471.000000	88.825272
1470.000000	88.606423
1469.000000	88.454936
1468.000000	88.350211
1467.000000	88.289458
1466.000000	88.260907
1465.000000	88.235936
1464.000000	88.201486
1463.000000	88.171622
1462.000000	88.146780
1461.000000	88.116263
1460.000000	88.083346
1459.000000	88.057296
1458.000000	88.019001
1457.000000	87.911915
1456.000000	87.749431
1455.000000	87.594793
1454.000000	87.463205
1453.000000	87.358580
1452.000000	87.281746
1451.000000	87.225091
1450.000000	87.179998
1449.000000	87.132434
1448.000000	87.084614
1447.000000	87.054592
1446.000000	87.046414
1445.000000	87.041239
1444.000000	87.026874
1443.000000	87.012829
1442.000000	87.006677
1441.000000	87.002451
1440.000000	86.996218
1439.000000	86.992827
1438.000000	86.996966
1437.000000	87.008686
1436.000000	87.023660
1435.000000	87.034269
1434.000000	87.035616
1433.000000	87.027174
1432.000000	87.014190
1431.000000	87.005206
1430.000000	87.004493
1429.000000	87.001197
1428.000000	86.982950
1427.000000	86.947372
1426.000000	86.893132
1425.000000	86.821648
1424.000000	86.741341
1423.000000	86.672547
1422.000000	86.625537
1421.000000	86.577079
1420.000000	86.502874
1419.000000	86.420462
1418.000000	86.362772
1417.000000	86.331719
1416.000000	86.317782
1415.000000	86.319206
1414.000000	86.328827
1413.000000	86.334913
1412.000000	86.334885
1411.000000	86.336211
1410.000000	86.344348
1409.000000	86.353450
1408.000000	86.358102
1407.000000	86.363846
1406.000000	86.379026
1405.000000	86.407568
1404.000000	86.448500
1403.000000	86.497662
1402.000000	86.543712
1401.000000	86.578496
1400.000000	86.615627
1399.000000	86.675143
1398.000000	86.752589
1397.000000	86.826879
1396.000000	86.893976
1395.000000	86.966844
1394.000000	87.053806
1393.000000	87.147106
1392.000000	87.232924
1391.000000	87.312774
1390.000000	87.396915
1389.000000	87.491738
1388.000000	87.601433
1387.000000	87.720378
1386.000000	87.830376
1385.000000	87.923001
1384.000000	88.010462
1383.000000	88.110374
1382.000000	88.224616
1381.000000	88.338604
1380.000000	88.445646
1379.000000	88.552433
1378.000000	88.661752
1377.000000	88.769536
1376.000000	88.880806
1375.000000	89.009683
1374.000000	89.157418
1373.000000	89.309326
1372.000000	89.455849
1371.000000	89.595374
1370.000000	89.727731
1369.000000	89.859039
1368.000000	89.995501
1367.000000	90.134559
1366.000000	90.265914
1365.000000	90.385284
1364.000000	90.507490
1363.000000	90.648101
1362.000000	90.795721
1361.000000	90.929289
1360.000000	91.044762
1359.000000	91.146898
1358.000000	91.236672
1357.000000	91.313120
1356.000000	91.378512
1355.000000	91.434905
1354.000000	91.477545
1353.000000	91.498717
1352.000000	91.501966
1351.000000	91.499238
1350.000000	91.493451
1349.000000	91.480277
1348.000000	91.457178
1347.000000	91.425890
1346.000000	91.387036
1345.000000	91.341294
1344.000000	91.294379
1343.000000	91.253637
1342.000000	91.221366
1341.000000	91.196830
1340.000000	91.179128
1339.000000	91.165241
1338.000000	91.154532
1337.000000	91.151545
1336.000000	91.162839
1335.000000	91.193522
1334.000000	91.241938
1333.000000	91.301220
1332.000000	91.367849
1331.000000	91.441490
1330.000000	91.518225
1329.000000	91.592256
1328.000000	91.662913
1327.000000	91.730609
1326.000000	91.789536
1325.000000	91.835236
1324.000000	91.872623
1323.000000	91.910820
1322.000000	91.951842
1321.000000	91.990772
1320.000000	92.025340
1319.000000	92.058072
1318.000000	92.089885
1317.000000	92.119319
1316.000000	92.149285
1315.000000	92.186706
1314.000000	92.233442
1313.000000	92.283512
1312.000000	92.332888
1311.000000	92.384859
1310.000000	92.441905
1309.000000	92.498968
1308.000000	92.549614
1307.000000	92.592714
1306.000000	92.629498
1305.000000	92.661127
1304.000000	92.690299
1303.000000	92.722190
1302.000000	92.758920
1301.000000	92.796754
1300.000000	92.832310
1299.000000	92.867624
1298.000000	92.905006
1297.000000	92.940794
1296.000000	92.969072
1295.000000	92.987720
1294.000000	92.997619
1293.000000	92.998371
1292.000000	92.988881
1291.000000	92.970227
1290.000000	92.944078
1289.000000	92.911241
1288.000000	92.874432
1287.000000	92.838913
1286.000000	92.807374
1285.000000	92.777368
1284.000000	92.746918
1283.000000	92.718980
1282.000000	92.697002
1281.000000	92.680837
1280.000000	92.670803
1279.000000	92.670121
1278.000000	92.679701
1277.000000	92.694696
1276.000000	92.710035
1275.000000	92.725356
1274.000000	92.741927
1273.000000	92.759102
1272.000000	92.775789
1271.000000	92.790699
1270.000000	92.799273
1269.000000	92.796053
1268.000000	92.782107
1267.000000	92.764786
1266.000000	92.748556
1265.000000	92.730562
1264.000000	92.707485
1263.000000	92.680693
1262.000000	92.650801
1261.000000	92.614383
1260.000000	92.570120
1259.000000	92.521994
1258.000000	92.473381
1257.000000	92.423169
1256.000000	92.370973
1255.000000	92.318883
1254.000000	92.265198
1253.000000	92.204281
1252.000000	92.135380
1251.000000	92.063440
1250.000000	91.988181
1249.000000	91.901943
1248.000000	91.802788
1247.000000	91.700417
1246.000000	91.604276
1245.000000	91.514035
1244.000000	91.427025
1243.000000	91.345556
1242.000000	91.270450
1241.000000	91.197028
1240.000000	91.125337
1239.000000	91.065626
1238.000000	91.025223
1237.000000	90.998670
1236.000000	90.978019
1235.000000	90.965122
1234.000000	90.967328
1233.000000	90.987968
1232.000000	91.028868
1231.000000	91.093576
1230.000000	91.180837
1229.000000	91.282216
1228.000000	91.391345
1227.000000	91.509977
1226.000000	91.639909
1225.000000	91.776782
1224.000000	91.917177
1223.000000	92.063104
1222.000000	92.214505
1221.000000	92.364553
1220.000000	92.506916
1219.000000	92.640332
1218.000000	92.762381
1217.000000	92.866248
1216.000000	92.948827
1215.000000	93.015406
1214.000000	93.070458
1213.000000	93.111254
1212.000000	93.134629
1211.000000	93.143149
1210.000000	93.139426
1209.000000	93.120431
1208.000000	93.085004
1207.000000	93.040568
1206.000000	92.996578
1205.000000	92.957699
1204.000000	92.928432
1203.000000	92.916537
1202.000000	92.925544
1201.000000	92.951562
1200.000000	92.992324
1199.000000	93.051463
1198.000000	93.127903
1197.000000	93.210450
1196.000000	93.290470
1195.000000	93.371093
1194.000000	93.457274
1193.000000	93.544771
1192.000000	93.626734
1191.000000	93.704553
1190.000000	93.784550
1189.000000	93.869423
1188.000000	93.958622
1187.000000	94.050709
1186.000000	94.139307
1185.000000	94.213918
1184.000000	94.270958
1183.000000	94.318305
1182.000000	94.363734
1181.000000	94.405003
1180.000000	94.437485
1179.000000	94.463282
1178.000000	94.485617
1177.000000	94.501934
1176.000000	94.509772
1175.000000	94.513189
1174.000000	94.516077
1173.000000	94.515657
1172.000000	94.509027
1171.000000	94.499503
1170.000000	94.490997
1169.000000	94.482666
1168.000000	94.474247
1167.000000	94.468840
1166.000000	94.465253
1165.000000	94.456926
1164.000000	94.444710
1163.000000	94.440890
1162.000000	94.452694
1161.000000	94.471913
1160.000000	94.488823
1159.000000	94.506493
1158.000000	94.532860
1157.000000	94.567864
1156.000000	94.608069
1155.000000	94.654844
1154.000000	94.708443
1153.000000	94.762062
1152.000000	94.810501
1151.000000	94.857413
1150.000000	94.905945
1149.000000	94.950438
1148.000000	94.985619
1147.000000	95.015818
1146.000000	95.047234
1145.000000	95.079857
1144.000000	95.114706
1143.000000	95.158961
1142.000000	95.215049
1141.000000	95.273731
1140.000000	95.326603
1139.000000	95.376253
1138.000000	95.425919
1137.000000	95.469496
1136.000000	95.501324
1135.000000	95.526196
1134.000000	95.549548
1133.000000	95.566515
1132.000000	95.571439
1131.000000	95.569240
1130.000000	95.566491
1129.000000	95.559941
1128.000000	95.544467
1127.000000	95.524899
1126.000000	95.508782
1125.000000	95.494787
1124.000000	95.479012
1123.000000	95.464819
1122.000000	95.455789
1121.000000	95.446056
1120.000000	95.428373
1119.000000	95.405431
1118.000000	95.383909
1117.000000	95.364111
1116.000000	95.344195
1115.000000	95.326574
1114.000000	95.311341
1113.000000	95.292022
1112.000000	95.267329
1111.000000	95.248321
1110.000000	95.244664
1109.000000	95.251494
1108.000000	95.257376
1107.000000	95.257081
1106.000000	95.248792
1105.000000	95.230130
1104.000000	95.206410
1103.000000	95.190946
1102.000000	95.187644
1101.000000	95.182465
1100.000000	95.162585
1099.000000	95.134885
1098.000000	95.111384
1097.000000	95.091940
1096.000000	95.070074
1095.000000	95.045377
1094.000000	95.017892
1093.000000	94.980505
1092.000000	94.928189
1091.000000	94.865765
1090.000000	94.796577
1089.000000	94.714733
1088.000000	94.618363
1087.000000	94.518504
1086.000000	94.424460
1085.000000	94.332450
1084.000000	94.239926
1083.000000	94.158259
1082.000000	94.099479
1081.000000	94.062539
1080.000000	94.045305
1079.000000	94.056091
1078.000000	94.099264
1077.000000	94.162419
1076.000000	94.229862
1075.000000	94.298597
1074.000000	94.369708
1073.000000	94.436544
1072.000000	94.493726
1071.000000	94.545840
1070.000000	94.595229
1069.000000	94.631655
1068.000000	94.646186
1067.000000	94.645568
1066.000000	94.643227
1065.000000	94.644849
1064.000000	94.651274
1063.000000	94.664614
1062.000000	94.682263
1061.000000	94.695789
1060.000000	94.703506
1059.000000	94.713084
1058.000000	94.726186
1057.000000	94.734761
1056.000000	94.738683
1055.000000	94.750763
1054.000000	94.775714
1053.000000	94.800669
1052.000000	94.816113
1051.000000	94.829533
1050.000000	94.847135
1049.000000	94.860403
1048.000000	94.863794
1047.000000	94.867915
1046.000000	94.881952
1045.000000	94.899010
1044.000000	94.909520
1043.000000	94.913146
1042.000000	94.908050
1041.000000	94.885884
1040.000000	94.848214
1039.000000	94.810114
1038.000000	94.776639
1037.000000	94.732785
1036.000000	94.669645
1035.000000	94.602642
1034.000000	94.550765
1033.000000	94.515026
1032.000000	94.490972
1031.000000	94.484792
1030.000000	94.501197
1029.000000	94.531947
1028.000000	94.570136
1027.000000	94.621279
1026.000000	94.687023
1025.000000	94.753928
1024.000000	94.812023
1023.000000	94.868655
1022.000000	94.931593
1021.000000	94.994636
1020.000000	95.052434
1019.000000	95.112425
1018.000000	95.178800
1017.000000	95.241441
1016.000000	95.294511
1015.000000	95.349126
1014.000000	95.414314
1013.000000	95.481497
1012.000000	95.541731
1011.000000	95.601864
1010.000000	95.669922
1009.000000	95.740344
1008.000000	95.807159
1007.000000	95.876687
1006.000000	95.954220
1005.000000	96.033014
1004.000000	96.108491
1003.000000	96.188151
1002.000000	96.275615
1001.000000	96.361060
1000.000000	96.438654
999.000000	96.517087
998.000000	96.600756
997.000000	96.678268
996.000000	96.742390
995.000000	96.803885
994.000000	96.871403
993.000000	96.934910
992.000000	96.984585
991.000000	97.029241
990.000000	97.080622
989.000000	97.134089
988.000000	97.180607
987.000000	97.223156
986.000000	97.266034
985.000000	97.302301
984.000000	97.326723
983.000000	97.347057
982.000000	97.368616
981.000000	97.382244
980.000000	97.382013
979.000000	97.379429
978.000000	97.384478
977.000000	97.388264
976.000000	97.379778
975.000000	97.365933
974.000000	97.359002
973.000000	97.359061
972.000000	97.364294
971.000000	97.383544
970.000000	97.421503
969.000000	97.465391
968.000000	97.503200
967.000000	97.541494
966.000000	97.590063
965.000000	97.642300
964.000000	97.687201
963.000000	97.726762
962.000000	97.765654
961.000000	97.797300
960.000000	97.817265
959.000000	97.837296
958.000000	97.869069
957.000000	97.906009
956.000000	97.937039
955.000000	97.965980
954.000000	98.000766
953.000000	98.035898
952.000000	98.062019
951.000000	98.082115
950.000000	98.102182
949.000000	98.117083
948.000000	98.120846
947.000000	98.120646
946.000000	98.125682
945.000000	98.132291
944.000000	98.133622
943.000000	98.133142
942.000000	98.136280
941.000000	98.139850
940.000000	98.141651
939.000000	98.147922
938.000000	98.160326
937.000000	98.169393
936.000000	98.172634
935.000000	98.183713
934.000000	98.211474
933.000000	98.245396
932.000000	98.274570
931.000000	98.304023
930.000000	98.338451
929.000000	98.367948
928.000000	98.385434
927.000000	98.401453
926.000000	98.424814
925.000000	98.444993
924.000000	98.450583
923.000000	98.450046
922.000000	98.456451
921.000000	98.466644
920.000000	98.473085
919.000000	98.481874
918.000000	98.501225
917.000000	98.525274
916.000000	98.546933
915.000000	98.573428
914.000000	98.612112
913.000000	98.653184
912.000000	98.683567
911.000000	98.705693
910.000000	98.727237
909.000000	98.744984
908.000000	98.754618
907.000000	98.763220
906.000000	98.776390
905.000000	98.786147
904.000000	98.786823
903.000000	98.789200
902.000000	98.803451
901.000000	98.822254
900.000000	98.835295
899.000000	98.846208
898.000000	98.859965
897.000000	98.869517
896.000000	98.870024
895.000000	98.871352
894.000000	98.881446
893.000000	98.893318
892.000000	98.902650
891.000000	98.920224
890.000000	98.950519
889.000000	98.974895
888.000000	98.973118
887.000000	98.942336
886.000000	98.878814
885.000000	98.758727
884.000000	98.556909
883.000000	98.268525
882.000000	97.891935
881.000000	97.411994
880.000000	96.823859
879.000000	96.160266
878.000000	95.473994
877.000000	94.808502
876.000000	94.207075
875.000000	93.734413
874.000000	93.466181
873.000000	93.460869
872.000000	93.746858
871.000000	94.299084
870.000000	95.011038
869.000000	95.724630
868.000000	96.317810
867.000000	96.760708
866.000000	97.083479
865.000000	97.319611
864.000000	97.495110
863.000000	97.637817
862.000000	97.761837
861.000000	97.857639
860.000000	97.919365
859.000000	97.964610
858.000000	98.011238
857.000000	98.054865
856.000000	98.089587
855.000000	98.128640
854.000000	98.181575
853.000000	98.231712
852.000000	98.258858
851.000000	98.268096
850.000000	98.276619
849.000000	98.291773
848.000000	98.320249
847.000000	98.376821
846.000000	98.462090
845.000000	98.550946
844.000000	98.621624
843.000000	98.676719
842.000000	98.720932
841.000000	98.744724
840.000000	98.749612
839.000000	98.762031
838.000000	98.798353
837.000000	98.839426
836.000000	98.862736
835.000000	98.874752
834.000000	98.888766
833.000000	98.896759
832.000000	98.889757
831.000000	98.882156
830.000000	98.888402
829.000000	98.897162
828.000000	98.895024
827.000000	98.893317
826.000000	98.903707
825.000000	98.911669
824.000000	98.903303
823.000000	98.893039
822.000000	98.893845
821.000000	98.887909
820.000000	98.858097
819.000000	98.821554
818.000000	98.802107
817.000000	98.794034
816.000000	98.782383
815.000000	98.776119
814.000000	98.791401
813.000000	98.820144
812.000000	98.842728
811.000000	98.855186
810.000000	98.861374
809.000000	98.857608
808.000000	98.846889
807.000000	98.847408
806.000000	98.864627
805.000000	98.876637
804.000000	98.868450
803.000000	98.857023
802.000000	98.861520
801.000000	98.874853
800.000000	98.886007
799.000000	98.901786
798.000000	98.922016
797.000000	98.923605
796.000000	98.897011
795.000000	98.870325
794.000000	98.868993
793.000000	98.878375
792.000000	98.873018
791.000000	98.855688
790.000000	98.840326
789.000000	98.823649
788.000000	98.802585
787.000000	98.793659
786.000000	98.804914
785.000000	98.812104
784.000000	98.791820
783.000000	98.757134
782.000000	98.733981
781.000000	98.724259
780.000000	98.718355
779.000000	98.720772
778.000000	98.734527
777.000000	98.740878
776.000000	98.723514
775.000000	98.695383
774.000000	98.676540
773.000000	98.664574
772.000000	98.651142
771.000000	98.646783
770.000000	98.662821
769.000000	98.686621
768.000000	98.700179
767.000000	98.706912
766.000000	98.718145
765.000000	98.730869
764.000000	98.739231
763.000000	98.748677
762.000000	98.758147
761.000000	98.749828
760.000000	98.717926
759.000000	98.686483
758.000000	98.677214
757.000000	98.680385
756.000000	98.676882
755.000000	98.666447
754.000000	98.654712
753.000000	98.636331
752.000000	98.611413
751.000000	98.594850
750.000000	98.589522
749.000000	98.575439
748.000000	98.545235
747.000000	98.522026
746.000000	98.520688
745.000000	98.520121
744.000000	98.499032
743.000000	98.471242
742.000000	98.458217
741.000000	98.452550
740.000000	98.435828
739.000000	98.409522
738.000000	98.382422
737.000000	98.351316
736.000000	98.317405
735.000000	98.297007
734.000000	98.290982
733.000000	98.269303
732.000000	98.211952
731.000000	98.141687
730.000000	98.088861
729.000000	98.044942
728.000000	97.982363
727.000000	97.897673
726.000000	97.804413
725.000000	97.707565
724.000000	97.612689
723.000000	97.536745
722.000000	97.485076
721.000000	97.440854
720.000000	97.399390
719.000000	97.381423
718.000000	97.387465
717.000000	97.370980
716.000000	97.285801
715.000000	97.140631
714.000000	96.985440
713.000000	96.865820
712.000000	96.809383
711.000000	96.825993
710.000000	96.891502
709.000000	96.953778
708.000000	96.982574
707.000000	96.997862
706.000000	97.025288
705.000000	97.055122
704.000000	97.070323
703.000000	97.076260
702.000000	97.078827
701.000000	97.064996
700.000000	97.030484
699.000000	97.001645
698.000000	96.997206
697.000000	96.998392
696.000000	96.988477
695.000000	96.983975
694.000000	97.004162
693.000000	97.034227
692.000000	97.043698
691.000000	97.026945
690.000000	96.992402
689.000000	96.942153
688.000000	96.888560
687.000000	96.856892
686.000000	96.851872
685.000000	96.846636
684.000000	96.823308
683.000000	96.802059
682.000000	96.804841
681.000000	96.819080
680.000000	96.819911
679.000000	96.806440
678.000000	96.790835
677.000000	96.764135
676.000000	96.719554
675.000000	96.679223
674.000000	96.660192
673.000000	96.649569
672.000000	96.646043
671.000000	96.690797
670.000000	96.812112
669.000000	96.960255
668.000000	96.964650
667.000000	96.761412
666.000000	96.584247
665.000000	96.478960
664.000000	96.370242
663.000000	96.279743
662.000000	96.244905
661.000000	96.247629
660.000000	96.243353
659.000000	96.235603
658.000000	96.245471
657.000000	96.249924
656.000000	96.229556
655.000000	96.218592
654.000000	96.236078
653.000000	96.234258
652.000000	96.182116
651.000000	96.124837
650.000000	96.107987
649.000000	96.106222
648.000000	96.088799
647.000000	96.079230
646.000000	96.092174
645.000000	96.090988
644.000000	96.058016
643.000000	96.034626
642.000000	96.049827
641.000000	96.070402
640.000000	96.067739
639.000000	96.070232
638.000000	96.095479
637.000000	96.103985
636.000000	96.073479
635.000000	96.046451
634.000000	96.054769
633.000000	96.067017
632.000000	96.056115
631.000000	96.051177
630.000000	96.071092
629.000000	96.076808
628.000000	96.044166
627.000000	96.013951
626.000000	96.014763
625.000000	96.009389
624.000000	95.972302
623.000000	95.944128
622.000000	95.956922
621.000000	95.974756
620.000000	95.963939
619.000000	95.954934
618.000000	95.979439
617.000000	96.009495
616.000000	96.017322
615.000000	96.031341
614.000000	96.069660
613.000000	96.087678
612.000000	96.053873
611.000000	96.015057
610.000000	96.021023
609.000000	96.047766
608.000000	96.055622
607.000000	96.059897
606.000000	96.080816
605.000000	96.091005
604.000000	96.073084
603.000000	96.065532
602.000000	96.094698
601.000000	96.123085
600.000000	96.119390
599.000000	96.110193
598.000000	96.116124
597.000000	96.106983
596.000000	96.073354
595.000000	96.065514
594.000000	96.107987
593.000000	96.147073
592.000000	96.140023
591.000000	96.124231
590.000000	96.135670
589.000000	96.141816
588.000000	96.119481
587.000000	96.114133
586.000000	96.156747
585.000000	96.197909
584.000000	96.192916
583.000000	96.177200
582.000000	96.187172
581.000000	96.183484
580.000000	96.127177
579.000000	96.057593
578.000000	96.024292
577.000000	96.013623
576.000000	96.006080
575.000000	96.026661
574.000000	96.070695
573.000000	96.067868
572.000000	95.990348
571.000000	95.911757
570.000000	95.894604
569.000000	95.894866
568.000000	95.854929
567.000000	95.804052
566.000000	95.778671
565.000000	95.736088
564.000000	95.640784
563.000000	95.547581
562.000000	95.512971
561.000000	95.501557
560.000000	95.465272
559.000000	95.436258
558.000000	95.452258
557.000000	95.475433
556.000000	95.473491
555.000000	95.491816
554.000000	95.553411
553.000000	95.584058
552.000000	95.533200
551.000000	95.474284
550.000000	95.487193
549.000000	95.530229
548.000000	95.536352
547.000000	95.539963
546.000000	95.597533
545.000000	95.668911
544.000000	95.693918
543.000000	95.699552
542.000000	95.725251
541.000000	95.730377
540.000000	95.678763
539.000000	95.628915
538.000000	95.638586
537.000000	95.662837
536.000000	95.646249
535.000000	95.626135
534.000000	95.641179
533.000000	95.632389
532.000000	95.553484
531.000000	95.479328
530.000000	95.487762
529.000000	95.531998
528.000000	95.547926
527.000000	95.583341
526.000000	95.694111
525.000000	95.800084
524.000000	95.801303
523.000000	95.741502
522.000000	95.715932
521.000000	95.728249
520.000000	95.746094
519.000000	95.807114
518.000000	95.944448
517.000000	96.077376
516.000000	96.125177
515.000000	96.140954
514.000000	96.198955
513.000000	96.266032
512.000000	96.294171
511.000000	96.332490
510.000000	96.433925
509.000000	96.538715
508.000000	96.574839
507.000000	96.581732
506.000000	96.619188
505.000000	96.649996
504.000000	96.634257
503.000000	96.640297
502.000000	96.730782
501.000000	96.832127
500.000000	96.865229
499.000000	96.876981
498.000000	96.923730
497.000000	96.957662
496.000000	96.935434
495.000000	96.927919
494.000000	96.995959
493.000000	97.061044
492.000000	97.036284
491.000000	96.982114
490.000000	96.992925
489.000000	97.033476
488.000000	97.036925
487.000000	97.043070
486.000000	97.107826
485.000000	97.180619
484.000000	97.201973
483.000000	97.223379
482.000000	97.288207
481.000000	97.326865
480.000000	97.299871
479.000000	97.306858
478.000000	97.426369
477.000000	97.563088
476.000000	97.596056
475.000000	97.560684
474.000000	97.552339
473.000000	97.562360
472.000000	97.563369
471.000000	97.635567
470.000000	97.811317
469.000000	97.956174
468.000000	97.965177
467.000000	97.926800
466.000000	97.964448
465.000000	98.031723
464.000000	98.041465
463.000000	98.044576
462.000000	98.105207
461.000000	98.151627
460.000000	98.129741
459.000000	98.166174
458.000000	98.371424
457.000000	98.569108
456.000000	98.569080
455.000000	98.506334
454.000000	98.562023
453.000000	98.691803
452.000000	98.766494
451.000000	98.818550
450.000000	98.937208
