PE UV       SUBTECH     SPECTRUM    ASCII       PEDS        4.00        
   -1
3S-H10-F021.Sample.Raw.asc
22/03/29
15:17:42.00
22/03/29
15:17:42.00
Administrator

250.000000
1
Lambda 750
750N8071901
PerkinElmer UV WinLab 6.0.4.0738 / 1.61.00 Lambda 900

0
0
3350/servo 860.8/2
0
0
UV/VIS
1
1
1
CommonBeamDepol,150mm sphere / downward view
0
0
0
0
Program
Program
3350/servo 860.8/2
3350/0.2 860.8/0.2
3350/0.2 860.8/0.2
0
1
 
 
 
0
 
860.8
319.2
860.8
Front
100
on
 
 
0
0
0
 
0
 
 
 
0
 
 
0
0
0
0
0
 
 
 
 
0
0


0
0
#HDR
-1
-1
#GR
nm
%R
1.0
0.0
2500.000000
-10.000000
226
8
44.838086
3.652988
#DATA
2500.000000	7.547170
2490.000000	6.600554
2480.000000	4.878813
2470.000000	3.652988
2460.000000	4.746893
2450.000000	4.837593
2440.000000	6.071172
2430.000000	7.190642
2420.000000	8.144050
2410.000000	6.840723
2400.000000	8.015933
2390.000000	6.653500
2380.000000	6.864133
2370.000000	6.228666
2360.000000	8.211951
2350.000000	8.142780
2340.000000	6.892754
2330.000000	7.608117
2320.000000	7.013495
2310.000000	7.318293
2300.000000	6.961651
2290.000000	6.653245
2280.000000	6.485930
2270.000000	7.746878
2260.000000	7.969821
2250.000000	8.843332
2240.000000	9.481504
2230.000000	10.227756
2220.000000	10.686801
2210.000000	10.256487
2200.000000	10.185915
2190.000000	9.341289
2180.000000	9.864323
2170.000000	9.628838
2160.000000	9.266329
2150.000000	10.191986
2140.000000	10.455907
2130.000000	10.951400
2120.000000	12.182625
2110.000000	11.850013
2100.000000	12.388165
2090.000000	12.087279
2080.000000	11.977894
2070.000000	11.536145
2060.000000	10.974958
2050.000000	10.082918
2040.000000	9.832680
2030.000000	9.935076
2020.000000	10.311364
2010.000000	10.474268
2000.000000	10.105173
1990.000000	9.516055
1980.000000	9.027973
1970.000000	8.694944
1960.000000	7.944666
1950.000000	7.734047
1940.000000	7.519461
1930.000000	7.788480
1920.000000	8.916382
1910.000000	10.373702
1900.000000	13.241535
1890.000000	17.007177
1880.000000	20.362615
1870.000000	23.064500
1860.000000	24.385722
1850.000000	24.864993
1840.000000	24.784445
1830.000000	24.546373
1820.000000	23.998047
1810.000000	23.580757
1800.000000	23.202138
1790.000000	22.864830
1780.000000	22.398549
1770.000000	21.643717
1760.000000	21.044343
1750.000000	20.671941
1740.000000	20.129685
1730.000000	19.527180
1720.000000	19.792792
1710.000000	20.820305
1700.000000	21.998588
1690.000000	23.084657
1680.000000	24.700386
1670.000000	26.655726
1660.000000	27.951566
1650.000000	28.598307
1640.000000	28.432500
1630.000000	28.134865
1620.000000	27.538337
1610.000000	26.882477
1600.000000	26.234709
1590.000000	25.679306
1580.000000	25.131322
1570.000000	24.618104
1560.000000	24.265879
1550.000000	23.815744
1540.000000	23.187652
1530.000000	22.342658
1520.000000	21.773603
1510.000000	21.485687
1500.000000	21.273540
1490.000000	21.234408
1480.000000	21.474407
1470.000000	21.679401
1460.000000	22.038387
1450.000000	22.633441
1440.000000	23.433813
1430.000000	24.509169
1420.000000	26.067316
1410.000000	28.039502
1400.000000	30.580779
1390.000000	33.137302
1380.000000	35.020858
1370.000000	36.173442
1360.000000	37.064351
1350.000000	37.757651
1340.000000	38.185845
1330.000000	38.441451
1320.000000	38.799737
1310.000000	39.332621
1300.000000	39.776474
1290.000000	40.036085
1280.000000	40.011119
1270.000000	39.886421
1260.000000	39.784280
1250.000000	39.681283
1240.000000	39.264557
1230.000000	38.597848
1220.000000	37.880748
1210.000000	37.290103
1200.000000	37.035527
1190.000000	37.234664
1180.000000	37.879366
1170.000000	38.839151
1160.000000	39.960319
1150.000000	40.910745
1140.000000	41.668920
1130.000000	42.204353
1120.000000	42.545588
1110.000000	42.697499
1100.000000	42.731488
1090.000000	42.675263
1080.000000	42.621977
1070.000000	42.625282
1060.000000	42.631489
1050.000000	42.635736
1040.000000	42.619381
1030.000000	42.691008
1020.000000	42.840709
1010.000000	43.217945
1000.000000	43.575535
990.000000	43.712714
980.000000	43.796911
970.000000	43.971198
960.000000	44.038845
950.000000	44.094589
940.000000	44.092656
930.000000	44.140053
920.000000	44.186173
910.000000	44.119219
900.000000	44.254583
890.000000	44.660748
880.000000	44.718422
870.000000	44.838086
860.000000	44.830704
850.000000	44.068277
840.000000	43.061348
830.000000	43.120195
820.000000	43.150817
810.000000	43.064177
800.000000	43.005503
790.000000	42.981254
780.000000	42.901204
770.000000	42.899822
760.000000	42.837674
750.000000	42.740518
740.000000	42.668229
730.000000	42.524107
720.000000	42.425671
710.000000	42.270231
700.000000	42.147708
690.000000	41.913175
680.000000	41.656157
670.000000	41.409503
660.000000	41.164088
650.000000	40.912759
640.000000	40.546814
630.000000	40.207263
620.000000	39.874179
610.000000	39.452819
600.000000	39.068962
590.000000	38.749854
580.000000	38.361845
570.000000	37.903693
560.000000	37.467982
550.000000	37.014723
540.000000	36.408545
530.000000	35.705873
520.000000	34.897212
510.000000	33.960793
500.000000	32.958085
490.000000	31.878061
480.000000	30.748511
470.000000	29.483488
460.000000	27.915550
450.000000	26.081560
440.000000	24.040135
430.000000	21.661618
420.000000	19.266092
410.000000	17.446190
400.000000	16.336887
390.000000	15.340934
380.000000	14.168793
370.000000	13.103543
360.000000	12.159589
350.000000	11.237465
340.000000	10.482156
330.000000	9.702309
320.000000	8.964765
310.000000	8.482646
300.000000	7.995510
290.000000	7.339569
280.000000	7.068381
270.000000	6.972036
260.000000	6.987814
250.000000	7.058773
