PE UV       SUBTECH     SPECTRUM    ASCII       PEDS        4.00        
   -1
3S-H10-C028.Sample.Cycle1.Raw.asc
22/03/25
17:15:04.00
22/03/25
17:15:04.00
Administrator

250.000000
1
Lambda 750
750N8071901
PerkinElmer UV WinLab 6.0.4.0738 / 1.61.00 Lambda 900

0
0
3350/servo 860.8/2
0
0
UV/VIS
1
1
1
CommonBeamDepol,150mm sphere / downward view
0
0
0
0
Program
Program
3350/servo 860.8/2
3350/0.2 860.8/0.2
3350/0.2 860.8/0.2
0
1
 
 
 
0
 
860.8
319.2
860.8
Front
100
on
 
 
0
0
0
 
0
 
 
 
0
 
 
0
0
0
0
0
 
 
 
 
0
0


0
0
#HDR
-1
-1
#GR
nm
%R
1.0
0.0
2500.000000
-10.000000
226
8
47.513343
7.778469
#DATA
2500.000000	17.863617
2490.000000	19.161281
2480.000000	18.747857
2470.000000	18.489410
2460.000000	20.400690
2450.000000	19.586268
2440.000000	19.151278
2430.000000	20.548605
2420.000000	21.553950
2410.000000	22.117180
2400.000000	22.981644
2390.000000	21.686044
2380.000000	22.247936
2370.000000	22.555713
2360.000000	19.893913
2350.000000	20.894253
2340.000000	21.584599
2330.000000	21.012835
2320.000000	20.980824
2310.000000	20.462427
2300.000000	19.833914
2290.000000	19.721685
2280.000000	20.999330
2270.000000	21.207758
2260.000000	21.192642
2250.000000	22.708026
2240.000000	23.483100
2230.000000	24.461813
2220.000000	24.351626
2210.000000	24.371958
2200.000000	23.804560
2190.000000	23.918336
2180.000000	23.141509
2170.000000	22.883315
2160.000000	24.228840
2150.000000	23.989922
2140.000000	24.465117
2130.000000	25.277925
2120.000000	26.052071
2110.000000	26.710649
2100.000000	26.509719
2090.000000	26.373692
2080.000000	26.499545
2070.000000	25.525922
2060.000000	24.775375
2050.000000	24.544723
2040.000000	24.124623
2030.000000	24.002680
2020.000000	24.417110
2010.000000	24.688012
2000.000000	24.323071
1990.000000	23.594547
1980.000000	23.182563
1970.000000	22.262889
1960.000000	21.622822
1950.000000	20.983239
1940.000000	20.864098
1930.000000	21.445682
1920.000000	22.615360
1910.000000	24.436683
1900.000000	27.003530
1890.000000	30.085256
1880.000000	32.715098
1870.000000	34.353252
1860.000000	35.301274
1850.000000	35.762709
1840.000000	35.823778
1830.000000	35.586320
1820.000000	35.368097
1810.000000	35.095479
1800.000000	34.733627
1790.000000	34.525318
1780.000000	34.185103
1770.000000	33.818443
1760.000000	33.449841
1750.000000	33.248772
1740.000000	32.857586
1730.000000	32.472749
1720.000000	32.688873
1710.000000	33.409542
1700.000000	33.946691
1690.000000	34.601835
1680.000000	35.614335
1670.000000	36.787373
1660.000000	37.623694
1650.000000	37.894001
1640.000000	37.862305
1630.000000	37.598791
1620.000000	37.258072
1610.000000	36.842907
1600.000000	36.407656
1590.000000	36.037591
1580.000000	35.696791
1570.000000	35.390859
1560.000000	35.095954
1550.000000	34.854344
1540.000000	34.460935
1530.000000	33.938726
1520.000000	33.496521
1510.000000	33.261610
1500.000000	33.172489
1490.000000	33.174394
1480.000000	33.315250
1470.000000	33.577498
1460.000000	33.843640
1450.000000	34.225479
1440.000000	34.765995
1430.000000	35.374624
1420.000000	36.153804
1410.000000	37.403837
1400.000000	39.083559
1390.000000	40.816603
1380.000000	42.021152
1370.000000	42.550202
1360.000000	42.907544
1350.000000	43.167651
1340.000000	43.267651
1330.000000	43.463173
1320.000000	43.926937
1310.000000	44.449391
1300.000000	44.809591
1290.000000	44.940486
1280.000000	44.819073
1270.000000	44.727212
1260.000000	44.676306
1250.000000	44.621146
1240.000000	44.459606
1230.000000	44.186644
1220.000000	43.773713
1210.000000	43.462138
1200.000000	43.276167
1190.000000	43.300996
1180.000000	43.587040
1170.000000	44.132927
1160.000000	44.738429
1150.000000	45.285301
1140.000000	45.801714
1130.000000	46.087690
1120.000000	46.156496
1110.000000	46.179091
1100.000000	46.145318
1090.000000	46.146509
1080.000000	46.193639
1070.000000	46.180486
1060.000000	46.108847
1050.000000	46.071824
1040.000000	46.101860
1030.000000	46.113140
1020.000000	46.201364
1010.000000	46.447287
1000.000000	46.772622
990.000000	46.883605
980.000000	46.847060
970.000000	46.895309
960.000000	46.978350
950.000000	47.038572
940.000000	47.064643
930.000000	47.087030
920.000000	46.963552
910.000000	47.038528
900.000000	47.245478
890.000000	47.361858
880.000000	47.350004
870.000000	47.303667
860.000000	47.513343
850.000000	47.067672
840.000000	46.320811
830.000000	46.334514
820.000000	46.266200
810.000000	46.332770
800.000000	46.427549
790.000000	46.395100
780.000000	46.354851
770.000000	46.306927
760.000000	46.221244
750.000000	46.105848
740.000000	46.016921
730.000000	45.953820
720.000000	45.869638
710.000000	45.798853
700.000000	45.731609
690.000000	45.569950
680.000000	45.400889
670.000000	45.264182
660.000000	45.169624
650.000000	45.021811
640.000000	44.755612
630.000000	44.571657
620.000000	44.380704
610.000000	44.163795
600.000000	43.935784
590.000000	43.739233
580.000000	43.537891
570.000000	43.286302
560.000000	43.030412
550.000000	42.727167
540.000000	42.370502
530.000000	41.944335
520.000000	41.432870
510.000000	40.908555
500.000000	40.366678
490.000000	39.851878
480.000000	39.238737
470.000000	38.524442
460.000000	37.741581
450.000000	36.783394
440.000000	35.681188
430.000000	34.374869
420.000000	32.924281
410.000000	31.493372
400.000000	30.179216
390.000000	29.008523
380.000000	27.698167
370.000000	26.343098
360.000000	25.042373
350.000000	23.619430
340.000000	22.087175
330.000000	20.262005
320.000000	18.679527
310.000000	17.001555
300.000000	14.592546
290.000000	11.655519
280.000000	9.588464
270.000000	9.039583
260.000000	8.700231
250.000000	7.778469
