PE UV       SUBTECH     SPECTRUM    ASCII       PEDS        4.00        
   -1
3S-H10-C012.Sample.Cycle1.Raw.asc
22/03/25
16:31:38.00
22/03/25
16:31:38.00
Administrator

250.000000
1
Lambda 750
750N8071901
PerkinElmer UV WinLab 6.0.4.0738 / 1.61.00 Lambda 900

0
0
3350/servo 860.8/2
0
0
UV/VIS
1
1
1
CommonBeamDepol,150mm sphere / downward view
0
0
0
0
Program
Program
3350/servo 860.8/2
3350/0.2 860.8/0.2
3350/0.2 860.8/0.2
0
1
 
 
 
0
 
860.8
319.2
860.8
Front
100
on
 
 
0
0
0
 
0
 
 
 
0
 
 
0
0
0
0
0
 
 
 
 
0
0


0
0
#HDR
-1
-1
#GR
nm
%R
1.0
0.0
2500.000000
-10.000000
226
8
46.249451
7.604062
#DATA
2500.000000	17.063253
2490.000000	19.342967
2480.000000	17.003938
2470.000000	17.912192
2460.000000	18.072317
2450.000000	20.111430
2440.000000	19.216036
2430.000000	18.879911
2420.000000	19.458027
2410.000000	20.200041
2400.000000	20.355490
2390.000000	21.008652
2380.000000	20.925144
2370.000000	20.407885
2360.000000	20.710217
2350.000000	19.658265
2340.000000	19.565876
2330.000000	20.273523
2320.000000	20.309768
2310.000000	19.309232
2300.000000	18.667881
2290.000000	19.292873
2280.000000	19.502530
2270.000000	20.458777
2260.000000	20.138077
2250.000000	20.514558
2240.000000	22.354292
2230.000000	23.334970
2220.000000	23.482688
2210.000000	23.138788
2200.000000	22.849589
2190.000000	22.710818
2180.000000	22.379970
2170.000000	22.554425
2160.000000	22.845165
2150.000000	22.803961
2140.000000	23.665927
2130.000000	24.472115
2120.000000	24.434668
2110.000000	25.268561
2100.000000	25.195288
2090.000000	25.114175
2080.000000	25.102452
2070.000000	24.818906
2060.000000	23.574011
2050.000000	23.415676
2040.000000	22.861866
2030.000000	22.951384
2020.000000	23.604134
2010.000000	23.568904
2000.000000	23.260603
1990.000000	22.647251
1980.000000	22.005269
1970.000000	21.115619
1960.000000	20.678412
1950.000000	20.160138
1940.000000	19.969438
1930.000000	20.455128
1920.000000	21.757275
1910.000000	23.216258
1900.000000	25.936210
1890.000000	28.660102
1880.000000	31.413019
1870.000000	33.347056
1860.000000	34.122575
1850.000000	34.406403
1840.000000	34.439679
1830.000000	34.255413
1820.000000	34.058474
1810.000000	33.756764
1800.000000	33.523556
1790.000000	33.239093
1780.000000	32.965224
1770.000000	32.531757
1760.000000	32.063785
1750.000000	31.946319
1740.000000	31.595682
1730.000000	31.157142
1720.000000	31.443081
1710.000000	32.195288
1700.000000	32.760225
1690.000000	33.393049
1680.000000	34.359553
1670.000000	35.500994
1660.000000	36.279495
1650.000000	36.575265
1640.000000	36.545841
1630.000000	36.311423
1620.000000	35.988699
1610.000000	35.585302
1600.000000	35.182915
1590.000000	34.820906
1580.000000	34.448569
1570.000000	34.141443
1560.000000	33.868439
1550.000000	33.631518
1540.000000	33.296136
1530.000000	32.741689
1520.000000	32.301321
1510.000000	32.072871
1500.000000	31.990395
1490.000000	31.994929
1480.000000	32.149206
1470.000000	32.354678
1460.000000	32.626649
1450.000000	32.994862
1440.000000	33.519584
1430.000000	34.138768
1420.000000	34.881809
1410.000000	36.142883
1400.000000	37.843694
1390.000000	39.561933
1380.000000	40.731933
1370.000000	41.306504
1360.000000	41.649080
1350.000000	41.899094
1340.000000	42.030881
1330.000000	42.277701
1320.000000	42.761857
1310.000000	43.274972
1300.000000	43.622614
1290.000000	43.770257
1280.000000	43.716204
1270.000000	43.593568
1260.000000	43.460006
1250.000000	43.386528
1240.000000	43.252910
1230.000000	42.951541
1220.000000	42.537232
1210.000000	42.240223
1200.000000	42.098423
1190.000000	42.123491
1180.000000	42.444629
1170.000000	42.991648
1160.000000	43.621363
1150.000000	44.134731
1140.000000	44.511662
1130.000000	44.772927
1120.000000	44.892515
1110.000000	44.997159
1100.000000	45.025297
1090.000000	45.051679
1080.000000	45.030434
1070.000000	44.989991
1060.000000	44.924695
1050.000000	44.893090
1040.000000	44.864902
1030.000000	44.879660
1020.000000	44.977287
1010.000000	45.192799
1000.000000	45.466095
990.000000	45.590849
980.000000	45.620886
970.000000	45.682022
960.000000	45.741915
950.000000	45.781598
940.000000	45.771905
930.000000	45.759908
920.000000	45.730282
910.000000	45.774077
900.000000	45.997765
890.000000	46.055246
880.000000	46.052992
870.000000	46.150193
860.000000	46.249451
850.000000	45.690959
840.000000	45.296036
830.000000	45.372296
820.000000	45.223063
810.000000	45.231371
800.000000	45.298277
790.000000	45.227459
780.000000	45.046463
770.000000	44.986010
760.000000	44.963666
750.000000	44.849548
740.000000	44.815102
730.000000	44.611355
720.000000	44.545935
710.000000	44.486271
700.000000	44.354634
690.000000	44.133682
680.000000	43.960533
670.000000	43.868533
660.000000	43.700012
650.000000	43.519073
640.000000	43.267983
630.000000	43.027557
620.000000	42.795179
610.000000	42.490578
600.000000	42.279871
590.000000	42.079794
580.000000	41.771661
570.000000	41.425523
560.000000	41.097251
550.000000	40.759606
540.000000	40.309260
530.000000	39.822391
520.000000	39.283800
510.000000	38.708061
500.000000	38.102972
490.000000	37.508077
480.000000	36.838047
470.000000	36.146983
460.000000	35.332697
450.000000	34.313005
440.000000	33.256771
430.000000	31.941799
420.000000	30.492535
410.000000	29.145540
400.000000	27.960169
390.000000	26.866781
380.000000	25.623688
370.000000	24.365480
360.000000	23.150914
350.000000	21.750263
340.000000	20.152726
330.000000	18.741146
320.000000	17.444445
310.000000	15.927706
300.000000	13.579061
290.000000	10.929142
280.000000	9.089959
270.000000	8.542484
260.000000	8.279479
250.000000	7.604062
