PE UV       SUBTECH     SPECTRUM    ASCII       PEDS        4.00        
   -1
3S-N10-F006.Sample.Raw.asc
22/03/03
16:54:15.00
22/03/03
16:54:15.00
Administrator

250.000000
1
Lambda 750
750N8071901
PerkinElmer UV WinLab 6.0.4.0738 / 1.61.00 Lambda 900

0
0
3350/servo 860.8/2
0
0
UV/VIS
1
1
1
CommonBeamDepol,150mm sphere / downward view
0
0
0
0
Program
Program
3350/servo 860.8/2
3350/0.2 860.8/0.2
3350/0.2 860.8/0.2
0
1
 
 
 
0
 
860.8
319.2
860.8
Front
100
on
 
 
0
0
0
 
0
 
 
 
0
 
 
0
0
0
0
0
 
 
 
 
0
0


0
0
#HDR
-1
-1
#GR
nm
%R
1.0
0.0
2500.000000
-10.000000
226
8
69.372658
10.044796
#DATA
2500.000000	11.976563
2490.000000	15.791795
2480.000000	15.953258
2470.000000	19.021164
2460.000000	14.775017
2450.000000	12.616836
2440.000000	17.189244
2430.000000	17.861126
2420.000000	17.591909
2410.000000	10.044796
2400.000000	20.366237
2390.000000	16.926972
2380.000000	11.624116
2370.000000	17.153844
2360.000000	18.674467
2350.000000	16.170135
2340.000000	17.751195
2330.000000	18.451392
2320.000000	16.403889
2310.000000	21.248229
2300.000000	17.334382
2290.000000	18.458252
2280.000000	17.101807
2270.000000	17.143672
2260.000000	19.016892
2250.000000	18.043478
2240.000000	21.686704
2230.000000	20.617675
2220.000000	22.387522
2210.000000	21.601459
2200.000000	21.183912
2190.000000	18.949398
2180.000000	18.078670
2170.000000	20.158808
2160.000000	20.419098
2150.000000	20.578931
2140.000000	22.442399
2130.000000	23.721617
2120.000000	24.196829
2110.000000	23.156372
2100.000000	24.718115
2090.000000	23.847030
2080.000000	21.774756
2070.000000	23.132969
2060.000000	21.151346
2050.000000	21.534323
2040.000000	20.434492
2030.000000	20.358223
2020.000000	21.292383
2010.000000	21.832378
2000.000000	21.142419
1990.000000	19.825835
1980.000000	18.761371
1970.000000	17.691835
1960.000000	16.894033
1950.000000	15.945091
1940.000000	15.737894
1930.000000	16.299088
1920.000000	18.659272
1910.000000	21.062882
1900.000000	25.900154
1890.000000	31.730256
1880.000000	37.195569
1870.000000	41.998966
1860.000000	44.219978
1850.000000	44.796377
1840.000000	44.919666
1830.000000	44.757339
1820.000000	44.112629
1810.000000	44.075542
1800.000000	43.196999
1790.000000	42.281054
1780.000000	41.621151
1770.000000	41.193504
1760.000000	40.330411
1750.000000	39.796665
1740.000000	38.639097
1730.000000	38.698157
1720.000000	39.288550
1710.000000	40.567956
1700.000000	41.787367
1690.000000	42.315970
1680.000000	44.509307
1670.000000	46.917138
1660.000000	48.412780
1650.000000	49.056136
1640.000000	49.224866
1630.000000	48.729389
1620.000000	48.056114
1610.000000	46.703722
1600.000000	45.689379
1590.000000	44.626951
1580.000000	43.671361
1570.000000	43.153981
1560.000000	42.621718
1550.000000	42.027173
1540.000000	41.401060
1530.000000	39.988898
1520.000000	39.014620
1510.000000	38.408716
1500.000000	37.925587
1490.000000	37.871239
1480.000000	38.153134
1470.000000	38.828694
1460.000000	39.470380
1450.000000	40.384559
1440.000000	41.504579
1430.000000	42.731319
1420.000000	44.658517
1410.000000	47.479336
1400.000000	51.672050
1390.000000	56.040899
1380.000000	58.994876
1370.000000	60.066978
1360.000000	60.931388
1350.000000	61.811339
1340.000000	62.582798
1330.000000	63.571919
1320.000000	65.028409
1310.000000	66.126780
1300.000000	66.461820
1290.000000	66.388041
1280.000000	66.226805
1270.000000	66.125309
1260.000000	66.103629
1250.000000	65.715829
1240.000000	65.345020
1230.000000	64.969932
1220.000000	64.580404
1210.000000	64.204571
1200.000000	63.481471
1190.000000	63.004296
1180.000000	63.390295
1170.000000	64.435722
1160.000000	65.861264
1150.000000	67.272048
1140.000000	68.363774
1130.000000	68.757196
1120.000000	68.953704
1110.000000	68.909607
1100.000000	69.022710
1090.000000	69.042795
1080.000000	69.103251
1070.000000	69.086134
1060.000000	68.980088
1050.000000	68.670333
1040.000000	68.486011
1030.000000	68.331724
1020.000000	68.535015
1010.000000	68.873908
1000.000000	69.128536
990.000000	69.122761
980.000000	68.977885
970.000000	69.107951
960.000000	69.273413
950.000000	69.372658
940.000000	69.231187
930.000000	68.909791
920.000000	68.716164
910.000000	68.832038
900.000000	68.905970
890.000000	68.824964
880.000000	69.027997
870.000000	68.899236
860.000000	68.375910
850.000000	68.230190
840.000000	68.716790
830.000000	68.724447
820.000000	68.326521
810.000000	68.287072
800.000000	68.426644
790.000000	68.535128
780.000000	68.423844
770.000000	68.225200
760.000000	68.112002
750.000000	67.979728
740.000000	67.740334
730.000000	67.544660
720.000000	67.568168
710.000000	67.351637
700.000000	67.094951
690.000000	66.946389
680.000000	66.582808
670.000000	66.218675
660.000000	65.984403
650.000000	65.474762
640.000000	64.978257
630.000000	64.438135
620.000000	63.940909
610.000000	63.323649
600.000000	62.740725
590.000000	62.269009
580.000000	61.591249
570.000000	60.906506
560.000000	60.210673
550.000000	59.447601
540.000000	58.807060
530.000000	57.928443
520.000000	57.007562
510.000000	56.018132
500.000000	55.018479
490.000000	53.983687
480.000000	52.406099
470.000000	50.255855
460.000000	48.008468
450.000000	45.492060
440.000000	42.410508
430.000000	38.916847
420.000000	35.272945
410.000000	32.464971
400.000000	30.993992
390.000000	29.926709
380.000000	28.558362
370.000000	26.858011
360.000000	25.077419
350.000000	23.223811
340.000000	21.531083
330.000000	19.685599
320.000000	18.130297
310.000000	16.718967
300.000000	13.995917
290.000000	12.052251
280.000000	11.186862
270.000000	10.990630
260.000000	11.035208
250.000000	11.044750
