PE UV       SUBTECH     SPECTRUM    ASCII       PEDS        4.00        
   -1
3S-H10-C020.Sample.Cycle1.Raw.asc
22/03/25
16:51:41.00
22/03/25
16:51:41.00
Administrator

250.000000
1
Lambda 750
750N8071901
PerkinElmer UV WinLab 6.0.4.0738 / 1.61.00 Lambda 900

0
0
3350/servo 860.8/2
0
0
UV/VIS
1
1
1
CommonBeamDepol,150mm sphere / downward view
0
0
0
0
Program
Program
3350/servo 860.8/2
3350/0.2 860.8/0.2
3350/0.2 860.8/0.2
0
1
 
 
 
0
 
860.8
319.2
860.8
Front
100
on
 
 
0
0
0
 
0
 
 
 
0
 
 
0
0
0
0
0
 
 
 
 
0
0


0
0
#HDR
-1
-1
#GR
nm
%R
1.0
0.0
2500.000000
-10.000000
226
8
45.772295
8.196377
#DATA
2500.000000	13.912052
2490.000000	16.650384
2480.000000	17.691330
2470.000000	16.142797
2460.000000	16.100205
2450.000000	17.314566
2440.000000	16.444933
2430.000000	18.434082
2420.000000	17.988866
2410.000000	20.262669
2400.000000	19.161555
2390.000000	18.092950
2380.000000	18.831774
2370.000000	18.998877
2360.000000	19.128771
2350.000000	18.408450
2340.000000	18.718737
2330.000000	18.604426
2320.000000	18.275055
2310.000000	16.764298
2300.000000	16.574306
2290.000000	17.450450
2280.000000	17.499708
2270.000000	18.482355
2260.000000	18.370708
2250.000000	18.939131
2240.000000	20.673113
2230.000000	21.210439
2220.000000	21.416204
2210.000000	21.371518
2200.000000	20.602760
2190.000000	20.716136
2180.000000	20.155982
2170.000000	20.635212
2160.000000	21.206836
2150.000000	21.043654
2140.000000	22.224164
2130.000000	22.736668
2120.000000	22.440799
2110.000000	23.457259
2100.000000	23.478723
2090.000000	23.374018
2080.000000	23.521470
2070.000000	22.680723
2060.000000	22.226145
2050.000000	21.732887
2040.000000	21.001022
2030.000000	21.201442
2020.000000	21.478808
2010.000000	21.597811
2000.000000	21.520111
1990.000000	20.749883
1980.000000	20.196115
1970.000000	19.377402
1960.000000	18.814709
1950.000000	18.364303
1940.000000	18.106518
1930.000000	18.583772
1920.000000	19.841620
1910.000000	21.508402
1900.000000	24.034987
1890.000000	27.003331
1880.000000	29.638381
1870.000000	31.563042
1860.000000	32.483416
1850.000000	32.656102
1840.000000	32.722413
1830.000000	32.415461
1820.000000	32.281572
1810.000000	32.062119
1800.000000	31.763808
1790.000000	31.490994
1780.000000	31.166434
1770.000000	30.792578
1760.000000	30.390471
1750.000000	30.138809
1740.000000	29.666406
1730.000000	29.423185
1720.000000	29.578090
1710.000000	30.342268
1700.000000	31.043901
1690.000000	31.622580
1680.000000	32.671196
1670.000000	33.875364
1660.000000	34.786737
1650.000000	35.104296
1640.000000	35.052986
1630.000000	34.851222
1620.000000	34.488699
1610.000000	33.992244
1600.000000	33.579021
1590.000000	33.194422
1580.000000	32.805319
1570.000000	32.489901
1560.000000	32.252948
1550.000000	32.002392
1540.000000	31.580755
1530.000000	31.014682
1520.000000	30.526160
1510.000000	30.300498
1500.000000	30.254658
1490.000000	30.269143
1480.000000	30.380171
1470.000000	30.621696
1460.000000	30.895203
1450.000000	31.294671
1440.000000	31.826725
1430.000000	32.511815
1420.000000	33.331024
1410.000000	34.666774
1400.000000	36.442349
1390.000000	38.217299
1380.000000	39.470691
1370.000000	40.137179
1360.000000	40.523664
1350.000000	40.838712
1340.000000	41.032102
1330.000000	41.271013
1320.000000	41.714132
1310.000000	42.250855
1300.000000	42.628369
1290.000000	42.782934
1280.000000	42.699623
1270.000000	42.571200
1260.000000	42.511855
1250.000000	42.440139
1240.000000	42.252728
1230.000000	41.925385
1220.000000	41.432398
1210.000000	41.074866
1200.000000	40.910399
1190.000000	41.010310
1180.000000	41.365814
1170.000000	41.933045
1160.000000	42.621511
1150.000000	43.246285
1140.000000	43.725101
1130.000000	44.050114
1120.000000	44.169301
1110.000000	44.200227
1100.000000	44.218655
1090.000000	44.250898
1080.000000	44.316628
1070.000000	44.268083
1060.000000	44.167935
1050.000000	44.118340
1040.000000	44.111125
1030.000000	44.175581
1020.000000	44.372730
1010.000000	44.642901
1000.000000	44.901610
990.000000	45.010152
980.000000	45.051828
970.000000	45.131631
960.000000	45.240486
950.000000	45.319124
940.000000	45.332130
930.000000	45.326567
920.000000	45.257176
910.000000	45.335499
900.000000	45.462513
890.000000	45.622820
880.000000	45.772295
870.000000	45.756121
860.000000	45.726042
850.000000	45.278232
840.000000	44.660313
830.000000	44.742528
820.000000	44.714166
810.000000	44.687280
800.000000	44.745602
790.000000	44.660172
780.000000	44.603466
770.000000	44.556794
760.000000	44.521634
750.000000	44.525887
740.000000	44.525268
730.000000	44.474506
720.000000	44.382577
710.000000	44.210848
700.000000	44.159222
690.000000	44.067337
680.000000	44.015866
670.000000	43.892476
660.000000	43.765337
650.000000	43.645009
640.000000	43.406427
630.000000	43.208466
620.000000	43.000270
610.000000	42.732913
600.000000	42.576934
590.000000	42.409263
580.000000	42.167880
570.000000	41.879806
560.000000	41.681350
550.000000	41.386997
540.000000	40.983899
530.000000	40.577919
520.000000	40.079103
510.000000	39.589201
500.000000	39.051336
490.000000	38.435916
480.000000	37.731589
470.000000	37.052621
460.000000	36.256603
450.000000	35.241192
440.000000	34.091879
430.000000	32.742195
420.000000	31.172362
410.000000	29.700092
400.000000	28.452967
390.000000	27.243055
380.000000	25.932325
370.000000	24.688423
360.000000	23.460840
350.000000	22.155001
340.000000	20.514915
330.000000	18.899175
320.000000	17.628797
310.000000	15.939769
300.000000	13.747605
290.000000	11.150438
280.000000	9.461961
270.000000	9.036844
260.000000	8.903560
250.000000	8.196377
