PE UV       SUBTECH     SPECTRUM    ASCII       PEDS        4.00        
   -1
3S-H10-F004.Sample.Raw.asc
22/03/03
15:29:21.00
22/03/03
15:29:21.00
Administrator

250.000000
1
Lambda 750
750N8071901
PerkinElmer UV WinLab 6.0.4.0738 / 1.61.00 Lambda 900

0
0
3350/servo 860.8/2
0
0
UV/VIS
1
1
1
CommonBeamDepol,150mm sphere / downward view
0
0
0
0
Program
Program
3350/servo 860.8/2
3350/0.2 860.8/0.2
3350/0.2 860.8/0.2
0
1
 
 
 
0
 
860.8
319.2
860.8
Front
100
on
 
 
0
0
0
 
0
 
 
 
0
 
 
0
0
0
0
0
 
 
 
 
0
0


0
0
#HDR
-1
-1
#GR
nm
%R
1.0
0.0
2500.000000
-10.000000
226
8
58.314237
5.044231
#DATA
2500.000000	13.810340
2490.000000	8.656087
2480.000000	6.632979
2470.000000	13.823109
2460.000000	14.049033
2450.000000	6.429334
2440.000000	6.587617
2430.000000	8.170453
2420.000000	14.400364
2410.000000	5.044231
2400.000000	18.137032
2390.000000	11.245505
2380.000000	8.539517
2370.000000	12.388023
2360.000000	14.875819
2350.000000	9.948497
2340.000000	11.453112
2330.000000	14.890351
2320.000000	11.088034
2310.000000	11.968283
2300.000000	12.330597
2290.000000	13.396928
2280.000000	12.331861
2270.000000	12.061477
2260.000000	15.152428
2250.000000	11.449519
2240.000000	14.494864
2230.000000	14.809426
2220.000000	14.995137
2210.000000	15.351775
2200.000000	15.041110
2190.000000	12.925010
2180.000000	13.137505
2170.000000	14.712845
2160.000000	14.295101
2150.000000	14.182953
2140.000000	15.577857
2130.000000	16.742260
2120.000000	17.575197
2110.000000	17.883337
2100.000000	18.983257
2090.000000	16.655330
2080.000000	18.093999
2070.000000	16.276089
2060.000000	16.032426
2050.000000	15.610797
2040.000000	14.240548
2030.000000	15.456192
2020.000000	15.052272
2010.000000	16.127123
2000.000000	15.338519
1990.000000	14.435602
1980.000000	13.783086
1970.000000	12.994408
1960.000000	12.224960
1950.000000	12.035305
1940.000000	11.824436
1930.000000	12.389819
1920.000000	13.724099
1910.000000	14.988336
1900.000000	19.834657
1890.000000	24.312575
1880.000000	28.661972
1870.000000	32.655023
1860.000000	34.351451
1850.000000	34.501263
1840.000000	34.339770
1830.000000	33.878220
1820.000000	33.876259
1810.000000	33.628990
1800.000000	32.510240
1790.000000	31.853191
1780.000000	31.168822
1770.000000	30.441586
1760.000000	29.533293
1750.000000	28.799900
1740.000000	28.255942
1730.000000	27.226519
1720.000000	27.680685
1710.000000	29.597911
1700.000000	30.869848
1690.000000	32.454175
1680.000000	34.705672
1670.000000	36.912117
1660.000000	38.254862
1650.000000	39.281831
1640.000000	39.348376
1630.000000	38.734647
1620.000000	38.074745
1610.000000	37.288284
1600.000000	36.499359
1590.000000	35.526325
1580.000000	34.675099
1570.000000	34.125109
1560.000000	33.619186
1550.000000	33.094214
1540.000000	32.714782
1530.000000	31.460124
1520.000000	30.589181
1510.000000	30.001314
1500.000000	29.493554
1490.000000	29.364485
1480.000000	29.792439
1470.000000	30.150351
1460.000000	30.710052
1450.000000	31.372864
1440.000000	32.327373
1430.000000	33.328727
1420.000000	34.711804
1410.000000	37.110672
1400.000000	40.905304
1390.000000	45.066053
1380.000000	47.879647
1370.000000	49.082316
1360.000000	49.850781
1350.000000	50.598772
1340.000000	50.957638
1330.000000	51.634508
1320.000000	52.943227
1310.000000	54.181705
1300.000000	54.943079
1290.000000	55.331416
1280.000000	55.332610
1270.000000	55.005456
1260.000000	54.739370
1250.000000	54.110476
1240.000000	53.127979
1230.000000	52.561356
1220.000000	52.012494
1210.000000	51.442600
1200.000000	51.047963
1190.000000	51.008222
1180.000000	51.656584
1170.000000	52.683723
1160.000000	54.103748
1150.000000	55.420620
1140.000000	56.582249
1130.000000	57.413534
1120.000000	57.499364
1110.000000	57.403307
1100.000000	57.532366
1090.000000	57.449672
1080.000000	57.420486
1070.000000	57.420307
1060.000000	57.363160
1050.000000	57.254877
1040.000000	57.217722
1030.000000	57.042524
1020.000000	57.218425
1010.000000	57.666244
1000.000000	58.009376
990.000000	58.137662
980.000000	57.975121
970.000000	58.165527
960.000000	58.314237
950.000000	58.290284
940.000000	57.920799
930.000000	57.599306
920.000000	57.436595
910.000000	57.324786
900.000000	57.721999
890.000000	58.152110
880.000000	57.893506
870.000000	57.446077
860.000000	56.868740
850.000000	57.206583
840.000000	57.346750
830.000000	57.421811
820.000000	57.141088
810.000000	56.947712
800.000000	57.198594
790.000000	57.097669
780.000000	56.991920
770.000000	56.861533
760.000000	56.699252
750.000000	56.514317
740.000000	56.442002
730.000000	56.255117
720.000000	56.089346
710.000000	55.957822
700.000000	55.754445
690.000000	55.454934
680.000000	55.123185
670.000000	54.738956
660.000000	54.486211
650.000000	53.976238
640.000000	53.470420
630.000000	52.996479
620.000000	52.495823
610.000000	51.860146
600.000000	51.310177
590.000000	50.858925
580.000000	50.202464
570.000000	49.450996
560.000000	48.829667
550.000000	48.015957
540.000000	47.246090
530.000000	46.382731
520.000000	45.464664
510.000000	44.378168
500.000000	43.341251
490.000000	42.285905
480.000000	40.723590
470.000000	38.792472
460.000000	36.784565
450.000000	34.565313
440.000000	31.845431
430.000000	28.767322
420.000000	25.661306
410.000000	23.222314
400.000000	21.731869
390.000000	20.424816
380.000000	18.881524
370.000000	17.462700
360.000000	16.318308
350.000000	14.978145
340.000000	13.694231
330.000000	12.603881
320.000000	11.852033
310.000000	11.055202
300.000000	9.762184
290.000000	8.988264
280.000000	8.712897
270.000000	8.570174
260.000000	8.563083
250.000000	8.711894
