PE UV       SUBTECH     SPECTRUM    ASCII       PEDS        4.00        
   -1
3S-N10-F015.Sample.Raw.asc
22/03/30
16:28:21.00
22/03/30
16:28:21.00
Administrator

250.000000
1
Lambda 750
750N8071901
PerkinElmer UV WinLab 6.0.4.0738 / 1.61.00 Lambda 900

0
0
3350/servo 860.8/2
0
0
UV/VIS
1
1
1
CommonBeamDepol,150mm sphere / downward view
0
0
0
0
Program
Program
3350/servo 860.8/2
3350/0.2 860.8/0.2
3350/0.2 860.8/0.2
0
1
 
 
 
0
 
860.8
319.2
860.8
Front
100
on
 
 
0
0
0
 
0
 
 
 
0
 
 
0
0
0
0
0
 
 
 
 
0
0


0
0
#HDR
-1
-1
#GR
nm
%R
1.0
0.0
2500.000000
-10.000000
226
8
62.971997
8.383726
#DATA
2500.000000	8.383726
2490.000000	11.316741
2480.000000	10.028314
2470.000000	11.338917
2460.000000	10.655871
2450.000000	13.176662
2440.000000	13.700502
2430.000000	12.968710
2420.000000	12.343999
2410.000000	13.952263
2400.000000	12.392122
2390.000000	14.523281
2380.000000	13.234116
2370.000000	15.165900
2360.000000	14.156719
2350.000000	15.223046
2340.000000	14.133592
2330.000000	14.219148
2320.000000	14.024494
2310.000000	13.665129
2300.000000	13.660646
2290.000000	13.955612
2280.000000	13.678329
2270.000000	12.309154
2260.000000	13.758213
2250.000000	14.833257
2240.000000	15.831736
2230.000000	17.309891
2220.000000	17.931020
2210.000000	17.426514
2200.000000	17.109298
2190.000000	16.355901
2180.000000	15.542992
2170.000000	15.129333
2160.000000	16.163755
2150.000000	17.109918
2140.000000	18.558155
2130.000000	18.827248
2120.000000	19.631862
2110.000000	19.708134
2100.000000	20.003769
2090.000000	19.865566
2080.000000	19.686642
2070.000000	18.859698
2060.000000	17.601603
2050.000000	16.805541
2040.000000	16.272694
2030.000000	16.493182
2020.000000	17.136232
2010.000000	17.398760
2000.000000	16.976288
1990.000000	16.288025
1980.000000	15.085098
1970.000000	14.257718
1960.000000	13.429062
1950.000000	12.803346
1940.000000	12.648950
1930.000000	13.517380
1920.000000	14.922054
1910.000000	17.510294
1900.000000	22.032135
1890.000000	27.071617
1880.000000	32.335416
1870.000000	36.390108
1860.000000	38.596857
1850.000000	39.136422
1840.000000	39.322635
1830.000000	38.816968
1820.000000	38.355012
1810.000000	37.862768
1800.000000	37.390238
1790.000000	36.850355
1780.000000	36.260789
1770.000000	35.633914
1760.000000	34.921091
1750.000000	34.237212
1740.000000	33.597249
1730.000000	33.233946
1720.000000	33.936671
1710.000000	35.090969
1700.000000	35.966906
1690.000000	36.629302
1680.000000	38.414422
1670.000000	40.802261
1660.000000	42.548005
1650.000000	43.138146
1640.000000	42.992430
1630.000000	42.455022
1620.000000	41.746322
1610.000000	40.770444
1600.000000	39.757513
1590.000000	38.815281
1580.000000	38.134910
1570.000000	37.438606
1560.000000	36.865742
1550.000000	36.491443
1540.000000	35.596556
1530.000000	34.419790
1520.000000	33.629954
1510.000000	33.095577
1500.000000	32.799384
1490.000000	32.827585
1480.000000	33.141069
1470.000000	33.569198
1460.000000	34.159247
1450.000000	34.945329
1440.000000	36.136055
1430.000000	37.865835
1420.000000	40.277214
1410.000000	43.408358
1400.000000	46.750560
1390.000000	49.746526
1380.000000	51.913652
1370.000000	53.156307
1360.000000	54.150161
1350.000000	55.144700
1340.000000	55.947478
1330.000000	56.510923
1320.000000	57.244849
1310.000000	58.262773
1300.000000	59.010625
1290.000000	59.320181
1280.000000	59.214285
1270.000000	59.079297
1260.000000	58.914389
1250.000000	58.699238
1240.000000	58.415514
1230.000000	58.004446
1220.000000	57.594576
1210.000000	57.006095
1200.000000	56.483493
1190.000000	56.231023
1180.000000	56.635914
1170.000000	57.635936
1160.000000	58.945887
1150.000000	60.113055
1140.000000	61.008477
1130.000000	61.642354
1120.000000	61.873082
1110.000000	61.946905
1100.000000	61.955873
1090.000000	62.030092
1080.000000	61.979571
1070.000000	61.840283
1060.000000	61.681363
1050.000000	61.543139
1040.000000	61.436336
1030.000000	61.347548
1020.000000	61.299121
1010.000000	61.505666
1000.000000	61.787644
990.000000	61.908397
980.000000	61.927723
970.000000	62.028077
960.000000	62.209244
950.000000	62.348866
940.000000	62.415860
930.000000	62.420445
920.000000	62.353002
910.000000	62.490543
900.000000	62.661071
890.000000	62.747228
880.000000	62.971997
870.000000	62.922091
860.000000	62.767679
850.000000	62.917866
840.000000	62.580050
830.000000	62.465805
820.000000	62.688336
810.000000	62.554991
800.000000	62.447459
790.000000	62.390539
780.000000	62.419297
770.000000	62.326373
760.000000	62.241857
750.000000	62.129373
740.000000	62.024199
730.000000	61.836217
720.000000	61.701402
710.000000	61.576912
700.000000	61.331093
690.000000	61.102227
680.000000	60.774843
670.000000	60.385372
660.000000	60.049179
650.000000	59.614813
640.000000	59.086063
630.000000	58.502695
620.000000	57.955001
610.000000	57.405178
600.000000	56.883354
590.000000	56.366739
580.000000	55.754307
570.000000	55.189920
560.000000	54.661161
550.000000	54.106475
540.000000	53.388225
530.000000	52.677229
520.000000	51.955026
510.000000	51.097446
500.000000	49.973329
490.000000	48.531098
480.000000	46.924193
470.000000	45.063128
460.000000	42.860061
450.000000	40.244145
440.000000	37.247309
430.000000	33.881762
420.000000	30.450447
410.000000	27.865999
400.000000	26.550187
390.000000	25.622308
380.000000	24.418548
370.000000	22.826142
360.000000	21.136015
350.000000	19.705946
340.000000	18.259365
330.000000	16.751239
320.000000	15.452151
310.000000	14.133795
300.000000	12.235768
290.000000	10.654038
280.000000	9.923321
270.000000	9.713410
260.000000	9.833573
250.000000	9.964454
