PE UV       SUBTECH     SPECTRUM    ASCII       PEDS        4.00        
   -1
3S-H10-C002.Sample.Cycle1.Raw.asc
22/03/02
16:27:08.00
22/03/02
16:27:08.00
Administrator

250.000000
1
Lambda 750
750N8071901
PerkinElmer UV WinLab 6.0.4.0738 / 1.61.00 Lambda 900

0
0
3350/servo 860.8/2
0
0
UV/VIS
1
1
1
CommonBeamDepol,150mm sphere / downward view
0
0
0
0
Program
Program
3350/servo 860.8/2
3350/0.2 860.8/0.2
3350/0.2 860.8/0.2
0
1
 
 
 
0
 
860.8
319.2
860.8
Front
100
on
 
 
0
0
0
 
0
 
 
 
0
 
 
0
0
0
0
0
 
 
 
 
0
0


0
0
#HDR
-1
-1
#GR
nm
%R
1.0
0.0
2500.000000
-10.000000
226
8
49.880309
5.688191
#DATA
2500.000000	13.418804
2490.000000	20.033148
2480.000000	16.460093
2470.000000	5.688191
2460.000000	18.227411
2450.000000	20.205346
2440.000000	24.608045
2430.000000	18.557919
2420.000000	22.833979
2410.000000	21.591832
2400.000000	17.826330
2390.000000	15.993440
2380.000000	20.776108
2370.000000	20.233868
2360.000000	23.918728
2350.000000	24.989210
2340.000000	24.003400
2330.000000	23.549523
2320.000000	21.706685
2310.000000	21.390440
2300.000000	20.207080
2290.000000	19.375934
2280.000000	18.655936
2270.000000	20.461416
2260.000000	21.703401
2250.000000	24.492911
2240.000000	24.461360
2230.000000	24.876238
2220.000000	26.016292
2210.000000	23.977108
2200.000000	22.716587
2190.000000	25.390033
2180.000000	23.618058
2170.000000	23.560084
2160.000000	24.541046
2150.000000	25.032982
2140.000000	24.983630
2130.000000	25.806079
2120.000000	26.107298
2110.000000	26.025471
2100.000000	27.992155
2090.000000	25.814572
2080.000000	26.003188
2070.000000	25.132537
2060.000000	24.688050
2050.000000	24.445985
2040.000000	24.146660
2030.000000	23.335850
2020.000000	24.572196
2010.000000	24.749839
2000.000000	23.472266
1990.000000	23.347769
1980.000000	22.805554
1970.000000	22.511758
1960.000000	21.031037
1950.000000	20.900579
1940.000000	20.327858
1930.000000	20.905679
1920.000000	21.953222
1910.000000	23.740592
1900.000000	26.725819
1890.000000	30.078828
1880.000000	32.945903
1870.000000	34.942630
1860.000000	36.586520
1850.000000	36.370567
1840.000000	36.584029
1830.000000	36.063566
1820.000000	36.037251
1810.000000	36.082644
1800.000000	35.807652
1790.000000	35.249090
1780.000000	34.690915
1770.000000	34.303237
1760.000000	33.991907
1750.000000	33.729036
1740.000000	33.509415
1730.000000	32.411921
1720.000000	32.834895
1710.000000	33.846296
1700.000000	34.797920
1690.000000	35.428598
1680.000000	36.487546
1670.000000	37.700060
1660.000000	38.525081
1650.000000	38.928872
1640.000000	38.774744
1630.000000	38.584549
1620.000000	38.421160
1610.000000	37.732599
1600.000000	37.036988
1590.000000	36.601441
1580.000000	36.305043
1570.000000	36.149355
1560.000000	35.954731
1550.000000	35.501262
1540.000000	35.091684
1530.000000	34.433544
1520.000000	34.070689
1510.000000	33.778606
1500.000000	33.603852
1490.000000	33.466206
1480.000000	33.616450
1470.000000	33.887318
1460.000000	34.241559
1450.000000	34.784035
1440.000000	35.085170
1430.000000	35.387970
1420.000000	35.724737
1410.000000	37.107952
1400.000000	39.801015
1390.000000	42.522724
1380.000000	44.022583
1370.000000	44.413452
1360.000000	44.450632
1350.000000	44.484365
1340.000000	44.624661
1330.000000	45.247923
1320.000000	46.368926
1310.000000	47.460969
1300.000000	47.891292
1290.000000	48.054093
1280.000000	47.923291
1270.000000	47.436900
1260.000000	47.251374
1250.000000	47.218468
1240.000000	47.072654
1230.000000	46.767590
1220.000000	46.217414
1210.000000	45.891394
1200.000000	45.637977
1190.000000	45.710467
1180.000000	46.167573
1170.000000	46.831332
1160.000000	47.439451
1150.000000	47.886419
1140.000000	48.233783
1130.000000	48.867536
1120.000000	48.987124
1110.000000	49.073356
1100.000000	49.066775
1090.000000	48.950645
1080.000000	48.693901
1070.000000	48.698356
1060.000000	48.781931
1050.000000	48.733265
1040.000000	48.855465
1030.000000	48.732004
1020.000000	48.641821
1010.000000	48.964024
1000.000000	49.631964
990.000000	49.865569
980.000000	49.724466
970.000000	49.645868
960.000000	49.618752
950.000000	49.741963
940.000000	49.575203
930.000000	49.524877
920.000000	49.431836
910.000000	49.201825
900.000000	49.179042
890.000000	49.453853
880.000000	49.806459
870.000000	48.744980
860.000000	48.310341
850.000000	49.364285
840.000000	49.880309
830.000000	49.634984
820.000000	49.655052
810.000000	49.755472
800.000000	49.861456
790.000000	49.704362
780.000000	49.533126
770.000000	49.572503
760.000000	49.712497
750.000000	49.654102
740.000000	49.554916
730.000000	49.463349
720.000000	49.290528
710.000000	49.240108
700.000000	49.115094
690.000000	48.924135
680.000000	48.895014
670.000000	48.654647
660.000000	48.506790
650.000000	48.262319
640.000000	48.053540
630.000000	47.899007
620.000000	47.640091
610.000000	47.293189
600.000000	46.997594
590.000000	46.731101
580.000000	46.421624
570.000000	46.057461
560.000000	45.788384
550.000000	45.461201
540.000000	45.050238
530.000000	44.606633
520.000000	44.185192
510.000000	43.596131
500.000000	42.994017
490.000000	42.416239
480.000000	41.679824
470.000000	40.901076
460.000000	39.946462
450.000000	38.855029
440.000000	37.604130
430.000000	36.129977
420.000000	34.519659
410.000000	32.837259
400.000000	31.373696
390.000000	30.218310
380.000000	28.930679
370.000000	27.373430
360.000000	25.940086
350.000000	24.488482
340.000000	22.843694
330.000000	20.934393
320.000000	19.489171
310.000000	18.310713
300.000000	15.336604
290.000000	12.357757
280.000000	10.364066
270.000000	9.901104
260.000000	9.677023
250.000000	8.846388
