PE UV       SUBTECH     SPECTRUM    ASCII       PEDS        4.00        
   -1
3S-H10-F030.Sample.Raw.asc
22/03/29
15:44:42.00
22/03/29
15:44:42.00
Administrator

250.000000
1
Lambda 750
750N8071901
PerkinElmer UV WinLab 6.0.4.0738 / 1.61.00 Lambda 900

0
0
3350/servo 860.8/2
0
0
UV/VIS
1
1
1
CommonBeamDepol,150mm sphere / downward view
0
0
0
0
Program
Program
3350/servo 860.8/2
3350/0.2 860.8/0.2
3350/0.2 860.8/0.2
0
1
 
 
 
0
 
860.8
319.2
860.8
Front
100
on
 
 
0
0
0
 
0
 
 
 
0
 
 
0
0
0
0
0
 
 
 
 
0
0


0
0
#HDR
-1
-1
#GR
nm
%R
1.0
0.0
2500.000000
-10.000000
226
8
43.557284
4.223382
#DATA
2500.000000	7.566534
2490.000000	7.586111
2480.000000	4.844345
2470.000000	4.223382
2460.000000	5.800554
2450.000000	5.449079
2440.000000	7.627117
2430.000000	6.207210
2420.000000	7.819854
2410.000000	7.563068
2400.000000	8.590115
2390.000000	7.517708
2380.000000	7.030445
2370.000000	6.441114
2360.000000	8.486179
2350.000000	8.017251
2340.000000	6.193566
2330.000000	8.435526
2320.000000	7.976326
2310.000000	6.966344
2300.000000	7.473597
2290.000000	6.502653
2280.000000	6.989064
2270.000000	7.995444
2260.000000	7.869424
2250.000000	8.817718
2240.000000	9.893082
2230.000000	9.600181
2220.000000	9.864970
2210.000000	10.645535
2200.000000	10.226805
2190.000000	9.458690
2180.000000	9.988455
2170.000000	8.974786
2160.000000	8.930142
2150.000000	10.939069
2140.000000	11.158168
2130.000000	11.054518
2120.000000	12.320512
2110.000000	12.038174
2100.000000	11.532128
2090.000000	11.756045
2080.000000	12.179251
2070.000000	11.778172
2060.000000	11.304109
2050.000000	9.781356
2040.000000	9.554848
2030.000000	10.095319
2020.000000	10.583698
2010.000000	10.502219
2000.000000	10.148001
1990.000000	9.484505
1980.000000	8.888025
1970.000000	8.661912
1960.000000	8.074034
1950.000000	7.633155
1940.000000	7.825934
1930.000000	7.669187
1920.000000	8.495250
1910.000000	10.319328
1900.000000	13.124195
1890.000000	16.676648
1880.000000	20.159109
1870.000000	22.653026
1860.000000	23.798192
1850.000000	24.469188
1840.000000	24.425781
1830.000000	24.016721
1820.000000	23.671471
1810.000000	23.255192
1800.000000	22.743626
1790.000000	22.468559
1780.000000	22.104611
1770.000000	21.416932
1760.000000	20.831582
1750.000000	20.415200
1740.000000	19.869851
1730.000000	19.391963
1720.000000	19.668505
1710.000000	20.725179
1700.000000	21.789356
1690.000000	22.768667
1680.000000	24.245000
1670.000000	26.149281
1660.000000	27.377057
1650.000000	27.852439
1640.000000	27.720600
1630.000000	27.417247
1620.000000	26.892564
1610.000000	26.327483
1600.000000	25.776581
1590.000000	25.235559
1580.000000	24.680578
1570.000000	24.192833
1560.000000	23.824943
1550.000000	23.414121
1540.000000	22.792566
1530.000000	22.007847
1520.000000	21.419012
1510.000000	21.163386
1500.000000	20.925351
1490.000000	20.857872
1480.000000	21.084149
1470.000000	21.328031
1460.000000	21.684558
1450.000000	22.185728
1440.000000	22.971589
1430.000000	24.058372
1420.000000	25.448888
1410.000000	27.370562
1400.000000	29.790476
1390.000000	32.209438
1380.000000	34.048772
1370.000000	35.113669
1360.000000	35.936831
1350.000000	36.531093
1340.000000	36.935116
1330.000000	37.152740
1320.000000	37.483646
1310.000000	37.967746
1300.000000	38.409896
1290.000000	38.635653
1280.000000	38.631393
1270.000000	38.514083
1260.000000	38.422657
1250.000000	38.326827
1240.000000	37.931034
1230.000000	37.341726
1220.000000	36.655786
1210.000000	36.121871
1200.000000	35.910251
1190.000000	36.117618
1180.000000	36.673572
1170.000000	37.558246
1160.000000	38.582636
1150.000000	39.503267
1140.000000	40.163992
1130.000000	40.682537
1120.000000	41.022819
1110.000000	41.156879
1100.000000	41.201656
1090.000000	41.175659
1080.000000	41.122426
1070.000000	41.121676
1060.000000	41.167825
1050.000000	41.146377
1040.000000	41.124268
1030.000000	41.236482
1020.000000	41.381738
1010.000000	41.737706
1000.000000	42.131141
990.000000	42.254663
980.000000	42.320028
970.000000	42.453396
960.000000	42.564436
950.000000	42.671962
940.000000	42.690039
930.000000	42.645073
920.000000	42.629077
910.000000	42.669019
900.000000	42.913404
890.000000	43.152345
880.000000	43.231826
870.000000	43.155711
860.000000	43.557284
850.000000	42.837145
840.000000	41.439521
830.000000	41.401039
820.000000	41.427797
810.000000	41.399332
800.000000	41.373133
790.000000	41.320111
780.000000	41.241748
770.000000	41.237411
760.000000	41.155798
750.000000	41.056217
740.000000	40.964527
730.000000	40.882619
720.000000	40.741918
710.000000	40.598197
700.000000	40.476277
690.000000	40.257311
680.000000	40.051865
670.000000	39.767409
660.000000	39.518135
650.000000	39.263174
640.000000	38.915028
630.000000	38.583417
620.000000	38.191102
610.000000	37.766631
600.000000	37.419754
590.000000	37.111122
580.000000	36.780749
570.000000	36.360346
560.000000	35.964721
550.000000	35.516953
540.000000	34.903455
530.000000	34.212372
520.000000	33.444185
510.000000	32.582762
500.000000	31.611930
490.000000	30.584742
480.000000	29.488690
470.000000	28.314300
460.000000	26.817531
450.000000	25.009968
440.000000	23.026926
430.000000	20.832390
420.000000	18.562158
410.000000	16.827876
400.000000	15.806296
390.000000	14.862619
380.000000	13.788277
370.000000	12.860131
360.000000	12.022546
350.000000	11.025578
340.000000	10.260961
330.000000	9.470758
320.000000	8.772590
310.000000	8.232372
300.000000	7.818022
290.000000	7.286588
280.000000	7.000640
270.000000	6.846327
260.000000	6.894709
250.000000	6.960675
