PE UV       SUBTECH     SPECTRUM    ASCII       PEDS        4.00        
   -1
3S-N10-F010.Sample.Raw.asc
22/03/03
17:07:30.00
22/03/03
17:07:30.00
Administrator

250.000000
1
Lambda 750
750N8071901
PerkinElmer UV WinLab 6.0.4.0738 / 1.61.00 Lambda 900

0
0
3350/servo 860.8/2
0
0
UV/VIS
1
1
1
CommonBeamDepol,150mm sphere / downward view
0
0
0
0
Program
Program
3350/servo 860.8/2
3350/0.2 860.8/0.2
3350/0.2 860.8/0.2
0
1
 
 
 
0
 
860.8
319.2
860.8
Front
100
on
 
 
0
0
0
 
0
 
 
 
0
 
 
0
0
0
0
0
 
 
 
 
0
0


0
0
#HDR
-1
-1
#GR
nm
%R
1.0
0.0
2500.000000
-10.000000
226
8
70.011414
10.087351
#DATA
2500.000000	12.832134
2490.000000	20.245837
2480.000000	19.981051
2470.000000	19.169884
2460.000000	18.190948
2450.000000	12.046378
2440.000000	14.683498
2430.000000	13.340083
2420.000000	19.678086
2410.000000	12.725767
2400.000000	21.150721
2390.000000	14.855046
2380.000000	12.973059
2370.000000	16.579604
2360.000000	19.760218
2350.000000	17.901938
2340.000000	19.740063
2330.000000	20.719357
2320.000000	16.282549
2310.000000	20.448738
2300.000000	18.155977
2290.000000	18.293985
2280.000000	23.021302
2270.000000	19.159148
2260.000000	18.581691
2250.000000	19.803764
2240.000000	20.191811
2230.000000	20.641072
2220.000000	21.494903
2210.000000	21.600735
2200.000000	21.160566
2190.000000	19.882093
2180.000000	20.285544
2170.000000	21.714899
2160.000000	19.775721
2150.000000	21.506984
2140.000000	23.016989
2130.000000	24.525596
2120.000000	25.616867
2110.000000	24.915482
2100.000000	24.852260
2090.000000	24.751362
2080.000000	23.093676
2070.000000	23.769412
2060.000000	23.452611
2050.000000	21.460832
2040.000000	20.629279
2030.000000	21.094062
2020.000000	22.263404
2010.000000	21.987530
2000.000000	21.287716
1990.000000	20.878689
1980.000000	19.327719
1970.000000	18.171971
1960.000000	17.325295
1950.000000	16.778553
1940.000000	16.042446
1930.000000	17.215265
1920.000000	19.197787
1910.000000	22.323719
1900.000000	26.747230
1890.000000	32.790761
1880.000000	38.659771
1870.000000	43.344424
1860.000000	45.389683
1850.000000	46.070615
1840.000000	46.015886
1830.000000	45.882165
1820.000000	45.048047
1810.000000	45.158158
1800.000000	44.129953
1790.000000	43.431977
1780.000000	42.661551
1770.000000	42.215755
1760.000000	41.351720
1750.000000	40.704279
1740.000000	40.195914
1730.000000	39.514639
1720.000000	40.295333
1710.000000	41.551603
1700.000000	42.457100
1690.000000	43.547962
1680.000000	45.695084
1670.000000	48.034871
1660.000000	49.712677
1650.000000	50.373241
1640.000000	50.209742
1630.000000	49.636342
1620.000000	48.890513
1610.000000	47.736589
1600.000000	46.722792
1590.000000	45.597656
1580.000000	44.668760
1570.000000	43.998979
1560.000000	43.404833
1550.000000	42.910524
1540.000000	42.088069
1530.000000	40.868289
1520.000000	39.798246
1510.000000	39.271276
1500.000000	38.955660
1490.000000	38.849570
1480.000000	39.341279
1470.000000	39.977105
1460.000000	40.562319
1450.000000	41.371114
1440.000000	42.626108
1430.000000	43.930644
1420.000000	45.808822
1410.000000	48.578012
1400.000000	52.744121
1390.000000	57.154405
1380.000000	59.914241
1370.000000	61.007133
1360.000000	61.825979
1350.000000	62.585877
1340.000000	63.377224
1330.000000	64.537782
1320.000000	66.033467
1310.000000	67.070653
1300.000000	67.326041
1290.000000	67.220947
1280.000000	67.028221
1270.000000	66.872769
1260.000000	66.789206
1250.000000	66.394188
1240.000000	65.933294
1230.000000	65.676946
1220.000000	65.543351
1210.000000	65.129523
1200.000000	64.341888
1190.000000	63.895163
1180.000000	64.214539
1170.000000	65.362760
1160.000000	66.713268
1150.000000	67.908907
1140.000000	69.069119
1130.000000	69.755579
1120.000000	69.838892
1110.000000	69.681696
1100.000000	69.656220
1090.000000	69.777993
1080.000000	69.725803
1070.000000	69.688422
1060.000000	69.567186
1050.000000	69.375698
1040.000000	69.176197
1030.000000	69.010624
1020.000000	68.970892
1010.000000	69.236214
1000.000000	69.570154
990.000000	69.662750
980.000000	69.491361
970.000000	69.629609
960.000000	69.835334
950.000000	70.005937
940.000000	69.750105
930.000000	69.411701
920.000000	69.198869
910.000000	69.602371
900.000000	69.823880
890.000000	69.522330
880.000000	69.950189
870.000000	70.011414
860.000000	68.984176
850.000000	68.858551
840.000000	69.112190
830.000000	69.329548
820.000000	69.238593
810.000000	68.953786
800.000000	68.951227
790.000000	68.773024
780.000000	68.644568
770.000000	68.659196
760.000000	68.528477
750.000000	68.408192
740.000000	68.361718
730.000000	68.022468
720.000000	67.958183
710.000000	67.842412
700.000000	67.568993
690.000000	67.304290
680.000000	66.960174
670.000000	66.630495
660.000000	66.393896
650.000000	65.885399
640.000000	65.377381
630.000000	64.979700
620.000000	64.427948
610.000000	63.808525
600.000000	63.186743
590.000000	62.764517
580.000000	62.121131
570.000000	61.475153
560.000000	60.818103
550.000000	60.157183
540.000000	59.488056
530.000000	58.623018
520.000000	57.771827
510.000000	56.783589
500.000000	55.810028
490.000000	54.761905
480.000000	53.158258
470.000000	51.029136
460.000000	48.731751
450.000000	46.173609
440.000000	43.087408
430.000000	39.505847
420.000000	35.767115
410.000000	32.902101
400.000000	31.481953
390.000000	30.458379
380.000000	28.950640
370.000000	27.082512
360.000000	25.376458
350.000000	23.599793
340.000000	21.573418
330.000000	19.997985
320.000000	18.710401
310.000000	16.439545
300.000000	12.920643
290.000000	11.006732
280.000000	10.330470
270.000000	10.087351
260.000000	10.167611
250.000000	10.269297
