PE UV       SUBTECH     SPECTRUM    ASCII       PEDS        4.00        
   -1
3C-H10-C020.Sample.Raw.asc
22/03/18
16:27:02.00
22/03/18
16:27:02.00
Administrator

250.000000
1
Lambda 750
750N8071901
PerkinElmer UV WinLab 6.0.4.0738 / 1.61.00 Lambda 900

0
0
3350/servo 860.8/2
0
0
UV/VIS
1
1
1
CommonBeamDepol,150mm sphere / downward view
0
0
0
0
Program
Program
3350/servo 860.8/2
3350/0.2 860.8/0.2
3350/0.2 860.8/0.2
0
1
 
 
 
0
 
860.8
319.2
860.8
Front
100
on
 
 
0
0
0
 
0
 
 
 
0
 
 
0
0
0
0
0
 
 
 
 
0
0


0
0
#HDR
-1
-1
#GR
nm
%R
1.0
0.0
2500.000000
-10.000000
226
8
50.003049
13.676583
#DATA
2500.000000	15.918262
2490.000000	13.749719
2480.000000	13.676583
2470.000000	16.948755
2460.000000	15.845049
2450.000000	16.460739
2440.000000	16.003602
2430.000000	17.838179
2420.000000	18.121551
2410.000000	18.136220
2400.000000	17.885951
2390.000000	17.342209
2380.000000	17.923261
2370.000000	18.036263
2360.000000	17.863307
2350.000000	18.542065
2340.000000	19.732151
2330.000000	19.028276
2320.000000	18.662000
2310.000000	18.074070
2300.000000	18.366274
2290.000000	18.465486
2280.000000	17.644875
2270.000000	17.012849
2260.000000	17.921574
2250.000000	18.335786
2240.000000	19.259348
2230.000000	19.756873
2220.000000	19.895703
2210.000000	20.610893
2200.000000	19.813118
2190.000000	19.103980
2180.000000	19.451151
2170.000000	19.150997
2160.000000	20.018764
2150.000000	19.630203
2140.000000	20.404613
2130.000000	21.992597
2120.000000	22.173128
2110.000000	22.045936
2100.000000	21.945741
2090.000000	21.973214
2080.000000	21.809548
2070.000000	21.474647
2060.000000	20.751445
2050.000000	20.241220
2040.000000	19.341151
2030.000000	19.910227
2020.000000	20.395393
2010.000000	20.352272
2000.000000	20.027615
1990.000000	19.567053
1980.000000	19.180363
1970.000000	18.542858
1960.000000	18.136016
1950.000000	17.619467
1940.000000	17.348146
1930.000000	17.740552
1920.000000	18.634772
1910.000000	20.040848
1900.000000	22.954685
1890.000000	25.948847
1880.000000	28.842825
1870.000000	31.379981
1860.000000	32.752277
1850.000000	33.294920
1840.000000	33.099637
1830.000000	32.985417
1820.000000	32.766506
1810.000000	32.350932
1800.000000	32.015547
1790.000000	31.817184
1780.000000	31.573026
1770.000000	31.168731
1760.000000	30.822151
1750.000000	30.493230
1740.000000	30.109511
1730.000000	29.954017
1720.000000	30.224681
1710.000000	31.035681
1700.000000	31.499445
1690.000000	31.874140
1680.000000	32.985622
1670.000000	34.308600
1660.000000	35.400938
1650.000000	35.780497
1640.000000	35.618780
1630.000000	35.347822
1620.000000	34.882892
1610.000000	34.308120
1600.000000	33.768645
1590.000000	33.268283
1580.000000	32.857292
1570.000000	32.396628
1560.000000	32.079198
1550.000000	31.772620
1540.000000	31.217325
1530.000000	30.567656
1520.000000	30.048137
1510.000000	29.831827
1500.000000	29.692050
1490.000000	29.737112
1480.000000	29.995654
1470.000000	30.272323
1460.000000	30.594380
1450.000000	31.127943
1440.000000	31.889896
1430.000000	32.756113
1420.000000	33.924694
1410.000000	35.722290
1400.000000	38.000927
1390.000000	40.349147
1380.000000	42.011813
1370.000000	42.845544
1360.000000	43.403265
1350.000000	43.809040
1340.000000	44.105103
1330.000000	44.430016
1320.000000	44.998161
1310.000000	45.590537
1300.000000	45.999895
1290.000000	46.174879
1280.000000	46.115778
1270.000000	45.977298
1260.000000	45.983776
1250.000000	45.987260
1240.000000	45.842203
1230.000000	45.574262
1220.000000	45.246485
1210.000000	44.795059
1200.000000	44.375049
1190.000000	44.211903
1180.000000	44.532200
1170.000000	45.321809
1160.000000	46.210287
1150.000000	46.978143
1140.000000	47.672254
1130.000000	48.147423
1120.000000	48.268339
1110.000000	48.269759
1100.000000	48.236230
1090.000000	48.256138
1080.000000	48.306129
1070.000000	48.249651
1060.000000	48.189858
1050.000000	48.130200
1040.000000	48.114303
1030.000000	48.104114
1020.000000	48.277127
1010.000000	48.610842
1000.000000	48.978977
990.000000	49.102838
980.000000	49.131623
970.000000	49.202989
960.000000	49.339520
950.000000	49.474455
940.000000	49.520428
930.000000	49.416183
920.000000	49.433759
910.000000	49.499794
900.000000	49.621360
890.000000	49.876880
880.000000	49.843171
870.000000	49.784623
860.000000	50.003049
850.000000	49.869164
840.000000	49.465274
830.000000	49.684869
820.000000	49.703868
810.000000	49.815798
800.000000	49.815242
790.000000	49.789110
780.000000	49.688918
770.000000	49.666301
760.000000	49.665682
750.000000	49.745852
740.000000	49.740608
730.000000	49.655514
720.000000	49.626041
710.000000	49.518604
700.000000	49.394962
690.000000	49.243171
680.000000	49.287635
670.000000	49.258148
660.000000	49.283908
650.000000	49.349883
640.000000	49.273775
630.000000	49.274049
620.000000	49.193598
610.000000	49.102728
600.000000	49.069008
590.000000	48.994304
580.000000	48.866103
570.000000	48.752938
560.000000	48.643196
550.000000	48.516320
540.000000	48.266276
530.000000	47.893131
520.000000	47.477441
510.000000	47.000466
500.000000	46.382835
490.000000	45.716907
480.000000	45.157367
470.000000	44.487518
460.000000	43.529417
450.000000	42.447074
440.000000	41.308855
430.000000	39.864035
420.000000	38.091558
410.000000	36.240027
400.000000	34.678972
390.000000	33.387935
380.000000	32.222104
370.000000	31.124390
360.000000	30.109455
350.000000	28.973296
340.000000	27.926582
330.000000	26.887720
320.000000	25.709597
310.000000	24.642596
300.000000	22.790436
290.000000	20.005248
280.000000	18.163853
270.000000	17.962778
260.000000	17.884345
250.000000	16.627213
