PE UV       SUBTECH     SPECTRUM    ASCII       PEDS        4.00        
   -1
3C-H10-C024.Sample.Raw.asc
22/03/18
16:39:27.00
22/03/18
16:39:27.00
Administrator

250.000000
1
Lambda 750
750N8071901
PerkinElmer UV WinLab 6.0.4.0738 / 1.61.00 Lambda 900

0
0
3350/servo 860.8/2
0
0
UV/VIS
1
1
1
CommonBeamDepol,150mm sphere / downward view
0
0
0
0
Program
Program
3350/servo 860.8/2
3350/0.2 860.8/0.2
3350/0.2 860.8/0.2
0
1
 
 
 
0
 
860.8
319.2
860.8
Front
100
on
 
 
0
0
0
 
0
 
 
 
0
 
 
0
0
0
0
0
 
 
 
 
0
0


0
0
#HDR
-1
-1
#GR
nm
%R
1.0
0.0
2500.000000
-10.000000
226
8
48.904901
13.520395
#DATA
2500.000000	15.876005
2490.000000	13.871558
2480.000000	13.520395
2470.000000	14.762629
2460.000000	15.266110
2450.000000	16.975774
2440.000000	14.413054
2430.000000	15.906402
2420.000000	17.188118
2410.000000	17.526779
2400.000000	17.507305
2390.000000	16.030207
2380.000000	18.654203
2370.000000	17.435547
2360.000000	16.706287
2350.000000	18.370957
2340.000000	19.522244
2330.000000	18.746015
2320.000000	18.022386
2310.000000	17.714146
2300.000000	17.693585
2290.000000	18.016149
2280.000000	17.179149
2270.000000	16.705759
2260.000000	17.313439
2250.000000	18.010206
2240.000000	18.360758
2230.000000	18.870020
2220.000000	19.828625
2210.000000	19.978803
2200.000000	19.528713
2190.000000	19.037682
2180.000000	19.108480
2170.000000	18.863952
2160.000000	19.036040
2150.000000	19.668216
2140.000000	19.946335
2130.000000	21.006356
2120.000000	20.935512
2110.000000	21.124145
2100.000000	20.938554
2090.000000	21.231619
2080.000000	21.248916
2070.000000	21.201812
2060.000000	20.350585
2050.000000	19.766752
2040.000000	19.151584
2030.000000	19.291991
2020.000000	19.784305
2010.000000	19.842760
2000.000000	19.464186
1990.000000	19.154239
1980.000000	18.817034
1970.000000	18.050101
1960.000000	17.542751
1950.000000	17.058929
1940.000000	16.848902
1930.000000	17.382428
1920.000000	17.999889
1910.000000	19.460034
1900.000000	21.957000
1890.000000	25.133387
1880.000000	28.263816
1870.000000	30.624054
1860.000000	31.900973
1850.000000	32.360984
1840.000000	32.322731
1830.000000	32.101175
1820.000000	31.907506
1810.000000	31.637822
1800.000000	31.172842
1790.000000	31.024565
1780.000000	30.735937
1770.000000	30.448083
1760.000000	30.080521
1750.000000	29.699524
1740.000000	29.218766
1730.000000	29.097705
1720.000000	29.482750
1710.000000	30.194459
1700.000000	30.672107
1690.000000	31.027263
1680.000000	32.041948
1670.000000	33.453511
1660.000000	34.403548
1650.000000	34.885670
1640.000000	34.643061
1630.000000	34.352668
1620.000000	33.949931
1610.000000	33.419103
1600.000000	32.877182
1590.000000	32.390715
1580.000000	31.987051
1570.000000	31.561902
1560.000000	31.237763
1550.000000	30.960202
1540.000000	30.422768
1530.000000	29.764966
1520.000000	29.319341
1510.000000	29.102099
1500.000000	28.936131
1490.000000	28.955409
1480.000000	29.185378
1470.000000	29.451858
1460.000000	29.792166
1450.000000	30.292010
1440.000000	31.015348
1430.000000	31.906201
1420.000000	33.023194
1410.000000	34.695772
1400.000000	36.922256
1390.000000	39.297435
1380.000000	40.915846
1370.000000	41.743935
1360.000000	42.245079
1350.000000	42.671881
1340.000000	42.953912
1330.000000	43.269192
1320.000000	43.832090
1310.000000	44.415282
1300.000000	44.851900
1290.000000	45.082839
1280.000000	45.020255
1270.000000	44.846002
1260.000000	44.803895
1250.000000	44.805580
1240.000000	44.659336
1230.000000	44.408962
1220.000000	44.065091
1210.000000	43.653862
1200.000000	43.304610
1190.000000	43.174609
1180.000000	43.479376
1170.000000	44.188018
1160.000000	45.021780
1150.000000	45.773418
1140.000000	46.469504
1130.000000	46.929901
1120.000000	47.026789
1110.000000	47.016501
1100.000000	47.016509
1090.000000	47.071229
1080.000000	47.098787
1070.000000	47.012468
1060.000000	46.976537
1050.000000	46.936159
1040.000000	46.916067
1030.000000	46.917053
1020.000000	47.062974
1010.000000	47.418967
1000.000000	47.803551
990.000000	47.918435
980.000000	47.970841
970.000000	48.078711
960.000000	48.179229
950.000000	48.289331
940.000000	48.323560
930.000000	48.293290
920.000000	48.312628
910.000000	48.286203
900.000000	48.496662
890.000000	48.705229
880.000000	48.681511
870.000000	48.705541
860.000000	48.793520
850.000000	48.777241
840.000000	48.636093
830.000000	48.817556
820.000000	48.741385
810.000000	48.747664
800.000000	48.837738
790.000000	48.894079
780.000000	48.879863
770.000000	48.838149
760.000000	48.825861
750.000000	48.904901
740.000000	48.798879
730.000000	48.841639
720.000000	48.881482
710.000000	48.824613
700.000000	48.782285
690.000000	48.668125
680.000000	48.687606
670.000000	48.716524
660.000000	48.643640
650.000000	48.649565
640.000000	48.532161
630.000000	48.455073
620.000000	48.421764
610.000000	48.381690
600.000000	48.259380
590.000000	48.157944
580.000000	48.034873
570.000000	47.882694
560.000000	47.828636
550.000000	47.640449
540.000000	47.318641
530.000000	46.944949
520.000000	46.517579
510.000000	46.056769
500.000000	45.465878
490.000000	44.783216
480.000000	44.212596
470.000000	43.534758
460.000000	42.725502
450.000000	41.671244
440.000000	40.486332
430.000000	39.093929
420.000000	37.380314
410.000000	35.569736
400.000000	33.986038
390.000000	32.840727
380.000000	31.849480
370.000000	30.741326
360.000000	29.721494
350.000000	28.826862
340.000000	27.911066
330.000000	26.822073
320.000000	25.380758
310.000000	24.678905
300.000000	23.674641
290.000000	20.785057
280.000000	18.878361
270.000000	18.717543
260.000000	18.554626
250.000000	17.132481
