PE UV       SUBTECH     SPECTRUM    ASCII       PEDS        4.00        
   -1
3C-N10-F003.Sample.Raw.asc
22/03/02
15:45:26.00
22/03/02
15:45:26.00
Administrator

250.000000
1
Lambda 750
750N8071901
PerkinElmer UV WinLab 6.0.4.0738 / 1.61.00 Lambda 900

0
0
3350/servo 860.8/2
0
0
UV/VIS
1
1
1
CommonBeamDepol,150mm sphere / downward view
0
0
0
0
Program
Program
3350/servo 860.8/2
3350/0.2 860.8/0.2
3350/0.2 860.8/0.2
0
1
 
 
 
0
 
860.8
319.2
860.8
Front
100
on
 
 
0
0
0
 
0
 
 
 
0
 
 
0
0
0
0
0
 
 
 
 
0
0


0
0
#HDR
-1
-1
#GR
nm
%R
1.0
0.0
2500.000000
-10.000000
226
8
43.981350
10.235287
#DATA
2500.000000	15.156332
2490.000000	14.102903
2480.000000	10.235287
2470.000000	15.112671
2460.000000	19.867485
2450.000000	20.933767
2440.000000	18.480952
2430.000000	14.626862
2420.000000	18.164462
2410.000000	13.101521
2400.000000	16.981306
2390.000000	14.678840
2380.000000	14.089790
2370.000000	17.457583
2360.000000	20.973920
2350.000000	16.857720
2340.000000	18.782638
2330.000000	15.912911
2320.000000	15.556730
2310.000000	13.808447
2300.000000	14.187795
2290.000000	14.333857
2280.000000	14.028401
2270.000000	14.565545
2260.000000	14.332188
2250.000000	15.227731
2240.000000	16.445302
2230.000000	17.820486
2220.000000	18.747583
2210.000000	15.371004
2200.000000	16.622289
2190.000000	18.648315
2180.000000	16.721619
2170.000000	17.729640
2160.000000	16.021140
2150.000000	17.127558
2140.000000	15.974835
2130.000000	17.648682
2120.000000	19.579831
2110.000000	16.728043
2100.000000	17.934032
2090.000000	18.758938
2080.000000	17.991346
2070.000000	17.728700
2060.000000	17.122942
2050.000000	15.982194
2040.000000	16.962844
2030.000000	16.467042
2020.000000	17.019216
2010.000000	17.157440
2000.000000	16.859116
1990.000000	16.353098
1980.000000	16.025972
1970.000000	15.602360
1960.000000	14.487661
1950.000000	14.625070
1940.000000	14.056405
1930.000000	15.222187
1920.000000	15.736861
1910.000000	16.776361
1900.000000	18.861974
1890.000000	22.358944
1880.000000	24.397580
1870.000000	26.832988
1860.000000	28.119555
1850.000000	28.364310
1840.000000	28.823602
1830.000000	28.270482
1820.000000	28.335831
1810.000000	27.828130
1800.000000	27.790303
1790.000000	27.364869
1780.000000	26.975564
1770.000000	26.816585
1760.000000	26.500903
1750.000000	26.148087
1740.000000	25.856826
1730.000000	25.298221
1720.000000	25.549690
1710.000000	26.469910
1700.000000	27.068194
1690.000000	27.472173
1680.000000	28.260712
1670.000000	29.554414
1660.000000	30.116437
1650.000000	30.597074
1640.000000	30.613617
1630.000000	30.224826
1620.000000	29.984298
1610.000000	29.516195
1600.000000	28.750644
1590.000000	28.286984
1580.000000	27.869350
1570.000000	27.791668
1560.000000	27.559895
1550.000000	27.246607
1540.000000	26.672229
1530.000000	26.026560
1520.000000	25.695874
1510.000000	25.434519
1500.000000	25.266292
1490.000000	25.223029
1480.000000	25.338258
1470.000000	25.622247
1460.000000	26.110838
1450.000000	26.682331
1440.000000	27.063186
1430.000000	27.330817
1420.000000	27.791130
1410.000000	29.233195
1400.000000	32.196745
1390.000000	35.106809
1380.000000	36.608529
1370.000000	36.965596
1360.000000	37.082045
1350.000000	37.153216
1340.000000	37.287598
1330.000000	37.689845
1320.000000	38.897109
1310.000000	40.077663
1300.000000	40.583425
1290.000000	40.972819
1280.000000	40.836587
1270.000000	40.274797
1260.000000	39.960027
1250.000000	39.971897
1240.000000	39.901663
1230.000000	39.873299
1220.000000	39.646293
1210.000000	39.224373
1200.000000	38.878423
1190.000000	38.848685
1180.000000	39.158390
1170.000000	39.596063
1160.000000	40.367934
1150.000000	40.939001
1140.000000	41.541029
1130.000000	41.937464
1120.000000	42.033515
1110.000000	42.244203
1100.000000	42.330070
1090.000000	42.278599
1080.000000	42.183678
1070.000000	42.146783
1060.000000	41.955413
1050.000000	42.017816
1040.000000	42.180953
1030.000000	42.099907
1020.000000	42.127320
1010.000000	42.543216
1000.000000	43.293855
990.000000	43.477572
980.000000	43.341959
970.000000	43.452974
960.000000	43.295816
950.000000	43.368927
940.000000	43.191734
930.000000	43.063953
920.000000	42.902113
910.000000	42.779576
900.000000	43.178750
890.000000	43.603841
880.000000	43.667685
870.000000	43.312714
860.000000	42.756821
850.000000	42.915606
840.000000	43.693857
830.000000	43.637904
820.000000	43.714619
810.000000	43.871737
800.000000	43.981350
790.000000	43.836608
780.000000	43.585277
770.000000	43.741381
760.000000	43.870602
750.000000	43.826081
740.000000	43.838877
730.000000	43.933289
720.000000	43.799130
710.000000	43.793594
700.000000	43.872574
690.000000	43.905311
680.000000	43.957028
670.000000	43.874642
660.000000	43.955191
650.000000	43.865113
640.000000	43.793470
630.000000	43.833498
620.000000	43.735975
610.000000	43.666631
600.000000	43.591294
590.000000	43.501721
580.000000	43.353201
570.000000	43.247030
560.000000	43.177591
550.000000	43.012340
540.000000	42.801363
530.000000	42.571826
520.000000	42.335170
510.000000	41.986381
500.000000	41.515609
490.000000	41.115929
480.000000	40.602382
470.000000	39.965747
460.000000	39.216906
450.000000	38.282356
440.000000	37.199103
430.000000	35.802492
420.000000	33.939398
410.000000	31.753680
400.000000	29.856399
390.000000	28.851112
380.000000	28.214096
370.000000	27.487275
360.000000	26.727894
350.000000	25.658083
340.000000	24.504405
330.000000	23.717078
320.000000	22.791672
310.000000	21.486109
300.000000	20.009680
290.000000	17.510653
280.000000	15.795239
270.000000	15.632793
260.000000	15.631859
250.000000	14.396740
