PE UV       SUBTECH     SPECTRUM    ASCII       PEDS        4.00        
   -1
3C-N10-C029.Sample.Raw.asc
22/03/22
18:03:01.00
22/03/22
18:03:01.00
Administrator

250.000000
1
Lambda 750
750N8071901
PerkinElmer UV WinLab 6.0.4.0738 / 1.61.00 Lambda 900

0
0
3350/servo 860.8/2
0
0
UV/VIS
1
1
1
CommonBeamDepol,150mm sphere / downward view
0
0
0
0
Program
Program
3350/servo 860.8/2
3350/0.2 860.8/0.2
3350/0.2 860.8/0.2
0
1
 
 
 
0
 
860.8
319.2
860.8
Front
100
on
 
 
0
0
0
 
0
 
 
 
0
 
 
0
0
0
0
0
 
 
 
 
0
0


0
0
#HDR
-1
-1
#GR
nm
%R
1.0
0.0
2500.000000
-10.000000
226
8
49.102716
11.687477
#DATA
2500.000000	11.687477
2490.000000	15.334575
2480.000000	12.405462
2470.000000	14.921195
2460.000000	13.189033
2450.000000	15.668533
2440.000000	16.020249
2430.000000	14.676838
2420.000000	16.872561
2410.000000	15.321554
2400.000000	16.154217
2390.000000	17.074823
2380.000000	16.196630
2370.000000	17.478050
2360.000000	17.026124
2350.000000	17.491171
2340.000000	14.838442
2330.000000	16.772281
2320.000000	16.671607
2310.000000	16.972975
2300.000000	15.598433
2290.000000	15.424923
2280.000000	15.930168
2270.000000	16.126959
2260.000000	15.909265
2250.000000	16.900224
2240.000000	17.567443
2230.000000	17.541116
2220.000000	18.591234
2210.000000	18.386840
2200.000000	18.424961
2190.000000	17.343005
2180.000000	17.164499
2170.000000	17.347882
2160.000000	17.627563
2150.000000	18.526006
2140.000000	19.128518
2130.000000	19.899074
2120.000000	19.777536
2110.000000	20.254502
2100.000000	20.430323
2090.000000	19.893720
2080.000000	19.778574
2070.000000	19.446601
2060.000000	18.636304
2050.000000	18.365573
2040.000000	17.923862
2030.000000	17.653488
2020.000000	18.250020
2010.000000	18.572858
2000.000000	18.127250
1990.000000	17.800551
1980.000000	17.261429
1970.000000	16.447580
1960.000000	16.145887
1950.000000	15.802774
1940.000000	15.646438
1930.000000	16.117918
1920.000000	16.813392
1910.000000	18.702005
1900.000000	21.027644
1890.000000	24.293432
1880.000000	27.479797
1870.000000	29.844674
1860.000000	31.273475
1850.000000	31.704364
1840.000000	31.589713
1830.000000	31.403736
1820.000000	31.274215
1810.000000	31.090083
1800.000000	30.687440
1790.000000	30.381766
1780.000000	29.976792
1770.000000	29.595922
1760.000000	29.284727
1750.000000	28.937846
1740.000000	28.497957
1730.000000	28.321047
1720.000000	28.817695
1710.000000	29.504791
1700.000000	29.931107
1690.000000	30.346976
1680.000000	31.333697
1670.000000	32.787741
1660.000000	33.754504
1650.000000	34.260015
1640.000000	34.118422
1630.000000	33.839126
1620.000000	33.388325
1610.000000	32.798822
1600.000000	32.203090
1590.000000	31.656619
1580.000000	31.245258
1570.000000	30.818328
1560.000000	30.544653
1550.000000	30.291510
1540.000000	29.846505
1530.000000	29.108440
1520.000000	28.638340
1510.000000	28.316457
1500.000000	28.128685
1490.000000	28.134851
1480.000000	28.342355
1470.000000	28.678596
1460.000000	29.056171
1450.000000	29.570306
1440.000000	30.271982
1430.000000	31.077393
1420.000000	32.259428
1410.000000	33.965669
1400.000000	36.324310
1390.000000	38.637715
1380.000000	40.201660
1370.000000	40.937631
1360.000000	41.428190
1350.000000	41.920888
1340.000000	42.418399
1330.000000	42.994472
1320.000000	43.748126
1310.000000	44.451086
1300.000000	44.941340
1290.000000	45.114369
1280.000000	45.086567
1270.000000	44.969275
1260.000000	44.945695
1250.000000	44.939401
1240.000000	44.767543
1230.000000	44.569403
1220.000000	44.289004
1210.000000	43.936731
1200.000000	43.541987
1190.000000	43.447831
1180.000000	43.660135
1170.000000	44.198172
1160.000000	45.043396
1150.000000	45.794177
1140.000000	46.443569
1130.000000	46.853046
1120.000000	46.981717
1110.000000	46.936668
1100.000000	46.916473
1090.000000	46.960575
1080.000000	46.947495
1070.000000	46.855843
1060.000000	46.821319
1050.000000	46.751941
1040.000000	46.728728
1030.000000	46.623183
1020.000000	46.629786
1010.000000	46.859193
1000.000000	47.114445
990.000000	47.197102
980.000000	47.248839
970.000000	47.395490
960.000000	47.484967
950.000000	47.584654
940.000000	47.658836
930.000000	47.637283
920.000000	47.540653
910.000000	47.617969
900.000000	47.835879
890.000000	47.986169
880.000000	48.006506
870.000000	48.008728
860.000000	47.963505
850.000000	48.209647
840.000000	48.681520
830.000000	48.776375
820.000000	48.869250
810.000000	48.929212
800.000000	48.977321
790.000000	48.970190
780.000000	48.906888
770.000000	48.986446
760.000000	49.074480
750.000000	49.098016
740.000000	49.078775
730.000000	49.091510
720.000000	49.055077
710.000000	49.102716
700.000000	49.092222
690.000000	49.051784
680.000000	49.041867
670.000000	49.019314
660.000000	48.966205
650.000000	48.963544
640.000000	48.942326
630.000000	48.874281
620.000000	48.827938
610.000000	48.760160
600.000000	48.696223
590.000000	48.612512
580.000000	48.456319
570.000000	48.296035
560.000000	48.132230
550.000000	47.893134
540.000000	47.741017
530.000000	47.566317
520.000000	47.435325
510.000000	47.287138
500.000000	46.964509
490.000000	46.394797
480.000000	45.713891
470.000000	45.019864
460.000000	44.168214
450.000000	43.093114
440.000000	41.896628
430.000000	40.274059
420.000000	38.342229
410.000000	36.245958
400.000000	34.355190
390.000000	33.083911
380.000000	32.111530
370.000000	30.722110
360.000000	29.234290
350.000000	28.261146
340.000000	27.140321
330.000000	26.083746
320.000000	24.826339
310.000000	23.464128
300.000000	21.650907
290.000000	19.310706
280.000000	17.824984
270.000000	17.813036
260.000000	17.738024
250.000000	16.311040
