PE UV       SUBTECH     SPECTRUM    ASCII       PEDS        4.00        
   -1
3C-H10-F001.Sample.Raw.asc
22/02/28
14:56:01.00
22/02/28
14:56:01.00
Administrator

250.000000
1
Lambda 750
750N8071901
PerkinElmer UV WinLab 6.0.4.0738 / 1.61.00 Lambda 900

0
0
3350/servo 860.8/2
0
0
UV/VIS
1
1
1
CommonBeamDepol,150mm sphere / downward view
0
0
0
0
Program
Program
3350/servo 860.8/2
3350/0.2 860.8/0.2
3350/0.2 860.8/0.2
0
1
 
 
 
0
 
860.8
319.2
860.8
Front
100
on
 
 
0
0
0
 
0
 
 
 
0
 
 
0
0
0
0
0
 
 
 
 
0
0


0
0
#HDR
-1
-1
#GR
nm
%R
1.0
0.0
2500.000000
-10.000000
226
8
47.660427
9.091254
#DATA
2500.000000	13.492346
2490.000000	14.302295
2480.000000	9.091254
2470.000000	14.435056
2460.000000	14.630452
2450.000000	19.552057
2440.000000	16.442953
2430.000000	13.105839
2420.000000	13.852475
2410.000000	18.166110
2400.000000	21.415719
2390.000000	13.791964
2380.000000	19.909086
2370.000000	15.626323
2360.000000	13.145537
2350.000000	20.500469
2340.000000	15.235999
2330.000000	17.357048
2320.000000	18.031430
2310.000000	17.229388
2300.000000	16.788182
2290.000000	17.168771
2280.000000	17.691814
2270.000000	15.876412
2260.000000	14.938630
2250.000000	17.722718
2240.000000	20.214102
2230.000000	19.129605
2220.000000	20.354028
2210.000000	17.864927
2200.000000	17.390855
2190.000000	18.741425
2180.000000	16.931437
2170.000000	18.371789
2160.000000	17.969854
2150.000000	18.649009
2140.000000	20.096848
2130.000000	19.102394
2120.000000	18.970688
2110.000000	20.768253
2100.000000	21.097409
2090.000000	20.921400
2080.000000	20.310124
2070.000000	19.990434
2060.000000	19.803112
2050.000000	19.248407
2040.000000	19.181255
2030.000000	18.765263
2020.000000	18.860903
2010.000000	19.298659
2000.000000	19.038829
1990.000000	18.652187
1980.000000	18.269392
1970.000000	17.846820
1960.000000	17.174479
1950.000000	17.142801
1940.000000	16.489379
1930.000000	16.623412
1920.000000	17.957425
1910.000000	19.637718
1900.000000	21.818308
1890.000000	24.906251
1880.000000	27.881034
1870.000000	30.255934
1860.000000	31.471890
1850.000000	31.606715
1840.000000	31.355570
1830.000000	31.429372
1820.000000	31.082888
1810.000000	30.930783
1800.000000	30.846564
1790.000000	30.448672
1780.000000	29.802754
1770.000000	29.819300
1760.000000	29.382497
1750.000000	28.916113
1740.000000	28.523559
1730.000000	28.233728
1720.000000	28.841976
1710.000000	29.311109
1700.000000	29.751721
1690.000000	30.249014
1680.000000	31.288079
1670.000000	32.723925
1660.000000	33.551896
1650.000000	34.140364
1640.000000	34.210273
1630.000000	33.931475
1620.000000	33.367029
1610.000000	32.772759
1600.000000	32.193842
1590.000000	31.594303
1580.000000	31.233476
1570.000000	30.781670
1560.000000	30.744395
1550.000000	30.362734
1540.000000	29.900831
1530.000000	29.309571
1520.000000	28.857194
1510.000000	28.610401
1500.000000	28.461657
1490.000000	28.430875
1480.000000	28.536417
1470.000000	28.789044
1460.000000	29.276807
1450.000000	29.850421
1440.000000	30.545663
1430.000000	30.754704
1420.000000	31.277115
1410.000000	32.812601
1400.000000	35.584858
1390.000000	38.789591
1380.000000	40.823874
1370.000000	41.354952
1360.000000	41.445511
1350.000000	41.553325
1340.000000	41.670740
1330.000000	42.400041
1320.000000	43.907755
1310.000000	45.121651
1300.000000	45.850862
1290.000000	46.207158
1280.000000	45.890514
1270.000000	45.506732
1260.000000	45.239238
1250.000000	45.076417
1240.000000	44.887784
1230.000000	44.780032
1220.000000	44.297470
1210.000000	43.786833
1200.000000	43.432420
1190.000000	43.431726
1180.000000	43.822123
1170.000000	44.151566
1160.000000	45.043500
1150.000000	45.941452
1140.000000	46.750085
1130.000000	47.231105
1120.000000	47.047450
1110.000000	46.804434
1100.000000	46.647292
1090.000000	46.761878
1080.000000	46.764184
1070.000000	46.668952
1060.000000	46.486151
1050.000000	46.334457
1040.000000	46.188117
1030.000000	46.061701
1020.000000	46.049705
1010.000000	46.348644
1000.000000	46.918979
990.000000	47.106833
980.000000	47.023950
970.000000	47.006086
960.000000	46.914825
950.000000	46.809123
940.000000	46.807367
930.000000	46.580318
920.000000	46.351986
910.000000	46.777115
900.000000	46.914592
890.000000	46.466998
880.000000	46.278524
870.000000	46.769067
860.000000	46.355770
850.000000	46.325939
840.000000	47.660427
830.000000	47.497097
820.000000	47.446206
810.000000	47.212128
800.000000	47.077367
790.000000	46.933614
780.000000	46.867123
770.000000	46.870451
760.000000	46.915059
750.000000	46.824463
740.000000	46.751716
730.000000	46.663956
720.000000	46.602190
710.000000	46.518162
700.000000	46.434876
690.000000	46.348241
680.000000	46.228508
670.000000	46.192803
660.000000	46.070968
650.000000	45.953960
640.000000	45.809735
630.000000	45.793106
620.000000	45.675024
610.000000	45.432147
600.000000	45.279656
590.000000	45.086480
580.000000	44.838965
570.000000	44.626933
560.000000	44.433023
550.000000	44.166555
540.000000	43.820334
530.000000	43.492370
520.000000	43.156960
510.000000	42.843791
500.000000	42.473371
490.000000	41.977582
480.000000	41.295419
470.000000	40.560915
460.000000	39.762628
450.000000	38.801480
440.000000	37.706378
430.000000	36.363360
420.000000	34.723894
410.000000	32.844708
400.000000	31.204163
390.000000	30.224047
380.000000	29.509118
370.000000	28.445510
360.000000	27.432729
350.000000	26.790622
340.000000	25.568146
330.000000	24.584723
320.000000	24.114323
310.000000	23.567315
300.000000	21.768124
290.000000	19.326509
280.000000	17.394692
270.000000	17.063893
260.000000	17.001382
250.000000	15.621458
