PE UV       SUBTECH     SPECTRUM    ASCII       PEDS        4.00        
   -1
3G-H10-F018.Sample.Cycle1.Raw.asc
22/04/19
17:29:02.00
22/04/19
17:29:02.00
Administrator

250.000000
1
Lambda 750
750N8071901
PerkinElmer UV WinLab 6.0.4.0738 / 1.61.00 Lambda 900

0
0
3350/servo 860.8/2
0
0
UV/VIS
1
1
1
CommonBeamDepol,150mm sphere / downward view
0
0
0
0
Program
Program
3350/servo 860.8/2
3350/0.2 860.8/0.2
3350/0.2 860.8/0.2
0
1
 
 
 
0
 
860.8
319.2
860.8
Front
100
on
 
 
0
0
0
 
0
 
 
 
0
 
 
0
0
0
0
0
 
 
 
 
0
0


0
0
#HDR
-1
-1
#GR
nm
%R
1.0
0.0
2500.000000
-10.000000
226
8
61.132556
8.062266
#DATA
2500.000000	8.062266
2490.000000	8.607124
2480.000000	13.509514
2470.000000	12.355182
2460.000000	11.793033
2450.000000	10.724890
2440.000000	10.976160
2430.000000	13.592138
2420.000000	12.569792
2410.000000	17.763223
2400.000000	12.243559
2390.000000	15.291060
2380.000000	12.274359
2370.000000	15.339328
2360.000000	16.294797
2350.000000	12.962825
2340.000000	14.828352
2330.000000	13.258125
2320.000000	14.004472
2310.000000	15.614174
2300.000000	14.996293
2290.000000	13.835069
2280.000000	13.942149
2270.000000	13.921593
2260.000000	13.305401
2250.000000	15.050701
2240.000000	17.146837
2230.000000	16.571953
2220.000000	16.321939
2210.000000	17.936993
2200.000000	17.075455
2190.000000	16.606020
2180.000000	15.368911
2170.000000	14.045831
2160.000000	16.440288
2150.000000	17.222404
2140.000000	18.095780
2130.000000	16.158139
2120.000000	18.231020
2110.000000	18.432129
2100.000000	19.076779
2090.000000	19.242304
2080.000000	18.247055
2070.000000	17.996288
2060.000000	17.941225
2050.000000	16.382320
2040.000000	16.715227
2030.000000	16.890730
2020.000000	16.881779
2010.000000	17.061581
2000.000000	17.337934
1990.000000	16.240255
1980.000000	15.967874
1970.000000	15.193492
1960.000000	15.027376
1950.000000	14.449508
1940.000000	14.236773
1930.000000	14.752949
1920.000000	15.700269
1910.000000	16.935211
1900.000000	20.134727
1890.000000	24.413149
1880.000000	28.752126
1870.000000	31.571727
1860.000000	34.060363
1850.000000	34.553894
1840.000000	34.266732
1830.000000	34.070147
1820.000000	33.415826
1810.000000	33.499246
1800.000000	33.110299
1790.000000	32.337324
1780.000000	31.819969
1770.000000	31.302662
1760.000000	30.826319
1750.000000	30.230679
1740.000000	29.294932
1730.000000	29.190325
1720.000000	29.476247
1710.000000	30.590586
1700.000000	31.383922
1690.000000	32.264854
1680.000000	34.103600
1670.000000	35.935706
1660.000000	37.472992
1650.000000	38.239456
1640.000000	38.155510
1630.000000	37.313778
1620.000000	36.900326
1610.000000	36.040795
1600.000000	35.148738
1590.000000	34.416405
1580.000000	33.787189
1570.000000	33.227471
1560.000000	32.755510
1550.000000	32.115835
1540.000000	31.423598
1530.000000	30.468599
1520.000000	29.844117
1510.000000	29.553561
1500.000000	29.349032
1490.000000	29.240592
1480.000000	29.571067
1470.000000	29.995310
1460.000000	30.496098
1450.000000	31.297783
1440.000000	32.276759
1430.000000	33.389840
1420.000000	34.896204
1410.000000	37.347885
1400.000000	41.064627
1390.000000	45.220996
1380.000000	47.830754
1370.000000	49.142236
1360.000000	49.923983
1350.000000	50.746173
1340.000000	51.271490
1330.000000	52.073447
1320.000000	53.396736
1310.000000	54.849965
1300.000000	55.685968
1290.000000	56.145200
1280.000000	56.007203
1270.000000	55.538946
1260.000000	55.460070
1250.000000	55.361831
1240.000000	54.979279
1230.000000	54.566174
1220.000000	54.015147
1210.000000	53.149365
1200.000000	52.539476
1190.000000	52.299780
1180.000000	52.920177
1170.000000	54.157121
1160.000000	55.763497
1150.000000	56.954675
1140.000000	58.017975
1130.000000	58.859515
1120.000000	59.500850
1110.000000	59.634747
1100.000000	59.784516
1090.000000	59.717762
1080.000000	59.591299
1070.000000	59.398090
1060.000000	59.267610
1050.000000	59.215015
1040.000000	59.153720
1030.000000	59.068070
1020.000000	59.286290
1010.000000	59.860755
1000.000000	60.449200
990.000000	60.584885
980.000000	60.451380
970.000000	60.663531
960.000000	60.911400
950.000000	61.132556
940.000000	60.999945
930.000000	60.788788
920.000000	60.812652
910.000000	60.875405
900.000000	60.989096
890.000000	60.858220
880.000000	60.586639
870.000000	60.401704
860.000000	60.697406
850.000000	60.864653
840.000000	60.492481
830.000000	60.419746
820.000000	60.454249
810.000000	60.270291
800.000000	60.138308
790.000000	60.208506
780.000000	60.053477
770.000000	60.006395
760.000000	59.921023
750.000000	59.792152
740.000000	59.585371
730.000000	59.312784
720.000000	59.097488
710.000000	58.810381
700.000000	58.522010
690.000000	58.109006
680.000000	57.807412
670.000000	57.403490
660.000000	56.829872
650.000000	56.261148
640.000000	55.625254
630.000000	54.869034
620.000000	54.076044
610.000000	53.230510
600.000000	52.597993
590.000000	51.991325
580.000000	51.250333
570.000000	50.475332
560.000000	49.793282
550.000000	48.928502
540.000000	47.951235
530.000000	46.998255
520.000000	46.019085
510.000000	44.937759
500.000000	43.631992
490.000000	42.141475
480.000000	40.678644
470.000000	38.946868
460.000000	36.965788
450.000000	34.709031
440.000000	32.324176
430.000000	29.969781
420.000000	27.669029
410.000000	25.920457
400.000000	25.100258
390.000000	24.583976
380.000000	23.862522
370.000000	22.936330
360.000000	22.097775
350.000000	21.252142
340.000000	20.525028
330.000000	19.854480
320.000000	19.353125
310.000000	18.685976
300.000000	17.244587
290.000000	15.380410
280.000000	14.295006
270.000000	14.146211
260.000000	14.183297
250.000000	13.787687
