PE UV       SUBTECH     SPECTRUM    ASCII       PEDS        4.00        
   -1
3G-H10-F025.Sample.Cycle1.Raw.asc
22/04/19
17:49:25.00
22/04/19
17:49:25.00
Administrator

250.000000
1
Lambda 750
750N8071901
PerkinElmer UV WinLab 6.0.4.0738 / 1.61.00 Lambda 900

0
0
3350/servo 860.8/2
0
0
UV/VIS
1
1
1
CommonBeamDepol,150mm sphere / downward view
0
0
0
0
Program
Program
3350/servo 860.8/2
3350/0.2 860.8/0.2
3350/0.2 860.8/0.2
0
1
 
 
 
0
 
860.8
319.2
860.8
Front
100
on
 
 
0
0
0
 
0
 
 
 
0
 
 
0
0
0
0
0
 
 
 
 
0
0


0
0
#HDR
-1
-1
#GR
nm
%R
1.0
0.0
2500.000000
-10.000000
226
8
66.296486
9.218381
#DATA
2500.000000	10.129231
2490.000000	10.450969
2480.000000	9.218381
2470.000000	11.485772
2460.000000	13.272548
2450.000000	19.306789
2440.000000	13.869162
2430.000000	13.716203
2420.000000	19.898592
2410.000000	21.785038
2400.000000	19.044704
2390.000000	18.724635
2380.000000	17.969709
2370.000000	15.325575
2360.000000	19.305997
2350.000000	18.712937
2340.000000	16.914685
2330.000000	18.050612
2320.000000	17.640985
2310.000000	16.063111
2300.000000	17.099384
2290.000000	17.290805
2280.000000	18.225615
2270.000000	18.373550
2260.000000	17.094170
2250.000000	18.875728
2240.000000	18.968938
2230.000000	19.196758
2220.000000	18.997289
2210.000000	18.767747
2200.000000	19.744358
2190.000000	19.559540
2180.000000	19.432089
2170.000000	17.404839
2160.000000	20.812940
2150.000000	20.505886
2140.000000	21.600590
2130.000000	21.476283
2120.000000	22.246277
2110.000000	21.518030
2100.000000	22.609863
2090.000000	22.294011
2080.000000	22.223556
2070.000000	21.460585
2060.000000	21.517277
2050.000000	19.929290
2040.000000	19.947428
2030.000000	20.794791
2020.000000	20.719472
2010.000000	20.881424
2000.000000	20.804499
1990.000000	20.275468
1980.000000	19.398960
1970.000000	18.754711
1960.000000	18.305958
1950.000000	17.751673
1940.000000	17.289943
1930.000000	17.592574
1920.000000	18.805738
1910.000000	20.811576
1900.000000	24.079388
1890.000000	28.134443
1880.000000	32.906980
1870.000000	36.711027
1860.000000	38.508099
1850.000000	39.125396
1840.000000	39.047229
1830.000000	38.593738
1820.000000	38.146670
1810.000000	38.111671
1800.000000	37.737190
1790.000000	36.818399
1780.000000	36.359418
1770.000000	35.989075
1760.000000	35.233014
1750.000000	34.564398
1740.000000	34.137256
1730.000000	33.748171
1720.000000	34.057476
1710.000000	35.323367
1700.000000	36.066363
1690.000000	36.851591
1680.000000	38.743856
1670.000000	40.778916
1660.000000	42.215392
1650.000000	43.002585
1640.000000	42.851266
1630.000000	42.363362
1620.000000	41.765049
1610.000000	40.910113
1600.000000	40.074916
1590.000000	39.263804
1580.000000	38.554923
1570.000000	38.032506
1560.000000	37.431370
1550.000000	36.942507
1540.000000	36.266990
1530.000000	35.166155
1520.000000	34.491692
1510.000000	34.111951
1500.000000	33.863771
1490.000000	33.897649
1480.000000	34.208983
1470.000000	34.762385
1460.000000	35.195872
1450.000000	36.080951
1440.000000	37.139402
1430.000000	38.424550
1420.000000	40.040096
1410.000000	42.550673
1400.000000	46.410962
1390.000000	50.550967
1380.000000	53.228630
1370.000000	54.467854
1360.000000	55.379318
1350.000000	56.192658
1340.000000	56.819632
1330.000000	57.738222
1320.000000	59.184938
1310.000000	60.567326
1300.000000	61.314325
1290.000000	61.638241
1280.000000	61.438936
1270.000000	60.934250
1260.000000	60.775183
1250.000000	60.646331
1240.000000	60.342730
1230.000000	59.944027
1220.000000	59.357447
1210.000000	58.485618
1200.000000	57.847612
1190.000000	57.670803
1180.000000	58.307479
1170.000000	59.565282
1160.000000	61.180449
1150.000000	62.480908
1140.000000	63.685410
1130.000000	64.394864
1120.000000	64.812498
1110.000000	65.067988
1100.000000	64.950613
1090.000000	65.009404
1080.000000	65.015080
1070.000000	64.902980
1060.000000	64.744660
1050.000000	64.615433
1040.000000	64.585793
1030.000000	64.405455
1020.000000	64.505932
1010.000000	64.876199
1000.000000	65.522272
990.000000	65.693731
980.000000	65.577015
970.000000	65.816877
960.000000	65.998628
950.000000	66.172297
940.000000	66.283598
930.000000	66.224781
920.000000	66.016423
910.000000	66.050498
900.000000	66.116504
890.000000	66.203715
880.000000	66.296486
870.000000	65.652959
860.000000	65.626105
850.000000	66.137252
840.000000	65.291343
830.000000	65.098391
820.000000	65.305552
810.000000	65.213597
800.000000	64.808967
790.000000	64.848549
780.000000	64.721542
770.000000	64.598495
760.000000	64.523276
750.000000	64.332557
740.000000	64.127969
730.000000	63.856000
720.000000	63.692063
710.000000	63.441510
700.000000	62.989214
690.000000	62.480970
680.000000	62.098522
670.000000	61.693629
660.000000	61.218944
650.000000	60.599056
640.000000	59.834099
630.000000	59.035296
620.000000	58.384033
610.000000	57.593229
600.000000	56.892226
590.000000	56.273248
580.000000	55.522756
570.000000	54.750904
560.000000	54.034782
550.000000	53.130300
540.000000	52.128299
530.000000	51.189740
520.000000	50.230204
510.000000	49.209200
500.000000	47.905986
490.000000	46.463123
480.000000	45.014531
470.000000	43.334917
460.000000	41.447700
450.000000	39.239688
440.000000	36.920594
430.000000	34.616131
420.000000	32.389653
410.000000	30.790225
400.000000	29.976687
390.000000	29.302933
380.000000	28.533772
370.000000	27.659650
360.000000	26.646568
350.000000	25.552736
340.000000	24.645845
330.000000	23.515861
320.000000	22.997948
310.000000	21.610455
300.000000	19.213888
290.000000	16.930419
280.000000	15.443421
270.000000	15.203952
260.000000	15.072750
250.000000	14.471684
