PE UV       SUBTECH     SPECTRUM    ASCII       PEDS        4.00        
   -1
3G-H10-F009.Sample.Raw.asc
22/03/09
15:53:42.00
22/03/09
15:53:42.00
Administrator

250.000000
1
Lambda 750
750N8071901
PerkinElmer UV WinLab 6.0.4.0738 / 1.61.00 Lambda 900

0
0
3350/servo 860.8/2
0
0
UV/VIS
1
1
1
CommonBeamDepol,150mm sphere / downward view
0
0
0
0
Program
Program
3350/servo 860.8/2
3350/0.2 860.8/0.2
3350/0.2 860.8/0.2
0
1
 
 
 
0
 
860.8
319.2
860.8
Front
100
on
 
 
0
0
0
 
0
 
 
 
0
 
 
0
0
0
0
0
 
 
 
 
0
0


0
0
#HDR
-1
-1
#GR
nm
%R
1.0
0.0
2500.000000
-10.000000
226
8
65.808900
12.031262
#DATA
2500.000000	12.031262
2490.000000	18.763737
2480.000000	19.962785
2470.000000	20.472924
2460.000000	12.192328
2450.000000	17.738345
2440.000000	16.611956
2430.000000	18.886244
2420.000000	16.361323
2410.000000	15.241574
2400.000000	20.759149
2390.000000	19.287630
2380.000000	16.342195
2370.000000	20.539061
2360.000000	19.491620
2350.000000	19.251983
2340.000000	17.119901
2330.000000	19.769329
2320.000000	17.121889
2310.000000	15.899090
2300.000000	19.488731
2290.000000	18.179629
2280.000000	19.815519
2270.000000	17.070604
2260.000000	17.361134
2250.000000	19.361164
2240.000000	20.307115
2230.000000	17.940522
2220.000000	19.552711
2210.000000	20.165195
2200.000000	21.802132
2190.000000	19.157544
2180.000000	19.499028
2170.000000	19.021097
2160.000000	18.976599
2150.000000	19.373686
2140.000000	19.527520
2130.000000	22.046104
2120.000000	20.967763
2110.000000	23.006652
2100.000000	23.265842
2090.000000	22.241819
2080.000000	22.378926
2070.000000	21.383363
2060.000000	21.676669
2050.000000	19.963526
2040.000000	19.851043
2030.000000	19.983841
2020.000000	20.951345
2010.000000	20.893842
2000.000000	20.570047
1990.000000	20.105339
1980.000000	19.540498
1970.000000	18.988548
1960.000000	18.410600
1950.000000	17.651469
1940.000000	17.248756
1930.000000	18.935124
1920.000000	19.880443
1910.000000	21.360416
1900.000000	24.655129
1890.000000	29.083798
1880.000000	32.883715
1870.000000	36.169017
1860.000000	38.060038
1850.000000	39.221914
1840.000000	39.155555
1830.000000	38.624992
1820.000000	38.334839
1810.000000	37.925536
1800.000000	37.319162
1790.000000	36.701083
1780.000000	36.395151
1770.000000	35.873964
1760.000000	34.900325
1750.000000	34.634063
1740.000000	33.551121
1730.000000	33.412252
1720.000000	34.202374
1710.000000	35.290363
1700.000000	35.865242
1690.000000	36.601802
1680.000000	38.404711
1670.000000	40.788548
1660.000000	42.420151
1650.000000	42.938322
1640.000000	42.774103
1630.000000	42.414422
1620.000000	41.813524
1610.000000	40.833585
1600.000000	39.932745
1590.000000	39.101701
1580.000000	38.407949
1570.000000	37.888507
1560.000000	37.405512
1550.000000	36.863039
1540.000000	36.080666
1530.000000	35.121558
1520.000000	34.468172
1510.000000	33.979949
1500.000000	33.823966
1490.000000	33.847139
1480.000000	34.212316
1470.000000	34.716248
1460.000000	35.345337
1450.000000	36.216895
1440.000000	37.114835
1430.000000	37.873566
1420.000000	39.172088
1410.000000	41.709550
1400.000000	45.613840
1390.000000	49.997711
1380.000000	52.979346
1370.000000	54.080394
1360.000000	54.700105
1350.000000	55.285914
1340.000000	56.299210
1330.000000	57.770939
1320.000000	59.397993
1310.000000	60.341108
1300.000000	60.752295
1290.000000	60.705441
1280.000000	60.559201
1270.000000	60.336930
1260.000000	60.319008
1250.000000	60.216787
1240.000000	59.869448
1230.000000	59.401695
1220.000000	59.005416
1210.000000	58.344622
1200.000000	57.550402
1190.000000	57.178024
1180.000000	57.608958
1170.000000	58.947642
1160.000000	60.602263
1150.000000	61.914027
1140.000000	63.149744
1130.000000	64.163185
1120.000000	64.485057
1110.000000	64.538145
1100.000000	64.649533
1090.000000	64.656624
1080.000000	64.448843
1070.000000	64.265258
1060.000000	64.053043
1050.000000	63.963270
1040.000000	63.811057
1030.000000	63.599621
1020.000000	63.617163
1010.000000	64.180176
1000.000000	64.988504
990.000000	65.413284
980.000000	65.445574
970.000000	65.563676
960.000000	65.683167
950.000000	65.786715
940.000000	65.808900
930.000000	65.661908
920.000000	65.381384
910.000000	65.436071
900.000000	65.725479
890.000000	65.754633
880.000000	65.741475
870.000000	65.600475
860.000000	65.706259
850.000000	65.315813
840.000000	64.974998
830.000000	64.649794
820.000000	64.529306
810.000000	64.797579
800.000000	64.664381
790.000000	64.331563
780.000000	64.412788
770.000000	64.496389
760.000000	64.119337
750.000000	63.884527
740.000000	63.706136
730.000000	63.383969
720.000000	63.191446
710.000000	62.985303
700.000000	62.638045
690.000000	62.317276
680.000000	61.866401
670.000000	61.381667
660.000000	60.950254
650.000000	60.519310
640.000000	59.755903
630.000000	58.929890
620.000000	58.183563
610.000000	57.364484
600.000000	56.668206
590.000000	56.054822
580.000000	55.255882
570.000000	54.475442
560.000000	53.704767
550.000000	52.825674
540.000000	51.900657
530.000000	50.838979
520.000000	49.862879
510.000000	48.815522
500.000000	47.616620
490.000000	46.232685
480.000000	44.546878
470.000000	42.815139
460.000000	40.943434
450.000000	38.837324
440.000000	36.477368
430.000000	33.979782
420.000000	31.818182
410.000000	30.219391
400.000000	29.387845
390.000000	28.808980
380.000000	27.999489
370.000000	26.987267
360.000000	25.707600
350.000000	24.529103
340.000000	23.779755
330.000000	22.803069
320.000000	21.558904
310.000000	20.543606
300.000000	19.139499
290.000000	16.758876
280.000000	15.285696
270.000000	15.104587
260.000000	15.144373
250.000000	14.446125
