PE UV       SUBTECH     SPECTRUM    ASCII       PEDS        4.00        
   -1
3G-N10-F005.Sample.Raw.asc
22/03/09
16:54:40.00
22/03/09
16:54:40.00
Administrator

250.000000
1
Lambda 750
750N8071901
PerkinElmer UV WinLab 6.0.4.0738 / 1.61.00 Lambda 900

0
0
3350/servo 860.8/2
0
0
UV/VIS
1
1
1
CommonBeamDepol,150mm sphere / downward view
0
0
0
0
Program
Program
3350/servo 860.8/2
3350/0.2 860.8/0.2
3350/0.2 860.8/0.2
0
1
 
 
 
0
 
860.8
319.2
860.8
Front
100
on
 
 
0
0
0
 
0
 
 
 
0
 
 
0
0
0
0
0
 
 
 
 
0
0


0
0
#HDR
-1
-1
#GR
nm
%R
1.0
0.0
2500.000000
-10.000000
226
8
65.641981
8.522863
#DATA
2500.000000	8.522863
2490.000000	10.867237
2480.000000	16.915474
2470.000000	17.058684
2460.000000	11.702850
2450.000000	16.521275
2440.000000	14.686631
2430.000000	18.466550
2420.000000	16.943149
2410.000000	22.513488
2400.000000	18.188974
2390.000000	18.510900
2380.000000	19.225040
2370.000000	19.285116
2360.000000	18.102612
2350.000000	18.326541
2340.000000	18.948019
2330.000000	19.654373
2320.000000	18.885294
2310.000000	15.861652
2300.000000	18.442808
2290.000000	17.279402
2280.000000	19.914994
2270.000000	19.246959
2260.000000	19.636086
2250.000000	20.045539
2240.000000	20.697942
2230.000000	20.232206
2220.000000	21.050930
2210.000000	21.735260
2200.000000	21.765906
2190.000000	19.935633
2180.000000	21.651932
2170.000000	20.191805
2160.000000	20.381716
2150.000000	20.892638
2140.000000	22.704872
2130.000000	24.025361
2120.000000	22.153147
2110.000000	24.258008
2100.000000	24.346825
2090.000000	25.354843
2080.000000	24.711761
2070.000000	22.884652
2060.000000	22.115177
2050.000000	21.564057
2040.000000	21.587149
2030.000000	20.966513
2020.000000	22.222077
2010.000000	22.105651
2000.000000	22.080779
1990.000000	21.034023
1980.000000	20.335251
1970.000000	19.885277
1960.000000	19.379860
1950.000000	18.154132
1940.000000	17.877868
1930.000000	18.501064
1920.000000	20.120348
1910.000000	21.888853
1900.000000	26.604558
1890.000000	31.685795
1880.000000	36.402612
1870.000000	39.730717
1860.000000	41.588550
1850.000000	42.228960
1840.000000	42.576586
1830.000000	42.213077
1820.000000	41.968786
1810.000000	41.115252
1800.000000	40.827138
1790.000000	40.035320
1780.000000	39.517716
1770.000000	39.161295
1760.000000	38.477528
1750.000000	37.866945
1740.000000	36.955449
1730.000000	36.661077
1720.000000	37.487586
1710.000000	38.561145
1700.000000	39.216434
1690.000000	39.852721
1680.000000	41.796146
1670.000000	43.970871
1660.000000	45.404676
1650.000000	46.081534
1640.000000	46.052899
1630.000000	45.518060
1620.000000	44.765345
1610.000000	44.163721
1600.000000	42.973058
1590.000000	42.197486
1580.000000	41.419973
1570.000000	40.995240
1560.000000	40.498397
1550.000000	39.939123
1540.000000	39.194659
1530.000000	38.302324
1520.000000	37.545570
1510.000000	36.993602
1500.000000	36.756543
1490.000000	36.898286
1480.000000	37.277200
1470.000000	37.773459
1460.000000	38.427417
1450.000000	39.155906
1440.000000	40.093401
1430.000000	40.927992
1420.000000	42.216677
1410.000000	44.544122
1400.000000	48.284103
1390.000000	52.468171
1380.000000	55.144659
1370.000000	55.931747
1360.000000	56.305657
1350.000000	56.694227
1340.000000	57.688362
1330.000000	59.015017
1320.000000	60.379907
1310.000000	61.229290
1300.000000	61.540370
1290.000000	61.437219
1280.000000	61.122464
1270.000000	60.974064
1260.000000	61.041943
1250.000000	60.940941
1240.000000	60.858755
1230.000000	60.425885
1220.000000	59.982205
1210.000000	59.526202
1200.000000	58.961856
1190.000000	58.694857
1180.000000	59.063915
1170.000000	60.115122
1160.000000	61.348924
1150.000000	62.156588
1140.000000	62.841314
1130.000000	63.728509
1120.000000	64.048692
1110.000000	64.215341
1100.000000	64.281097
1090.000000	64.348247
1080.000000	64.346968
1070.000000	64.229217
1060.000000	63.990080
1050.000000	63.947228
1040.000000	63.925187
1030.000000	63.697621
1020.000000	63.613323
1010.000000	63.957199
1000.000000	64.770755
990.000000	65.244374
980.000000	65.222165
970.000000	65.194105
960.000000	65.277426
950.000000	65.441975
940.000000	65.455197
930.000000	65.275109
920.000000	65.058404
910.000000	64.932054
900.000000	65.160275
890.000000	65.292433
880.000000	65.409247
870.000000	65.443394
860.000000	65.641981
850.000000	65.327566
840.000000	64.927154
830.000000	64.668365
820.000000	64.981958
810.000000	64.874414
800.000000	64.679006
790.000000	64.584781
780.000000	64.774997
770.000000	64.842329
760.000000	64.639676
750.000000	64.339394
740.000000	64.146427
730.000000	64.052414
720.000000	63.912376
710.000000	63.706810
700.000000	63.463727
690.000000	63.151280
680.000000	62.977587
670.000000	62.688401
660.000000	62.316588
650.000000	62.031357
640.000000	61.751330
630.000000	61.281253
620.000000	60.796668
610.000000	60.285180
600.000000	59.830086
590.000000	59.309428
580.000000	58.709721
570.000000	58.059369
560.000000	57.475266
550.000000	56.697105
540.000000	55.866923
530.000000	55.007049
520.000000	54.111735
510.000000	53.150072
500.000000	52.030893
490.000000	50.832263
480.000000	49.353304
470.000000	47.683703
460.000000	45.904787
450.000000	43.857072
440.000000	41.533271
430.000000	39.064559
420.000000	36.685057
410.000000	34.613987
400.000000	33.109002
390.000000	31.925153
380.000000	30.561000
370.000000	29.007004
360.000000	27.178731
350.000000	25.833493
340.000000	24.644656
330.000000	23.430057
320.000000	22.720047
310.000000	21.774735
300.000000	19.811880
290.000000	17.280827
280.000000	15.841145
270.000000	15.688998
260.000000	15.729200
250.000000	15.138321
