PE UV       SUBTECH     SPECTRUM    ASCII       PEDS        4.00        
   -1
3G-N10-F003.Sample.Raw.asc
22/03/09
16:46:54.00
22/03/09
16:46:54.00
Administrator

250.000000
1
Lambda 750
750N8071901
PerkinElmer UV WinLab 6.0.4.0738 / 1.61.00 Lambda 900

0
0
3350/servo 860.8/2
0
0
UV/VIS
1
1
1
CommonBeamDepol,150mm sphere / downward view
0
0
0
0
Program
Program
3350/servo 860.8/2
3350/0.2 860.8/0.2
3350/0.2 860.8/0.2
0
1
 
 
 
0
 
860.8
319.2
860.8
Front
100
on
 
 
0
0
0
 
0
 
 
 
0
 
 
0
0
0
0
0
 
 
 
 
0
0


0
0
#HDR
-1
-1
#GR
nm
%R
1.0
0.0
2500.000000
-10.000000
226
8
65.008364
12.263586
#DATA
2500.000000	13.415249
2490.000000	14.298238
2480.000000	13.932807
2470.000000	16.844629
2460.000000	12.263586
2450.000000	18.514592
2440.000000	14.673421
2430.000000	20.506139
2420.000000	19.066454
2410.000000	21.138695
2400.000000	15.980391
2390.000000	19.502161
2380.000000	20.442054
2370.000000	19.999356
2360.000000	16.727455
2350.000000	21.208558
2340.000000	17.879123
2330.000000	20.574655
2320.000000	15.551680
2310.000000	15.439988
2300.000000	18.384983
2290.000000	16.085609
2280.000000	20.114590
2270.000000	18.542597
2260.000000	17.757378
2250.000000	18.994143
2240.000000	21.754228
2230.000000	20.806118
2220.000000	21.855786
2210.000000	21.438273
2200.000000	22.412884
2190.000000	20.447466
2180.000000	20.873387
2170.000000	21.072740
2160.000000	20.442524
2150.000000	22.817693
2140.000000	23.301864
2130.000000	23.763204
2120.000000	23.598396
2110.000000	23.342525
2100.000000	25.084391
2090.000000	23.548368
2080.000000	24.425491
2070.000000	22.657065
2060.000000	21.747354
2050.000000	21.500853
2040.000000	21.552764
2030.000000	21.241740
2020.000000	21.734090
2010.000000	22.213661
2000.000000	22.094608
1990.000000	21.148782
1980.000000	20.579482
1970.000000	19.886610
1960.000000	19.241681
1950.000000	17.370352
1940.000000	17.260791
1930.000000	18.415315
1920.000000	19.983259
1910.000000	21.984400
1900.000000	26.707710
1890.000000	31.403454
1880.000000	36.035882
1870.000000	39.918209
1860.000000	41.803767
1850.000000	42.522330
1840.000000	42.562255
1830.000000	42.045202
1820.000000	41.767810
1810.000000	41.165122
1800.000000	40.666759
1790.000000	39.922217
1780.000000	39.565258
1770.000000	38.836385
1760.000000	38.401642
1750.000000	37.763213
1740.000000	36.617253
1730.000000	36.593996
1720.000000	37.572429
1710.000000	38.609835
1700.000000	39.232868
1690.000000	39.835611
1680.000000	41.644320
1670.000000	43.772387
1660.000000	45.269015
1650.000000	45.840914
1640.000000	45.861111
1630.000000	45.294357
1620.000000	44.574206
1610.000000	43.930454
1600.000000	42.763132
1590.000000	42.035071
1580.000000	41.457756
1570.000000	40.912491
1560.000000	40.417925
1550.000000	39.877325
1540.000000	39.091495
1530.000000	38.192800
1520.000000	37.490393
1510.000000	36.942154
1500.000000	36.650936
1490.000000	36.779462
1480.000000	37.203236
1470.000000	37.693093
1460.000000	38.291385
1450.000000	39.115798
1440.000000	40.072982
1430.000000	40.828484
1420.000000	41.951987
1410.000000	44.335785
1400.000000	47.987480
1390.000000	52.209878
1380.000000	54.760817
1370.000000	55.595734
1360.000000	56.021477
1350.000000	56.353432
1340.000000	57.268219
1330.000000	58.536125
1320.000000	59.957788
1310.000000	60.805016
1300.000000	61.013463
1290.000000	60.904600
1280.000000	60.688883
1270.000000	60.545387
1260.000000	60.582667
1250.000000	60.482856
1240.000000	60.153513
1230.000000	59.897124
1220.000000	59.585385
1210.000000	59.119163
1200.000000	58.509359
1190.000000	58.248883
1180.000000	58.722225
1170.000000	59.715772
1160.000000	60.919107
1150.000000	61.858251
1140.000000	62.582129
1130.000000	63.130183
1120.000000	63.638832
1110.000000	64.041324
1100.000000	64.075549
1090.000000	64.003097
1080.000000	63.744100
1070.000000	63.603658
1060.000000	63.514642
1050.000000	63.394742
1040.000000	63.213475
1030.000000	63.119868
1020.000000	63.098103
1010.000000	63.529186
1000.000000	64.384571
990.000000	64.801628
980.000000	64.680876
970.000000	64.673142
960.000000	64.867881
950.000000	64.981690
940.000000	64.975216
930.000000	64.647969
920.000000	64.596648
910.000000	64.897337
900.000000	65.008364
890.000000	64.841788
880.000000	64.766419
870.000000	64.979346
860.000000	64.943250
850.000000	64.238617
840.000000	64.823880
830.000000	64.582475
820.000000	64.550225
810.000000	64.508862
800.000000	64.481274
790.000000	64.449339
780.000000	64.510010
770.000000	64.563787
760.000000	64.272870
750.000000	64.095480
740.000000	64.073045
730.000000	63.728447
720.000000	63.499897
710.000000	63.380342
700.000000	63.138808
690.000000	62.930424
680.000000	62.763662
670.000000	62.496486
660.000000	62.233984
650.000000	62.028904
640.000000	61.706469
630.000000	61.272025
620.000000	60.797283
610.000000	60.297483
600.000000	59.870718
590.000000	59.398705
580.000000	58.811323
570.000000	58.213397
560.000000	57.638207
550.000000	56.887523
540.000000	56.052958
530.000000	55.191063
520.000000	54.378428
510.000000	53.365029
500.000000	52.277005
490.000000	51.122153
480.000000	49.640310
470.000000	48.096959
460.000000	46.454667
450.000000	44.482844
440.000000	42.259149
430.000000	39.775652
420.000000	37.387626
410.000000	35.336048
400.000000	33.682339
390.000000	32.272552
380.000000	30.830665
370.000000	29.227912
360.000000	27.582642
350.000000	26.066847
340.000000	24.828766
330.000000	23.778449
320.000000	22.935457
310.000000	22.358398
300.000000	20.302125
290.000000	17.694487
280.000000	16.202868
270.000000	16.025009
260.000000	15.996186
250.000000	15.266960
