PE UV       SUBTECH     SPECTRUM    ASCII       PEDS        4.00        
   -1
3G-N10-F012.Sample.Raw.asc
22/04/20
15:55:43.00
22/04/20
15:55:43.00
Administrator

250.000000
1
Lambda 750
750N8071901
PerkinElmer UV WinLab 6.0.4.0738 / 1.61.00 Lambda 900

0
0
3350/servo 860.8/2
0
0
UV/VIS
1
1
1
CommonBeamDepol,150mm sphere / downward view
0
0
0
0
Program
Program
3350/servo 860.8/2
3350/0.2 860.8/0.2
3350/0.2 860.8/0.2
0
1
 
 
 
0
 
860.8
319.2
860.8
Front
100
on
 
 
0
0
0
 
0
 
 
 
0
 
 
0
0
0
0
0
 
 
 
 
0
0


0
0
#HDR
-1
-1
#GR
nm
%R
1.0
0.0
2500.000000
-10.000000
226
8
65.876235
11.345459
#DATA
2500.000000	14.903254
2490.000000	17.393285
2480.000000	13.524110
2470.000000	13.936544
2460.000000	14.614361
2450.000000	16.049298
2440.000000	18.302071
2430.000000	11.345459
2420.000000	14.046908
2410.000000	19.004838
2400.000000	18.899958
2390.000000	14.501637
2380.000000	19.049353
2370.000000	19.596531
2360.000000	17.804038
2350.000000	22.626100
2340.000000	18.899429
2330.000000	19.251168
2320.000000	18.578812
2310.000000	18.428217
2300.000000	18.242811
2290.000000	18.295860
2280.000000	19.915439
2270.000000	20.299145
2260.000000	18.790491
2250.000000	20.692067
2240.000000	20.355988
2230.000000	24.250679
2220.000000	23.796300
2210.000000	22.355035
2200.000000	19.996956
2190.000000	22.058898
2180.000000	20.215894
2170.000000	19.329451
2160.000000	20.518404
2150.000000	22.778248
2140.000000	24.333998
2130.000000	23.884288
2120.000000	23.236113
2110.000000	23.629860
2100.000000	24.965146
2090.000000	23.157702
2080.000000	25.423089
2070.000000	24.442427
2060.000000	22.847970
2050.000000	22.800876
2040.000000	21.319598
2030.000000	22.139083
2020.000000	22.249925
2010.000000	23.176242
2000.000000	22.234634
1990.000000	21.831680
1980.000000	20.966159
1970.000000	19.700093
1960.000000	19.199735
1950.000000	18.898158
1940.000000	17.888626
1930.000000	19.065031
1920.000000	20.373647
1910.000000	21.788888
1900.000000	27.379920
1890.000000	31.522862
1880.000000	36.503513
1870.000000	39.931688
1860.000000	42.159362
1850.000000	43.113830
1840.000000	42.635245
1830.000000	42.338712
1820.000000	41.873832
1810.000000	41.823484
1800.000000	41.163756
1790.000000	40.801747
1780.000000	40.111464
1770.000000	39.403746
1760.000000	38.902131
1750.000000	38.336974
1740.000000	37.770852
1730.000000	37.416135
1720.000000	38.067937
1710.000000	39.128930
1700.000000	39.814607
1690.000000	40.618911
1680.000000	42.354951
1670.000000	44.594855
1660.000000	45.924502
1650.000000	46.616508
1640.000000	46.492720
1630.000000	46.015875
1620.000000	45.519962
1610.000000	44.459783
1600.000000	43.457159
1590.000000	42.652815
1580.000000	42.059444
1570.000000	41.396950
1560.000000	41.022770
1550.000000	40.572516
1540.000000	39.707553
1530.000000	38.839452
1520.000000	38.116477
1510.000000	37.591901
1500.000000	37.246087
1490.000000	37.200864
1480.000000	37.616248
1470.000000	38.234424
1460.000000	38.796346
1450.000000	39.565055
1440.000000	40.685298
1430.000000	41.911765
1420.000000	43.408765
1410.000000	45.731349
1400.000000	49.260767
1390.000000	53.135595
1380.000000	55.434448
1370.000000	56.516048
1360.000000	57.296727
1350.000000	57.832091
1340.000000	58.116739
1330.000000	58.856178
1320.000000	60.412071
1310.000000	61.612999
1300.000000	62.227827
1290.000000	62.423269
1280.000000	62.155230
1270.000000	61.878212
1260.000000	61.794346
1250.000000	61.643157
1240.000000	61.490375
1230.000000	61.150035
1220.000000	60.532336
1210.000000	59.975302
1200.000000	59.466236
1190.000000	59.380226
1180.000000	59.899207
1170.000000	60.818532
1160.000000	62.021840
1150.000000	62.993096
1140.000000	63.483979
1130.000000	64.259737
1120.000000	64.828565
1110.000000	65.036637
1100.000000	64.879590
1090.000000	64.834398
1080.000000	64.700663
1070.000000	64.653238
1060.000000	64.558419
1050.000000	64.577181
1040.000000	64.364914
1030.000000	64.408118
1020.000000	64.502173
1010.000000	64.839407
1000.000000	65.437926
990.000000	65.567050
980.000000	65.491223
970.000000	65.598725
960.000000	65.753323
950.000000	65.876235
940.000000	65.875505
930.000000	65.675832
920.000000	65.440776
910.000000	65.558831
900.000000	65.614455
890.000000	65.730667
880.000000	65.823851
870.000000	65.614602
860.000000	65.230475
850.000000	65.237591
840.000000	65.630189
830.000000	65.609201
820.000000	65.516659
810.000000	65.449484
800.000000	65.684345
790.000000	65.371433
780.000000	65.121162
770.000000	65.238685
760.000000	65.089726
750.000000	65.009988
740.000000	64.822379
730.000000	64.795814
720.000000	64.651582
710.000000	64.466004
700.000000	64.353109
690.000000	64.096746
680.000000	63.833995
670.000000	63.508917
660.000000	63.171755
650.000000	62.900658
640.000000	62.484279
630.000000	62.062080
620.000000	61.618109
610.000000	61.051510
600.000000	60.523674
590.000000	60.050940
580.000000	59.557845
570.000000	58.926295
560.000000	58.265895
550.000000	57.624295
540.000000	56.847903
530.000000	56.040033
520.000000	55.174964
510.000000	54.207606
500.000000	53.073165
490.000000	51.723902
480.000000	50.318081
470.000000	48.740402
460.000000	46.918862
450.000000	44.804900
440.000000	42.540914
430.000000	40.127478
420.000000	37.675182
410.000000	35.585137
400.000000	34.150583
390.000000	32.857108
380.000000	31.328504
370.000000	29.765408
360.000000	28.342469
350.000000	27.281688
340.000000	25.847524
330.000000	24.206964
320.000000	23.531580
310.000000	21.891226
300.000000	19.264274
290.000000	16.904214
280.000000	15.681460
270.000000	15.587612
260.000000	15.600141
250.000000	15.067370
