PE UV       SUBTECH     SPECTRUM    ASCII       PEDS        4.00        
   -1
3G-H10-F003.Sample.Raw.asc
22/03/09
15:33:36.00
22/03/09
15:33:36.00
Administrator

250.000000
1
Lambda 750
750N8071901
PerkinElmer UV WinLab 6.0.4.0738 / 1.61.00 Lambda 900

0
0
3350/servo 860.8/2
0
0
UV/VIS
1
1
1
CommonBeamDepol,150mm sphere / downward view
0
0
0
0
Program
Program
3350/servo 860.8/2
3350/0.2 860.8/0.2
3350/0.2 860.8/0.2
0
1
 
 
 
0
 
860.8
319.2
860.8
Front
100
on
 
 
0
0
0
 
0
 
 
 
0
 
 
0
0
0
0
0
 
 
 
 
0
0


0
0
#HDR
-1
-1
#GR
nm
%R
1.0
0.0
2500.000000
-10.000000
226
8
64.129652
10.892094
#DATA
2500.000000	10.892094
2490.000000	12.295621
2480.000000	16.163917
2470.000000	18.675988
2460.000000	13.836574
2450.000000	20.965472
2440.000000	16.166787
2430.000000	13.051867
2420.000000	15.389207
2410.000000	18.304311
2400.000000	14.254995
2390.000000	17.789696
2380.000000	15.977936
2370.000000	15.305597
2360.000000	17.383046
2350.000000	21.643206
2340.000000	17.417214
2330.000000	16.735619
2320.000000	14.389907
2310.000000	17.699371
2300.000000	17.923024
2290.000000	17.630901
2280.000000	18.567562
2270.000000	16.733595
2260.000000	17.500444
2250.000000	18.776769
2240.000000	17.189089
2230.000000	19.772549
2220.000000	19.646391
2210.000000	19.109820
2200.000000	18.491614
2190.000000	18.673500
2180.000000	19.023537
2170.000000	18.973985
2160.000000	17.719905
2150.000000	20.084364
2140.000000	20.959917
2130.000000	22.600398
2120.000000	18.741588
2110.000000	20.160879
2100.000000	22.496406
2090.000000	20.927488
2080.000000	20.888486
2070.000000	20.751759
2060.000000	19.802213
2050.000000	19.155688
2040.000000	18.899947
2030.000000	18.507863
2020.000000	19.929520
2010.000000	19.833508
2000.000000	19.318788
1990.000000	19.382956
1980.000000	18.526205
1970.000000	18.340318
1960.000000	17.896599
1950.000000	16.448689
1940.000000	16.651736
1930.000000	17.146371
1920.000000	18.443652
1910.000000	20.341891
1900.000000	23.207745
1890.000000	28.099861
1880.000000	31.786162
1870.000000	34.776218
1860.000000	36.577069
1850.000000	37.504911
1840.000000	37.562939
1830.000000	36.798615
1820.000000	36.812784
1810.000000	36.342161
1800.000000	35.567474
1790.000000	35.175840
1780.000000	34.871836
1770.000000	34.115623
1760.000000	33.413619
1750.000000	33.042398
1740.000000	32.166755
1730.000000	31.762191
1720.000000	32.742280
1710.000000	33.624377
1700.000000	34.069351
1690.000000	34.986213
1680.000000	36.856219
1670.000000	39.197387
1660.000000	40.557129
1650.000000	41.244759
1640.000000	41.211552
1630.000000	40.699581
1620.000000	39.924464
1610.000000	39.139605
1600.000000	38.241488
1590.000000	37.426055
1580.000000	36.690485
1570.000000	36.160705
1560.000000	35.619962
1550.000000	35.228027
1540.000000	34.382064
1530.000000	33.647256
1520.000000	32.746537
1510.000000	32.352747
1500.000000	32.275502
1490.000000	32.322225
1480.000000	32.641902
1470.000000	33.124732
1460.000000	33.728724
1450.000000	34.455461
1440.000000	35.474713
1430.000000	36.147667
1420.000000	37.435144
1410.000000	39.893005
1400.000000	43.721475
1390.000000	48.216469
1380.000000	51.117581
1370.000000	52.136505
1360.000000	52.677449
1350.000000	53.318332
1340.000000	54.289971
1330.000000	55.596403
1320.000000	57.215313
1310.000000	58.322396
1300.000000	58.799410
1290.000000	58.906461
1280.000000	58.751523
1270.000000	58.385012
1260.000000	58.375913
1250.000000	58.322193
1240.000000	58.039756
1230.000000	57.514755
1220.000000	56.857651
1210.000000	56.247205
1200.000000	55.570075
1190.000000	55.269413
1180.000000	55.799899
1170.000000	57.149268
1160.000000	58.732364
1150.000000	59.952785
1140.000000	60.858550
1130.000000	61.828096
1120.000000	62.259272
1110.000000	62.455768
1100.000000	62.603097
1090.000000	62.566369
1080.000000	62.589947
1070.000000	62.521158
1060.000000	62.378089
1050.000000	62.162717
1040.000000	61.893282
1030.000000	61.665236
1020.000000	61.583165
1010.000000	62.131736
1000.000000	63.120985
990.000000	63.509216
980.000000	63.528083
970.000000	63.496365
960.000000	63.750190
950.000000	63.945574
940.000000	63.889604
930.000000	63.767345
920.000000	63.696785
910.000000	63.491296
900.000000	63.731580
890.000000	63.915563
880.000000	63.612333
870.000000	63.865990
860.000000	64.129652
850.000000	63.816083
840.000000	63.392050
830.000000	63.121181
820.000000	63.109177
810.000000	63.214878
800.000000	63.182557
790.000000	63.069594
780.000000	63.072436
770.000000	63.016599
760.000000	62.704088
750.000000	62.566073
740.000000	62.397296
730.000000	62.212382
720.000000	61.990299
710.000000	61.631491
700.000000	61.338980
690.000000	61.030578
680.000000	60.692260
670.000000	60.170890
660.000000	59.623080
650.000000	59.107861
640.000000	58.470274
630.000000	57.717295
620.000000	56.983763
610.000000	56.193253
600.000000	55.518823
590.000000	54.886218
580.000000	54.123486
570.000000	53.238904
560.000000	52.503688
550.000000	51.700474
540.000000	50.692050
530.000000	49.671270
520.000000	48.701756
510.000000	47.628832
500.000000	46.330041
490.000000	44.975874
480.000000	43.397610
470.000000	41.652153
460.000000	39.742395
450.000000	37.593187
440.000000	35.230015
430.000000	32.754608
420.000000	30.488165
410.000000	28.805456
400.000000	27.951426
390.000000	27.440829
380.000000	26.740038
370.000000	25.732215
360.000000	24.727451
350.000000	23.841606
340.000000	22.834343
330.000000	21.989380
320.000000	21.288201
310.000000	20.585771
300.000000	18.837689
290.000000	16.650586
280.000000	15.267534
270.000000	15.000548
260.000000	15.008435
250.000000	14.423979
