PE UV       SUBTECH     SPECTRUM    ASCII       PEDS        4.00        
   -1
3G-N10-F030.Sample.Raw.asc
22/04/20
16:55:47.00
22/04/20
16:55:47.00
Administrator

250.000000
1
Lambda 750
750N8071901
PerkinElmer UV WinLab 6.0.4.0738 / 1.61.00 Lambda 900

0
0
3350/servo 860.8/2
0
0
UV/VIS
1
1
1
CommonBeamDepol,150mm sphere / downward view
0
0
0
0
Program
Program
3350/servo 860.8/2
3350/0.2 860.8/0.2
3350/0.2 860.8/0.2
0
1
 
 
 
0
 
860.8
319.2
860.8
Front
100
on
 
 
0
0
0
 
0
 
 
 
0
 
 
0
0
0
0
0
 
 
 
 
0
0


0
0
#HDR
-1
-1
#GR
nm
%R
1.0
0.0
2500.000000
-10.000000
226
8
63.738686
12.308705
#DATA
2500.000000	16.797937
2490.000000	16.549039
2480.000000	14.625840
2470.000000	12.308705
2460.000000	12.792373
2450.000000	14.196262
2440.000000	16.156620
2430.000000	15.906586
2420.000000	18.065821
2410.000000	19.437517
2400.000000	20.122726
2390.000000	19.579690
2380.000000	13.451574
2370.000000	18.245623
2360.000000	16.017684
2350.000000	20.226401
2340.000000	18.649441
2330.000000	18.092334
2320.000000	18.642481
2310.000000	16.174744
2300.000000	17.216730
2290.000000	17.481536
2280.000000	16.951950
2270.000000	18.823354
2260.000000	16.443190
2250.000000	17.708307
2240.000000	21.081410
2230.000000	21.897591
2220.000000	22.352049
2210.000000	20.858196
2200.000000	19.599909
2190.000000	20.625143
2180.000000	18.874603
2170.000000	17.633772
2160.000000	19.097919
2150.000000	20.210296
2140.000000	22.505808
2130.000000	22.309800
2120.000000	21.718669
2110.000000	23.851278
2100.000000	23.601603
2090.000000	22.595655
2080.000000	22.949406
2070.000000	22.338614
2060.000000	21.942251
2050.000000	20.810650
2040.000000	19.887098
2030.000000	20.620399
2020.000000	21.035726
2010.000000	21.707562
2000.000000	21.286089
1990.000000	20.856861
1980.000000	20.082375
1970.000000	18.992143
1960.000000	18.293921
1950.000000	17.822727
1940.000000	17.517729
1930.000000	18.302482
1920.000000	19.880623
1910.000000	21.139313
1900.000000	26.093203
1890.000000	30.681140
1880.000000	35.363661
1870.000000	38.690179
1860.000000	40.520133
1850.000000	41.031572
1840.000000	40.671395
1830.000000	40.520067
1820.000000	40.158460
1810.000000	39.807717
1800.000000	39.476452
1790.000000	39.142960
1780.000000	38.885879
1770.000000	38.052716
1760.000000	37.204628
1750.000000	36.573530
1740.000000	35.897023
1730.000000	35.783272
1720.000000	36.432253
1710.000000	37.453450
1700.000000	38.117951
1690.000000	38.975170
1680.000000	40.828832
1670.000000	42.714330
1660.000000	44.025796
1650.000000	44.760619
1640.000000	44.578491
1630.000000	43.998125
1620.000000	43.452301
1610.000000	42.621498
1600.000000	41.519636
1590.000000	40.812392
1580.000000	40.195781
1570.000000	39.613281
1560.000000	39.273329
1550.000000	38.929683
1540.000000	38.055318
1530.000000	37.200329
1520.000000	36.403774
1510.000000	35.972907
1500.000000	35.672055
1490.000000	35.584416
1480.000000	36.042473
1470.000000	36.583014
1460.000000	37.221219
1450.000000	37.856022
1440.000000	39.024437
1430.000000	40.137916
1420.000000	41.544930
1410.000000	43.809923
1400.000000	47.191170
1390.000000	50.934750
1380.000000	53.275654
1370.000000	54.367132
1360.000000	55.075358
1350.000000	55.547276
1340.000000	55.792147
1330.000000	56.477512
1320.000000	57.908555
1310.000000	59.291955
1300.000000	60.107794
1290.000000	60.380587
1280.000000	60.051691
1270.000000	59.661032
1260.000000	59.600533
1250.000000	59.484265
1240.000000	59.293312
1230.000000	58.954408
1220.000000	58.395603
1210.000000	57.791901
1200.000000	57.269111
1190.000000	57.216485
1180.000000	57.772142
1170.000000	58.604798
1160.000000	59.708581
1150.000000	60.784567
1140.000000	61.591774
1130.000000	62.113712
1120.000000	62.389682
1110.000000	62.620441
1100.000000	62.745098
1090.000000	62.951315
1080.000000	62.588256
1070.000000	62.280087
1060.000000	62.186403
1050.000000	62.159347
1040.000000	61.987849
1030.000000	62.000922
1020.000000	62.143365
1010.000000	62.573873
1000.000000	63.260330
990.000000	63.346395
980.000000	63.144897
970.000000	63.184231
960.000000	63.425903
950.000000	63.518464
940.000000	63.422538
930.000000	63.059590
920.000000	62.825810
910.000000	63.037175
900.000000	63.249359
890.000000	63.309242
880.000000	63.401418
870.000000	63.738686
860.000000	62.772379
850.000000	62.679141
840.000000	63.343287
830.000000	62.965731
820.000000	63.021963
810.000000	63.213759
800.000000	63.016394
790.000000	62.980551
780.000000	62.720396
770.000000	62.745320
760.000000	62.646084
750.000000	62.584059
740.000000	62.564596
730.000000	62.361633
720.000000	62.246677
710.000000	62.184038
700.000000	61.971780
690.000000	61.729954
680.000000	61.524565
670.000000	61.212834
660.000000	60.822442
650.000000	60.462705
640.000000	60.139813
630.000000	59.823397
620.000000	59.394734
610.000000	58.788967
600.000000	58.332370
590.000000	57.906350
580.000000	57.360437
570.000000	56.775607
560.000000	56.175062
550.000000	55.530624
540.000000	54.807622
530.000000	53.990440
520.000000	53.138790
510.000000	52.255071
500.000000	51.188065
490.000000	49.851811
480.000000	48.476362
470.000000	47.013839
460.000000	45.311258
450.000000	43.249005
440.000000	40.973277
430.000000	38.619315
420.000000	36.203163
410.000000	34.008530
400.000000	32.496017
390.000000	31.172750
380.000000	29.699156
370.000000	28.183070
360.000000	26.804378
350.000000	25.844266
340.000000	24.499962
330.000000	23.092042
320.000000	22.616209
310.000000	21.385795
300.000000	18.962558
290.000000	16.758987
280.000000	15.588176
270.000000	15.417985
260.000000	15.512481
250.000000	15.030018
