PE UV       SUBTECH     SPECTRUM    ASCII       PEDS        4.00        
   -1
3G-N10-F007.Sample.Raw.asc
22/03/09
17:00:40.00
22/03/09
17:00:40.00
Administrator

250.000000
1
Lambda 750
750N8071901
PerkinElmer UV WinLab 6.0.4.0738 / 1.61.00 Lambda 900

0
0
3350/servo 860.8/2
0
0
UV/VIS
1
1
1
CommonBeamDepol,150mm sphere / downward view
0
0
0
0
Program
Program
3350/servo 860.8/2
3350/0.2 860.8/0.2
3350/0.2 860.8/0.2
0
1
 
 
 
0
 
860.8
319.2
860.8
Front
100
on
 
 
0
0
0
 
0
 
 
 
0
 
 
0
0
0
0
0
 
 
 
 
0
0


0
0
#HDR
-1
-1
#GR
nm
%R
1.0
0.0
2500.000000
-10.000000
226
8
65.828587
10.800536
#DATA
2500.000000	10.800536
2490.000000	16.994696
2480.000000	16.997638
2470.000000	18.750469
2460.000000	13.874534
2450.000000	18.039668
2440.000000	14.468009
2430.000000	15.300050
2420.000000	14.855265
2410.000000	17.786844
2400.000000	20.757229
2390.000000	20.515506
2380.000000	17.942981
2370.000000	20.281445
2360.000000	18.081507
2350.000000	18.309366
2340.000000	17.659879
2330.000000	21.575786
2320.000000	17.343611
2310.000000	16.082993
2300.000000	20.411379
2290.000000	19.004999
2280.000000	19.529368
2270.000000	18.454794
2260.000000	16.240086
2250.000000	20.557691
2240.000000	18.104757
2230.000000	21.025380
2220.000000	21.918459
2210.000000	20.498574
2200.000000	22.479615
2190.000000	20.360868
2180.000000	21.180301
2170.000000	20.371864
2160.000000	21.812987
2150.000000	21.629517
2140.000000	21.983880
2130.000000	24.360234
2120.000000	24.003518
2110.000000	23.735248
2100.000000	25.137724
2090.000000	25.116876
2080.000000	24.151040
2070.000000	22.891211
2060.000000	22.352102
2050.000000	21.710877
2040.000000	21.608559
2030.000000	21.333044
2020.000000	22.429717
2010.000000	22.204440
2000.000000	21.902968
1990.000000	21.339825
1980.000000	20.680911
1970.000000	20.210392
1960.000000	19.060779
1950.000000	18.105941
1940.000000	17.875862
1930.000000	19.308030
1920.000000	20.229096
1910.000000	22.421189
1900.000000	26.216109
1890.000000	31.795194
1880.000000	36.386782
1870.000000	40.109621
1860.000000	42.213268
1850.000000	42.927024
1840.000000	42.979788
1830.000000	42.357437
1820.000000	41.943255
1810.000000	41.444657
1800.000000	40.984232
1790.000000	40.470537
1780.000000	39.769951
1770.000000	39.295082
1760.000000	38.629960
1750.000000	38.061195
1740.000000	37.291671
1730.000000	36.958337
1720.000000	37.849321
1710.000000	38.990144
1700.000000	39.628595
1690.000000	40.228486
1680.000000	42.006467
1670.000000	44.413847
1660.000000	45.836681
1650.000000	46.495530
1640.000000	46.440417
1630.000000	45.905769
1620.000000	45.117409
1610.000000	44.414072
1600.000000	43.458061
1590.000000	42.520335
1580.000000	41.920431
1570.000000	41.422226
1560.000000	40.744430
1550.000000	40.261917
1540.000000	39.502839
1530.000000	38.487267
1520.000000	37.787295
1510.000000	37.379460
1500.000000	37.093165
1490.000000	37.101608
1480.000000	37.501734
1470.000000	38.126544
1460.000000	38.770454
1450.000000	39.587881
1440.000000	40.486635
1430.000000	41.320092
1420.000000	42.572888
1410.000000	44.924650
1400.000000	48.602990
1390.000000	52.881440
1380.000000	55.442985
1370.000000	56.286136
1360.000000	56.774489
1350.000000	57.188085
1340.000000	58.249642
1330.000000	59.581099
1320.000000	60.869565
1310.000000	61.555454
1300.000000	61.783909
1290.000000	61.756266
1280.000000	61.595997
1270.000000	61.550425
1260.000000	61.687679
1250.000000	61.488807
1240.000000	61.115266
1230.000000	60.772946
1220.000000	60.377726
1210.000000	59.876203
1200.000000	59.312282
1190.000000	59.061823
1180.000000	59.502950
1170.000000	60.565203
1160.000000	61.789130
1150.000000	62.716943
1140.000000	63.419296
1130.000000	64.187118
1120.000000	64.589138
1110.000000	64.721865
1100.000000	64.802079
1090.000000	64.783072
1080.000000	64.851185
1070.000000	64.777547
1060.000000	64.475155
1050.000000	64.176308
1040.000000	63.987382
1030.000000	63.920524
1020.000000	64.002458
1010.000000	64.405075
1000.000000	65.165906
990.000000	65.701837
980.000000	65.588556
970.000000	65.578307
960.000000	65.721205
950.000000	65.777245
940.000000	65.737908
930.000000	65.757669
920.000000	65.704987
910.000000	65.641894
900.000000	65.615390
890.000000	65.793555
880.000000	65.828587
870.000000	65.731176
860.000000	65.724710
850.000000	65.604358
840.000000	65.339082
830.000000	65.550481
820.000000	65.579295
810.000000	65.472802
800.000000	65.278054
790.000000	65.413923
780.000000	65.472739
770.000000	65.355275
760.000000	65.290249
750.000000	65.129868
740.000000	64.910318
730.000000	64.759469
720.000000	64.549842
710.000000	64.389480
700.000000	64.239515
690.000000	63.984674
680.000000	63.760551
670.000000	63.431613
660.000000	63.140182
650.000000	62.912209
640.000000	62.611694
630.000000	62.223767
620.000000	61.689442
610.000000	61.121158
600.000000	60.610090
590.000000	60.110457
580.000000	59.568101
570.000000	59.020504
560.000000	58.447979
550.000000	57.693092
540.000000	56.823143
530.000000	55.983882
520.000000	55.116238
510.000000	54.118012
500.000000	52.903299
490.000000	51.610289
480.000000	50.181398
470.000000	48.574514
460.000000	46.780868
450.000000	44.705628
440.000000	42.344727
430.000000	39.778730
420.000000	37.343292
410.000000	35.321878
400.000000	33.741395
390.000000	32.354653
380.000000	30.833709
370.000000	29.241871
360.000000	27.590502
350.000000	26.080011
340.000000	24.707408
330.000000	23.449251
320.000000	22.463167
310.000000	21.586099
300.000000	19.929980
290.000000	17.453784
280.000000	16.060600
270.000000	15.931424
260.000000	15.908169
250.000000	15.275441
