PE UV       SUBTECH     SPECTRUM    ASCII       PEDS        4.00        
   -1
blanc_20minchauffe.Sample.asc
23/09/05
17:49:40.00
23/09/05
17:49:40.00
Administrator

250.000000
1
Lambda 750
750N8071901
PerkinElmer UV WinLab 6.0.4.0738 / 1.61.00 Lambda 900

0
0
3350/servo 860.8/2
0
0
UV/VIS
1
1
1
CommonBeamDepol,150mm sphere / downward view
0
0
0
0
Program
Program
3350/servo 860.8/2
3350/0.2 860.8/0.2
3350/0.2 860.8/0.2
0
1
 
 
 
0
 
860.8
319.2
860.8
Front
100
on
 
 
0
0
0
 
0
 
 
 
0
 
 
0
0
0
0
0
 
 
 
 
0
0


0
0
#HDR
-1
-1
#GR
nm
%T
1.0
0.0
2500.000000
-10.000000
226
8
100.964243
98.940790
#DATA
2500.000000	100.342996
2490.000000	99.141026
2480.000000	99.377892
2470.000000	100.674146
2460.000000	100.860524
2450.000000	100.907858
2440.000000	100.664273
2430.000000	100.393793
2420.000000	98.940790
2410.000000	100.102740
2400.000000	100.379627
2390.000000	99.520520
2380.000000	99.133721
2370.000000	99.909215
2360.000000	99.830925
2350.000000	98.962188
2340.000000	100.135451
2330.000000	99.811211
2320.000000	100.521129
2310.000000	100.346833
2300.000000	100.181533
2290.000000	100.012472
2280.000000	99.666405
2270.000000	99.972379
2260.000000	100.290935
2250.000000	100.009214
2240.000000	99.897881
2230.000000	99.961804
2220.000000	99.769059
2210.000000	100.079989
2200.000000	99.782241
2190.000000	99.243012
2180.000000	100.264981
2170.000000	99.523409
2160.000000	99.603660
2150.000000	100.320423
2140.000000	99.826591
2130.000000	99.718609
2120.000000	99.355933
2110.000000	100.201418
2100.000000	100.031127
2090.000000	99.813429
2080.000000	99.926969
2070.000000	99.992580
2060.000000	99.853839
2050.000000	100.216874
2040.000000	99.874847
2030.000000	99.806974
2020.000000	99.995297
2010.000000	100.067901
2000.000000	100.051919
1990.000000	100.023018
1980.000000	99.623691
1970.000000	99.903077
1960.000000	99.752664
1950.000000	100.045032
1940.000000	100.124959
1930.000000	99.991303
1920.000000	99.867141
1910.000000	99.894208
1900.000000	99.854574
1890.000000	99.762069
1880.000000	99.926361
1870.000000	100.038978
1860.000000	99.985827
1850.000000	99.842292
1840.000000	99.797911
1830.000000	99.780600
1820.000000	99.943580
1810.000000	100.019951
1800.000000	99.852347
1790.000000	99.866125
1780.000000	99.840731
1770.000000	99.793734
1760.000000	99.853338
1750.000000	99.956612
1740.000000	99.743716
1730.000000	99.753585
1720.000000	99.766446
1710.000000	99.754398
1700.000000	99.914196
1690.000000	100.040789
1680.000000	99.798833
1670.000000	99.814978
1660.000000	99.846511
1650.000000	99.904824
1640.000000	99.785187
1630.000000	99.879390
1620.000000	99.861869
1610.000000	99.885945
1600.000000	99.866745
1590.000000	99.927632
1580.000000	99.892546
1570.000000	99.819078
1560.000000	99.916019
1550.000000	99.898865
1540.000000	99.889757
1530.000000	99.894947
1520.000000	99.873444
1510.000000	99.903750
1500.000000	99.812861
1490.000000	99.873361
1480.000000	99.927858
1470.000000	99.938327
1460.000000	99.884961
1450.000000	99.924790
1440.000000	99.953512
1430.000000	99.933709
1420.000000	99.882484
1410.000000	99.930456
1400.000000	99.878865
1390.000000	99.958010
1380.000000	99.918122
1370.000000	99.916195
1360.000000	99.871419
1350.000000	99.876973
1340.000000	99.872763
1330.000000	99.899092
1320.000000	99.873171
1310.000000	99.888049
1300.000000	99.921681
1290.000000	99.862019
1280.000000	99.962466
1270.000000	99.928101
1260.000000	99.923793
1250.000000	99.794111
1240.000000	99.800762
1230.000000	99.819564
1220.000000	99.851994
1210.000000	99.879805
1200.000000	99.817303
1190.000000	99.930274
1180.000000	99.837659
1170.000000	99.834198
1160.000000	99.812885
1150.000000	99.877584
1140.000000	99.864892
1130.000000	99.816929
1120.000000	99.864067
1110.000000	99.784898
1100.000000	99.887516
1090.000000	99.903430
1080.000000	99.887429
1070.000000	99.837250
1060.000000	99.935809
1050.000000	99.780341
1040.000000	99.803748
1030.000000	99.792852
1020.000000	99.768162
1010.000000	99.856231
1000.000000	99.782726
990.000000	99.820580
980.000000	99.754579
970.000000	99.917133
960.000000	99.841237
950.000000	99.796082
940.000000	99.806501
930.000000	99.710917
920.000000	99.724412
910.000000	99.688131
900.000000	99.954482
890.000000	99.941911
880.000000	99.552612
870.000000	99.364547
860.000000	99.580862
850.000000	100.289667
840.000000	99.553322
830.000000	99.745481
820.000000	99.758353
810.000000	99.254593
800.000000	99.857740
790.000000	99.637768
780.000000	99.993581
770.000000	99.990315
760.000000	99.832136
750.000000	99.871813
740.000000	99.682584
730.000000	99.782121
720.000000	99.555450
710.000000	99.906117
700.000000	99.791327
690.000000	99.540466
680.000000	99.740979
670.000000	99.467282
660.000000	99.761573
650.000000	99.662886
640.000000	99.748276
630.000000	99.633002
620.000000	99.532158
610.000000	99.738081
600.000000	99.643173
590.000000	99.730049
580.000000	99.701588
570.000000	99.666248
560.000000	99.678515
550.000000	99.674174
540.000000	99.565155
530.000000	99.714545
520.000000	99.610588
510.000000	99.676397
500.000000	99.805790
490.000000	99.609702
480.000000	99.788300
470.000000	99.623462
460.000000	99.500356
450.000000	99.696914
440.000000	99.516575
430.000000	99.593458
420.000000	99.650873
410.000000	99.635281
400.000000	99.403466
390.000000	99.723029
380.000000	99.562974
370.000000	99.552626
360.000000	99.418971
350.000000	99.192961
340.000000	99.798529
330.000000	100.195270
320.000000	100.964243
310.000000	99.747830
300.000000	99.470747
290.000000	99.195852
280.000000	99.410651
270.000000	99.810538
260.000000	99.350874
250.000000	99.585088
