PE UV       SUBTECH     SPECTRUM    ASCII       PEDS        4.00        
   -1
Empty Chamber 2.Sample.asc
18/03/08
17:27:48.00
18/03/08
17:27:48.00
Administrator

200.000000
1
Lambda 750
750N8071901
PerkinElmer UV WinLab 6.0.4.0738 / 1.61.00 Lambda 900

0
0
3350/servo 860.8/2
0
0
UV/VIS
1
1
1
CommonBeamDepol,150mm sphere / downward view
0
0
0
0
Program
Program
3350/servo 860.8/2
3350/0.2 860.8/0.2
3350/0.2 860.8/0.2
0
1
 
 
 
0
 
860.8
319.2
860.8
Front
100
on
 
 
0
0
0
 
0
 
 
 
0
 
 
0
0
0
0
0
 
 
 
 
0
0


0
0
#HDR
-1
-1
#GR
nm
%T
1.0
0.0
2350.000000
-1.000000
2151
8
100.901524
99.367999
#DATA
2350.000000	99.997178
2349.000000	100.456635
2348.000000	99.827773
2347.000000	99.840602
2346.000000	99.743304
2345.000000	100.249589
2344.000000	100.442561
2343.000000	100.044442
2342.000000	100.126878
2341.000000	100.424386
2340.000000	99.863919
2339.000000	100.167190
2338.000000	100.078125
2337.000000	99.586761
2336.000000	99.747013
2335.000000	99.749338
2334.000000	99.851874
2333.000000	100.009361
2332.000000	100.161141
2331.000000	99.776875
2330.000000	100.032759
2329.000000	99.680514
2328.000000	100.064822
2327.000000	100.383763
2326.000000	100.307070
2325.000000	99.865119
2324.000000	100.079849
2323.000000	99.928311
2322.000000	99.675251
2321.000000	99.931532
2320.000000	99.904853
2319.000000	99.888112
2318.000000	100.133824
2317.000000	100.244364
2316.000000	100.153567
2315.000000	100.071705
2314.000000	100.270576
2313.000000	100.104031
2312.000000	99.968503
2311.000000	100.005564
2310.000000	99.844937
2309.000000	100.182412
2308.000000	99.953359
2307.000000	100.021937
2306.000000	99.973559
2305.000000	99.978310
2304.000000	99.926041
2303.000000	100.005252
2302.000000	100.196132
2301.000000	100.128682
2300.000000	99.966402
2299.000000	100.015063
2298.000000	100.040430
2297.000000	100.017798
2296.000000	100.090518
2295.000000	99.996661
2294.000000	100.109174
2293.000000	100.274525
2292.000000	100.066531
2291.000000	99.761987
2290.000000	100.000504
2289.000000	100.109554
2288.000000	100.138148
2287.000000	100.312940
2286.000000	99.981601
2285.000000	99.906304
2284.000000	99.797441
2283.000000	99.879256
2282.000000	99.967970
2281.000000	100.186424
2280.000000	100.121936
2279.000000	99.988471
2278.000000	100.007577
2277.000000	99.900722
2276.000000	99.864515
2275.000000	99.767416
2274.000000	99.938718
2273.000000	100.178323
2272.000000	100.069925
2271.000000	100.003841
2270.000000	99.897644
2269.000000	99.781744
2268.000000	99.834456
2267.000000	100.038460
2266.000000	100.041449
2265.000000	100.012529
2264.000000	99.841236
2263.000000	99.930046
2262.000000	99.936245
2261.000000	100.006965
2260.000000	99.937319
2259.000000	99.898058
2258.000000	100.131595
2257.000000	100.115246
2256.000000	99.982915
2255.000000	100.029413
2254.000000	100.020113
2253.000000	99.990192
2252.000000	100.006879
2251.000000	100.063826
2250.000000	100.035874
2249.000000	100.097518
2248.000000	99.984215
2247.000000	99.988978
2246.000000	100.017290
2245.000000	99.995756
2244.000000	100.039294
2243.000000	100.131247
2242.000000	100.171581
2241.000000	100.042170
2240.000000	100.077327
2239.000000	100.012439
2238.000000	99.917969
2237.000000	99.997472
2236.000000	100.056328
2235.000000	100.024769
2234.000000	99.958131
2233.000000	99.775632
2232.000000	99.840734
2231.000000	99.954438
2230.000000	99.953758
2229.000000	99.992018
2228.000000	100.139149
2227.000000	100.125882
2226.000000	99.901866
2225.000000	99.966128
2224.000000	99.937428
2223.000000	99.846455
2222.000000	99.771282
2221.000000	99.932474
2220.000000	99.967444
2219.000000	100.013549
2218.000000	100.033871
2217.000000	99.869361
2216.000000	99.866612
2215.000000	99.891583
2214.000000	100.106476
2213.000000	100.201805
2212.000000	100.103958
2211.000000	100.108919
2210.000000	100.164570
2209.000000	100.052073
2208.000000	99.918545
2207.000000	100.061174
2206.000000	100.040041
2205.000000	99.985946
2204.000000	100.044893
2203.000000	100.001414
2202.000000	99.804873
2201.000000	100.022321
2200.000000	100.071232
2199.000000	100.007775
2198.000000	100.184753
2197.000000	100.069393
2196.000000	99.929154
2195.000000	99.904611
2194.000000	99.917207
2193.000000	100.002624
2192.000000	99.984174
2191.000000	99.951885
2190.000000	99.884580
2189.000000	100.010393
2188.000000	100.022089
2187.000000	99.984882
2186.000000	99.981040
2185.000000	100.083291
2184.000000	100.005343
2183.000000	100.316426
2182.000000	100.147273
2181.000000	99.861466
2180.000000	99.882433
2179.000000	99.730401
2178.000000	99.753074
2177.000000	99.963712
2176.000000	100.300601
2175.000000	100.238994
2174.000000	100.117537
2173.000000	100.029297
2172.000000	99.820782
2171.000000	100.025366
2170.000000	100.019930
2169.000000	100.146424
2168.000000	100.201670
2167.000000	99.855186
2166.000000	100.087485
2165.000000	100.041516
2164.000000	99.978340
2163.000000	99.878623
2162.000000	100.042074
2161.000000	100.131929
2160.000000	100.134050
2159.000000	100.194794
2158.000000	100.078359
2157.000000	99.894950
2156.000000	99.975155
2155.000000	99.975598
2154.000000	100.023903
2153.000000	100.367360
2152.000000	99.702754
2151.000000	100.008244
2150.000000	99.870641
2149.000000	99.774996
2148.000000	100.002617
2147.000000	100.003819
2146.000000	100.151851
2145.000000	100.106156
2144.000000	99.980591
2143.000000	99.941274
2142.000000	100.164696
2141.000000	100.208472
2140.000000	100.014264
2139.000000	99.912370
2138.000000	100.140150
2137.000000	99.932956
2136.000000	100.064430
2135.000000	99.984423
2134.000000	100.002614
2133.000000	100.110567
2132.000000	99.756870
2131.000000	99.808490
2130.000000	100.082102
2129.000000	99.844243
2128.000000	99.871203
2127.000000	99.919283
2126.000000	99.795070
2125.000000	100.030690
2124.000000	99.953334
2123.000000	100.113969
2122.000000	99.887489
2121.000000	100.124012
2120.000000	99.861516
2119.000000	99.959495
2118.000000	99.806457
2117.000000	99.882283
2116.000000	99.899298
2115.000000	100.007951
2114.000000	99.883449
2113.000000	100.129975
2112.000000	100.013498
2111.000000	99.840314
2110.000000	99.987214
2109.000000	100.152097
2108.000000	100.003122
2107.000000	99.933554
2106.000000	100.057748
2105.000000	100.006941
2104.000000	100.079747
2103.000000	99.982059
2102.000000	99.927578
2101.000000	100.082044
2100.000000	99.991135
2099.000000	99.968449
2098.000000	99.997581
2097.000000	99.937816
2096.000000	100.043256
2095.000000	100.105736
2094.000000	100.068362
2093.000000	100.056862
2092.000000	100.087059
2091.000000	100.002722
2090.000000	100.063920
2089.000000	99.859144
2088.000000	99.951637
2087.000000	100.076357
2086.000000	99.992740
2085.000000	99.909697
2084.000000	100.018457
2083.000000	100.083654
2082.000000	100.049955
2081.000000	99.907819
2080.000000	100.002017
2079.000000	100.018673
2078.000000	100.069066
2077.000000	100.048042
2076.000000	100.093179
2075.000000	100.054495
2074.000000	99.989104
2073.000000	100.014828
2072.000000	100.013115
2071.000000	100.094483
2070.000000	99.945913
2069.000000	99.934793
2068.000000	100.099639
2067.000000	100.074436
2066.000000	99.937130
2065.000000	100.014745
2064.000000	100.131707
2063.000000	100.050695
2062.000000	100.022727
2061.000000	100.081688
2060.000000	99.982740
2059.000000	99.964660
2058.000000	99.974367
2057.000000	99.983857
2056.000000	99.913302
2055.000000	99.985055
2054.000000	99.972839
2053.000000	99.941143
2052.000000	100.017475
2051.000000	100.016463
2050.000000	100.005958
2049.000000	100.032529
2048.000000	100.040403
2047.000000	99.973124
2046.000000	99.980697
2045.000000	99.955544
2044.000000	99.939085
2043.000000	100.012929
2042.000000	100.028890
2041.000000	100.061848
2040.000000	99.993330
2039.000000	99.999191
2038.000000	100.102742
2037.000000	100.086269
2036.000000	99.997776
2035.000000	99.995249
2034.000000	100.012231
2033.000000	100.005661
2032.000000	99.992518
2031.000000	100.001921
2030.000000	99.896018
2029.000000	99.854738
2028.000000	99.951184
2027.000000	100.011930
2026.000000	100.038943
2025.000000	100.016790
2024.000000	99.997169
2023.000000	100.022661
2022.000000	100.010321
2021.000000	99.996965
2020.000000	100.004553
2019.000000	99.992512
2018.000000	99.963466
2017.000000	99.970847
2016.000000	99.969534
2015.000000	99.962451
2014.000000	100.011541
2013.000000	100.032801
2012.000000	100.061464
2011.000000	100.028251
2010.000000	99.973068
2009.000000	100.003038
2008.000000	100.020356
2007.000000	99.962135
2006.000000	99.946944
2005.000000	99.966077
2004.000000	99.995746
2003.000000	99.999190
2002.000000	100.010435
2001.000000	99.977615
2000.000000	99.950669
1999.000000	99.959881
1998.000000	99.987436
1997.000000	99.981564
1996.000000	99.919487
1995.000000	99.938514
1994.000000	100.006283
1993.000000	100.030414
1992.000000	99.998074
1991.000000	99.997771
1990.000000	100.081838
1989.000000	100.081641
1988.000000	99.971314
1987.000000	99.982361
1986.000000	99.952056
1985.000000	99.941008
1984.000000	100.000000
1983.000000	100.052432
1982.000000	99.999189
1981.000000	99.999595
1980.000000	99.996249
1979.000000	99.966948
1978.000000	99.996857
1977.000000	100.001217
1976.000000	99.994728
1975.000000	99.996045
1974.000000	100.039046
1973.000000	100.042698
1972.000000	100.043013
1971.000000	100.005577
1970.000000	99.988444
1969.000000	99.982666
1968.000000	100.033765
1967.000000	100.008415
1966.000000	99.967369
1965.000000	99.963719
1964.000000	99.962205
1963.000000	99.964832
1962.000000	99.972124
1961.000000	99.996149
1960.000000	100.011456
1959.000000	100.017133
1958.000000	100.026466
1957.000000	100.038628
1956.000000	100.034057
1955.000000	99.969095
1954.000000	100.045401
1953.000000	99.957660
1952.000000	99.942880
1951.000000	100.010842
1950.000000	100.039019
1949.000000	100.029488
1948.000000	99.980553
1947.000000	99.954640
1946.000000	99.976008
1945.000000	99.974081
1944.000000	99.955653
1943.000000	99.966594
1942.000000	99.985423
1941.000000	99.962863
1940.000000	99.984109
1939.000000	99.919096
1938.000000	99.965936
1937.000000	99.952794
1936.000000	100.016075
1935.000000	100.031369
1934.000000	99.981704
1933.000000	99.894088
1932.000000	99.886032
1931.000000	99.968269
1930.000000	100.098714
1929.000000	99.981812
1928.000000	100.043876
1927.000000	100.065198
1926.000000	100.067212
1925.000000	99.934944
1924.000000	99.955760
1923.000000	100.089349
1922.000000	99.981208
1921.000000	100.040445
1920.000000	99.937778
1919.000000	99.906169
1918.000000	100.119710
1917.000000	100.069471
1916.000000	100.030023
1915.000000	99.918367
1914.000000	99.963815
1913.000000	100.058244
1912.000000	99.963921
1911.000000	100.022848
1910.000000	100.057689
1909.000000	99.983620
1908.000000	100.021846
1907.000000	100.017807
1906.000000	100.007384
1905.000000	99.982306
1904.000000	100.049679
1903.000000	99.975714
1902.000000	99.875199
1901.000000	100.001012
1900.000000	100.046354
1899.000000	99.953980
1898.000000	100.023491
1897.000000	99.977524
1896.000000	100.007698
1895.000000	100.036365
1894.000000	100.012356
1893.000000	100.007088
1892.000000	99.930062
1891.000000	100.051861
1890.000000	100.067867
1889.000000	99.997266
1888.000000	99.974393
1887.000000	99.957102
1886.000000	100.006880
1885.000000	100.041991
1884.000000	100.025592
1883.000000	99.984117
1882.000000	99.970987
1881.000000	100.021940
1880.000000	99.995554
1879.000000	99.957557
1878.000000	99.954741
1877.000000	99.971612
1876.000000	100.080152
1875.000000	100.068409
1874.000000	100.051126
1873.000000	99.964662
1872.000000	99.911464
1871.000000	99.979297
1870.000000	100.018787
1869.000000	99.971727
1868.000000	99.970711
1867.000000	99.953218
1866.000000	100.008690
1865.000000	100.007379
1864.000000	100.010411
1863.000000	100.026990
1862.000000	99.950678
1861.000000	99.934104
1860.000000	99.964727
1859.000000	99.975130
1858.000000	100.019314
1857.000000	99.980493
1856.000000	99.961489
1855.000000	99.990903
1854.000000	99.973428
1853.000000	100.006873
1852.000000	99.995049
1851.000000	99.969890
1850.000000	99.975139
1849.000000	99.951106
1848.000000	99.981512
1847.000000	100.042049
1846.000000	99.995049
1845.000000	99.986362
1844.000000	99.983431
1843.000000	99.981814
1842.000000	99.994342
1841.000000	99.986057
1840.000000	99.980702
1839.000000	99.981706
1838.000000	99.973614
1837.000000	99.966340
1836.000000	99.993529
1835.000000	99.991808
1834.000000	99.984524
1833.000000	100.030754
1832.000000	100.028230
1831.000000	100.006881
1830.000000	99.985833
1829.000000	99.977329
1828.000000	99.964878
1827.000000	99.971760
1826.000000	99.994027
1825.000000	99.971956
1824.000000	99.989775
1823.000000	99.984815
1822.000000	99.979856
1821.000000	99.997672
1820.000000	99.980160
1819.000000	99.989472
1818.000000	100.008302
1817.000000	100.016607
1816.000000	99.999696
1815.000000	99.989974
1814.000000	99.976406
1813.000000	99.955147
1812.000000	99.953526
1811.000000	99.989872
1810.000000	100.005774
1809.000000	99.977009
1808.000000	99.975992
1807.000000	99.985816
1806.000000	99.987233
1805.000000	99.959064
1804.000000	99.972643
1803.000000	99.988146
1802.000000	99.967681
1801.000000	99.987232
1800.000000	99.997365
1799.000000	99.977703
1798.000000	99.972436
1797.000000	99.969801
1796.000000	99.951664
1795.000000	99.966151
1794.000000	99.993311
1793.000000	99.993614
1792.000000	100.000811
1791.000000	100.033667
1790.000000	99.996249
1789.000000	99.996958
1788.000000	100.012980
1787.000000	100.014098
1786.000000	100.019471
1785.000000	100.015312
1784.000000	100.008619
1783.000000	100.006590
1782.000000	99.964316
1781.000000	99.959453
1780.000000	99.971413
1779.000000	99.986819
1778.000000	99.993410
1777.000000	99.990065
1776.000000	99.993612
1775.000000	99.969382
1774.000000	99.983779
1773.000000	99.996654
1772.000000	99.976579
1771.000000	99.987024
1770.000000	99.993511
1769.000000	99.969589
1768.000000	99.969488
1767.000000	99.974252
1766.000000	99.937564
1765.000000	99.979117
1764.000000	100.016124
1763.000000	100.029104
1762.000000	99.995640
1761.000000	99.989050
1760.000000	99.994829
1759.000000	99.987832
1758.000000	99.974045
1757.000000	99.969784
1756.000000	100.016734
1755.000000	100.009936
1754.000000	99.978203
1753.000000	99.981247
1752.000000	99.970302
1751.000000	99.988748
1750.000000	99.972737
1749.000000	99.991891
1748.000000	99.999189
1747.000000	100.019668
1746.000000	100.010748
1745.000000	100.006487
1744.000000	99.991385
1743.000000	100.002839
1742.000000	100.027788
1741.000000	99.999696
1740.000000	99.965135
1739.000000	99.986621
1738.000000	99.967876
1737.000000	99.953077
1736.000000	99.985305
1735.000000	99.995338
1734.000000	100.002028
1733.000000	99.997162
1732.000000	100.018756
1731.000000	100.006386
1730.000000	99.996959
1729.000000	100.024836
1728.000000	100.003345
1727.000000	100.005880
1726.000000	100.022813
1725.000000	99.995641
1724.000000	99.966253
1723.000000	99.973249
1722.000000	99.961801
1721.000000	100.002737
1720.000000	99.935057
1719.000000	100.017134
1718.000000	100.017943
1717.000000	100.007500
1716.000000	99.990067
1715.000000	99.979629
1714.000000	100.001824
1713.000000	99.970104
1712.000000	100.004663
1711.000000	99.990272
1710.000000	100.009629
1709.000000	99.983177
1708.000000	100.021794
1707.000000	100.006992
1706.000000	99.983685
1705.000000	99.993108
1704.000000	99.964124
1703.000000	99.996656
1702.000000	100.032946
1701.000000	100.012874
1700.000000	100.032636
1699.000000	100.012665
1698.000000	100.000304
1697.000000	100.028179
1696.000000	99.983987
1695.000000	100.010440
1694.000000	100.053121
1693.000000	99.938194
1692.000000	99.990879
1691.000000	100.011147
1690.000000	99.987536
1689.000000	99.986217
1688.000000	100.012061
1687.000000	100.005068
1686.000000	100.028686
1685.000000	99.995643
1684.000000	99.981356
1683.000000	99.976897
1682.000000	99.963934
1681.000000	99.975682
1680.000000	100.014897
1679.000000	100.017028
1678.000000	99.984797
1677.000000	99.985913
1676.000000	99.990881
1675.000000	99.969805
1674.000000	99.985000
1673.000000	99.990068
1672.000000	100.002027
1671.000000	99.994527
1670.000000	99.985103
1669.000000	100.000810
1668.000000	99.992099
1667.000000	99.997872
1666.000000	99.994327
1665.000000	100.026441
1664.000000	100.008205
1663.000000	99.981666
1662.000000	99.993213
1661.000000	99.986323
1660.000000	99.975287
1659.000000	99.972244
1658.000000	99.982174
1657.000000	99.992607
1656.000000	99.986022
1655.000000	99.982377
1654.000000	100.000912
1653.000000	100.018234
1652.000000	99.993315
1651.000000	100.021981
1650.000000	100.016003
1649.000000	99.995645
1648.000000	99.991897
1647.000000	99.992708
1646.000000	99.987945
1645.000000	99.988656
1644.000000	99.991391
1643.000000	99.985821
1642.000000	100.014889
1641.000000	100.007090
1640.000000	99.989466
1639.000000	99.987442
1638.000000	100.006077
1637.000000	100.021373
1636.000000	100.005672
1635.000000	100.014283
1634.000000	100.022388
1633.000000	100.005166
1632.000000	100.000405
1631.000000	99.995340
1630.000000	99.988250
1629.000000	99.994226
1628.000000	99.987643
1627.000000	99.995138
1626.000000	99.983088
1625.000000	99.990277
1624.000000	99.989872
1623.000000	99.997366
1622.000000	99.995443
1621.000000	100.013167
1620.000000	100.010130
1619.000000	100.000405
1618.000000	99.998886
1617.000000	100.010128
1616.000000	99.991088
1615.000000	99.983796
1614.000000	100.000101
1613.000000	99.995442
1612.000000	99.991290
1611.000000	99.983087
1610.000000	99.990986
1609.000000	100.006482
1608.000000	100.002836
1607.000000	99.994835
1606.000000	100.003646
1605.000000	99.995138
1604.000000	99.975086
1603.000000	99.971847
1602.000000	99.988555
1601.000000	99.996961
1600.000000	100.001215
1599.000000	100.003545
1598.000000	100.001013
1597.000000	99.992506
1596.000000	99.971949
1595.000000	99.991493
1594.000000	100.011141
1593.000000	100.003544
1592.000000	100.001418
1591.000000	99.996860
1590.000000	99.997974
1589.000000	99.992708
1588.000000	99.985517
1587.000000	100.002431
1586.000000	100.000810
1585.000000	99.990278
1584.000000	99.993822
1583.000000	99.988152
1582.000000	100.003342
1581.000000	99.996658
1580.000000	99.987849
1579.000000	99.997874
1578.000000	100.006683
1577.000000	100.015291
1576.000000	100.004354
1575.000000	100.004050
1574.000000	100.001418
1573.000000	99.993418
1572.000000	99.977824
1571.000000	99.989266
1570.000000	99.996861
1569.000000	99.992507
1568.000000	99.995342
1567.000000	100.006986
1566.000000	99.996254
1565.000000	99.996051
1564.000000	99.997671
1563.000000	100.006683
1562.000000	100.004455
1561.000000	99.993621
1560.000000	99.994633
1559.000000	100.004556
1558.000000	100.003848
1557.000000	99.988155
1556.000000	99.979852
1555.000000	99.992710
1554.000000	99.999494
1553.000000	99.996356
1552.000000	99.982690
1551.000000	99.974389
1550.000000	99.985727
1549.000000	99.998583
1548.000000	99.979046
1547.000000	99.975808
1546.000000	99.985929
1545.000000	99.993319
1544.000000	99.996963
1543.000000	99.986437
1542.000000	100.001114
1541.000000	99.998684
1540.000000	100.001721
1539.000000	100.008605
1538.000000	99.996255
1537.000000	100.013360
1536.000000	99.983200
1535.000000	100.002429
1534.000000	100.001012
1533.000000	100.003948
1532.000000	99.998077
1531.000000	100.001012
1530.000000	100.011036
1529.000000	99.999089
1528.000000	100.003746
1527.000000	99.994533
1526.000000	100.019645
1525.000000	100.009924
1524.000000	99.979451
1523.000000	99.999899
1522.000000	99.985931
1521.000000	99.975403
1520.000000	99.999089
1519.000000	99.982083
1518.000000	99.981172
1517.000000	99.994836
1516.000000	100.001114
1515.000000	100.006987
1514.000000	99.992304
1513.000000	100.005063
1512.000000	99.990078
1511.000000	100.008607
1510.000000	99.995748
1509.000000	100.004050
1508.000000	100.007290
1507.000000	100.000203
1506.000000	100.001215
1505.000000	99.959502
1504.000000	99.975090
1503.000000	100.017926
1502.000000	99.977723
1501.000000	100.016001
1500.000000	100.010430
1499.000000	99.977929
1498.000000	99.988660
1497.000000	100.008607
1496.000000	99.992913
1495.000000	99.999392
1494.000000	100.026330
1493.000000	99.975399
1492.000000	99.959512
1491.000000	99.992407
1490.000000	100.001316
1489.000000	99.972060
1488.000000	100.014884
1487.000000	100.013870
1486.000000	99.978037
1485.000000	99.959215
1484.000000	100.005466
1483.000000	99.997773
1482.000000	100.002935
1481.000000	99.995243
1480.000000	99.997166
1479.000000	99.983204
1478.000000	99.982191
1477.000000	100.012146
1476.000000	99.964690
1475.000000	100.002125
1474.000000	100.018823
1473.000000	100.006172
1472.000000	100.011335
1471.000000	99.995346
1470.000000	100.012042
1469.000000	99.982292
1468.000000	99.983102
1467.000000	99.975618
1466.000000	99.999798
1465.000000	100.006174
1464.000000	100.009715
1463.000000	99.990589
1462.000000	99.998583
1461.000000	100.004454
1460.000000	100.012144
1459.000000	100.014168
1458.000000	100.004958
1457.000000	100.012143
1456.000000	100.010932
1455.000000	99.998179
1454.000000	100.032381
1453.000000	99.994132
1452.000000	99.975321
1451.000000	99.996763
1450.000000	99.998381
1449.000000	99.992210
1448.000000	100.003237
1447.000000	100.000202
1446.000000	99.999292
1445.000000	99.997876
1444.000000	100.005565
1443.000000	100.005768
1442.000000	100.008903
1441.000000	99.993425
1440.000000	99.981993
1439.000000	99.977342
1438.000000	99.982500
1437.000000	99.976634
1436.000000	99.977142
1435.000000	99.999595
1434.000000	100.013656
1433.000000	99.992415
1432.000000	99.991100
1431.000000	99.992617
1430.000000	99.998989
1429.000000	99.982906
1428.000000	99.998786
1427.000000	99.999191
1426.000000	99.981798
1425.000000	99.991608
1424.000000	99.999697
1423.000000	99.999191
1422.000000	100.015064
1421.000000	100.008896
1420.000000	99.987874
1419.000000	99.996161
1418.000000	100.008487
1417.000000	100.000909
1416.000000	100.002929
1415.000000	100.003131
1414.000000	100.005150
1413.000000	99.996466
1412.000000	99.978699
1411.000000	99.980115
1410.000000	99.997779
1409.000000	100.006762
1408.000000	100.006458
1407.000000	100.001816
1406.000000	100.005045
1405.000000	100.002320
1404.000000	99.975391
1403.000000	99.977610
1402.000000	99.991225
1401.000000	100.004841
1400.000000	99.996773
1399.000000	99.993143
1398.000000	99.997983
1397.000000	99.993447
1396.000000	99.988106
1395.000000	100.002016
1394.000000	100.000403
1393.000000	99.995063
1392.000000	100.017131
1391.000000	100.014712
1390.000000	99.984283
1389.000000	99.991336
1388.000000	100.007356
1387.000000	100.012596
1386.000000	99.993653
1385.000000	99.976127
1384.000000	99.982570
1383.000000	99.989219
1382.000000	99.989826
1381.000000	99.989020
1380.000000	99.986902
1379.000000	99.987002
1378.000000	99.995769
1377.000000	100.000000
1376.000000	99.989925
1375.000000	99.993048
1374.000000	99.998993
1373.000000	100.003324
1372.000000	99.997885
1371.000000	99.993452
1370.000000	99.987712
1369.000000	99.981264
1368.000000	99.994561
1367.000000	99.999597
1366.000000	99.995972
1365.000000	100.000504
1364.000000	99.996274
1363.000000	99.993252
1362.000000	100.004834
1361.000000	100.004936
1360.000000	99.987408
1359.000000	100.004535
1358.000000	100.002016
1357.000000	99.991129
1356.000000	99.995563
1355.000000	100.000101
1354.000000	99.996469
1353.000000	99.994552
1352.000000	99.996972
1351.000000	100.002929
1350.000000	99.997576
1349.000000	99.981423
1348.000000	99.952241
1347.000000	99.998788
1346.000000	100.030720
1345.000000	100.013035
1344.000000	99.997575
1343.000000	100.010911
1342.000000	99.984948
1341.000000	99.974236
1340.000000	99.998282
1339.000000	99.992121
1338.000000	99.997575
1337.000000	99.987877
1336.000000	100.000505
1335.000000	99.994948
1334.000000	100.002021
1333.000000	99.981616
1332.000000	99.996768
1331.000000	100.010809
1330.000000	100.003536
1329.000000	100.000404
1328.000000	100.014548
1327.000000	100.018486
1326.000000	99.988786
1325.000000	100.011719
1324.000000	99.982930
1323.000000	99.997677
1322.000000	99.990100
1321.000000	99.996059
1320.000000	99.987877
1319.000000	100.005354
1318.000000	100.004445
1317.000000	100.003536
1316.000000	100.001011
1315.000000	100.009601
1314.000000	100.012126
1313.000000	99.993029
1312.000000	100.003334
1311.000000	99.980906
1310.000000	99.991510
1309.000000	100.030630
1308.000000	99.987670
1307.000000	99.987368
1306.000000	100.004952
1305.000000	99.985043
1304.000000	99.994846
1303.000000	99.997776
1302.000000	100.021026
1301.000000	99.991609
1300.000000	100.005763
1299.000000	99.997473
1298.000000	99.971598
1297.000000	99.977965
1296.000000	99.998585
1295.000000	99.988983
1294.000000	99.987163
1293.000000	99.996260
1292.000000	100.017185
1291.000000	99.981606
1290.000000	99.971397
1289.000000	99.998282
1288.000000	99.995857
1287.000000	99.999091
1286.000000	99.999495
1285.000000	99.999495
1284.000000	99.978887
1283.000000	100.003435
1282.000000	99.999798
1281.000000	100.014749
1280.000000	99.995151
1279.000000	100.014038
1278.000000	100.025552
1277.000000	100.010603
1276.000000	99.996264
1275.000000	99.999596
1274.000000	99.988390
1273.000000	99.976485
1272.000000	100.024633
1271.000000	99.988493
1270.000000	99.979816
1269.000000	99.979507
1268.000000	100.003533
1267.000000	100.001817
1266.000000	100.002019
1265.000000	100.009890
1264.000000	100.005853
1263.000000	100.001917
1262.000000	100.000000
1261.000000	100.004037
1260.000000	100.005450
1259.000000	100.001009
1258.000000	99.981938
1257.000000	99.983048
1256.000000	100.003936
1255.000000	100.005552
1254.000000	99.974572
1253.000000	100.025537
1252.000000	99.996972
1251.000000	99.990817
1250.000000	100.011910
1249.000000	99.997477
1248.000000	100.015442
1247.000000	99.990313
1246.000000	99.995660
1245.000000	99.968918
1244.000000	100.003936
1243.000000	99.991624
1242.000000	100.007870
1241.000000	99.993644
1240.000000	99.983255
1239.000000	99.997175
1238.000000	99.993746
1237.000000	99.985175
1236.000000	100.009178
1235.000000	100.013212
1234.000000	99.995563
1233.000000	99.991128
1232.000000	99.977521
1231.000000	99.988207
1230.000000	99.990828
1229.000000	99.987202
1228.000000	99.995264
1227.000000	100.001914
1226.000000	99.998489
1225.000000	99.988718
1224.000000	100.008664
1223.000000	99.998691
1222.000000	99.981976
1221.000000	99.999396
1220.000000	100.009465
1219.000000	100.001812
1218.000000	100.005134
1217.000000	99.992349
1216.000000	99.984906
1215.000000	99.998289
1214.000000	100.006039
1213.000000	100.004931
1212.000000	99.996981
1211.000000	99.985807
1210.000000	99.990740
1209.000000	99.982994
1208.000000	100.003119
1207.000000	100.001509
1206.000000	99.991749
1205.000000	99.998188
1204.000000	100.003723
1203.000000	100.014591
1202.000000	100.023552
1201.000000	99.985710
1200.000000	99.988026
1199.000000	99.989636
1198.000000	99.995371
1197.000000	99.984098
1196.000000	99.985711
1195.000000	99.984505
1194.000000	99.994466
1193.000000	99.975751
1192.000000	99.969917
1191.000000	99.998189
1190.000000	99.984202
1189.000000	99.984302
1188.000000	99.996679
1187.000000	99.995774
1186.000000	99.995674
1185.000000	100.006439
1184.000000	100.009154
1183.000000	99.998592
1182.000000	99.987428
1181.000000	99.974356
1180.000000	99.967219
1179.000000	99.978483
1178.000000	100.006435
1177.000000	100.005731
1176.000000	99.988238
1175.000000	99.976780
1174.000000	99.975176
1173.000000	99.990854
1172.000000	99.988141
1171.000000	99.981912
1170.000000	99.987942
1169.000000	99.988345
1168.000000	99.998292
1167.000000	100.007837
1166.000000	100.012760
1165.000000	99.998996
1164.000000	99.989354
1163.000000	100.004921
1162.000000	100.012050
1161.000000	100.001205
1160.000000	99.995985
1159.000000	100.002007
1158.000000	99.987859
1157.000000	100.001405
1156.000000	100.014750
1155.000000	100.007123
1154.000000	99.996389
1153.000000	99.983853
1152.000000	99.985058
1151.000000	99.996691
1150.000000	100.000602
1149.000000	100.000501
1148.000000	99.996291
1147.000000	99.986469
1146.000000	99.973945
1145.000000	99.976258
1144.000000	99.990785
1143.000000	99.993590
1142.000000	99.991888
1141.000000	99.981479
1140.000000	99.992691
1139.000000	100.004706
1138.000000	100.002803
1137.000000	100.003203
1136.000000	100.007707
1135.000000	100.013812
1134.000000	100.005004
1133.000000	99.997899
1132.000000	99.992998
1131.000000	99.992500
1130.000000	99.991501
1129.000000	99.982404
1128.000000	99.997201
1127.000000	99.997701
1126.000000	99.990704
1125.000000	99.996502
1124.000000	99.988008
1123.000000	99.996602
1122.000000	100.000000
1121.000000	99.983017
1120.000000	100.003097
1119.000000	100.013386
1118.000000	99.999700
1117.000000	100.009288
1116.000000	99.993709
1115.000000	99.992411
1114.000000	100.000300
1113.000000	100.009185
1112.000000	99.993411
1111.000000	100.001997
1110.000000	99.993612
1109.000000	99.982036
1108.000000	99.999102
1107.000000	99.987030
1106.000000	99.987531
1105.000000	99.993018
1104.000000	99.995712
1103.000000	99.993121
1102.000000	99.996810
1101.000000	100.002691
1100.000000	100.000897
1099.000000	100.015645
1098.000000	100.006078
1097.000000	99.986949
1096.000000	99.994920
1095.000000	99.996515
1094.000000	99.972124
1093.000000	99.975611
1092.000000	99.979693
1091.000000	100.002886
1090.000000	99.968559
1089.000000	99.991345
1088.000000	100.001592
1087.000000	100.005371
1086.000000	100.006166
1085.000000	99.987474
1084.000000	100.019883
1083.000000	100.004075
1082.000000	100.000199
1081.000000	99.981325
1080.000000	100.002384
1079.000000	99.990665
1078.000000	99.995234
1077.000000	99.999504
1076.000000	99.996724
1075.000000	99.994345
1074.000000	100.001290
1073.000000	99.971633
1072.000000	99.985918
1071.000000	99.993356
1070.000000	99.986615
1069.000000	100.024685
1068.000000	99.997027
1067.000000	99.992571
1066.000000	99.971975
1065.000000	99.989106
1064.000000	100.018713
1063.000000	99.995941
1062.000000	100.007423
1061.000000	99.995151
1060.000000	100.003660
1059.000000	100.011671
1058.000000	100.003955
1057.000000	99.998122
1056.000000	100.013742
1055.000000	100.010377
1054.000000	99.988938
1053.000000	100.006223
1052.000000	100.014319
1051.000000	100.006219
1050.000000	100.008390
1049.000000	99.982340
1048.000000	99.978596
1047.000000	100.006706
1046.000000	99.998521
1045.000000	99.991424
1044.000000	100.008475
1043.000000	99.995074
1042.000000	100.009752
1041.000000	99.997538
1040.000000	99.991730
1039.000000	99.979038
1038.000000	100.021355
1037.000000	100.007279
1036.000000	100.006393
1035.000000	99.992725
1034.000000	99.995283
1033.000000	99.984476
1032.000000	99.990963
1031.000000	99.997348
1030.000000	100.001767
1029.000000	100.002650
1028.000000	99.981360
1027.000000	99.989799
1026.000000	100.008728
1025.000000	99.986180
1024.000000	99.989908
1023.000000	99.984718
1022.000000	99.983647
1021.000000	99.988057
1020.000000	99.994324
1019.000000	99.988358
1018.000000	99.996479
1017.000000	99.987877
1016.000000	99.984949
1015.000000	99.975869
1014.000000	99.975778
1013.000000	99.994141
1012.000000	99.982626
1011.000000	100.000390
1010.000000	99.995123
1009.000000	100.006826
1008.000000	99.979533
1007.000000	99.988503
1006.000000	99.997662
1005.000000	99.974201
1004.000000	100.012655
1003.000000	99.995524
1002.000000	99.984149
1001.000000	99.979976
1000.000000	99.984841
999.000000	100.002040
998.000000	100.003399
997.000000	99.978163
996.000000	99.982635
995.000000	99.996702
994.000000	100.003006
993.000000	99.987014
992.000000	99.989538
991.000000	99.995836
990.000000	99.985674
989.000000	100.001548
988.000000	100.005804
987.000000	99.989364
986.000000	99.995361
985.000000	100.008985
984.000000	99.981170
983.000000	99.999421
982.000000	99.997202
981.000000	99.998939
980.000000	99.998458
979.000000	99.993640
978.000000	100.001060
977.000000	100.006644
976.000000	100.011454
975.000000	99.991439
974.000000	99.989520
973.000000	99.971365
972.000000	99.980117
971.000000	99.996447
970.000000	99.999136
969.000000	100.010457
968.000000	99.994727
967.000000	99.978438
966.000000	99.991475
965.000000	99.975206
964.000000	99.995598
963.000000	100.005165
962.000000	99.976103
961.000000	99.979840
960.000000	99.998281
959.000000	100.016893
958.000000	100.003529
957.000000	99.994472
956.000000	100.003239
955.000000	100.015903
954.000000	100.025130
953.000000	100.005803
952.000000	99.976045
951.000000	99.978624
950.000000	99.999905
949.000000	100.000095
948.000000	99.988050
947.000000	99.987299
946.000000	99.987970
945.000000	99.967629
944.000000	100.000946
943.000000	99.991398
942.000000	99.964673
941.000000	99.989520
940.000000	99.971035
939.000000	99.979064
938.000000	99.989349
937.000000	99.995667
936.000000	100.004142
935.000000	99.999436
934.000000	100.010529
933.000000	100.006293
932.000000	99.986015
931.000000	100.026737
930.000000	100.031778
929.000000	99.982114
928.000000	99.968651
927.000000	99.978864
926.000000	100.001870
925.000000	100.007101
924.000000	99.990568
923.000000	99.986935
922.000000	99.977619
921.000000	100.001118
920.000000	99.993110
919.000000	100.020006
918.000000	100.018781
917.000000	100.002323
916.000000	100.005478
915.000000	99.986273
914.000000	99.990732
913.000000	100.003426
912.000000	99.980476
911.000000	99.971343
910.000000	99.950496
909.000000	99.944527
908.000000	100.024630
907.000000	99.995023
906.000000	100.005526
905.000000	100.066366
904.000000	100.027680
903.000000	99.971808
902.000000	99.967901
901.000000	100.043641
900.000000	100.018411
899.000000	100.072135
898.000000	99.970385
897.000000	99.926494
896.000000	99.948629
895.000000	99.989329
894.000000	99.992437
893.000000	100.024934
892.000000	99.929383
891.000000	99.970840
890.000000	100.011982
889.000000	99.996191
888.000000	99.999909
887.000000	99.982801
886.000000	100.034566
885.000000	100.045893
884.000000	99.915749
883.000000	100.037332
882.000000	100.125812
881.000000	99.999460
880.000000	100.019960
879.000000	100.004402
878.000000	99.966173
877.000000	99.994798
876.000000	99.996954
875.000000	99.979320
874.000000	100.059856
873.000000	100.002949
872.000000	100.067963
871.000000	99.971906
870.000000	100.036021
869.000000	99.990110
868.000000	99.940158
867.000000	99.997513
866.000000	99.939026
865.000000	99.951123
864.000000	99.946058
863.000000	100.102035
862.000000	100.179363
861.000000	99.970032
860.000000	100.064006
859.000000	100.901524
858.000000	99.925914
857.000000	100.102133
856.000000	99.850733
855.000000	100.040022
854.000000	100.035044
853.000000	99.707434
852.000000	99.967381
851.000000	100.092486
850.000000	100.241995
849.000000	100.563863
848.000000	100.202468
847.000000	100.003363
846.000000	99.858937
845.000000	100.070652
844.000000	99.443951
843.000000	100.043499
842.000000	100.162627
841.000000	100.031499
840.000000	100.377116
839.000000	100.183370
838.000000	99.978068
837.000000	100.054851
836.000000	99.842654
835.000000	99.831804
834.000000	100.020925
833.000000	100.026727
832.000000	99.762425
831.000000	99.814099
830.000000	100.040753
829.000000	99.915758
828.000000	99.841216
827.000000	100.154790
826.000000	100.049286
825.000000	99.717922
824.000000	100.086662
823.000000	99.844527
822.000000	99.843667
821.000000	99.651450
820.000000	99.734840
819.000000	99.885810
818.000000	99.813360
817.000000	99.931733
816.000000	99.996494
815.000000	100.051658
814.000000	100.035153
813.000000	100.033598
812.000000	99.953186
811.000000	100.113745
810.000000	100.045626
809.000000	99.664850
808.000000	100.032215
807.000000	99.832710
806.000000	100.018642
805.000000	100.061142
804.000000	99.944178
803.000000	100.023589
802.000000	99.947985
801.000000	99.939553
800.000000	99.914959
799.000000	99.918668
798.000000	100.139273
797.000000	99.925881
796.000000	99.877187
795.000000	100.058669
794.000000	100.083259
793.000000	100.017764
792.000000	100.107818
791.000000	99.954722
790.000000	99.869869
789.000000	100.009377
788.000000	99.891851
787.000000	99.953082
786.000000	99.903230
785.000000	100.203148
784.000000	100.124275
783.000000	100.199100
782.000000	100.056196
781.000000	99.973905
780.000000	100.021144
779.000000	100.034304
778.000000	99.980795
777.000000	100.038949
776.000000	99.968595
775.000000	99.947660
774.000000	99.961794
773.000000	99.880792
772.000000	99.981175
771.000000	100.044500
770.000000	100.090911
769.000000	99.997858
768.000000	99.940267
767.000000	99.993832
766.000000	99.976576
765.000000	99.976823
764.000000	99.908807
763.000000	99.990419
762.000000	100.106139
761.000000	99.910141
760.000000	99.881754
759.000000	100.022328
758.000000	100.021186
757.000000	99.953367
756.000000	99.964445
755.000000	99.965154
754.000000	100.084083
753.000000	100.138036
752.000000	99.991457
751.000000	100.024838
750.000000	99.975789
749.000000	100.007561
748.000000	99.950365
747.000000	99.847116
746.000000	99.907000
745.000000	100.083282
744.000000	99.944269
743.000000	99.994946
742.000000	100.132120
741.000000	100.040399
740.000000	99.951914
739.000000	100.053455
738.000000	100.127847
737.000000	100.036204
736.000000	99.963614
735.000000	99.943681
734.000000	99.933825
733.000000	99.998551
732.000000	100.026096
731.000000	100.040987
730.000000	100.028764
729.000000	99.884450
728.000000	99.877262
727.000000	99.971942
726.000000	100.020789
725.000000	100.083826
724.000000	100.056329
723.000000	100.005271
722.000000	99.977458
721.000000	99.984271
720.000000	99.957153
719.000000	99.990085
718.000000	99.993175
717.000000	99.912882
716.000000	99.962929
715.000000	100.000547
714.000000	99.980873
713.000000	99.954085
712.000000	99.974287
711.000000	99.996991
710.000000	99.948675
709.000000	99.938162
708.000000	99.998448
707.000000	99.967859
706.000000	99.884013
705.000000	99.968134
704.000000	100.018458
703.000000	99.976696
702.000000	100.015174
701.000000	99.980337
700.000000	99.974195
699.000000	99.916562
698.000000	99.926700
697.000000	100.008973
696.000000	100.043696
695.000000	100.024368
694.000000	100.035278
693.000000	99.970965
692.000000	99.928011
691.000000	99.954089
690.000000	99.961321
689.000000	100.010446
688.000000	99.984614
687.000000	99.953291
686.000000	99.976266
685.000000	100.002751
684.000000	99.980647
683.000000	99.951126
682.000000	100.006053
681.000000	100.049285
680.000000	100.081429
679.000000	100.013123
678.000000	99.995870
677.000000	100.101114
676.000000	100.110157
675.000000	100.094257
674.000000	99.988427
673.000000	99.994578
672.000000	100.038223
671.000000	100.085291
670.000000	100.005792
669.000000	100.039362
668.000000	100.061092
667.000000	100.025207
666.000000	99.995678
665.000000	100.015546
664.000000	99.938814
663.000000	100.027997
662.000000	100.008287
661.000000	99.978724
660.000000	99.998065
659.000000	99.986280
658.000000	99.904512
657.000000	99.986085
656.000000	100.031345
655.000000	99.978895
654.000000	99.977051
653.000000	99.960744
652.000000	99.895593
651.000000	100.016968
650.000000	99.959235
649.000000	99.976847
648.000000	99.947498
647.000000	100.025207
646.000000	100.014956
645.000000	100.045892
644.000000	99.936050
643.000000	99.967037
642.000000	100.001016
641.000000	99.993443
640.000000	99.941191
639.000000	99.997043
638.000000	100.027547
637.000000	99.902080
636.000000	99.993621
635.000000	100.061502
634.000000	99.971898
633.000000	99.997966
632.000000	99.976513
631.000000	99.980296
630.000000	99.997873
629.000000	99.994079
628.000000	100.015087
627.000000	99.987322
626.000000	100.004166
625.000000	100.008425
624.000000	100.013147
623.000000	100.002593
622.000000	100.007317
621.000000	100.053186
620.000000	99.948043
619.000000	100.054118
618.000000	100.038269
617.000000	100.022241
616.000000	100.006766
615.000000	100.032904
614.000000	99.919282
613.000000	99.973213
612.000000	100.053893
611.000000	100.011870
610.000000	99.904039
609.000000	99.997217
608.000000	99.915916
607.000000	100.034149
606.000000	99.968919
605.000000	99.992483
604.000000	100.003340
603.000000	99.975319
602.000000	99.922500
601.000000	99.882933
600.000000	99.987011
599.000000	100.075111
598.000000	100.022280
597.000000	99.989692
596.000000	100.001857
595.000000	99.937746
594.000000	99.974012
593.000000	100.057304
592.000000	99.971401
591.000000	100.107635
590.000000	99.987740
589.000000	99.909279
588.000000	100.033445
587.000000	100.069598
586.000000	99.900732
585.000000	100.056618
584.000000	99.908557
583.000000	99.940916
582.000000	100.056368
581.000000	99.980017
580.000000	100.001209
579.000000	100.015991
578.000000	99.852363
577.000000	99.977316
576.000000	99.989495
575.000000	100.057388
574.000000	99.944597
573.000000	100.051533
572.000000	99.969415
571.000000	99.970229
570.000000	100.063818
569.000000	100.015165
568.000000	100.007630
567.000000	99.979152
566.000000	99.886225
565.000000	100.037218
564.000000	99.994789
563.000000	99.996092
562.000000	99.969104
561.000000	99.858580
560.000000	99.865993
559.000000	100.115827
558.000000	100.029232
557.000000	100.046465
556.000000	99.999255
555.000000	99.947097
554.000000	100.020205
553.000000	100.036980
552.000000	99.963681
551.000000	99.971401
550.000000	100.016116
549.000000	99.914778
548.000000	99.923624
547.000000	99.946732
546.000000	99.874199
545.000000	99.906818
544.000000	100.048553
543.000000	99.978752
542.000000	99.921277
541.000000	100.040460
540.000000	100.002331
539.000000	99.964580
538.000000	99.993569
537.000000	100.038047
536.000000	99.962418
535.000000	100.002052
534.000000	99.959523
533.000000	99.984330
532.000000	99.946744
531.000000	99.910152
530.000000	99.876839
529.000000	99.959501
528.000000	99.948226
527.000000	99.969221
526.000000	99.978079
525.000000	100.030612
524.000000	99.922395
523.000000	99.987120
522.000000	99.937863
521.000000	99.953527
520.000000	100.022215
519.000000	99.977230
518.000000	99.946624
517.000000	99.994773
516.000000	99.962303
515.000000	100.001587
514.000000	99.986841
513.000000	99.924412
512.000000	99.920467
511.000000	99.940639
510.000000	99.957437
509.000000	100.000560
508.000000	100.088447
507.000000	100.013543
506.000000	100.036908
505.000000	99.969657
504.000000	99.976745
503.000000	99.955374
502.000000	99.966386
501.000000	99.962077
500.000000	99.903815
499.000000	99.919755
498.000000	99.899241
497.000000	99.988044
496.000000	99.950799
495.000000	99.961442
494.000000	99.983932
493.000000	99.964879
492.000000	99.965257
491.000000	99.984497
490.000000	100.033344
489.000000	100.019897
488.000000	100.011585
487.000000	100.005884
486.000000	99.974418
485.000000	99.954921
484.000000	99.995796
483.000000	100.015151
482.000000	100.059683
481.000000	99.980351
480.000000	99.956562
479.000000	100.063495
478.000000	100.043989
477.000000	100.028928
476.000000	100.007024
475.000000	99.952994
474.000000	99.921244
473.000000	99.974896
472.000000	100.119804
471.000000	100.077352
470.000000	99.992313
469.000000	99.923713
468.000000	99.968417
467.000000	100.014153
466.000000	100.001874
465.000000	99.989691
464.000000	100.002250
463.000000	100.003751
462.000000	99.954452
461.000000	99.890954
460.000000	99.942824
459.000000	99.992590
458.000000	99.993246
457.000000	100.006379
456.000000	99.938936
455.000000	99.953583
454.000000	99.974298
453.000000	99.940318
452.000000	99.977947
451.000000	99.984889
450.000000	99.978038
449.000000	100.034349
448.000000	100.054635
447.000000	100.023667
446.000000	100.030541
445.000000	99.999530
444.000000	99.983095
443.000000	100.019156
442.000000	100.067369
441.000000	99.967305
440.000000	99.937034
439.000000	99.947729
438.000000	99.984867
437.000000	100.033561
436.000000	99.977827
435.000000	99.851785
434.000000	99.903957
433.000000	99.927208
432.000000	99.952196
431.000000	99.984667
430.000000	100.069061
429.000000	100.080673
428.000000	100.005083
427.000000	100.015153
426.000000	100.027298
425.000000	99.957753
424.000000	100.057633
423.000000	100.041734
422.000000	100.040705
421.000000	100.000094
420.000000	99.951386
419.000000	99.966458
418.000000	99.969955
417.000000	99.903006
416.000000	99.965319
415.000000	99.896824
414.000000	99.893754
413.000000	99.978881
412.000000	99.959943
411.000000	99.927881
410.000000	99.997829
409.000000	99.943876
408.000000	99.948123
407.000000	99.985103
406.000000	99.913924
405.000000	99.944347
404.000000	99.969987
403.000000	99.964422
402.000000	100.048608
401.000000	100.020953
400.000000	99.987828
399.000000	99.931189
398.000000	99.865315
397.000000	99.928388
396.000000	99.965262
395.000000	100.023891
394.000000	99.952993
393.000000	99.991407
392.000000	100.026165
391.000000	99.954500
390.000000	99.845699
389.000000	100.012749
388.000000	99.942798
387.000000	99.942302
386.000000	99.915195
385.000000	99.987058
384.000000	99.926047
383.000000	99.919920
382.000000	99.944668
381.000000	100.057175
380.000000	99.952366
379.000000	99.991500
378.000000	99.844052
377.000000	100.131597
376.000000	100.240892
375.000000	99.943338
374.000000	99.773827
373.000000	100.058243
372.000000	99.732623
371.000000	100.083122
370.000000	99.956548
369.000000	100.004717
368.000000	100.035554
367.000000	99.955477
366.000000	100.303567
365.000000	99.942844
364.000000	99.435896
363.000000	99.970295
362.000000	100.270420
361.000000	100.032766
360.000000	99.875609
359.000000	99.763791
358.000000	99.943302
357.000000	99.847227
356.000000	99.657508
355.000000	100.032779
354.000000	99.969120
353.000000	99.861212
352.000000	100.122603
351.000000	100.029196
350.000000	100.012257
349.000000	100.224142
348.000000	99.667689
347.000000	100.002451
346.000000	99.702944
345.000000	100.022753
344.000000	100.196713
343.000000	99.949198
342.000000	99.707991
341.000000	100.305476
340.000000	100.042305
339.000000	100.003302
338.000000	99.961829
337.000000	100.155315
336.000000	99.973059
335.000000	100.335225
334.000000	99.610264
333.000000	100.117071
332.000000	99.922005
331.000000	100.608828
330.000000	100.033559
329.000000	99.922286
328.000000	100.031819
327.000000	99.869670
326.000000	99.968792
325.000000	100.117209
324.000000	100.125017
323.000000	100.192531
322.000000	100.264111
321.000000	99.951611
320.000000	99.581881
319.000000	100.214020
318.000000	100.078233
317.000000	100.259906
316.000000	100.044715
315.000000	99.713539
314.000000	99.904306
313.000000	99.829992
312.000000	100.153149
311.000000	99.914188
310.000000	99.978167
309.000000	100.381669
308.000000	99.892714
307.000000	99.909322
306.000000	100.163985
305.000000	100.152862
304.000000	100.017070
303.000000	99.928272
302.000000	100.088765
301.000000	100.449952
300.000000	99.946576
299.000000	99.830253
298.000000	100.066262
297.000000	99.729607
296.000000	99.916406
295.000000	99.929568
294.000000	99.964262
293.000000	100.109648
292.000000	100.228029
291.000000	99.963589
290.000000	99.980381
289.000000	100.165221
288.000000	100.231686
287.000000	99.990792
286.000000	100.294352
285.000000	99.931971
284.000000	99.799966
283.000000	100.135821
282.000000	99.801601
281.000000	99.753399
280.000000	99.948460
279.000000	100.229961
278.000000	99.957594
277.000000	100.253167
276.000000	100.095071
275.000000	99.893807
274.000000	99.938399
273.000000	100.237806
272.000000	100.399787
271.000000	100.103072
270.000000	99.982514
269.000000	100.046379
268.000000	100.119286
267.000000	99.883779
266.000000	100.004100
265.000000	100.166001
264.000000	100.157313
263.000000	99.960423
262.000000	99.962446
261.000000	100.356139
260.000000	100.038100
259.000000	99.893110
258.000000	100.003501
257.000000	100.152551
256.000000	100.166914
255.000000	99.899963
254.000000	99.861936
253.000000	99.699222
252.000000	99.759406
251.000000	99.918235
250.000000	100.103138
249.000000	99.983749
248.000000	99.990025
247.000000	100.109313
246.000000	100.252321
245.000000	99.989516
244.000000	99.838453
243.000000	100.048907
242.000000	99.998631
241.000000	99.855549
240.000000	99.797108
239.000000	99.818426
238.000000	99.872354
237.000000	99.913389
236.000000	100.001468
235.000000	99.711405
234.000000	99.752562
233.000000	99.868209
232.000000	99.870252
231.000000	100.114172
230.000000	100.057903
229.000000	99.978075
228.000000	99.892344
227.000000	99.895007
226.000000	99.813355
225.000000	99.845910
224.000000	100.000948
223.000000	99.953181
222.000000	99.832123
221.000000	100.135552
220.000000	100.290216
219.000000	99.824255
218.000000	99.696624
217.000000	99.917340
216.000000	100.083205
215.000000	99.803334
214.000000	99.692098
213.000000	100.232438
212.000000	100.729910
211.000000	100.714760
210.000000	100.069129
209.000000	99.795176
208.000000	99.680780
207.000000	99.957191
206.000000	99.796889
205.000000	99.367999
204.000000	99.542229
203.000000	99.490093
202.000000	99.754272
201.000000	100.556788
200.000000	100.566661
