PE UV       SUBTECH     SPECTRUM    ASCII       PEDS        4.00        
   -1
TDgVeauUK 42.Sample.asc
18/03/08
17:00:08.00
18/03/08
17:00:08.00
Administrator

200.000000
1
Lambda 750
750N8071901
PerkinElmer UV WinLab 6.0.4.0738 / 1.61.00 Lambda 900

0
0
3350/servo 860.8/2
0
0
UV/VIS
1
1
1
CommonBeamDepol,150mm sphere / downward view
0
0
0
0
Program
Program
3350/servo 860.8/2
3350/0.2 860.8/0.2
3350/0.2 860.8/0.2
0
1
 
 
 
0
 
860.8
319.2
860.8
Front
100
on
 
 
0
0
0
 
0
 
 
 
0
 
 
0
0
0
0
0
 
 
 
 
0
0


0
0
#HDR
-1
-1
#GR
nm
%T
1.0
0.0
2350.000000
-1.000000
2151
8
55.013723
0.110122
#DATA
2350.000000	16.492929
2349.000000	16.530971
2348.000000	16.443612
2347.000000	16.961924
2346.000000	16.475585
2345.000000	16.437660
2344.000000	15.994428
2343.000000	16.274313
2342.000000	16.396122
2341.000000	16.280418
2340.000000	16.347559
2339.000000	16.716568
2338.000000	16.604216
2337.000000	16.869216
2336.000000	17.216465
2335.000000	17.243353
2334.000000	17.129147
2333.000000	17.179047
2332.000000	17.469946
2331.000000	17.347267
2330.000000	16.820134
2329.000000	17.049577
2328.000000	17.271142
2327.000000	17.084643
2326.000000	17.193920
2325.000000	17.021796
2324.000000	17.239853
2323.000000	17.034741
2322.000000	16.804549
2321.000000	16.793337
2320.000000	16.968933
2319.000000	17.102444
2318.000000	16.787249
2317.000000	16.728293
2316.000000	16.464846
2315.000000	16.537564
2314.000000	16.273903
2313.000000	16.457750
2312.000000	16.490295
2311.000000	16.565009
2310.000000	16.376827
2309.000000	16.087225
2308.000000	15.884428
2307.000000	15.731051
2306.000000	15.644574
2305.000000	15.856707
2304.000000	15.748390
2303.000000	15.579096
2302.000000	15.285213
2301.000000	15.124583
2300.000000	15.348120
2299.000000	15.100858
2298.000000	15.083187
2297.000000	14.976848
2296.000000	14.701388
2295.000000	14.766878
2294.000000	14.757962
2293.000000	14.614704
2292.000000	14.213673
2291.000000	14.290499
2290.000000	14.389679
2289.000000	14.162236
2288.000000	14.284267
2287.000000	14.307464
2286.000000	14.243409
2285.000000	14.126200
2284.000000	13.935428
2283.000000	13.964561
2282.000000	13.884852
2281.000000	13.963571
2280.000000	14.173511
2279.000000	14.249378
2278.000000	14.060124
2277.000000	13.893554
2276.000000	14.133830
2275.000000	14.050305
2274.000000	14.001044
2273.000000	14.226956
2272.000000	14.494724
2271.000000	14.548103
2270.000000	14.391765
2269.000000	14.395638
2268.000000	14.524399
2267.000000	14.561867
2266.000000	14.651608
2265.000000	14.969558
2264.000000	15.101141
2263.000000	15.157211
2262.000000	15.335939
2261.000000	15.559828
2260.000000	15.747507
2259.000000	15.962158
2258.000000	16.211528
2257.000000	16.339321
2256.000000	16.555670
2255.000000	16.681515
2254.000000	16.887293
2253.000000	17.216160
2252.000000	17.427781
2251.000000	17.641338
2250.000000	17.997223
2249.000000	18.404742
2248.000000	18.476327
2247.000000	18.528945
2246.000000	18.826185
2245.000000	19.021031
2244.000000	19.282044
2243.000000	19.610847
2242.000000	19.833827
2241.000000	19.894202
2240.000000	19.943357
2239.000000	20.119638
2238.000000	20.226268
2237.000000	20.331811
2236.000000	20.436158
2235.000000	20.617345
2234.000000	20.734355
2233.000000	20.768687
2232.000000	20.870596
2231.000000	20.917032
2230.000000	20.964085
2229.000000	20.990078
2228.000000	21.056534
2227.000000	21.021425
2226.000000	20.914835
2225.000000	21.058209
2224.000000	21.061779
2223.000000	20.907185
2222.000000	20.944658
2221.000000	20.950010
2220.000000	20.972168
2219.000000	20.991034
2218.000000	20.906062
2217.000000	20.719586
2216.000000	20.665709
2215.000000	20.707285
2214.000000	20.683389
2213.000000	20.639215
2212.000000	20.628694
2211.000000	20.515493
2210.000000	20.352735
2209.000000	20.219419
2208.000000	20.205929
2207.000000	20.116121
2206.000000	19.961752
2205.000000	19.949717
2204.000000	19.777854
2203.000000	19.698615
2202.000000	19.601784
2201.000000	19.487631
2200.000000	19.544419
2199.000000	19.305266
2198.000000	19.288738
2197.000000	19.212571
2196.000000	18.985370
2195.000000	18.911973
2194.000000	18.839863
2193.000000	18.830396
2192.000000	18.647950
2191.000000	18.443276
2190.000000	18.493811
2189.000000	18.417582
2188.000000	18.463765
2187.000000	18.217175
2186.000000	18.190647
2185.000000	18.110824
2184.000000	18.124003
2183.000000	18.020152
2182.000000	17.997582
2181.000000	17.924452
2180.000000	17.757849
2179.000000	17.884996
2178.000000	17.826185
2177.000000	17.821193
2176.000000	17.973717
2175.000000	17.957599
2174.000000	17.892975
2173.000000	17.871093
2172.000000	18.040058
2171.000000	18.173882
2170.000000	18.131730
2169.000000	18.150808
2168.000000	18.229401
2167.000000	18.427093
2166.000000	18.531780
2165.000000	18.507547
2164.000000	18.689417
2163.000000	18.599412
2162.000000	18.895789
2161.000000	19.013609
2160.000000	19.144438
2159.000000	19.315627
2158.000000	19.247202
2157.000000	19.611552
2156.000000	19.796499
2155.000000	19.873610
2154.000000	20.033566
2153.000000	20.253012
2152.000000	20.446414
2151.000000	20.553250
2150.000000	20.570477
2149.000000	20.783779
2148.000000	21.020044
2147.000000	21.244442
2146.000000	21.388611
2145.000000	21.502604
2144.000000	21.675460
2143.000000	21.725197
2142.000000	21.845900
2141.000000	22.085375
2140.000000	22.362868
2139.000000	22.464317
2138.000000	22.474822
2137.000000	22.676280
2136.000000	22.565907
2135.000000	22.850250
2134.000000	22.941181
2133.000000	22.830911
2132.000000	23.246856
2131.000000	23.256328
2130.000000	23.478381
2129.000000	23.455405
2128.000000	23.367047
2127.000000	23.583119
2126.000000	23.592717
2125.000000	23.583413
2124.000000	23.692521
2123.000000	23.809062
2122.000000	23.935413
2121.000000	23.829968
2120.000000	23.893115
2119.000000	23.970082
2118.000000	24.075588
2117.000000	24.001417
2116.000000	24.183569
2115.000000	24.172375
2114.000000	24.237715
2113.000000	24.036184
2112.000000	24.322885
2111.000000	24.180757
2110.000000	24.194862
2109.000000	24.287371
2108.000000	24.284215
2107.000000	24.440392
2106.000000	24.331653
2105.000000	24.384062
2104.000000	24.279603
2103.000000	24.331204
2102.000000	24.360200
2101.000000	24.385731
2100.000000	24.502782
2099.000000	24.527267
2098.000000	24.465780
2097.000000	24.434448
2096.000000	24.464871
2095.000000	24.298536
2094.000000	24.366729
2093.000000	24.348666
2092.000000	24.490808
2091.000000	24.365597
2090.000000	24.234846
2089.000000	24.313213
2088.000000	24.301720
2087.000000	24.239933
2086.000000	24.177377
2085.000000	24.109492
2084.000000	24.149952
2083.000000	23.980133
2082.000000	23.857657
2081.000000	23.812077
2080.000000	23.728102
2079.000000	23.670535
2078.000000	23.489939
2077.000000	23.418412
2076.000000	23.334065
2075.000000	23.218016
2074.000000	23.157985
2073.000000	22.986989
2072.000000	22.767769
2071.000000	22.681527
2070.000000	22.584766
2069.000000	22.394139
2068.000000	22.182134
2067.000000	22.032762
2066.000000	21.832986
2065.000000	21.652994
2064.000000	21.505189
2063.000000	21.298394
2062.000000	21.093322
2061.000000	20.891887
2060.000000	20.716914
2059.000000	20.603042
2058.000000	20.413650
2057.000000	20.239511
2056.000000	20.064896
2055.000000	19.896022
2054.000000	19.722214
2053.000000	19.568355
2052.000000	19.393093
2051.000000	19.225157
2050.000000	19.085612
2049.000000	19.034622
2048.000000	18.895342
2047.000000	18.764548
2046.000000	18.694725
2045.000000	18.615610
2044.000000	18.600337
2043.000000	18.589542
2042.000000	18.594060
2041.000000	18.665680
2040.000000	18.721236
2039.000000	18.745338
2038.000000	18.751622
2037.000000	18.827135
2036.000000	18.924402
2035.000000	19.056246
2034.000000	19.189873
2033.000000	19.276774
2032.000000	19.378565
2031.000000	19.497871
2030.000000	19.633933
2029.000000	19.794962
2028.000000	19.971221
2027.000000	20.172328
2026.000000	20.306586
2025.000000	20.404512
2024.000000	20.443059
2023.000000	20.483513
2022.000000	20.567551
2021.000000	20.650429
2020.000000	20.729349
2019.000000	20.800814
2018.000000	20.835529
2017.000000	20.852378
2016.000000	20.853616
2015.000000	20.846392
2014.000000	20.880797
2013.000000	20.865944
2012.000000	20.812577
2011.000000	20.758889
2010.000000	20.672231
2009.000000	20.574889
2008.000000	20.503691
2007.000000	20.430220
2006.000000	20.359970
2005.000000	20.250506
2004.000000	20.139378
2003.000000	20.074677
2002.000000	19.967119
2001.000000	19.796398
2000.000000	19.676827
1999.000000	19.571050
1998.000000	19.450723
1997.000000	19.360636
1996.000000	19.219302
1995.000000	19.098211
1994.000000	18.962584
1993.000000	18.817622
1992.000000	18.672421
1991.000000	18.586759
1990.000000	18.450732
1989.000000	18.306120
1988.000000	18.183685
1987.000000	18.063261
1986.000000	17.894685
1985.000000	17.809784
1984.000000	17.717112
1983.000000	17.571953
1982.000000	17.443235
1981.000000	17.383603
1980.000000	17.221661
1979.000000	17.081899
1978.000000	16.937903
1977.000000	16.835871
1976.000000	16.709489
1975.000000	16.622742
1974.000000	16.481060
1973.000000	16.357008
1972.000000	16.240343
1971.000000	16.117525
1970.000000	16.044860
1969.000000	15.920791
1968.000000	15.822215
1967.000000	15.727837
1966.000000	15.616563
1965.000000	15.492448
1964.000000	15.357959
1963.000000	15.294116
1962.000000	15.173780
1961.000000	15.040957
1960.000000	14.930339
1959.000000	14.861264
1958.000000	14.764643
1957.000000	14.682505
1956.000000	14.644554
1955.000000	14.587843
1954.000000	14.501996
1953.000000	14.418581
1952.000000	14.356323
1951.000000	14.339136
1950.000000	14.303584
1949.000000	14.241981
1948.000000	14.239068
1947.000000	14.232960
1946.000000	14.162859
1945.000000	14.207961
1944.000000	14.232125
1943.000000	14.250582
1942.000000	14.239432
1941.000000	14.304354
1940.000000	14.395004
1939.000000	14.487841
1938.000000	14.545182
1937.000000	14.674756
1936.000000	14.793617
1935.000000	14.977406
1934.000000	15.042695
1933.000000	15.236051
1932.000000	15.395185
1931.000000	15.539493
1930.000000	15.762221
1929.000000	15.965399
1928.000000	16.156718
1927.000000	16.419727
1926.000000	16.646791
1925.000000	16.985635
1924.000000	17.174596
1923.000000	17.560112
1922.000000	17.861450
1921.000000	18.215677
1920.000000	18.453725
1919.000000	18.826961
1918.000000	19.245504
1917.000000	19.726772
1916.000000	19.939314
1915.000000	20.459378
1914.000000	20.897267
1913.000000	21.400535
1912.000000	21.764860
1911.000000	22.195694
1910.000000	22.663073
1909.000000	23.155843
1908.000000	23.622379
1907.000000	24.183786
1906.000000	24.713893
1905.000000	25.300557
1904.000000	25.789576
1903.000000	26.444339
1902.000000	26.966145
1901.000000	27.468371
1900.000000	28.095169
1899.000000	28.690582
1898.000000	29.303870
1897.000000	29.746199
1896.000000	30.364732
1895.000000	30.899898
1894.000000	31.437150
1893.000000	32.025159
1892.000000	32.524974
1891.000000	33.061815
1890.000000	33.585987
1889.000000	34.064236
1888.000000	34.560027
1887.000000	35.009640
1886.000000	35.473345
1885.000000	35.934686
1884.000000	36.366420
1883.000000	36.784897
1882.000000	37.170452
1881.000000	37.581521
1880.000000	37.961775
1879.000000	38.319273
1878.000000	38.653273
1877.000000	39.005760
1876.000000	39.303553
1875.000000	39.581033
1874.000000	39.845295
1873.000000	40.127210
1872.000000	40.383928
1871.000000	40.577546
1870.000000	40.802972
1869.000000	40.966965
1868.000000	41.122560
1867.000000	41.255276
1866.000000	41.393990
1865.000000	41.520302
1864.000000	41.605966
1863.000000	41.712789
1862.000000	41.784409
1861.000000	41.825590
1860.000000	41.898914
1859.000000	41.972334
1858.000000	42.019301
1857.000000	42.083921
1856.000000	42.164241
1855.000000	42.161128
1854.000000	42.203328
1853.000000	42.250482
1852.000000	42.247351
1851.000000	42.244163
1850.000000	42.244579
1849.000000	42.237905
1848.000000	42.221713
1847.000000	42.261884
1846.000000	42.240349
1845.000000	42.188993
1844.000000	42.197340
1843.000000	42.194502
1842.000000	42.143773
1841.000000	42.107018
1840.000000	42.068270
1839.000000	42.063819
1838.000000	41.995322
1837.000000	41.910883
1836.000000	41.861524
1835.000000	41.798229
1834.000000	41.749535
1833.000000	41.704856
1832.000000	41.651472
1831.000000	41.590133
1830.000000	41.530657
1829.000000	41.493751
1828.000000	41.434089
1827.000000	41.382298
1826.000000	41.340058
1825.000000	41.274984
1824.000000	41.241587
1823.000000	41.199535
1822.000000	41.150778
1821.000000	41.111257
1820.000000	41.036550
1819.000000	40.974191
1818.000000	40.960114
1817.000000	40.943705
1816.000000	40.892745
1815.000000	40.840457
1814.000000	40.807842
1813.000000	40.746688
1812.000000	40.707762
1811.000000	40.660352
1810.000000	40.609598
1809.000000	40.561802
1808.000000	40.524338
1807.000000	40.476094
1806.000000	40.413686
1805.000000	40.372065
1804.000000	40.323014
1803.000000	40.282839
1802.000000	40.245216
1801.000000	40.209381
1800.000000	40.173192
1799.000000	40.138713
1798.000000	40.104810
1797.000000	40.076963
1796.000000	40.045475
1795.000000	40.006589
1794.000000	39.990175
1793.000000	39.949772
1792.000000	39.919313
1791.000000	39.917823
1790.000000	39.871065
1789.000000	39.824752
1788.000000	39.828657
1787.000000	39.788203
1786.000000	39.754745
1785.000000	39.729251
1784.000000	39.689353
1783.000000	39.633617
1782.000000	39.587374
1781.000000	39.557110
1780.000000	39.533885
1779.000000	39.484464
1778.000000	39.425471
1777.000000	39.375951
1776.000000	39.332917
1775.000000	39.275379
1774.000000	39.217414
1773.000000	39.188597
1772.000000	39.100759
1771.000000	39.022902
1770.000000	38.968280
1769.000000	38.913939
1768.000000	38.843336
1767.000000	38.775263
1766.000000	38.712535
1765.000000	38.641474
1764.000000	38.570820
1763.000000	38.510260
1762.000000	38.471819
1761.000000	38.420722
1760.000000	38.334318
1759.000000	38.274195
1758.000000	38.220592
1757.000000	38.127810
1756.000000	38.077347
1755.000000	38.033269
1754.000000	37.956825
1753.000000	37.883187
1752.000000	37.832378
1751.000000	37.769010
1750.000000	37.702582
1749.000000	37.665991
1748.000000	37.582883
1747.000000	37.495412
1746.000000	37.441655
1745.000000	37.382754
1744.000000	37.321660
1743.000000	37.247424
1742.000000	37.165851
1741.000000	37.137495
1740.000000	37.060744
1739.000000	37.007738
1738.000000	36.960740
1737.000000	36.911562
1736.000000	36.866838
1735.000000	36.843615
1734.000000	36.855700
1733.000000	36.828789
1732.000000	36.843475
1731.000000	36.847812
1730.000000	36.869968
1729.000000	36.877562
1728.000000	36.940068
1727.000000	37.002573
1726.000000	37.084557
1725.000000	37.145240
1724.000000	37.231393
1723.000000	37.328992
1722.000000	37.414713
1721.000000	37.509393
1720.000000	37.606507
1719.000000	37.732003
1718.000000	37.820275
1717.000000	37.937014
1716.000000	38.038215
1715.000000	38.122294
1714.000000	38.238768
1713.000000	38.310382
1712.000000	38.396261
1711.000000	38.474631
1710.000000	38.558552
1709.000000	38.614850
1708.000000	38.652951
1707.000000	38.683195
1706.000000	38.720714
1705.000000	38.732912
1704.000000	38.794388
1703.000000	38.777647
1702.000000	38.814714
1701.000000	38.839689
1700.000000	38.830290
1699.000000	38.838485
1698.000000	38.877938
1697.000000	38.924081
1696.000000	38.956058
1695.000000	38.977923
1694.000000	39.026751
1693.000000	39.089311
1692.000000	39.122756
1691.000000	39.200963
1690.000000	39.270768
1689.000000	39.390889
1688.000000	39.506020
1687.000000	39.621682
1686.000000	39.768935
1685.000000	39.910810
1684.000000	40.072376
1683.000000	40.230014
1682.000000	40.411547
1681.000000	40.612369
1680.000000	40.796377
1679.000000	40.977498
1678.000000	41.193306
1677.000000	41.355058
1676.000000	41.586158
1675.000000	41.764835
1674.000000	41.965638
1673.000000	42.152586
1672.000000	42.345092
1671.000000	42.521364
1670.000000	42.700691
1669.000000	42.879208
1668.000000	43.010223
1667.000000	43.154622
1666.000000	43.288889
1665.000000	43.416843
1664.000000	43.517648
1663.000000	43.581584
1662.000000	43.696145
1661.000000	43.780567
1660.000000	43.854628
1659.000000	43.924418
1658.000000	43.976104
1657.000000	44.020136
1656.000000	44.057671
1655.000000	44.093366
1654.000000	44.120645
1653.000000	44.140241
1652.000000	44.150777
1651.000000	44.129098
1650.000000	44.124248
1649.000000	44.121463
1648.000000	44.099807
1647.000000	44.084160
1646.000000	44.068189
1645.000000	44.043266
1644.000000	44.008302
1643.000000	43.991612
1642.000000	43.963721
1641.000000	43.933246
1640.000000	43.895468
1639.000000	43.862417
1638.000000	43.833343
1637.000000	43.793745
1636.000000	43.727899
1635.000000	43.682831
1634.000000	43.641942
1633.000000	43.575706
1632.000000	43.531920
1631.000000	43.481791
1630.000000	43.416121
1629.000000	43.359590
1628.000000	43.300635
1627.000000	43.244773
1626.000000	43.188883
1625.000000	43.138155
1624.000000	43.081200
1623.000000	43.013471
1622.000000	42.953016
1621.000000	42.895603
1620.000000	42.832611
1619.000000	42.758073
1618.000000	42.693763
1617.000000	42.617724
1616.000000	42.564804
1615.000000	42.502405
1614.000000	42.414508
1613.000000	42.329024
1612.000000	42.262946
1611.000000	42.197383
1610.000000	42.121797
1609.000000	42.058315
1608.000000	41.964222
1607.000000	41.879177
1606.000000	41.805260
1605.000000	41.723644
1604.000000	41.648153
1603.000000	41.568920
1602.000000	41.499859
1601.000000	41.421001
1600.000000	41.338610
1599.000000	41.262263
1598.000000	41.185590
1597.000000	41.116053
1596.000000	41.050926
1595.000000	40.985328
1594.000000	40.910028
1593.000000	40.850495
1592.000000	40.796442
1591.000000	40.732127
1590.000000	40.665260
1589.000000	40.576503
1588.000000	40.501545
1587.000000	40.465782
1586.000000	40.399964
1585.000000	40.334211
1584.000000	40.284453
1583.000000	40.222027
1582.000000	40.160285
1581.000000	40.106329
1580.000000	40.059360
1579.000000	40.018487
1578.000000	39.966681
1577.000000	39.890557
1576.000000	39.818549
1575.000000	39.772552
1574.000000	39.710616
1573.000000	39.652917
1572.000000	39.597007
1571.000000	39.526451
1570.000000	39.478894
1569.000000	39.428044
1568.000000	39.383730
1567.000000	39.335400
1566.000000	39.294306
1565.000000	39.257315
1564.000000	39.220914
1563.000000	39.196005
1562.000000	39.156142
1561.000000	39.113202
1560.000000	39.077204
1559.000000	39.055354
1558.000000	39.020930
1557.000000	38.984824
1556.000000	38.959775
1555.000000	38.914468
1554.000000	38.879976
1553.000000	38.867915
1552.000000	38.815616
1551.000000	38.763915
1550.000000	38.726838
1549.000000	38.676576
1548.000000	38.626202
1547.000000	38.568579
1546.000000	38.492009
1545.000000	38.428847
1544.000000	38.341281
1543.000000	38.262432
1542.000000	38.167085
1541.000000	38.075046
1540.000000	37.989239
1539.000000	37.889939
1538.000000	37.784809
1537.000000	37.671896
1536.000000	37.571763
1535.000000	37.469705
1534.000000	37.360452
1533.000000	37.277291
1532.000000	37.174523
1531.000000	37.069979
1530.000000	36.993533
1529.000000	36.895745
1528.000000	36.811680
1527.000000	36.717840
1526.000000	36.638515
1525.000000	36.569700
1524.000000	36.488758
1523.000000	36.421998
1522.000000	36.374668
1521.000000	36.291796
1520.000000	36.247762
1519.000000	36.190268
1518.000000	36.147900
1517.000000	36.099776
1516.000000	36.044190
1515.000000	36.002965
1514.000000	35.972965
1513.000000	35.941944
1512.000000	35.904927
1511.000000	35.860284
1510.000000	35.828982
1509.000000	35.801206
1508.000000	35.777192
1507.000000	35.758677
1506.000000	35.740127
1505.000000	35.720018
1504.000000	35.687207
1503.000000	35.682004
1502.000000	35.656728
1501.000000	35.644416
1500.000000	35.625677
1499.000000	35.646568
1498.000000	35.638929
1497.000000	35.651858
1496.000000	35.673970
1495.000000	35.666371
1494.000000	35.679977
1493.000000	35.691826
1492.000000	35.695473
1491.000000	35.729758
1490.000000	35.768998
1489.000000	35.796527
1488.000000	35.846121
1487.000000	35.871282
1486.000000	35.923111
1485.000000	35.950509
1484.000000	35.987412
1483.000000	36.070138
1482.000000	36.071236
1481.000000	36.158107
1480.000000	36.211603
1479.000000	36.264357
1478.000000	36.295183
1477.000000	36.333336
1476.000000	36.389509
1475.000000	36.428310
1474.000000	36.485596
1473.000000	36.543090
1472.000000	36.595381
1471.000000	36.619801
1470.000000	36.669549
1469.000000	36.718713
1468.000000	36.772583
1467.000000	36.839979
1466.000000	36.915546
1465.000000	36.937997
1464.000000	36.977657
1463.000000	37.000193
1462.000000	37.063793
1461.000000	37.144757
1460.000000	37.183808
1459.000000	37.250728
1458.000000	37.308149
1457.000000	37.358763
1456.000000	37.403812
1455.000000	37.447214
1454.000000	37.510250
1453.000000	37.595045
1452.000000	37.678081
1451.000000	37.743268
1450.000000	37.806234
1449.000000	37.884756
1448.000000	37.965129
1447.000000	38.051577
1446.000000	38.134656
1445.000000	38.213917
1444.000000	38.285614
1443.000000	38.392986
1442.000000	38.476635
1441.000000	38.577931
1440.000000	38.697038
1439.000000	38.804057
1438.000000	38.903129
1437.000000	39.023408
1436.000000	39.125550
1435.000000	39.241778
1434.000000	39.360847
1433.000000	39.476985
1432.000000	39.611964
1431.000000	39.739970
1430.000000	39.885380
1429.000000	40.038374
1428.000000	40.199426
1427.000000	40.350245
1426.000000	40.515708
1425.000000	40.699590
1424.000000	40.868162
1423.000000	41.051062
1422.000000	41.219763
1421.000000	41.421255
1420.000000	41.626886
1419.000000	41.815520
1418.000000	42.018949
1417.000000	42.235932
1416.000000	42.460730
1415.000000	42.679903
1414.000000	42.892902
1413.000000	43.114678
1412.000000	43.355234
1411.000000	43.586718
1410.000000	43.808601
1409.000000	44.052256
1408.000000	44.292604
1407.000000	44.517754
1406.000000	44.737196
1405.000000	44.976629
1404.000000	45.212744
1403.000000	45.447095
1402.000000	45.663714
1401.000000	45.877359
1400.000000	46.096074
1399.000000	46.305898
1398.000000	46.523221
1397.000000	46.744280
1396.000000	46.949546
1395.000000	47.140747
1394.000000	47.334369
1393.000000	47.514218
1392.000000	47.688068
1391.000000	47.879328
1390.000000	48.065717
1389.000000	48.234265
1388.000000	48.384980
1387.000000	48.531463
1386.000000	48.686068
1385.000000	48.838542
1384.000000	48.982352
1383.000000	49.116058
1382.000000	49.240899
1381.000000	49.341651
1380.000000	49.440679
1379.000000	49.547973
1378.000000	49.663514
1377.000000	49.750318
1376.000000	49.805925
1375.000000	49.900524
1374.000000	49.985291
1373.000000	50.042251
1372.000000	50.109619
1371.000000	50.179060
1370.000000	50.237473
1369.000000	50.300687
1368.000000	50.380467
1367.000000	50.456935
1366.000000	50.519825
1365.000000	50.570604
1364.000000	50.630258
1363.000000	50.693435
1362.000000	50.753278
1361.000000	50.830466
1360.000000	50.899771
1359.000000	50.976191
1358.000000	51.049618
1357.000000	51.121116
1356.000000	51.186916
1355.000000	51.254566
1354.000000	51.345364
1353.000000	51.403052
1352.000000	51.458816
1351.000000	51.526087
1350.000000	51.619453
1349.000000	51.683235
1348.000000	51.719120
1347.000000	51.796737
1346.000000	51.873803
1345.000000	51.955385
1344.000000	52.004939
1343.000000	52.061116
1342.000000	52.129012
1341.000000	52.198962
1340.000000	52.249574
1339.000000	52.301063
1338.000000	52.354229
1337.000000	52.411423
1336.000000	52.480426
1335.000000	52.538270
1334.000000	52.592678
1333.000000	52.630843
1332.000000	52.662119
1331.000000	52.706989
1330.000000	52.769194
1329.000000	52.812717
1328.000000	52.840434
1327.000000	52.879563
1326.000000	52.926132
1325.000000	52.944084
1324.000000	52.963793
1323.000000	53.006672
1322.000000	53.015445
1321.000000	53.030696
1320.000000	53.061923
1319.000000	53.101203
1318.000000	53.133472
1317.000000	53.137793
1316.000000	53.135200
1315.000000	53.147231
1314.000000	53.196162
1313.000000	53.198724
1312.000000	53.210629
1311.000000	53.255465
1310.000000	53.255589
1309.000000	53.257984
1308.000000	53.262663
1307.000000	53.307307
1306.000000	53.328328
1305.000000	53.307646
1304.000000	53.318631
1303.000000	53.368175
1302.000000	53.356364
1301.000000	53.364794
1300.000000	53.353976
1299.000000	53.356707
1298.000000	53.351432
1297.000000	53.352229
1296.000000	53.345756
1295.000000	53.323829
1294.000000	53.325619
1293.000000	53.323588
1292.000000	53.313468
1291.000000	53.317283
1290.000000	53.304077
1289.000000	53.282635
1288.000000	53.290210
1287.000000	53.278596
1286.000000	53.235696
1285.000000	53.224376
1284.000000	53.212654
1283.000000	53.207608
1282.000000	53.219154
1281.000000	53.227221
1280.000000	53.221425
1279.000000	53.220171
1278.000000	53.208314
1277.000000	53.206582
1276.000000	53.202631
1275.000000	53.195819
1274.000000	53.189661
1273.000000	53.206792
1272.000000	53.215013
1271.000000	53.186557
1270.000000	53.199961
1269.000000	53.207733
1268.000000	53.201694
1267.000000	53.208727
1266.000000	53.231284
1265.000000	53.237446
1264.000000	53.235535
1263.000000	53.260007
1262.000000	53.298864
1261.000000	53.286723
1260.000000	53.295980
1259.000000	53.288181
1258.000000	53.273403
1257.000000	53.302281
1256.000000	53.322308
1255.000000	53.326007
1254.000000	53.309517
1253.000000	53.313869
1252.000000	53.310807
1251.000000	53.302418
1250.000000	53.319782
1249.000000	53.276362
1248.000000	53.278978
1247.000000	53.268233
1246.000000	53.248415
1245.000000	53.237701
1244.000000	53.227963
1243.000000	53.204696
1242.000000	53.185434
1241.000000	53.122377
1240.000000	53.098568
1239.000000	53.076020
1238.000000	53.052440
1237.000000	52.990326
1236.000000	52.983213
1235.000000	52.959177
1234.000000	52.926722
1233.000000	52.861101
1232.000000	52.854504
1231.000000	52.833112
1230.000000	52.806547
1229.000000	52.763657
1228.000000	52.713084
1227.000000	52.695625
1226.000000	52.691687
1225.000000	52.662373
1224.000000	52.638822
1223.000000	52.622833
1222.000000	52.583677
1221.000000	52.556472
1220.000000	52.526354
1219.000000	52.487385
1218.000000	52.454136
1217.000000	52.432317
1216.000000	52.388516
1215.000000	52.349938
1214.000000	52.291083
1213.000000	52.277476
1212.000000	52.254082
1211.000000	52.192390
1210.000000	52.143409
1209.000000	52.120774
1208.000000	52.055361
1207.000000	51.999359
1206.000000	51.976433
1205.000000	51.923907
1204.000000	51.852741
1203.000000	51.796784
1202.000000	51.758824
1201.000000	51.714127
1200.000000	51.646481
1199.000000	51.607392
1198.000000	51.583043
1197.000000	51.525912
1196.000000	51.477940
1195.000000	51.437140
1194.000000	51.387084
1193.000000	51.356924
1192.000000	51.324616
1191.000000	51.298242
1190.000000	51.264465
1189.000000	51.228806
1188.000000	51.206872
1187.000000	51.200130
1186.000000	51.202042
1185.000000	51.199163
1184.000000	51.208345
1183.000000	51.205753
1182.000000	51.232678
1181.000000	51.265977
1180.000000	51.298987
1179.000000	51.347392
1178.000000	51.394675
1177.000000	51.431534
1176.000000	51.468558
1175.000000	51.534052
1174.000000	51.614005
1173.000000	51.680466
1172.000000	51.748543
1171.000000	51.821393
1170.000000	51.907347
1169.000000	51.987648
1168.000000	52.062190
1167.000000	52.164604
1166.000000	52.264501
1165.000000	52.356274
1164.000000	52.457118
1163.000000	52.553102
1162.000000	52.637491
1161.000000	52.736195
1160.000000	52.834592
1159.000000	52.915876
1158.000000	53.007657
1157.000000	53.082865
1156.000000	53.137682
1155.000000	53.216981
1154.000000	53.295918
1153.000000	53.380914
1152.000000	53.465115
1151.000000	53.539403
1150.000000	53.618120
1149.000000	53.691897
1148.000000	53.743260
1147.000000	53.807555
1146.000000	53.871119
1145.000000	53.933089
1144.000000	54.002089
1143.000000	54.055965
1142.000000	54.102811
1141.000000	54.161336
1140.000000	54.200143
1139.000000	54.236897
1138.000000	54.299203
1137.000000	54.358913
1136.000000	54.418570
1135.000000	54.464439
1134.000000	54.503602
1133.000000	54.547917
1132.000000	54.582246
1131.000000	54.630807
1130.000000	54.683694
1129.000000	54.713479
1128.000000	54.744350
1127.000000	54.763695
1126.000000	54.768343
1125.000000	54.793293
1124.000000	54.835865
1123.000000	54.856982
1122.000000	54.874981
1121.000000	54.897492
1120.000000	54.902852
1119.000000	54.903007
1118.000000	54.929829
1117.000000	54.926600
1116.000000	54.932331
1115.000000	54.931925
1114.000000	54.925664
1113.000000	54.932469
1112.000000	54.942675
1111.000000	54.932267
1110.000000	54.947792
1109.000000	54.949083
1108.000000	54.944201
1107.000000	54.942621
1106.000000	54.958926
1105.000000	54.959982
1104.000000	54.955630
1103.000000	54.942160
1102.000000	54.924437
1101.000000	54.923298
1100.000000	54.940453
1099.000000	54.940721
1098.000000	54.943351
1097.000000	54.934985
1096.000000	54.960655
1095.000000	54.944934
1094.000000	54.924666
1093.000000	54.913031
1092.000000	54.902620
1091.000000	54.926706
1090.000000	54.917824
1089.000000	54.911576
1088.000000	54.925954
1087.000000	54.882107
1086.000000	54.882379
1085.000000	54.898696
1084.000000	54.890031
1083.000000	54.867013
1082.000000	54.872006
1081.000000	54.845472
1080.000000	54.830004
1079.000000	54.846690
1078.000000	54.831216
1077.000000	54.828855
1076.000000	54.823955
1075.000000	54.804403
1074.000000	54.778108
1073.000000	54.766748
1072.000000	54.764157
1071.000000	54.760570
1070.000000	54.762783
1069.000000	54.758629
1068.000000	54.737614
1067.000000	54.725506
1066.000000	54.695422
1065.000000	54.695161
1064.000000	54.688752
1063.000000	54.673568
1062.000000	54.682287
1061.000000	54.671301
1060.000000	54.619418
1059.000000	54.609098
1058.000000	54.586440
1057.000000	54.585605
1056.000000	54.591923
1055.000000	54.556184
1054.000000	54.564605
1053.000000	54.544176
1052.000000	54.514965
1051.000000	54.520534
1050.000000	54.504977
1049.000000	54.504003
1048.000000	54.486052
1047.000000	54.487077
1046.000000	54.479621
1045.000000	54.431133
1044.000000	54.407329
1043.000000	54.415185
1042.000000	54.423381
1041.000000	54.419023
1040.000000	54.396078
1039.000000	54.385553
1038.000000	54.388058
1037.000000	54.353515
1036.000000	54.360636
1035.000000	54.348308
1034.000000	54.365876
1033.000000	54.370669
1032.000000	54.329889
1031.000000	54.338690
1030.000000	54.341694
1029.000000	54.332225
1028.000000	54.333811
1027.000000	54.315027
1026.000000	54.316325
1025.000000	54.306593
1024.000000	54.307559
1023.000000	54.299890
1022.000000	54.280883
1021.000000	54.300918
1020.000000	54.296277
1019.000000	54.279800
1018.000000	54.280853
1017.000000	54.309542
1016.000000	54.317211
1015.000000	54.303069
1014.000000	54.314613
1013.000000	54.302256
1012.000000	54.311526
1011.000000	54.311993
1010.000000	54.304563
1009.000000	54.314248
1008.000000	54.327783
1007.000000	54.325025
1006.000000	54.335034
1005.000000	54.350065
1004.000000	54.348924
1003.000000	54.359591
1002.000000	54.368580
1001.000000	54.380915
1000.000000	54.391598
999.000000	54.395761
998.000000	54.408398
997.000000	54.395103
996.000000	54.411470
995.000000	54.414721
994.000000	54.408532
993.000000	54.411812
992.000000	54.413805
991.000000	54.439458
990.000000	54.423478
989.000000	54.421767
988.000000	54.424418
987.000000	54.441992
986.000000	54.447701
985.000000	54.456175
984.000000	54.468411
983.000000	54.461971
982.000000	54.454933
981.000000	54.453760
980.000000	54.459701
979.000000	54.459251
978.000000	54.480028
977.000000	54.490804
976.000000	54.497140
975.000000	54.488662
974.000000	54.505220
973.000000	54.532517
972.000000	54.522234
971.000000	54.526389
970.000000	54.540392
969.000000	54.544509
968.000000	54.549365
967.000000	54.572231
966.000000	54.585193
965.000000	54.573717
964.000000	54.574033
963.000000	54.602097
962.000000	54.616263
961.000000	54.620636
960.000000	54.632553
959.000000	54.641718
958.000000	54.636044
957.000000	54.634377
956.000000	54.648843
955.000000	54.666937
954.000000	54.679564
953.000000	54.691975
952.000000	54.660602
951.000000	54.658601
950.000000	54.682849
949.000000	54.694852
948.000000	54.721562
947.000000	54.712448
946.000000	54.694616
945.000000	54.710087
944.000000	54.715037
943.000000	54.719327
942.000000	54.728285
941.000000	54.713771
940.000000	54.741292
939.000000	54.757074
938.000000	54.721315
937.000000	54.727049
936.000000	54.738912
935.000000	54.729972
934.000000	54.726976
933.000000	54.715841
932.000000	54.704629
931.000000	54.695455
930.000000	54.705932
929.000000	54.700727
928.000000	54.687719
927.000000	54.689669
926.000000	54.684481
925.000000	54.676930
924.000000	54.675771
923.000000	54.648730
922.000000	54.627495
921.000000	54.622053
920.000000	54.589597
919.000000	54.584648
918.000000	54.619804
917.000000	54.636849
916.000000	54.589491
915.000000	54.575964
914.000000	54.583979
913.000000	54.572054
912.000000	54.535752
911.000000	54.560779
910.000000	54.594524
909.000000	54.607273
908.000000	54.564600
907.000000	54.562170
906.000000	54.568700
905.000000	54.542360
904.000000	54.559564
903.000000	54.544651
902.000000	54.610806
901.000000	54.587952
900.000000	54.566578
899.000000	54.559242
898.000000	54.552831
897.000000	54.565916
896.000000	54.595085
895.000000	54.589750
894.000000	54.546343
893.000000	54.556527
892.000000	54.563388
891.000000	54.570829
890.000000	54.596636
889.000000	54.646057
888.000000	54.640834
887.000000	54.680923
886.000000	54.724572
885.000000	54.654643
884.000000	54.549342
883.000000	54.575905
882.000000	54.614019
881.000000	54.616215
880.000000	54.610931
879.000000	54.640778
878.000000	54.641924
877.000000	54.628133
876.000000	54.576318
875.000000	54.574753
874.000000	54.628212
873.000000	54.525194
872.000000	54.491397
871.000000	54.591847
870.000000	54.557782
869.000000	54.571147
868.000000	54.602540
867.000000	54.522746
866.000000	54.500747
865.000000	54.578801
864.000000	54.664531
863.000000	54.491056
862.000000	54.503860
861.000000	54.547829
860.000000	54.539716
859.000000	54.395959
858.000000	54.638629
857.000000	54.946238
856.000000	54.800809
855.000000	55.013723
854.000000	54.908068
853.000000	54.857248
852.000000	54.388467
851.000000	54.329260
850.000000	54.708270
849.000000	54.604665
848.000000	54.869492
847.000000	54.629851
846.000000	54.494686
845.000000	54.564915
844.000000	54.746344
843.000000	54.662661
842.000000	54.686061
841.000000	54.772278
840.000000	54.666269
839.000000	54.737924
838.000000	54.481861
837.000000	54.630181
836.000000	54.446181
835.000000	54.635117
834.000000	54.751039
833.000000	54.567003
832.000000	54.481143
831.000000	54.616539
830.000000	54.508978
829.000000	54.593599
828.000000	54.495102
827.000000	54.425820
826.000000	54.439113
825.000000	54.348909
824.000000	54.493286
823.000000	54.421476
822.000000	54.492207
821.000000	54.355381
820.000000	54.482104
819.000000	54.442021
818.000000	54.428680
817.000000	54.322986
816.000000	54.322936
815.000000	54.427480
814.000000	54.313049
813.000000	54.295657
812.000000	54.392890
811.000000	54.401183
810.000000	54.322155
809.000000	54.322022
808.000000	54.360026
807.000000	54.434151
806.000000	54.264036
805.000000	54.187226
804.000000	54.317987
803.000000	54.244090
802.000000	54.125468
801.000000	54.186500
800.000000	54.141057
799.000000	54.148514
798.000000	54.234134
797.000000	54.224424
796.000000	54.074349
795.000000	54.210322
794.000000	54.259200
793.000000	54.177095
792.000000	54.158837
791.000000	54.019093
790.000000	54.090360
789.000000	54.123676
788.000000	54.021142
787.000000	54.082271
786.000000	54.053613
785.000000	54.051554
784.000000	53.976207
783.000000	53.829372
782.000000	53.944608
781.000000	53.968236
780.000000	54.006798
779.000000	53.928582
778.000000	53.982996
777.000000	53.967841
776.000000	53.891988
775.000000	53.910075
774.000000	53.839211
773.000000	53.846428
772.000000	53.905121
771.000000	53.882421
770.000000	53.772750
769.000000	53.827171
768.000000	53.800176
767.000000	53.851808
766.000000	53.872486
765.000000	53.801548
764.000000	53.772896
763.000000	53.845954
762.000000	53.867861
761.000000	53.772859
760.000000	53.711786
759.000000	53.632919
758.000000	53.681452
757.000000	53.634160
756.000000	53.573048
755.000000	53.557268
754.000000	53.540311
753.000000	53.554515
752.000000	53.584905
751.000000	53.619729
750.000000	53.595292
749.000000	53.604888
748.000000	53.496185
747.000000	53.442145
746.000000	53.465543
745.000000	53.479672
744.000000	53.554717
743.000000	53.479778
742.000000	53.449716
741.000000	53.420309
740.000000	53.322718
739.000000	53.317684
738.000000	53.300436
737.000000	53.277253
736.000000	53.282251
735.000000	53.285207
734.000000	53.303846
733.000000	53.337675
732.000000	53.310547
731.000000	53.260480
730.000000	53.222492
729.000000	53.172539
728.000000	53.139760
727.000000	53.140033
726.000000	53.092744
725.000000	53.089405
724.000000	53.075763
723.000000	53.085521
722.000000	53.087939
721.000000	53.108347
720.000000	53.060754
719.000000	53.017103
718.000000	53.010797
717.000000	52.952206
716.000000	52.860488
715.000000	52.857382
714.000000	52.916384
713.000000	52.842428
712.000000	52.781606
711.000000	52.757090
710.000000	52.693174
709.000000	52.691620
708.000000	52.715157
707.000000	52.723031
706.000000	52.679645
705.000000	52.617181
704.000000	52.615809
703.000000	52.613959
702.000000	52.547969
701.000000	52.486637
700.000000	52.447462
699.000000	52.429286
698.000000	52.435594
697.000000	52.419448
696.000000	52.422809
695.000000	52.405114
694.000000	52.364119
693.000000	52.275889
692.000000	52.251304
691.000000	52.238324
690.000000	52.186424
689.000000	52.088656
688.000000	52.037050
687.000000	52.046953
686.000000	52.046458
685.000000	51.986805
684.000000	51.931521
683.000000	51.868371
682.000000	51.851464
681.000000	51.821245
680.000000	51.778110
679.000000	51.746221
678.000000	51.737181
677.000000	51.698440
676.000000	51.659309
675.000000	51.620055
674.000000	51.543960
673.000000	51.525276
672.000000	51.523560
671.000000	51.469675
670.000000	51.382263
669.000000	51.379718
668.000000	51.341440
667.000000	51.347289
666.000000	51.320585
665.000000	51.211665
664.000000	51.163656
663.000000	51.167988
662.000000	51.136881
661.000000	51.095435
660.000000	50.962693
659.000000	50.939115
658.000000	50.881507
657.000000	50.900504
656.000000	50.847470
655.000000	50.798602
654.000000	50.731921
653.000000	50.707128
652.000000	50.644402
651.000000	50.593648
650.000000	50.517675
649.000000	50.470086
648.000000	50.431271
647.000000	50.400621
646.000000	50.310443
645.000000	50.263366
644.000000	50.193726
643.000000	50.140238
642.000000	50.157481
641.000000	50.093490
640.000000	49.997548
639.000000	49.953354
638.000000	49.884444
637.000000	49.816251
636.000000	49.785263
635.000000	49.688986
634.000000	49.641051
633.000000	49.633412
632.000000	49.532901
631.000000	49.484823
630.000000	49.503224
629.000000	49.405820
628.000000	49.334591
627.000000	49.277360
626.000000	49.222428
625.000000	49.152563
624.000000	49.129932
623.000000	49.058888
622.000000	49.006548
621.000000	48.961559
620.000000	48.899533
619.000000	48.903424
618.000000	48.857639
617.000000	48.866482
616.000000	48.705208
615.000000	48.613775
614.000000	48.567080
613.000000	48.551366
612.000000	48.505569
611.000000	48.425383
610.000000	48.413650
609.000000	48.329425
608.000000	48.269705
607.000000	48.227665
606.000000	48.129068
605.000000	48.112927
604.000000	48.039865
603.000000	48.015443
602.000000	47.903522
601.000000	47.893741
600.000000	47.870188
599.000000	47.786398
598.000000	47.738726
597.000000	47.672491
596.000000	47.635928
595.000000	47.585020
594.000000	47.551348
593.000000	47.440251
592.000000	47.393090
591.000000	47.287676
590.000000	47.246798
589.000000	47.229282
588.000000	47.234974
587.000000	47.135832
586.000000	47.048247
585.000000	46.986911
584.000000	46.911819
583.000000	46.860391
582.000000	46.806510
581.000000	46.732839
580.000000	46.676973
579.000000	46.654358
578.000000	46.519601
577.000000	46.506086
576.000000	46.433256
575.000000	46.360316
574.000000	46.282351
573.000000	46.278910
572.000000	46.202786
571.000000	46.116166
570.000000	46.050038
569.000000	46.042547
568.000000	45.926328
567.000000	45.886988
566.000000	45.857120
565.000000	45.787480
564.000000	45.724106
563.000000	45.660035
562.000000	45.591091
561.000000	45.586078
560.000000	45.532141
559.000000	45.487141
558.000000	45.387552
557.000000	45.355440
556.000000	45.292717
555.000000	45.224078
554.000000	45.144787
553.000000	45.109427
552.000000	45.044752
551.000000	44.969857
550.000000	44.900066
549.000000	44.796685
548.000000	44.779680
547.000000	44.723774
546.000000	44.599456
545.000000	44.547477
544.000000	44.489709
543.000000	44.401513
542.000000	44.336711
541.000000	44.277187
540.000000	44.189465
539.000000	44.083708
538.000000	44.046389
537.000000	43.961772
536.000000	43.909282
535.000000	43.841670
534.000000	43.742711
533.000000	43.676451
532.000000	43.603681
531.000000	43.575164
530.000000	43.470690
529.000000	43.413089
528.000000	43.352943
527.000000	43.259912
526.000000	43.197606
525.000000	43.149119
524.000000	43.045380
523.000000	43.008754
522.000000	42.939333
521.000000	42.880270
520.000000	42.772700
519.000000	42.673386
518.000000	42.615664
517.000000	42.528588
516.000000	42.432143
515.000000	42.377998
514.000000	42.291900
513.000000	42.195954
512.000000	42.125923
511.000000	42.063594
510.000000	41.943965
509.000000	41.875408
508.000000	41.754395
507.000000	41.671529
506.000000	41.565041
505.000000	41.476219
504.000000	41.369168
503.000000	41.287363
502.000000	41.186237
501.000000	41.057020
500.000000	40.980206
499.000000	40.880557
498.000000	40.774788
497.000000	40.663074
496.000000	40.534410
495.000000	40.446425
494.000000	40.328317
493.000000	40.225531
492.000000	40.058424
491.000000	39.962703
490.000000	39.844885
489.000000	39.696244
488.000000	39.586622
487.000000	39.486841
486.000000	39.393934
485.000000	39.256682
484.000000	39.104592
483.000000	38.999480
482.000000	38.895014
481.000000	38.746360
480.000000	38.583297
479.000000	38.437350
478.000000	38.317439
477.000000	38.166938
476.000000	37.992212
475.000000	37.858726
474.000000	37.706365
473.000000	37.547844
472.000000	37.372548
471.000000	37.205093
470.000000	37.060163
469.000000	36.896878
468.000000	36.723439
467.000000	36.558054
466.000000	36.372032
465.000000	36.188949
464.000000	36.013991
463.000000	35.837814
462.000000	35.644727
461.000000	35.468703
460.000000	35.290380
459.000000	35.090179
458.000000	34.904131
457.000000	34.693168
456.000000	34.518521
455.000000	34.325076
454.000000	34.092600
453.000000	33.860815
452.000000	33.652984
451.000000	33.456516
450.000000	33.246391
449.000000	33.017851
448.000000	32.810043
447.000000	32.604927
446.000000	32.394409
445.000000	32.170021
444.000000	31.933071
443.000000	31.690330
442.000000	31.463676
441.000000	31.196548
440.000000	30.973656
439.000000	30.737095
438.000000	30.474240
437.000000	30.252057
436.000000	30.034133
435.000000	29.765993
434.000000	29.515414
433.000000	29.247624
432.000000	28.981641
431.000000	28.721175
430.000000	28.467101
429.000000	28.173877
428.000000	27.902872
427.000000	27.645984
426.000000	27.387901
425.000000	27.124598
424.000000	26.845404
423.000000	26.542930
422.000000	26.269204
421.000000	26.007380
420.000000	25.737771
419.000000	25.484756
418.000000	25.200477
417.000000	24.927322
416.000000	24.694865
415.000000	24.464400
414.000000	24.242358
413.000000	24.023896
412.000000	23.853247
411.000000	23.670452
410.000000	23.487889
409.000000	23.374169
408.000000	23.202397
407.000000	23.073187
406.000000	23.015830
405.000000	22.902928
404.000000	22.834855
403.000000	22.725472
402.000000	22.625748
401.000000	22.546627
400.000000	22.455332
399.000000	22.353959
398.000000	22.251613
397.000000	22.195034
396.000000	22.096169
395.000000	21.972392
394.000000	21.890355
393.000000	21.769181
392.000000	21.643582
391.000000	21.554248
390.000000	21.410630
389.000000	21.310721
388.000000	21.169679
387.000000	20.974751
386.000000	20.847349
385.000000	20.662856
384.000000	20.492589
383.000000	20.375000
382.000000	20.182518
381.000000	19.965321
380.000000	19.784101
379.000000	19.596048
378.000000	19.387175
377.000000	19.105382
376.000000	19.019471
375.000000	18.798232
374.000000	18.530266
373.000000	18.286917
372.000000	18.250388
371.000000	17.979911
370.000000	17.650388
369.000000	17.478653
368.000000	17.242605
367.000000	17.039064
366.000000	16.802949
365.000000	16.620072
364.000000	16.472955
363.000000	16.206667
362.000000	15.969208
361.000000	15.757612
360.000000	15.544399
359.000000	15.406364
358.000000	15.105677
357.000000	14.933100
356.000000	14.648325
355.000000	14.492062
354.000000	14.239632
353.000000	14.093008
352.000000	13.845202
351.000000	13.686454
350.000000	13.408620
349.000000	13.224834
348.000000	13.042298
347.000000	12.982348
346.000000	12.677498
345.000000	12.577465
344.000000	12.410565
343.000000	12.224075
342.000000	11.969393
341.000000	11.829347
340.000000	11.679035
339.000000	11.547857
338.000000	11.346961
337.000000	11.195049
336.000000	10.990498
335.000000	10.884646
334.000000	10.774374
333.000000	10.622267
332.000000	10.410647
331.000000	10.248527
330.000000	10.143543
329.000000	10.012871
328.000000	9.885970
327.000000	9.737368
326.000000	9.633306
325.000000	9.544234
324.000000	9.373444
323.000000	9.268691
322.000000	9.073984
321.000000	8.981197
320.000000	8.823330
319.000000	8.664712
318.000000	8.595868
317.000000	8.477666
316.000000	8.312025
315.000000	8.206871
314.000000	7.989411
313.000000	7.781731
312.000000	7.631280
311.000000	7.517157
310.000000	7.330881
309.000000	7.160215
308.000000	6.968659
307.000000	6.769500
306.000000	6.542869
305.000000	6.354473
304.000000	6.156281
303.000000	5.920670
302.000000	5.710199
301.000000	5.470203
300.000000	5.203432
299.000000	4.950755
298.000000	4.663533
297.000000	4.339948
296.000000	3.977665
295.000000	3.601658
294.000000	3.176549
293.000000	2.753990
292.000000	2.346179
291.000000	2.028864
290.000000	1.792060
289.000000	1.604641
288.000000	1.470057
287.000000	1.403432
286.000000	1.375771
285.000000	1.351621
284.000000	1.359084
283.000000	1.375326
282.000000	1.376034
281.000000	1.382536
280.000000	1.388836
279.000000	1.415368
278.000000	1.440821
277.000000	1.473210
276.000000	1.501420
275.000000	1.548613
274.000000	1.594824
273.000000	1.620322
272.000000	1.655683
271.000000	1.680039
270.000000	1.674893
269.000000	1.677267
268.000000	1.721432
267.000000	1.772598
266.000000	1.798212
265.000000	1.822041
264.000000	1.868748
263.000000	1.936676
262.000000	1.975113
261.000000	1.984502
260.000000	2.010958
259.000000	2.057272
258.000000	2.087462
257.000000	2.120614
256.000000	2.159943
255.000000	2.172389
254.000000	2.155662
253.000000	2.132750
252.000000	2.098938
251.000000	2.029603
250.000000	1.969127
249.000000	1.865795
248.000000	1.754159
247.000000	1.633896
246.000000	1.491036
245.000000	1.333315
244.000000	1.195157
243.000000	1.068506
242.000000	0.973150
241.000000	0.873962
240.000000	0.780844
239.000000	0.698800
238.000000	0.651978
237.000000	0.627090
236.000000	0.585844
235.000000	0.548442
234.000000	0.522914
233.000000	0.484401
232.000000	0.444181
231.000000	0.416972
230.000000	0.389366
229.000000	0.363364
228.000000	0.329928
227.000000	0.303606
226.000000	0.275029
225.000000	0.247801
224.000000	0.236863
223.000000	0.218600
222.000000	0.204294
221.000000	0.191868
220.000000	0.179680
219.000000	0.163201
218.000000	0.157959
217.000000	0.166232
216.000000	0.156517
215.000000	0.151916
214.000000	0.151963
213.000000	0.149386
212.000000	0.144238
211.000000	0.141460
210.000000	0.123921
209.000000	0.110122
208.000000	0.112141
207.000000	0.110972
206.000000	0.133543
205.000000	0.138352
204.000000	0.136134
203.000000	0.122616
202.000000	0.117986
201.000000	0.149673
200.000000	0.223962
