PE UV       SUBTECH     SPECTRUM    ASCII       PEDS        4.00        
   -1
006-2S-XXX-NR004-C002.Sample.asc
24/01/11
11:41:44.00
24/01/11
11:41:44.00
Administrator

250.000000
1
Lambda 750
750N8071901
PerkinElmer UV WinLab 6.0.4.0738 / 1.61.00 Lambda 900

0
0
3350/servo 860.8/2
0
0
UV/VIS
1
1
1
CommonBeamDepol,150mm sphere / downward view
0
0
0
0
Program
Program
3350/servo 860.8/2
3350/0.2 860.8/0.2
3350/0.2 860.8/0.2
0
1
 
 
 
0
 
860.8
319.2
860.8
Front
100
on
 
 
0
0
0
 
0
 
 
 
0
 
 
0
0
0
0
0
 
 
 
 
0
0


0
0
#HDR
-1
-1
#GR
nm
%R
1.0
0.0
2500.000000
-10.000000
226
8
55.719868
5.539045
#DATA
2500.000000	21.588447
2490.000000	17.850146
2480.000000	17.496470
2470.000000	19.171598
2460.000000	18.950487
2450.000000	20.022823
2440.000000	20.464820
2430.000000	22.772867
2420.000000	23.288913
2410.000000	22.875012
2400.000000	22.383856
2390.000000	24.589129
2380.000000	22.915111
2370.000000	22.668182
2360.000000	24.217452
2350.000000	22.417612
2340.000000	23.614453
2330.000000	23.027435
2320.000000	22.231688
2310.000000	21.680206
2300.000000	21.247227
2290.000000	22.399613
2280.000000	23.360003
2270.000000	24.386423
2260.000000	25.386795
2250.000000	26.458911
2240.000000	26.571388
2230.000000	26.994295
2220.000000	25.743386
2210.000000	25.603356
2200.000000	25.315386
2190.000000	25.004184
2180.000000	25.520660
2170.000000	26.843421
2160.000000	27.906465
2150.000000	28.824386
2140.000000	29.873842
2130.000000	29.873944
2120.000000	30.223136
2110.000000	30.380986
2100.000000	29.528165
2090.000000	28.763262
2080.000000	27.983283
2070.000000	26.645742
2060.000000	26.161068
2050.000000	26.447405
2040.000000	27.208472
2030.000000	27.426512
2020.000000	26.776094
2010.000000	26.036351
2000.000000	25.266611
1990.000000	24.282044
1980.000000	23.204639
1970.000000	22.769421
1960.000000	22.180698
1950.000000	23.130997
1940.000000	24.697254
1930.000000	27.081766
1920.000000	31.017115
1910.000000	35.728453
1900.000000	39.875895
1890.000000	42.769774
1880.000000	44.310925
1870.000000	44.846592
1860.000000	45.197575
1850.000000	44.665781
1840.000000	44.386004
1830.000000	44.114816
1820.000000	43.816705
1810.000000	43.576235
1800.000000	43.338634
1790.000000	42.806217
1780.000000	42.552033
1770.000000	41.945458
1760.000000	41.608081
1750.000000	41.314309
1740.000000	41.499294
1730.000000	42.422703
1720.000000	42.785844
1710.000000	43.122352
1700.000000	44.176209
1690.000000	45.626048
1680.000000	46.888598
1670.000000	47.363794
1660.000000	47.459676
1650.000000	47.153706
1640.000000	46.650673
1630.000000	46.392017
1620.000000	45.716478
1610.000000	45.179108
1600.000000	44.738081
1590.000000	44.276093
1580.000000	43.961219
1570.000000	43.779888
1560.000000	43.358300
1550.000000	42.599614
1540.000000	41.958177
1530.000000	41.521530
1520.000000	41.457870
1510.000000	41.352691
1500.000000	41.492798
1490.000000	41.772842
1480.000000	42.051663
1470.000000	42.511256
1460.000000	43.130019
1450.000000	43.990893
1440.000000	45.144961
1430.000000	46.689521
1420.000000	48.519111
1410.000000	50.293144
1400.000000	51.645871
1390.000000	52.448452
1380.000000	52.883999
1370.000000	53.328592
1360.000000	53.990951
1350.000000	54.703518
1340.000000	55.081328
1330.000000	55.018350
1320.000000	54.899401
1310.000000	54.847837
1300.000000	54.788731
1290.000000	54.730705
1280.000000	54.881756
1270.000000	55.027994
1260.000000	54.962482
1250.000000	54.778537
1240.000000	54.533357
1230.000000	54.294559
1220.000000	54.005369
1210.000000	53.801919
1200.000000	53.757010
1190.000000	54.042718
1180.000000	54.332972
1170.000000	54.866022
1160.000000	55.218574
1150.000000	55.605340
1140.000000	55.718646
1130.000000	55.673577
1120.000000	55.653020
1110.000000	55.719868
1100.000000	55.680345
1090.000000	55.631814
1080.000000	55.562256
1070.000000	55.479495
1060.000000	55.433163
1050.000000	55.383087
1040.000000	55.252363
1030.000000	55.108565
1020.000000	55.057112
1010.000000	55.170995
1000.000000	55.220957
990.000000	55.156336
980.000000	55.136037
970.000000	55.134365
960.000000	55.245209
950.000000	55.155717
940.000000	55.172003
930.000000	55.055736
920.000000	54.977346
910.000000	55.111307
900.000000	55.322477
890.000000	54.728085
880.000000	54.704605
870.000000	54.576515
860.000000	54.089503
850.000000	54.012034
840.000000	53.698725
830.000000	53.384284
820.000000	53.384267
810.000000	53.169838
800.000000	52.994670
790.000000	52.720654
780.000000	52.264734
770.000000	52.265262
760.000000	51.787779
750.000000	51.328245
740.000000	51.052845
730.000000	50.635679
720.000000	50.380384
710.000000	49.990038
700.000000	49.321398
690.000000	48.823934
680.000000	48.289655
670.000000	47.578036
660.000000	47.128360
650.000000	46.397439
640.000000	45.612783
630.000000	44.879216
620.000000	44.176895
610.000000	43.292596
600.000000	42.518866
590.000000	41.634755
580.000000	40.688306
570.000000	39.771206
560.000000	38.777248
550.000000	37.667078
540.000000	36.563115
530.000000	35.465498
520.000000	34.355067
510.000000	33.129776
500.000000	31.876783
490.000000	30.614584
480.000000	29.274306
470.000000	28.037800
460.000000	26.721673
450.000000	25.212063
440.000000	23.633507
430.000000	22.048287
420.000000	20.295414
410.000000	18.728480
400.000000	17.270751
390.000000	15.824119
380.000000	14.385020
370.000000	13.096550
360.000000	12.068762
350.000000	10.817930
340.000000	9.693065
330.000000	9.321965
320.000000	7.790126
310.000000	7.646894
300.000000	6.897366
290.000000	6.109499
280.000000	5.558415
270.000000	5.539045
260.000000	5.802578
250.000000	6.198323
