PE UV       SUBTECH     SPECTRUM    ASCII       PEDS        4.00        
   -1
006-1S-XXX-NR004-C001.Sample.asc
24/01/11
10:42:46.00
24/01/11
10:42:46.00
Administrator

250.000000
1
Lambda 750
750N8071901
PerkinElmer UV WinLab 6.0.4.0738 / 1.61.00 Lambda 900

0
0
3350/servo 860.8/2
0
0
UV/VIS
1
1
1
CommonBeamDepol,150mm sphere / downward view
0
0
0
0
Program
Program
3350/servo 860.8/2
3350/0.2 860.8/0.2
3350/0.2 860.8/0.2
0
1
 
 
 
0
 
860.8
319.2
860.8
Front
100
on
 
 
0
0
0
 
0
 
 
 
0
 
 
0
0
0
0
0
 
 
 
 
0
0


0
0
#HDR
-1
-1
#GR
nm
%R
1.0
0.0
2500.000000
-10.000000
226
8
54.877215
17.319251
#DATA
2500.000000	32.421053
2490.000000	31.390251
2480.000000	30.123371
2470.000000	34.106077
2460.000000	35.078180
2450.000000	34.516160
2440.000000	34.960921
2430.000000	35.471503
2420.000000	34.922211
2410.000000	35.981155
2400.000000	35.881746
2390.000000	35.866949
2380.000000	35.800297
2370.000000	36.646340
2360.000000	35.909660
2350.000000	35.740217
2340.000000	35.681712
2330.000000	35.846823
2320.000000	33.780883
2310.000000	34.265573
2300.000000	33.658038
2290.000000	34.476344
2280.000000	35.541018
2270.000000	36.401127
2260.000000	37.261741
2250.000000	38.135416
2240.000000	37.849099
2230.000000	38.864251
2220.000000	37.863149
2210.000000	37.238450
2200.000000	37.463131
2190.000000	37.831432
2180.000000	37.328608
2170.000000	39.075444
2160.000000	39.759802
2150.000000	40.407158
2140.000000	41.390034
2130.000000	41.624571
2120.000000	41.579245
2110.000000	41.723775
2100.000000	41.973502
2090.000000	40.435919
2080.000000	39.728355
2070.000000	38.427653
2060.000000	38.290658
2050.000000	38.385053
2040.000000	39.070998
2030.000000	39.440546
2020.000000	38.518796
2010.000000	37.858104
2000.000000	37.591316
1990.000000	36.437097
1980.000000	35.411290
1970.000000	34.881948
1960.000000	34.415133
1950.000000	35.230477
1940.000000	36.764412
1930.000000	39.348596
1920.000000	42.025550
1910.000000	45.005434
1900.000000	47.122386
1890.000000	48.439764
1880.000000	49.352015
1870.000000	49.469411
1860.000000	49.783021
1850.000000	49.595315
1840.000000	49.215773
1830.000000	49.139446
1820.000000	48.968074
1810.000000	48.870865
1800.000000	48.617233
1790.000000	48.444331
1780.000000	48.211936
1770.000000	48.068715
1760.000000	47.747387
1750.000000	47.756830
1740.000000	47.739856
1730.000000	48.363265
1720.000000	48.559494
1710.000000	48.542376
1700.000000	49.131047
1690.000000	49.730283
1680.000000	50.287980
1670.000000	50.405031
1660.000000	50.546379
1650.000000	50.451459
1640.000000	50.332372
1630.000000	50.167534
1620.000000	49.847185
1610.000000	49.556403
1600.000000	49.343084
1590.000000	49.073650
1580.000000	48.970257
1570.000000	48.856464
1560.000000	48.646685
1550.000000	48.313999
1540.000000	47.953355
1530.000000	47.729044
1520.000000	47.698947
1510.000000	47.611887
1500.000000	47.757984
1490.000000	48.048837
1480.000000	48.320649
1470.000000	48.571789
1460.000000	48.901665
1450.000000	49.294211
1440.000000	49.673520
1430.000000	50.287949
1420.000000	51.210352
1410.000000	51.988617
1400.000000	52.395577
1390.000000	52.694168
1380.000000	52.816191
1370.000000	53.092053
1360.000000	53.376466
1350.000000	53.649127
1340.000000	53.784392
1330.000000	53.627678
1320.000000	53.493767
1310.000000	53.407904
1300.000000	53.466860
1290.000000	53.456028
1280.000000	53.568059
1270.000000	53.588122
1260.000000	53.737679
1250.000000	53.664705
1240.000000	53.486515
1230.000000	53.375771
1220.000000	53.242263
1210.000000	53.246656
1200.000000	53.221673
1190.000000	53.411663
1180.000000	53.441671
1170.000000	53.648522
1160.000000	53.808392
1150.000000	53.976377
1140.000000	54.007867
1130.000000	53.973008
1120.000000	53.935224
1110.000000	53.999269
1100.000000	54.009717
1090.000000	53.993744
1080.000000	53.967260
1070.000000	53.918500
1060.000000	53.941951
1050.000000	53.957672
1040.000000	53.911247
1030.000000	53.797070
1020.000000	53.724876
1010.000000	53.894641
1000.000000	53.922705
990.000000	53.928753
980.000000	54.031076
970.000000	54.111281
960.000000	54.134394
950.000000	54.217359
940.000000	54.268659
930.000000	54.259549
920.000000	54.311472
910.000000	54.169815
900.000000	54.590909
890.000000	54.225791
880.000000	54.394117
870.000000	54.227733
860.000000	54.877215
850.000000	54.484554
840.000000	54.749201
830.000000	54.205638
820.000000	54.591204
810.000000	54.431108
800.000000	54.531351
790.000000	54.432034
780.000000	54.286787
770.000000	54.537064
760.000000	54.379850
750.000000	54.204531
740.000000	54.252987
730.000000	54.176973
720.000000	54.219689
710.000000	54.181311
700.000000	53.957961
690.000000	54.077531
680.000000	53.960362
670.000000	53.734483
660.000000	53.666706
650.000000	53.387315
640.000000	53.013528
630.000000	52.741530
620.000000	52.436310
610.000000	52.179843
600.000000	52.087336
590.000000	52.112016
580.000000	51.920486
570.000000	51.746213
560.000000	51.864516
550.000000	51.857571
540.000000	51.874841
530.000000	51.698050
520.000000	51.575268
510.000000	51.293495
500.000000	50.925207
490.000000	50.461431
480.000000	49.818733
470.000000	49.206565
460.000000	48.325014
450.000000	47.289943
440.000000	46.078567
430.000000	44.426342
420.000000	41.860918
410.000000	39.888734
400.000000	39.373140
390.000000	39.832921
380.000000	40.596208
370.000000	40.733928
360.000000	40.318641
350.000000	39.283002
340.000000	39.017538
330.000000	38.587193
320.000000	38.477188
310.000000	35.841629
300.000000	34.281708
290.000000	24.736042
280.000000	18.954469
270.000000	17.702591
260.000000	17.444490
250.000000	17.319251
