PE UV       SUBTECH     SPECTRUM    ASCII       PEDS        4.00        
   -1
006-2S-XXX-NR004-F001.Sample.asc
24/01/11
10:46:01.00
24/01/11
10:46:01.00
Administrator

250.000000
1
Lambda 750
750N8071901
PerkinElmer UV WinLab 6.0.4.0738 / 1.61.00 Lambda 900

0
0
3350/servo 860.8/2
0
0
UV/VIS
1
1
1
CommonBeamDepol,150mm sphere / downward view
0
0
0
0
Program
Program
3350/servo 860.8/2
3350/0.2 860.8/0.2
3350/0.2 860.8/0.2
0
1
 
 
 
0
 
860.8
319.2
860.8
Front
100
on
 
 
0
0
0
 
0
 
 
 
0
 
 
0
0
0
0
0
 
 
 
 
0
0


0
0
#HDR
-1
-1
#GR
nm
%R
1.0
0.0
2500.000000
-10.000000
226
8
66.785643
16.213133
#DATA
2500.000000	24.454191
2490.000000	23.786990
2480.000000	24.682969
2470.000000	26.138080
2460.000000	28.754568
2450.000000	26.974691
2440.000000	27.415900
2430.000000	29.403755
2420.000000	26.669661
2410.000000	29.909058
2400.000000	30.054749
2390.000000	29.476491
2380.000000	29.014112
2370.000000	27.989023
2360.000000	28.459946
2350.000000	29.049606
2340.000000	28.255143
2330.000000	26.541781
2320.000000	26.730126
2310.000000	27.315254
2300.000000	27.179875
2290.000000	29.094614
2280.000000	29.925944
2270.000000	32.555683
2260.000000	34.316735
2250.000000	35.441641
2240.000000	36.752693
2230.000000	35.532396
2220.000000	35.479937
2210.000000	34.277918
2200.000000	34.299562
2190.000000	34.619289
2180.000000	34.318152
2170.000000	36.406888
2160.000000	37.185247
2150.000000	39.077907
2140.000000	40.228517
2130.000000	40.190436
2120.000000	40.392595
2110.000000	41.130116
2100.000000	40.295428
2090.000000	39.123717
2080.000000	37.825479
2070.000000	35.908273
2060.000000	35.556947
2050.000000	36.000022
2040.000000	36.989554
2030.000000	37.591775
2020.000000	36.733343
2010.000000	35.742581
2000.000000	34.686046
1990.000000	33.365028
1980.000000	31.805258
1970.000000	30.975395
1960.000000	30.430258
1950.000000	31.849551
1940.000000	34.006650
1930.000000	37.718179
1920.000000	42.095527
1910.000000	47.188077
1900.000000	50.969416
1890.000000	53.275805
1880.000000	54.635066
1870.000000	55.012838
1860.000000	55.042343
1850.000000	54.708662
1840.000000	54.173458
1830.000000	53.999697
1820.000000	53.731707
1810.000000	53.590785
1800.000000	53.123789
1790.000000	52.532465
1780.000000	51.935648
1770.000000	51.402834
1760.000000	50.913719
1750.000000	50.088180
1740.000000	50.269258
1730.000000	51.589716
1720.000000	52.530619
1710.000000	53.239947
1700.000000	54.459219
1690.000000	55.994414
1680.000000	57.141778
1670.000000	57.553204
1660.000000	57.735105
1650.000000	57.605758
1640.000000	57.349112
1630.000000	57.129571
1620.000000	56.513403
1610.000000	56.120999
1600.000000	55.741657
1590.000000	55.356710
1580.000000	55.134439
1570.000000	54.976952
1560.000000	54.635344
1550.000000	54.039141
1540.000000	53.377025
1530.000000	52.949664
1520.000000	52.808015
1510.000000	52.772885
1500.000000	53.137158
1490.000000	53.560103
1480.000000	53.957396
1470.000000	54.362762
1460.000000	54.975377
1450.000000	55.671730
1440.000000	56.456351
1430.000000	57.653417
1420.000000	59.141745
1410.000000	60.488448
1400.000000	61.589108
1390.000000	62.198047
1380.000000	62.593704
1370.000000	63.018960
1360.000000	63.454969
1350.000000	63.795273
1340.000000	64.032446
1330.000000	63.935610
1320.000000	63.839699
1310.000000	63.770119
1300.000000	63.855631
1290.000000	63.806923
1280.000000	63.866862
1270.000000	63.963424
1260.000000	64.012433
1250.000000	63.785415
1240.000000	63.424253
1230.000000	63.181721
1220.000000	63.002209
1210.000000	63.099094
1200.000000	63.176744
1190.000000	63.478765
1180.000000	63.842663
1170.000000	64.263320
1160.000000	64.648223
1150.000000	64.998692
1140.000000	65.154709
1130.000000	65.180032
1120.000000	65.234687
1110.000000	65.357273
1100.000000	65.442554
1090.000000	65.437983
1080.000000	65.388059
1070.000000	65.442260
1060.000000	65.463797
1050.000000	65.503579
1040.000000	65.522033
1030.000000	65.557985
1020.000000	65.583795
1010.000000	65.802305
1000.000000	65.921084
990.000000	65.937037
980.000000	66.083535
970.000000	66.085151
960.000000	66.180455
950.000000	66.209832
940.000000	66.290232
930.000000	66.344436
920.000000	66.326440
910.000000	66.460398
900.000000	66.588911
890.000000	66.321290
880.000000	66.785643
870.000000	66.700359
860.000000	66.640981
850.000000	65.577997
840.000000	65.470311
830.000000	65.493257
820.000000	65.544592
810.000000	65.187327
800.000000	65.397614
790.000000	65.402663
780.000000	65.409079
770.000000	65.355345
760.000000	65.143040
750.000000	65.085404
740.000000	65.024736
730.000000	64.854497
720.000000	64.863817
710.000000	64.543146
700.000000	64.451652
690.000000	64.357008
680.000000	64.115542
670.000000	63.758627
660.000000	63.720766
650.000000	63.297289
640.000000	63.121135
630.000000	62.828711
620.000000	62.448647
610.000000	61.991294
600.000000	61.729924
590.000000	61.415119
580.000000	61.095282
570.000000	60.738122
560.000000	60.446153
550.000000	60.110588
540.000000	59.728533
530.000000	59.285707
520.000000	58.884321
510.000000	58.474147
500.000000	57.855098
490.000000	57.250589
480.000000	56.493166
470.000000	55.770181
460.000000	54.620669
450.000000	53.294022
440.000000	51.501689
430.000000	49.418000
420.000000	46.614877
410.000000	44.810433
400.000000	44.145634
390.000000	43.702586
380.000000	42.842672
370.000000	41.350437
360.000000	39.344815
350.000000	36.815581
340.000000	35.015703
330.000000	33.417027
320.000000	30.674819
310.000000	29.655575
300.000000	26.351290
290.000000	21.217087
280.000000	18.432508
270.000000	17.525571
260.000000	16.904630
250.000000	16.213133
