PE UV       SUBTECH     SPECTRUM    ASCII       PEDS        4.00        
   -1
015-1G-XXX-NR004-C001.Sample.asc
24/01/11
10:59:58.00
24/01/11
10:59:58.00
Administrator

250.000000
1
Lambda 750
750N8071901
PerkinElmer UV WinLab 6.0.4.0738 / 1.61.00 Lambda 900

0
0
3350/servo 860.8/2
0
0
UV/VIS
1
1
1
CommonBeamDepol,150mm sphere / downward view
0
0
0
0
Program
Program
3350/servo 860.8/2
3350/0.2 860.8/0.2
3350/0.2 860.8/0.2
0
1
 
 
 
0
 
860.8
319.2
860.8
Front
100
on
 
 
0
0
0
 
0
 
 
 
0
 
 
0
0
0
0
0
 
 
 
 
0
0


0
0
#HDR
-1
-1
#GR
nm
%R
1.0
0.0
2500.000000
-10.000000
226
8
77.769268
7.991852
#DATA
2500.000000	16.285065
2490.000000	13.916428
2480.000000	16.209226
2470.000000	16.338630
2460.000000	18.758665
2450.000000	17.121819
2440.000000	17.818199
2430.000000	19.925190
2420.000000	18.694399
2410.000000	20.152774
2400.000000	21.087451
2390.000000	19.838362
2380.000000	20.160883
2370.000000	20.519167
2360.000000	20.535732
2350.000000	19.814140
2340.000000	20.911047
2330.000000	21.031460
2320.000000	19.055694
2310.000000	18.697186
2300.000000	17.711350
2290.000000	19.227061
2280.000000	19.767385
2270.000000	22.451755
2260.000000	23.937817
2250.000000	25.083606
2240.000000	25.611315
2230.000000	24.841497
2220.000000	23.864106
2210.000000	23.978083
2200.000000	23.057178
2190.000000	23.353706
2180.000000	23.175870
2170.000000	25.472483
2160.000000	27.293333
2150.000000	28.419133
2140.000000	29.096613
2130.000000	29.476861
2120.000000	29.908255
2110.000000	29.984942
2100.000000	29.492737
2090.000000	28.030315
2080.000000	26.819088
2070.000000	24.847731
2060.000000	23.984616
2050.000000	24.476170
2040.000000	25.925876
2030.000000	26.141801
2020.000000	24.629862
2010.000000	23.812346
2000.000000	22.377375
1990.000000	21.159300
1980.000000	19.692653
1970.000000	18.831449
1960.000000	18.346024
1950.000000	19.339169
1940.000000	21.851918
1930.000000	25.552194
1920.000000	31.877187
1910.000000	39.320998
1900.000000	45.878899
1890.000000	51.118478
1880.000000	53.890215
1870.000000	54.784243
1860.000000	55.213174
1850.000000	54.908107
1840.000000	54.159965
1830.000000	53.662829
1820.000000	52.816697
1810.000000	52.488425
1800.000000	51.890690
1790.000000	51.169664
1780.000000	50.242091
1770.000000	49.556779
1760.000000	48.838217
1750.000000	48.220990
1740.000000	48.808229
1730.000000	50.469646
1720.000000	51.409684
1710.000000	51.931413
1700.000000	53.549505
1690.000000	56.302353
1680.000000	58.561042
1670.000000	59.414135
1660.000000	59.575255
1650.000000	59.094440
1640.000000	58.333288
1630.000000	57.478657
1620.000000	56.355876
1610.000000	55.279025
1600.000000	54.390157
1590.000000	53.523690
1580.000000	52.866983
1570.000000	52.470436
1560.000000	51.742745
1550.000000	50.410879
1540.000000	49.097713
1530.000000	48.384107
1520.000000	48.028512
1510.000000	47.870729
1500.000000	48.126888
1490.000000	48.691662
1480.000000	49.332339
1470.000000	50.085781
1460.000000	51.339880
1450.000000	52.855530
1440.000000	55.018612
1430.000000	58.017016
1420.000000	61.668799
1410.000000	65.160560
1400.000000	67.829335
1390.000000	69.476011
1380.000000	70.463501
1370.000000	71.541818
1360.000000	72.709007
1350.000000	73.656204
1340.000000	74.382925
1330.000000	74.645578
1320.000000	74.800041
1310.000000	74.839181
1300.000000	74.886881
1290.000000	74.826420
1280.000000	74.953775
1270.000000	75.027886
1260.000000	75.022769
1250.000000	74.732092
1240.000000	74.303719
1230.000000	73.890914
1220.000000	73.312424
1210.000000	72.865140
1200.000000	72.711481
1190.000000	73.299666
1180.000000	74.186538
1170.000000	75.371218
1160.000000	76.241493
1150.000000	76.952259
1140.000000	77.358092
1130.000000	77.502296
1120.000000	77.555778
1110.000000	77.643250
1100.000000	77.619670
1090.000000	77.556245
1080.000000	77.363322
1070.000000	77.279521
1060.000000	77.129728
1050.000000	77.029559
1040.000000	76.989978
1030.000000	76.910781
1020.000000	76.932040
1010.000000	77.120784
1000.000000	77.168411
990.000000	77.283196
980.000000	77.351853
970.000000	77.548994
960.000000	77.569074
950.000000	77.511173
940.000000	77.521441
930.000000	77.539482
920.000000	77.621479
910.000000	77.581610
900.000000	77.589827
890.000000	77.259779
880.000000	77.741311
870.000000	77.285054
860.000000	77.769268
850.000000	77.127909
840.000000	77.690438
830.000000	77.413391
820.000000	77.643372
810.000000	77.093969
800.000000	76.889923
790.000000	76.628852
780.000000	76.497578
770.000000	76.411293
760.000000	76.029890
750.000000	75.708587
740.000000	75.579572
730.000000	75.207381
720.000000	74.916065
710.000000	74.500133
700.000000	73.978904
690.000000	73.583105
680.000000	73.187550
670.000000	72.678808
660.000000	72.260318
650.000000	71.420775
640.000000	70.762421
630.000000	70.064812
620.000000	69.258614
610.000000	68.357105
600.000000	67.491008
590.000000	66.551429
580.000000	65.478788
570.000000	64.341492
560.000000	63.169287
550.000000	61.654785
540.000000	60.333109
530.000000	58.771744
520.000000	57.048460
510.000000	55.336679
500.000000	53.254304
490.000000	51.128786
480.000000	48.862666
470.000000	46.693854
460.000000	44.329179
450.000000	41.460979
440.000000	38.559777
430.000000	35.690205
420.000000	32.572382
410.000000	29.542552
400.000000	26.496709
390.000000	23.747026
380.000000	21.010130
370.000000	18.333489
360.000000	16.274240
350.000000	14.319201
340.000000	12.569948
330.000000	11.344660
320.000000	9.772716
310.000000	9.313524
300.000000	9.390825
290.000000	8.432621
280.000000	7.991852
270.000000	8.502254
260.000000	9.310185
250.000000	9.971141
