PE UV       SUBTECH     SPECTRUM    ASCII       PEDS        4.00        
   -1
015-1G-XXX-NR004-C002.Sample.asc
24/01/11
11:07:17.00
24/01/11
11:07:17.00
Administrator

250.000000
1
Lambda 750
750N8071901
PerkinElmer UV WinLab 6.0.4.0738 / 1.61.00 Lambda 900

0
0
3350/servo 860.8/2
0
0
UV/VIS
1
1
1
CommonBeamDepol,150mm sphere / downward view
0
0
0
0
Program
Program
3350/servo 860.8/2
3350/0.2 860.8/0.2
3350/0.2 860.8/0.2
0
1
 
 
 
0
 
860.8
319.2
860.8
Front
100
on
 
 
0
0
0
 
0
 
 
 
0
 
 
0
0
0
0
0
 
 
 
 
0
0


0
0
#HDR
-1
-1
#GR
nm
%R
1.0
0.0
2500.000000
-10.000000
226
8
70.007910
5.763911
#DATA
2500.000000	16.691688
2490.000000	16.178643
2480.000000	17.196304
2470.000000	17.891609
2460.000000	20.012426
2450.000000	20.325232
2440.000000	18.768168
2430.000000	19.571815
2420.000000	21.407032
2410.000000	22.937665
2400.000000	22.480745
2390.000000	22.636135
2380.000000	23.532012
2370.000000	22.305070
2360.000000	22.062032
2350.000000	21.522323
2340.000000	23.642939
2330.000000	23.625581
2320.000000	21.266957
2310.000000	21.374235
2300.000000	20.296878
2290.000000	20.479966
2280.000000	22.108420
2270.000000	23.625968
2260.000000	25.830762
2250.000000	27.112106
2240.000000	27.353325
2230.000000	27.197694
2220.000000	26.272199
2210.000000	25.470864
2200.000000	24.712633
2190.000000	25.324346
2180.000000	25.688106
2170.000000	26.658204
2160.000000	28.976184
2150.000000	30.243723
2140.000000	31.483470
2130.000000	31.585626
2120.000000	31.939754
2110.000000	32.415270
2100.000000	31.757394
2090.000000	30.180634
2080.000000	28.752086
2070.000000	26.809443
2060.000000	25.982453
2050.000000	26.609231
2040.000000	27.998657
2030.000000	28.210561
2020.000000	26.824108
2010.000000	25.673659
2000.000000	24.608645
1990.000000	22.966416
1980.000000	21.704267
1970.000000	20.616295
1960.000000	20.277777
1950.000000	21.221013
1940.000000	23.650196
1930.000000	27.916053
1920.000000	33.473921
1910.000000	40.599120
1900.000000	46.351950
1890.000000	50.470603
1880.000000	52.961928
1870.000000	53.683521
1860.000000	53.879992
1850.000000	53.549183
1840.000000	53.055948
1830.000000	52.548678
1820.000000	52.166138
1810.000000	51.736028
1800.000000	51.197477
1790.000000	50.536615
1780.000000	50.070678
1770.000000	49.335371
1760.000000	48.832259
1750.000000	48.350284
1740.000000	48.695655
1730.000000	50.120789
1720.000000	50.874632
1710.000000	51.190289
1700.000000	52.465137
1690.000000	54.694586
1680.000000	56.485965
1670.000000	57.041927
1660.000000	57.276956
1650.000000	56.977114
1640.000000	56.424509
1630.000000	55.832698
1620.000000	54.917399
1610.000000	54.069091
1600.000000	53.300723
1590.000000	52.603810
1580.000000	52.118618
1570.000000	51.804562
1560.000000	51.318059
1550.000000	50.241203
1540.000000	49.180240
1530.000000	48.532960
1520.000000	48.290715
1510.000000	48.150246
1500.000000	48.376582
1490.000000	48.813836
1480.000000	49.370981
1470.000000	50.008994
1460.000000	50.999521
1450.000000	52.190675
1440.000000	53.869061
1430.000000	56.077024
1420.000000	58.881603
1410.000000	61.446782
1400.000000	63.425083
1390.000000	64.602152
1380.000000	65.192854
1370.000000	66.004464
1360.000000	66.861280
1350.000000	67.618004
1340.000000	68.082078
1330.000000	68.223717
1320.000000	68.268672
1310.000000	68.266833
1300.000000	68.326380
1290.000000	68.266802
1280.000000	68.422216
1270.000000	68.423613
1260.000000	68.530155
1250.000000	68.285360
1240.000000	67.963525
1230.000000	67.602787
1220.000000	67.234584
1210.000000	66.994493
1200.000000	66.909360
1190.000000	67.279305
1180.000000	67.766514
1170.000000	68.581334
1160.000000	69.136538
1150.000000	69.667101
1140.000000	69.981032
1130.000000	69.976407
1120.000000	69.937908
1110.000000	70.007910
1100.000000	69.947583
1090.000000	69.868206
1080.000000	69.762160
1070.000000	69.589637
1060.000000	69.530102
1050.000000	69.536818
1040.000000	69.430180
1030.000000	69.276680
1020.000000	69.198724
1010.000000	69.337674
1000.000000	69.348643
990.000000	69.367283
980.000000	69.433218
970.000000	69.516650
960.000000	69.608651
950.000000	69.711536
940.000000	69.483222
930.000000	69.487421
920.000000	69.596348
910.000000	69.598787
900.000000	69.728808
890.000000	69.201652
880.000000	69.452205
870.000000	69.593823
860.000000	69.503809
850.000000	69.964862
840.000000	69.224669
830.000000	69.193427
820.000000	69.332490
810.000000	68.880534
800.000000	68.902225
790.000000	68.686048
780.000000	68.395599
770.000000	68.216662
760.000000	68.013912
750.000000	67.746442
740.000000	67.345562
730.000000	67.097740
720.000000	66.739206
710.000000	66.463689
700.000000	65.924044
690.000000	65.606378
680.000000	64.969885
670.000000	64.463583
660.000000	64.009463
650.000000	63.357731
640.000000	62.695090
630.000000	62.054224
620.000000	61.311321
610.000000	60.496414
600.000000	59.780035
590.000000	58.896099
580.000000	57.971791
570.000000	56.983215
560.000000	55.983611
550.000000	54.756279
540.000000	53.622542
530.000000	52.306013
520.000000	50.888254
510.000000	49.337754
500.000000	47.608248
490.000000	45.772745
480.000000	43.965826
470.000000	42.021518
460.000000	39.902270
450.000000	37.411977
440.000000	34.899871
430.000000	32.251202
420.000000	29.396428
410.000000	26.567289
400.000000	23.716300
390.000000	21.006242
380.000000	18.273004
370.000000	15.750502
360.000000	13.992593
350.000000	12.074869
340.000000	10.528961
330.000000	9.012697
320.000000	7.873819
310.000000	7.029087
300.000000	6.333325
290.000000	5.931947
280.000000	5.763911
270.000000	6.186951
260.000000	6.942746
250.000000	7.429186
