PE UV       SUBTECH     SPECTRUM    ASCII       PEDS        4.00        
   -1
016-1S-XXX-NR004-C001.Sample.asc
24/01/11
11:30:28.00
24/01/11
11:30:28.00
Administrator

250.000000
1
Lambda 750
750N8071901
PerkinElmer UV WinLab 6.0.4.0738 / 1.61.00 Lambda 900

0
0
3350/servo 860.8/2
0
0
UV/VIS
1
1
1
CommonBeamDepol,150mm sphere / downward view
0
0
0
0
Program
Program
3350/servo 860.8/2
3350/0.2 860.8/0.2
3350/0.2 860.8/0.2
0
1
 
 
 
0
 
860.8
319.2
860.8
Front
100
on
 
 
0
0
0
 
0
 
 
 
0
 
 
0
0
0
0
0
 
 
 
 
0
0


0
0
#HDR
-1
-1
#GR
nm
%R
1.0
0.0
2500.000000
-10.000000
226
8
58.467518
10.291935
#DATA
2500.000000	23.061405
2490.000000	24.348529
2480.000000	23.314060
2470.000000	25.919906
2460.000000	25.443944
2450.000000	25.946012
2440.000000	25.779843
2430.000000	27.944221
2420.000000	26.244522
2410.000000	28.599921
2400.000000	28.963040
2390.000000	28.355539
2380.000000	28.919394
2370.000000	27.488982
2360.000000	28.371152
2350.000000	27.579485
2340.000000	28.386990
2330.000000	28.422593
2320.000000	27.297005
2310.000000	27.018530
2300.000000	27.432009
2290.000000	27.785441
2280.000000	28.850568
2270.000000	30.101104
2260.000000	29.750689
2250.000000	31.138903
2240.000000	31.726109
2230.000000	31.403644
2220.000000	31.516030
2210.000000	30.741983
2200.000000	30.680579
2190.000000	31.225468
2180.000000	30.762812
2170.000000	32.764366
2160.000000	33.302351
2150.000000	34.549364
2140.000000	34.887161
2130.000000	34.921116
2120.000000	34.794077
2110.000000	35.560638
2100.000000	34.503163
2090.000000	34.339508
2080.000000	33.189867
2070.000000	31.685314
2060.000000	31.419790
2050.000000	31.925864
2040.000000	32.367281
2030.000000	32.630110
2020.000000	32.012283
2010.000000	31.182012
2000.000000	30.356133
1990.000000	29.442118
1980.000000	28.508978
1970.000000	28.099643
1960.000000	27.453958
1950.000000	28.541571
1940.000000	29.864397
1930.000000	32.246389
1920.000000	35.867802
1910.000000	40.172536
1900.000000	43.516084
1890.000000	45.942520
1880.000000	47.409007
1870.000000	47.604628
1860.000000	48.178884
1850.000000	47.732118
1840.000000	47.325371
1830.000000	47.309924
1820.000000	46.969791
1810.000000	46.856542
1800.000000	46.563872
1790.000000	46.271054
1780.000000	46.050985
1770.000000	45.730523
1760.000000	45.405947
1750.000000	45.182310
1740.000000	45.487289
1730.000000	46.302822
1720.000000	46.710466
1710.000000	46.786029
1700.000000	47.581024
1690.000000	48.795931
1680.000000	49.802393
1670.000000	50.225706
1660.000000	50.245803
1650.000000	50.088188
1640.000000	49.744454
1630.000000	49.545919
1620.000000	49.026430
1610.000000	48.626140
1600.000000	48.303427
1590.000000	47.843459
1580.000000	47.640278
1570.000000	47.507755
1560.000000	47.158670
1550.000000	46.662956
1540.000000	46.119748
1530.000000	45.781320
1520.000000	45.727459
1510.000000	45.666276
1500.000000	45.798553
1490.000000	46.062365
1480.000000	46.381265
1470.000000	46.743131
1460.000000	47.278331
1450.000000	48.007042
1440.000000	48.977599
1430.000000	50.235207
1420.000000	51.773282
1410.000000	53.341197
1400.000000	54.436918
1390.000000	55.126676
1380.000000	55.469534
1370.000000	55.831429
1360.000000	56.390797
1350.000000	56.953841
1340.000000	57.304342
1330.000000	57.334264
1320.000000	57.278457
1310.000000	57.226445
1300.000000	57.214244
1290.000000	57.177196
1280.000000	57.284631
1270.000000	57.467739
1260.000000	57.485163
1250.000000	57.326320
1240.000000	57.153956
1230.000000	57.020638
1220.000000	56.831053
1210.000000	56.768135
1200.000000	56.711685
1190.000000	57.011597
1180.000000	57.191246
1170.000000	57.688819
1160.000000	57.974297
1150.000000	58.326443
1140.000000	58.346414
1130.000000	58.347144
1120.000000	58.427963
1110.000000	58.467518
1100.000000	58.409021
1090.000000	58.371877
1080.000000	58.288629
1070.000000	58.220284
1060.000000	58.199590
1050.000000	58.154466
1040.000000	58.060133
1030.000000	57.904032
1020.000000	57.849448
1010.000000	57.997336
1000.000000	57.948490
990.000000	57.963736
980.000000	57.925366
970.000000	57.952771
960.000000	57.960423
950.000000	57.960784
940.000000	58.017610
930.000000	57.922946
920.000000	57.878197
910.000000	57.680365
900.000000	57.688372
890.000000	57.289156
880.000000	57.453038
870.000000	57.479471
860.000000	57.011298
850.000000	57.650240
840.000000	57.467208
830.000000	57.394161
820.000000	57.305390
810.000000	57.044002
800.000000	56.787611
790.000000	56.730577
780.000000	56.501083
770.000000	56.473867
760.000000	56.051650
750.000000	55.729707
740.000000	55.601390
730.000000	55.294782
720.000000	55.167461
710.000000	54.858188
700.000000	54.401849
690.000000	54.227210
680.000000	53.805004
670.000000	53.492274
660.000000	53.127124
650.000000	52.654867
640.000000	52.260305
630.000000	51.806541
620.000000	51.374025
610.000000	50.748710
600.000000	50.253699
590.000000	49.704181
580.000000	49.208572
570.000000	48.494583
560.000000	47.878466
550.000000	47.084918
540.000000	46.383254
530.000000	45.512043
520.000000	44.623352
510.000000	43.773810
500.000000	42.785282
490.000000	41.844510
480.000000	40.855350
470.000000	39.785727
460.000000	38.727451
450.000000	37.358573
440.000000	35.958786
430.000000	34.466827
420.000000	32.744581
410.000000	31.036847
400.000000	29.155227
390.000000	27.370173
380.000000	25.314160
370.000000	23.528643
360.000000	21.899672
350.000000	19.847611
340.000000	18.449017
330.000000	16.900391
320.000000	15.139974
310.000000	13.864907
300.000000	12.217166
290.000000	11.186316
280.000000	10.441014
270.000000	10.291935
260.000000	10.573342
250.000000	10.551197
