PE UV       SUBTECH     SPECTRUM    ASCII       PEDS        4.00        
   -1
016-1S-XXX-NR004-F001.Sample.asc
24/01/11
11:33:33.00
24/01/11
11:33:33.00
Administrator

250.000000
1
Lambda 750
750N8071901
PerkinElmer UV WinLab 6.0.4.0738 / 1.61.00 Lambda 900

0
0
3350/servo 860.8/2
0
0
UV/VIS
1
1
1
CommonBeamDepol,150mm sphere / downward view
0
0
0
0
Program
Program
3350/servo 860.8/2
3350/0.2 860.8/0.2
3350/0.2 860.8/0.2
0
1
 
 
 
0
 
860.8
319.2
860.8
Front
100
on
 
 
0
0
0
 
0
 
 
 
0
 
 
0
0
0
0
0
 
 
 
 
0
0


0
0
#HDR
-1
-1
#GR
nm
%R
1.0
0.0
2500.000000
-10.000000
226
8
53.505717
5.643783
#DATA
2500.000000	16.888711
2490.000000	14.951715
2480.000000	16.747011
2470.000000	18.591903
2460.000000	18.144944
2450.000000	20.154057
2440.000000	19.970289
2430.000000	20.218475
2420.000000	19.806344
2410.000000	22.004990
2400.000000	19.474724
2390.000000	21.506239
2380.000000	21.633538
2370.000000	20.755606
2360.000000	21.733467
2350.000000	21.005831
2340.000000	21.198614
2330.000000	20.434659
2320.000000	19.481945
2310.000000	19.600414
2300.000000	19.551405
2290.000000	20.136899
2280.000000	21.336195
2270.000000	22.765874
2260.000000	23.711047
2250.000000	24.538041
2240.000000	25.034015
2230.000000	24.355584
2220.000000	23.617472
2210.000000	23.876878
2200.000000	23.338737
2190.000000	23.960285
2180.000000	23.195085
2170.000000	25.067029
2160.000000	26.030379
2150.000000	26.878955
2140.000000	27.439118
2130.000000	27.522836
2120.000000	27.995856
2110.000000	27.839009
2100.000000	27.966649
2090.000000	26.608335
2080.000000	25.652723
2070.000000	24.421295
2060.000000	23.902220
2050.000000	24.474541
2040.000000	25.380678
2030.000000	25.423586
2020.000000	24.654275
2010.000000	23.819687
2000.000000	23.046484
1990.000000	22.146089
1980.000000	20.992903
1970.000000	20.666838
1960.000000	20.150366
1950.000000	20.943162
1940.000000	22.426896
1930.000000	25.256746
1920.000000	29.501478
1910.000000	34.159874
1900.000000	38.280534
1890.000000	41.033079
1880.000000	42.411811
1870.000000	43.083107
1860.000000	43.554847
1850.000000	42.958367
1840.000000	42.494252
1830.000000	42.268261
1820.000000	41.886974
1810.000000	41.792877
1800.000000	41.523387
1790.000000	41.110232
1780.000000	40.669732
1770.000000	40.255499
1760.000000	39.906841
1750.000000	39.525561
1740.000000	39.849378
1730.000000	40.734896
1720.000000	41.157974
1710.000000	41.434462
1700.000000	42.372438
1690.000000	43.813529
1680.000000	45.043635
1670.000000	45.430325
1660.000000	45.443336
1650.000000	45.273168
1640.000000	44.877753
1630.000000	44.528788
1620.000000	43.994453
1610.000000	43.328811
1600.000000	42.917067
1590.000000	42.440647
1580.000000	42.169236
1570.000000	41.885663
1560.000000	41.583663
1550.000000	40.775130
1540.000000	40.150914
1530.000000	39.727227
1520.000000	39.601516
1510.000000	39.491392
1500.000000	39.629485
1490.000000	39.924923
1480.000000	40.274364
1470.000000	40.678303
1460.000000	41.371988
1450.000000	42.205016
1440.000000	43.337647
1430.000000	44.850219
1420.000000	46.707714
1410.000000	48.418201
1400.000000	49.726893
1390.000000	50.486207
1380.000000	50.939709
1370.000000	51.346247
1360.000000	51.948976
1350.000000	52.522901
1340.000000	52.839159
1330.000000	52.759678
1320.000000	52.611041
1310.000000	52.508183
1300.000000	52.410719
1290.000000	52.424701
1280.000000	52.549499
1270.000000	52.728822
1260.000000	52.662785
1250.000000	52.397399
1240.000000	52.282136
1230.000000	52.083356
1220.000000	51.817122
1210.000000	51.599590
1200.000000	51.461253
1190.000000	51.723398
1180.000000	52.091835
1170.000000	52.605822
1160.000000	52.916398
1150.000000	53.319085
1140.000000	53.443586
1130.000000	53.435445
1120.000000	53.432961
1110.000000	53.505717
1100.000000	53.467970
1090.000000	53.447459
1080.000000	53.350406
1070.000000	53.372217
1060.000000	53.292920
1050.000000	53.305263
1040.000000	53.263419
1030.000000	53.179866
1020.000000	53.116243
1010.000000	53.284367
1000.000000	53.263450
990.000000	53.204394
980.000000	53.250237
970.000000	53.245575
960.000000	53.328927
950.000000	53.332800
940.000000	53.260281
930.000000	53.190059
920.000000	53.026900
910.000000	53.048213
900.000000	53.312545
890.000000	52.924788
880.000000	52.987463
870.000000	52.440642
860.000000	52.655270
850.000000	52.365235
840.000000	51.919183
830.000000	51.597228
820.000000	51.816213
810.000000	51.421737
800.000000	51.351736
790.000000	50.791862
780.000000	50.662211
770.000000	50.545504
760.000000	50.052259
750.000000	49.797763
740.000000	49.491336
730.000000	49.096118
720.000000	48.713684
710.000000	48.326454
700.000000	47.720029
690.000000	47.324332
680.000000	46.714898
670.000000	46.186226
660.000000	45.602610
650.000000	44.919793
640.000000	44.229667
630.000000	43.534564
620.000000	42.755173
610.000000	41.913020
600.000000	41.123331
590.000000	40.257221
580.000000	39.337279
570.000000	38.422243
560.000000	37.451085
550.000000	36.363705
540.000000	35.302805
530.000000	34.147488
520.000000	33.050325
510.000000	31.863420
500.000000	30.591922
490.000000	29.320604
480.000000	28.040387
470.000000	26.721799
460.000000	25.406167
450.000000	23.872497
440.000000	22.292871
430.000000	20.683826
420.000000	18.966222
410.000000	17.398953
400.000000	15.916970
390.000000	14.539317
380.000000	13.117282
370.000000	11.916056
360.000000	10.742173
350.000000	9.628437
340.000000	8.459949
330.000000	8.306995
320.000000	6.964548
310.000000	6.855471
300.000000	7.137637
290.000000	6.227077
280.000000	5.776062
270.000000	5.643783
260.000000	5.804842
250.000000	6.284646
