PE UV       SUBTECH     SPECTRUM    ASCII       PEDS        4.00        
   -1
017-1G-XXX-NR004-F001.Sample.asc
24/01/11
12:39:24.00
24/01/11
12:39:24.00
Administrator

250.000000
1
Lambda 750
750N8071901
PerkinElmer UV WinLab 6.0.4.0738 / 1.61.00 Lambda 900

0
0
3350/servo 860.8/2
0
0
UV/VIS
1
1
1
CommonBeamDepol,150mm sphere / downward view
0
0
0
0
Program
Program
3350/servo 860.8/2
3350/0.2 860.8/0.2
3350/0.2 860.8/0.2
0
1
 
 
 
0
 
860.8
319.2
860.8
Front
100
on
 
 
0
0
0
 
0
 
 
 
0
 
 
0
0
0
0
0
 
 
 
 
0
0


0
0
#HDR
-1
-1
#GR
nm
%R
1.0
0.0
2500.000000
-10.000000
226
8
73.152368
7.315678
#DATA
2500.000000	16.784697
2490.000000	13.955505
2480.000000	14.820925
2470.000000	15.724948
2460.000000	17.215136
2450.000000	15.338342
2440.000000	16.517228
2430.000000	19.533225
2420.000000	19.232797
2410.000000	20.107357
2400.000000	18.666314
2390.000000	18.199755
2380.000000	18.649242
2370.000000	17.344846
2360.000000	18.147823
2350.000000	19.595986
2340.000000	19.094216
2330.000000	18.823995
2320.000000	17.248291
2310.000000	17.631860
2300.000000	17.272643
2290.000000	18.516343
2280.000000	19.383303
2270.000000	21.122248
2260.000000	21.923418
2250.000000	23.931798
2240.000000	24.394422
2230.000000	23.962474
2220.000000	22.805660
2210.000000	22.505162
2200.000000	21.120439
2190.000000	22.194537
2180.000000	22.383659
2170.000000	23.750260
2160.000000	25.804260
2150.000000	26.763013
2140.000000	27.740383
2130.000000	28.075749
2120.000000	28.206049
2110.000000	28.546480
2100.000000	27.464985
2090.000000	26.335106
2080.000000	24.729779
2070.000000	23.091118
2060.000000	22.525878
2050.000000	23.372713
2040.000000	24.202032
2030.000000	24.414402
2020.000000	23.401583
2010.000000	22.011664
2000.000000	20.966865
1990.000000	19.706906
1980.000000	18.155100
1970.000000	17.674701
1960.000000	17.081529
1950.000000	18.437589
1940.000000	20.853573
1930.000000	24.312619
1920.000000	29.659877
1910.000000	36.627540
1900.000000	42.604952
1890.000000	46.987462
1880.000000	49.833228
1870.000000	50.466128
1860.000000	50.831485
1850.000000	50.253754
1840.000000	49.489416
1830.000000	48.942084
1820.000000	48.470061
1810.000000	47.985677
1800.000000	47.452668
1790.000000	46.639723
1780.000000	45.790209
1770.000000	45.079579
1760.000000	44.269620
1750.000000	43.528266
1740.000000	44.004070
1730.000000	45.583761
1720.000000	46.731554
1710.000000	47.365616
1700.000000	49.205282
1690.000000	51.898013
1680.000000	54.133294
1670.000000	54.812370
1660.000000	55.008337
1650.000000	54.577695
1640.000000	53.832116
1630.000000	53.032733
1620.000000	51.895844
1610.000000	50.853279
1600.000000	50.050718
1590.000000	49.149408
1580.000000	48.559706
1570.000000	48.191668
1560.000000	47.372359
1550.000000	46.129997
1540.000000	44.973777
1530.000000	44.284187
1520.000000	43.913508
1510.000000	43.706703
1500.000000	43.979810
1490.000000	44.449666
1480.000000	45.032793
1470.000000	45.710535
1460.000000	46.789082
1450.000000	48.203154
1440.000000	50.220811
1430.000000	52.867501
1420.000000	56.353484
1410.000000	59.679361
1400.000000	62.433062
1390.000000	64.093838
1380.000000	65.087938
1370.000000	66.277496
1360.000000	67.525861
1350.000000	68.622375
1340.000000	69.331659
1330.000000	69.530130
1320.000000	69.622904
1310.000000	69.634268
1300.000000	69.657752
1290.000000	69.608339
1280.000000	69.733487
1270.000000	69.742264
1260.000000	69.706601
1250.000000	69.274746
1240.000000	68.732123
1230.000000	68.111766
1220.000000	67.586992
1210.000000	67.272927
1200.000000	67.172069
1190.000000	67.872545
1180.000000	68.862641
1170.000000	70.136498
1160.000000	71.072591
1150.000000	71.832359
1140.000000	72.322043
1130.000000	72.454952
1120.000000	72.447906
1110.000000	72.643867
1100.000000	72.589683
1090.000000	72.352795
1080.000000	72.245760
1070.000000	72.164041
1060.000000	71.997975
1050.000000	71.908368
1040.000000	71.874774
1030.000000	71.780818
1020.000000	71.821695
1010.000000	71.985022
1000.000000	72.118999
990.000000	72.140250
980.000000	72.262427
970.000000	72.392399
960.000000	72.551306
950.000000	72.651476
940.000000	72.525737
930.000000	72.527114
920.000000	72.531844
910.000000	72.589482
900.000000	72.879375
890.000000	72.178813
880.000000	72.801266
870.000000	72.776754
860.000000	72.690368
850.000000	73.152368
840.000000	72.851156
830.000000	72.811042
820.000000	72.882856
810.000000	72.870975
800.000000	72.906674
790.000000	72.387055
780.000000	72.164107
770.000000	72.263552
760.000000	72.226909
750.000000	71.920783
740.000000	71.701043
730.000000	71.334582
720.000000	71.269376
710.000000	71.086885
700.000000	70.532768
690.000000	70.205738
680.000000	69.906657
670.000000	69.353149
660.000000	68.960742
650.000000	68.292826
640.000000	67.598937
630.000000	67.065459
620.000000	66.345471
610.000000	65.561634
600.000000	64.863404
590.000000	63.989099
580.000000	63.069238
570.000000	62.056071
560.000000	61.113141
550.000000	59.920145
540.000000	58.776685
530.000000	57.381970
520.000000	55.953363
510.000000	54.512763
500.000000	52.738977
490.000000	50.803710
480.000000	48.648202
470.000000	46.384904
460.000000	44.102627
450.000000	41.504447
440.000000	38.872773
430.000000	36.158357
420.000000	33.114274
410.000000	30.751897
400.000000	28.847975
390.000000	26.948899
380.000000	24.910392
370.000000	22.846772
360.000000	21.184041
350.000000	19.430911
340.000000	17.498240
330.000000	15.769276
320.000000	14.115848
310.000000	12.976095
300.000000	10.533412
290.000000	7.758325
280.000000	7.315678
270.000000	7.741715
260.000000	8.452925
250.000000	8.559677
