PE UV       SUBTECH     SPECTRUM    ASCII       PEDS        4.00        
   -1
Empty Chamber 2.Sample.asc
18/03/12
17:21:32.00
18/03/12
17:21:32.00
Administrator

200.000000
1
Lambda 750
750N8071901
PerkinElmer UV WinLab 6.0.4.0738 / 1.61.00 Lambda 900

0
0
3350/servo 860.8/2
0
0
UV/VIS
1
1
1
CommonBeamDepol,150mm sphere / downward view
0
0
0
0
Program
Program
3350/servo 860.8/2
3350/0.2 860.8/0.2
3350/0.2 860.8/0.2
0
1
 
 
 
0
 
860.8
319.2
860.8
Front
100
on
 
 
0
0
0
 
0
 
 
 
0
 
 
0
0
0
0
0
 
 
 
 
0
0


0
0
#HDR
-1
-1
#GR
nm
%T
1.0
0.0
2350.000000
-1.000000
2151
8
100.513960
98.895722
#DATA
2350.000000	100.406728
2349.000000	100.183139
2348.000000	100.034624
2347.000000	100.054929
2346.000000	99.975771
2345.000000	99.809655
2344.000000	100.485647
2343.000000	99.780193
2342.000000	99.835382
2341.000000	99.927938
2340.000000	99.512147
2339.000000	99.767295
2338.000000	99.917852
2337.000000	99.808541
2336.000000	99.768647
2335.000000	99.924540
2334.000000	100.129428
2333.000000	100.144472
2332.000000	100.164891
2331.000000	99.775652
2330.000000	100.016304
2329.000000	99.772241
2328.000000	99.947910
2327.000000	99.889746
2326.000000	99.777954
2325.000000	99.867848
2324.000000	99.884252
2323.000000	100.028568
2322.000000	99.609026
2321.000000	99.861255
2320.000000	99.926961
2319.000000	99.823342
2318.000000	100.137485
2317.000000	100.219290
2316.000000	100.085248
2315.000000	100.285171
2314.000000	100.177206
2313.000000	99.882013
2312.000000	99.911055
2311.000000	100.204159
2310.000000	99.806278
2309.000000	99.837313
2308.000000	99.861102
2307.000000	99.756938
2306.000000	100.099977
2305.000000	99.938387
2304.000000	99.926900
2303.000000	99.847215
2302.000000	99.950701
2301.000000	100.025040
2300.000000	100.258262
2299.000000	100.094592
2298.000000	100.127484
2297.000000	99.882171
2296.000000	100.132914
2295.000000	100.029683
2294.000000	99.941341
2293.000000	100.031604
2292.000000	99.801897
2291.000000	99.866923
2290.000000	99.866301
2289.000000	100.057483
2288.000000	99.993146
2287.000000	100.157196
2286.000000	100.037749
2285.000000	100.012003
2284.000000	100.121255
2283.000000	100.057290
2282.000000	99.831786
2281.000000	99.882451
2280.000000	99.962562
2279.000000	100.038851
2278.000000	100.047131
2277.000000	99.859180
2276.000000	99.839293
2275.000000	99.877528
2274.000000	99.811527
2273.000000	100.171527
2272.000000	100.159816
2271.000000	100.018469
2270.000000	99.981826
2269.000000	100.098992
2268.000000	99.984246
2267.000000	99.878584
2266.000000	100.117264
2265.000000	100.015462
2264.000000	99.978381
2263.000000	99.979108
2262.000000	99.957358
2261.000000	100.009988
2260.000000	100.070006
2259.000000	100.021371
2258.000000	99.942013
2257.000000	100.036020
2256.000000	100.224415
2255.000000	100.191507
2254.000000	100.040976
2253.000000	100.014333
2252.000000	100.069108
2251.000000	99.976364
2250.000000	99.926681
2249.000000	100.051419
2248.000000	99.865012
2247.000000	99.816218
2246.000000	100.007765
2245.000000	99.964313
2244.000000	99.954236
2243.000000	100.234926
2242.000000	100.235947
2241.000000	99.952993
2240.000000	99.940655
2239.000000	100.025241
2238.000000	100.019284
2237.000000	99.936187
2236.000000	100.009601
2235.000000	100.084692
2234.000000	100.110423
2233.000000	99.934302
2232.000000	99.907519
2231.000000	99.945928
2230.000000	99.884556
2229.000000	100.072744
2228.000000	100.109083
2227.000000	100.155393
2226.000000	100.104061
2225.000000	99.970922
2224.000000	99.937398
2223.000000	99.953282
2222.000000	100.018176
2221.000000	100.025751
2220.000000	100.061706
2219.000000	100.070344
2218.000000	99.900308
2217.000000	99.885864
2216.000000	100.032901
2215.000000	100.132948
2214.000000	99.979124
2213.000000	100.009182
2212.000000	99.971240
2211.000000	100.012719
2210.000000	100.153080
2209.000000	100.020084
2208.000000	99.852074
2207.000000	100.052527
2206.000000	100.076682
2205.000000	99.865597
2204.000000	99.950544
2203.000000	100.013121
2202.000000	100.045278
2201.000000	99.791369
2200.000000	99.924937
2199.000000	100.084808
2198.000000	100.130186
2197.000000	99.881168
2196.000000	99.982259
2195.000000	100.179511
2194.000000	100.116633
2193.000000	99.949388
2192.000000	100.023909
2191.000000	99.951480
2190.000000	100.000101
2189.000000	99.916826
2188.000000	99.837611
2187.000000	99.969802
2186.000000	99.860138
2185.000000	99.948266
2184.000000	99.875181
2183.000000	100.077640
2182.000000	99.875242
2181.000000	99.937702
2180.000000	100.067619
2179.000000	99.931109
2178.000000	99.818408
2177.000000	100.084198
2176.000000	100.129789
2175.000000	99.965295
2174.000000	99.952313
2173.000000	99.925477
2172.000000	99.731124
2171.000000	99.964687
2170.000000	100.027138
2169.000000	99.965346
2168.000000	99.990851
2167.000000	100.065677
2166.000000	100.138594
2165.000000	100.102312
2164.000000	99.713502
2163.000000	99.957981
2162.000000	99.976089
2161.000000	100.129209
2160.000000	100.168759
2159.000000	100.203203
2158.000000	100.063677
2157.000000	99.851881
2156.000000	99.978423
2155.000000	99.996488
2154.000000	100.076613
2153.000000	100.344507
2152.000000	99.822682
2151.000000	99.995885
2150.000000	100.251776
2149.000000	100.130581
2148.000000	99.889799
2147.000000	100.083429
2146.000000	99.913898
2145.000000	99.819294
2144.000000	99.912792
2143.000000	100.233001
2142.000000	99.848652
2141.000000	99.766184
2140.000000	99.998996
2139.000000	99.932270
2138.000000	99.960822
2137.000000	99.794190
2136.000000	99.837017
2135.000000	99.866892
2134.000000	100.021601
2133.000000	100.033199
2132.000000	100.114825
2131.000000	99.984534
2130.000000	100.236745
2129.000000	99.828809
2128.000000	99.999799
2127.000000	100.074528
2126.000000	99.808455
2125.000000	100.044135
2124.000000	99.913826
2123.000000	99.949185
2122.000000	100.058984
2121.000000	100.019909
2120.000000	100.122845
2119.000000	100.036293
2118.000000	99.849235
2117.000000	100.124647
2116.000000	100.025735
2115.000000	100.179550
2114.000000	100.027067
2113.000000	100.062767
2112.000000	99.999899
2111.000000	99.939566
2110.000000	100.162938
2109.000000	100.175183
2108.000000	99.943856
2107.000000	99.884764
2106.000000	99.946346
2105.000000	99.948409
2104.000000	99.722476
2103.000000	99.983205
2102.000000	100.021738
2101.000000	99.885014
2100.000000	100.114049
2099.000000	100.030610
2098.000000	100.043620
2097.000000	100.073370
2096.000000	99.984196
2095.000000	99.906478
2094.000000	100.025099
2093.000000	100.014612
2092.000000	100.036464
2091.000000	99.884304
2090.000000	99.995969
2089.000000	99.975621
2088.000000	99.963442
2087.000000	100.014300
2086.000000	99.992547
2085.000000	100.064783
2084.000000	99.958516
2083.000000	99.948317
2082.000000	99.975916
2081.000000	99.901296
2080.000000	100.010878
2079.000000	100.069956
2078.000000	100.067779
2077.000000	99.970067
2076.000000	100.089694
2075.000000	100.007760
2074.000000	100.025595
2073.000000	100.049885
2072.000000	100.034663
2071.000000	99.906441
2070.000000	99.918975
2069.000000	99.949609
2068.000000	100.065442
2067.000000	99.982361
2066.000000	99.938237
2065.000000	100.015937
2064.000000	100.093197
2063.000000	100.094588
2062.000000	100.011894
2061.000000	100.028322
2060.000000	100.025817
2059.000000	99.881795
2058.000000	99.942876
2057.000000	99.998086
2056.000000	100.039621
2055.000000	100.066449
2054.000000	99.911519
2053.000000	100.062332
2052.000000	100.064662
2051.000000	99.960769
2050.000000	99.963283
2049.000000	99.989208
2048.000000	100.031065
2047.000000	100.033792
2046.000000	100.068108
2045.000000	100.004841
2044.000000	99.981853
2043.000000	100.009580
2042.000000	99.959863
2041.000000	99.968536
2040.000000	99.979111
2039.000000	99.967508
2038.000000	99.974076
2037.000000	100.014329
2036.000000	100.017461
2035.000000	100.005753
2034.000000	100.019890
2033.000000	100.012421
2032.000000	100.011006
2031.000000	99.987988
2030.000000	99.946007
2029.000000	99.994346
2028.000000	100.046754
2027.000000	99.989398
2026.000000	100.020499
2025.000000	100.032319
2024.000000	100.030303
2023.000000	100.032625
2022.000000	100.020104
2021.000000	100.057692
2020.000000	100.017682
2019.000000	100.000809
2018.000000	99.976854
2017.000000	99.964317
2016.000000	99.996159
2015.000000	99.948678
2014.000000	99.947561
2013.000000	99.973518
2012.000000	99.947856
2011.000000	100.013241
2010.000000	100.015369
2009.000000	99.977147
2008.000000	100.010921
2007.000000	99.973820
2006.000000	99.981297
2005.000000	100.003843
2004.000000	100.014769
2003.000000	99.991807
2002.000000	100.012443
2001.000000	99.994842
2000.000000	99.961162
1999.000000	99.965516
1998.000000	100.015272
1997.000000	100.022966
1996.000000	100.058996
1995.000000	100.005665
1994.000000	99.990894
1993.000000	100.014678
1992.000000	99.993925
1991.000000	99.989170
1990.000000	100.008098
1989.000000	100.060150
1988.000000	100.036963
1987.000000	100.004455
1986.000000	99.987045
1985.000000	99.981781
1984.000000	100.006176
1983.000000	99.992003
1982.000000	99.977939
1981.000000	99.990993
1980.000000	100.005466
1979.000000	99.970144
1978.000000	100.009110
1977.000000	99.970947
1976.000000	100.010428
1975.000000	100.015289
1974.000000	100.037361
1973.000000	100.018728
1972.000000	100.027030
1971.000000	100.017412
1970.000000	99.975613
1969.000000	99.984316
1968.000000	99.958308
1967.000000	100.009817
1966.000000	100.049194
1965.000000	99.988158
1964.000000	99.960117
1963.000000	100.023484
1962.000000	99.978039
1961.000000	99.977738
1960.000000	100.006679
1959.000000	100.004857
1958.000000	99.931532
1957.000000	100.000405
1956.000000	100.011025
1955.000000	99.949138
1954.000000	99.989784
1953.000000	100.011631
1952.000000	100.034385
1951.000000	99.973606
1950.000000	100.036424
1949.000000	99.997472
1948.000000	99.994540
1947.000000	99.936021
1946.000000	99.984126
1945.000000	100.025685
1944.000000	100.020926
1943.000000	99.978676
1942.000000	99.955424
1941.000000	100.008792
1940.000000	99.955864
1939.000000	99.973546
1938.000000	100.007470
1937.000000	100.006763
1936.000000	99.964169
1935.000000	100.000707
1934.000000	99.989505
1933.000000	100.005553
1932.000000	99.988498
1931.000000	99.978513
1930.000000	99.963191
1929.000000	100.103874
1928.000000	100.007767
1927.000000	100.097685
1926.000000	100.047998
1925.000000	99.912717
1924.000000	99.983260
1923.000000	99.912179
1922.000000	100.026124
1921.000000	99.976610
1920.000000	99.942517
1919.000000	99.973171
1918.000000	100.007160
1917.000000	99.978107
1916.000000	99.931957
1915.000000	99.861681
1914.000000	100.001110
1913.000000	100.007666
1912.000000	100.007571
1911.000000	100.013530
1910.000000	100.001211
1909.000000	99.885704
1908.000000	100.002926
1907.000000	100.015448
1906.000000	99.921294
1905.000000	99.954400
1904.000000	100.093197
1903.000000	100.048473
1902.000000	99.984548
1901.000000	99.990612
1900.000000	100.008181
1899.000000	99.995255
1898.000000	99.963954
1897.000000	99.988284
1896.000000	100.053584
1895.000000	100.000606
1894.000000	99.981097
1893.000000	100.046079
1892.000000	100.072498
1891.000000	100.041042
1890.000000	99.997676
1889.000000	100.048297
1888.000000	99.984946
1887.000000	99.919322
1886.000000	99.979404
1885.000000	100.049385
1884.000000	100.003533
1883.000000	100.019378
1882.000000	100.015841
1881.000000	100.046018
1880.000000	99.979218
1879.000000	99.967125
1878.000000	99.984980
1877.000000	100.057406
1876.000000	100.031682
1875.000000	100.027430
1874.000000	100.017441
1873.000000	99.966039
1872.000000	100.000605
1871.000000	99.989112
1870.000000	100.018650
1869.000000	100.056463
1868.000000	99.951407
1867.000000	99.938209
1866.000000	100.026329
1865.000000	99.987090
1864.000000	99.984266
1863.000000	99.966120
1862.000000	99.968229
1861.000000	99.976193
1860.000000	99.987289
1859.000000	99.995863
1858.000000	99.979015
1857.000000	99.964291
1856.000000	100.007567
1855.000000	99.981339
1854.000000	99.984266
1853.000000	99.953313
1852.000000	99.995160
1851.000000	99.986488
1850.000000	99.954324
1849.000000	99.932775
1848.000000	100.041854
1847.000000	99.994454
1846.000000	99.998992
1845.000000	100.037217
1844.000000	99.979030
1843.000000	99.967636
1842.000000	99.998689
1841.000000	99.960575
1840.000000	99.944438
1839.000000	99.984367
1838.000000	100.012510
1837.000000	100.004540
1836.000000	100.047332
1835.000000	100.031191
1834.000000	99.986070
1833.000000	100.008584
1832.000000	99.989296
1831.000000	99.967084
1830.000000	100.002828
1829.000000	100.012324
1828.000000	100.012123
1827.000000	99.976563
1826.000000	99.965247
1825.000000	99.996564
1824.000000	99.987066
1823.000000	99.959682
1822.000000	99.984434
1821.000000	100.008491
1820.000000	99.986861
1819.000000	99.996866
1818.000000	100.006068
1817.000000	100.015475
1816.000000	99.976134
1815.000000	99.991909
1814.000000	100.007687
1813.000000	99.983109
1812.000000	99.981792
1811.000000	99.993728
1810.000000	100.007082
1809.000000	100.006779
1808.000000	100.001316
1807.000000	100.001619
1806.000000	99.986641
1805.000000	99.974496
1804.000000	99.976320
1803.000000	99.985831
1802.000000	99.992004
1801.000000	99.994736
1800.000000	100.003341
1799.000000	99.979552
1798.000000	99.965385
1797.000000	99.977731
1796.000000	99.984309
1795.000000	99.977933
1794.000000	99.985826
1793.000000	99.988557
1792.000000	100.009013
1791.000000	100.025423
1790.000000	100.016005
1789.000000	99.993822
1788.000000	100.024109
1787.000000	100.026645
1786.000000	99.997670
1785.000000	100.016919
1784.000000	100.023401
1783.000000	99.992708
1782.000000	99.984808
1781.000000	99.995949
1780.000000	100.018129
1779.000000	100.008002
1778.000000	100.003444
1777.000000	100.011649
1776.000000	100.025629
1775.000000	99.999088
1774.000000	99.972049
1773.000000	99.995746
1772.000000	100.024314
1771.000000	99.979946
1770.000000	100.007698
1769.000000	100.019550
1768.000000	100.032004
1767.000000	99.983393
1766.000000	99.986835
1765.000000	99.996253
1764.000000	100.003241
1763.000000	100.009116
1762.000000	99.997063
1761.000000	100.002836
1760.000000	99.988252
1759.000000	99.986127
1758.000000	100.012660
1757.000000	100.005267
1756.000000	100.019244
1755.000000	100.025424
1754.000000	100.044670
1753.000000	100.000608
1752.000000	99.999190
1751.000000	99.981470
1750.000000	100.008405
1749.000000	99.998177
1748.000000	99.992405
1747.000000	100.030182
1746.000000	99.999392
1745.000000	99.985822
1744.000000	99.973572
1743.000000	100.005772
1742.000000	100.002329
1741.000000	99.999696
1740.000000	100.030081
1739.000000	100.003038
1738.000000	100.002126
1737.000000	99.981875
1736.000000	99.981066
1735.000000	99.971957
1734.000000	100.004050
1733.000000	100.007798
1732.000000	100.010630
1731.000000	99.979141
1730.000000	100.012252
1729.000000	99.982893
1728.000000	100.019850
1727.000000	100.018432
1726.000000	100.004759
1725.000000	100.019542
1724.000000	100.011543
1723.000000	99.991194
1722.000000	99.982586
1721.000000	99.998481
1720.000000	99.983400
1719.000000	100.014376
1718.000000	99.974793
1717.000000	99.991294
1716.000000	100.005671
1715.000000	100.039196
1714.000000	99.998988
1713.000000	99.993116
1712.000000	99.989473
1711.000000	99.996153
1710.000000	100.013060
1709.000000	100.023389
1708.000000	99.973987
1707.000000	99.996254
1706.000000	99.986946
1705.000000	100.015795
1704.000000	99.973782
1703.000000	100.002328
1702.000000	100.015994
1701.000000	100.009821
1700.000000	99.990283
1699.000000	100.003340
1698.000000	100.022369
1697.000000	100.002733
1696.000000	99.985120
1695.000000	100.014880
1694.000000	99.969534
1693.000000	100.008505
1692.000000	99.981376
1691.000000	99.985321
1690.000000	100.003543
1689.000000	99.955472
1688.000000	100.031188
1687.000000	99.989269
1686.000000	100.012753
1685.000000	99.982188
1684.000000	99.991196
1683.000000	100.029254
1682.000000	100.015081
1681.000000	100.015285
1680.000000	100.016195
1679.000000	100.001417
1678.000000	100.010528
1677.000000	99.995851
1676.000000	100.009919
1675.000000	100.015489
1674.000000	99.994736
1673.000000	99.982997
1672.000000	100.015994
1671.000000	99.973176
1670.000000	99.989069
1669.000000	99.992917
1668.000000	99.990895
1667.000000	100.018820
1666.000000	100.016394
1665.000000	100.037548
1664.000000	100.004249
1663.000000	99.983510
1662.000000	99.986343
1661.000000	99.998078
1660.000000	100.021857
1659.000000	99.992311
1658.000000	99.996257
1657.000000	99.995346
1656.000000	99.965814
1655.000000	99.990187
1654.000000	99.965609
1653.000000	100.012242
1652.000000	100.027623
1651.000000	99.999494
1650.000000	100.011939
1649.000000	100.013558
1648.000000	99.987456
1647.000000	100.011635
1646.000000	99.992615
1645.000000	99.989176
1644.000000	100.010117
1643.000000	99.996358
1642.000000	99.990593
1641.000000	99.996257
1640.000000	99.978857
1639.000000	99.975622
1638.000000	99.996561
1637.000000	99.990896
1636.000000	99.996257
1635.000000	99.992007
1634.000000	100.002125
1633.000000	100.012240
1632.000000	100.021952
1631.000000	99.991604
1630.000000	100.003946
1629.000000	99.995548
1628.000000	99.991400
1627.000000	100.006373
1626.000000	100.002327
1625.000000	99.986041
1624.000000	99.991705
1623.000000	99.996257
1622.000000	100.002832
1621.000000	99.993425
1620.000000	99.996864
1619.000000	100.004451
1618.000000	99.995044
1617.000000	100.002225
1616.000000	100.010014
1615.000000	99.997066
1614.000000	100.013252
1613.000000	100.005057
1612.000000	99.992415
1611.000000	99.990291
1610.000000	99.994842
1609.000000	100.001618
1608.000000	100.001113
1607.000000	99.992009
1606.000000	99.993527
1605.000000	99.991404
1604.000000	99.977852
1603.000000	99.989988
1602.000000	100.010418
1601.000000	100.006980
1600.000000	99.998786
1599.000000	99.990189
1598.000000	99.996359
1597.000000	99.995752
1596.000000	99.984425
1595.000000	99.978661
1594.000000	99.995348
1593.000000	99.993427
1592.000000	99.984325
1591.000000	99.988774
1590.000000	99.994943
1589.000000	99.993123
1588.000000	99.998786
1587.000000	99.998179
1586.000000	99.987054
1585.000000	99.992516
1584.000000	100.015375
1583.000000	100.017801
1582.000000	100.004349
1581.000000	99.997169
1580.000000	99.988372
1579.000000	99.991304
1578.000000	100.004247
1577.000000	99.986854
1576.000000	99.980283
1575.000000	99.984934
1574.000000	99.975532
1573.000000	99.979070
1572.000000	100.003540
1571.000000	100.011834
1570.000000	100.007888
1569.000000	100.014057
1568.000000	100.001921
1567.000000	99.998382
1566.000000	99.991406
1565.000000	99.991609
1564.000000	99.997169
1563.000000	99.985240
1562.000000	99.986251
1561.000000	99.989486
1560.000000	99.997169
1559.000000	99.987262
1558.000000	99.997574
1557.000000	99.997877
1556.000000	99.987665
1555.000000	100.008494
1554.000000	100.013954
1553.000000	100.015875
1552.000000	99.992317
1551.000000	99.992620
1550.000000	99.997877
1549.000000	99.997675
1548.000000	99.987164
1547.000000	99.988983
1546.000000	99.992823
1545.000000	100.011930
1544.000000	100.005459
1543.000000	100.004953
1542.000000	100.015770
1541.000000	99.999090
1540.000000	100.014960
1539.000000	100.015163
1538.000000	100.006166
1537.000000	99.984135
1536.000000	100.005256
1535.000000	99.998585
1534.000000	99.996867
1533.000000	100.016071
1532.000000	99.998181
1531.000000	100.005964
1530.000000	100.003639
1529.000000	100.009604
1528.000000	99.989993
1527.000000	100.001415
1526.000000	100.002528
1525.000000	100.006876
1524.000000	99.985039
1523.000000	99.994743
1522.000000	100.007683
1521.000000	100.001415
1520.000000	99.986555
1519.000000	99.992217
1518.000000	99.963203
1517.000000	99.983119
1516.000000	100.013346
1515.000000	99.997472
1514.000000	100.011428
1513.000000	100.010515
1512.000000	100.009807
1511.000000	100.007987
1510.000000	100.015066
1509.000000	100.005359
1508.000000	99.992820
1507.000000	99.998382
1506.000000	100.017595
1505.000000	100.005157
1504.000000	100.005461
1503.000000	100.001820
1502.000000	99.983317
1501.000000	99.998079
1500.000000	99.996361
1499.000000	99.988475
1498.000000	99.991205
1497.000000	99.995350
1496.000000	100.006875
1495.000000	100.016985
1494.000000	100.006369
1493.000000	99.997877
1492.000000	100.001213
1491.000000	99.964526
1490.000000	99.996462
1489.000000	99.985747
1488.000000	99.983625
1487.000000	100.001112
1486.000000	100.001617
1485.000000	99.999596
1484.000000	100.003841
1483.000000	100.013949
1482.000000	100.015664
1481.000000	99.992219
1480.000000	100.001920
1479.000000	99.994342
1478.000000	100.006972
1477.000000	99.969592
1476.000000	99.976059
1475.000000	99.999293
1474.000000	99.994848
1473.000000	100.020209
1472.000000	99.990301
1471.000000	100.005253
1470.000000	100.027484
1469.000000	100.023746
1468.000000	99.996565
1467.000000	99.989392
1466.000000	100.007780
1465.000000	99.989187
1464.000000	99.981310
1463.000000	99.993837
1462.000000	99.991817
1461.000000	99.978684
1460.000000	100.017584
1459.000000	100.000606
1458.000000	99.995858
1457.000000	100.020307
1456.000000	99.995554
1455.000000	99.983939
1454.000000	100.010002
1453.000000	100.007879
1452.000000	99.993030
1451.000000	99.980910
1450.000000	100.001920
1449.000000	100.024041
1448.000000	100.016969
1447.000000	100.027982
1446.000000	100.009797
1445.000000	100.002828
1444.000000	99.979501
1443.000000	99.988690
1442.000000	100.001919
1441.000000	99.982323
1440.000000	99.998586
1439.000000	99.997172
1438.000000	100.013534
1437.000000	100.005049
1436.000000	100.008988
1435.000000	100.009391
1434.000000	100.006059
1433.000000	100.008281
1432.000000	100.014944
1431.000000	100.005251
1430.000000	99.995356
1429.000000	100.023023
1428.000000	100.009591
1427.000000	99.985163
1426.000000	100.004441
1425.000000	100.014535
1424.000000	100.002119
1423.000000	99.986681
1422.000000	99.999899
1421.000000	99.997074
1420.000000	99.983155
1419.000000	99.970957
1418.000000	99.986287
1417.000000	100.011395
1416.000000	100.028028
1415.000000	100.011894
1414.000000	100.001814
1413.000000	99.993752
1412.000000	99.988917
1411.000000	99.993452
1410.000000	99.980761
1409.000000	100.005439
1408.000000	99.996979
1407.000000	99.977850
1406.000000	99.970403
1405.000000	99.983894
1404.000000	99.994061
1403.000000	99.990741
1402.000000	99.999799
1401.000000	100.007750
1400.000000	100.004830
1399.000000	100.000000
1398.000000	100.009459
1397.000000	100.011671
1396.000000	100.004929
1395.000000	100.001911
1394.000000	100.006738
1393.000000	100.010056
1392.000000	99.993967
1391.000000	99.981602
1390.000000	100.002815
1389.000000	100.007138
1388.000000	100.000000
1387.000000	99.991455
1386.000000	99.996079
1385.000000	100.006937
1384.000000	99.987535
1383.000000	99.983917
1382.000000	99.990852
1381.000000	99.989242
1380.000000	99.993667
1379.000000	100.001005
1378.000000	99.985322
1377.000000	99.986733
1376.000000	99.994070
1375.000000	99.982211
1374.000000	99.978288
1373.000000	99.978088
1372.000000	99.998693
1371.000000	99.997085
1370.000000	99.984423
1369.000000	99.997488
1368.000000	99.994473
1367.000000	99.995880
1366.000000	100.009445
1365.000000	99.997589
1364.000000	100.004019
1363.000000	100.012158
1362.000000	99.994774
1361.000000	99.988341
1360.000000	99.987839
1359.000000	99.995275
1358.000000	100.007846
1357.000000	99.992252
1356.000000	99.987623
1355.000000	99.997685
1354.000000	100.000000
1353.000000	100.000101
1352.000000	100.007353
1351.000000	100.012192
1350.000000	99.998690
1349.000000	99.997480
1348.000000	99.999698
1347.000000	99.996874
1346.000000	100.006151
1345.000000	99.987902
1344.000000	99.985879
1343.000000	99.995965
1342.000000	100.001815
1341.000000	99.992032
1340.000000	99.991427
1339.000000	99.993848
1338.000000	99.989713
1337.000000	100.005446
1336.000000	99.994857
1335.000000	99.989913
1334.000000	99.994654
1333.000000	100.007060
1332.000000	100.013515
1331.000000	100.007060
1330.000000	100.015535
1329.000000	100.015735
1328.000000	100.006757
1327.000000	100.015530
1326.000000	99.993645
1325.000000	100.013011
1324.000000	100.007564
1323.000000	100.006557
1322.000000	100.018559
1321.000000	100.017247
1320.000000	99.996267
1319.000000	99.996067
1318.000000	99.996470
1317.000000	99.992837
1316.000000	100.012206
1315.000000	100.007464
1314.000000	100.002623
1313.000000	99.986384
1312.000000	100.030768
1311.000000	100.021695
1310.000000	100.004641
1309.000000	100.008171
1308.000000	99.987392
1307.000000	99.960352
1306.000000	99.981944
1305.000000	99.984565
1304.000000	99.986986
1303.000000	100.017555
1302.000000	100.003633
1301.000000	99.996367
1300.000000	100.000908
1299.000000	99.998385
1298.000000	100.006357
1297.000000	99.980124
1296.000000	99.991424
1295.000000	99.992131
1294.000000	100.002422
1293.000000	100.009283
1292.000000	100.008374
1291.000000	100.008172
1290.000000	99.984364
1289.000000	100.010593
1288.000000	100.001009
1287.000000	99.987292
1286.000000	99.978622
1285.000000	99.998185
1284.000000	99.979533
1283.000000	99.979832
1282.000000	100.006554
1281.000000	100.012301
1280.000000	99.995463
1279.000000	99.990422
1278.000000	99.986192
1277.000000	100.020867
1276.000000	100.016834
1275.000000	100.012499
1274.000000	100.000605
1273.000000	99.996372
1272.000000	100.008161
1271.000000	99.972495
1270.000000	100.003628
1269.000000	99.982270
1268.000000	99.991840
1267.000000	99.987913
1266.000000	100.005843
1265.000000	99.987912
1264.000000	99.994057
1263.000000	100.005338
1262.000000	99.979949
1261.000000	99.980661
1260.000000	100.011683
1259.000000	100.006144
1258.000000	100.015815
1257.000000	100.016620
1256.000000	100.000403
1255.000000	100.009571
1254.000000	100.006749
1253.000000	99.991742
1252.000000	99.972101
1251.000000	100.000302
1250.000000	99.983483
1249.000000	100.022867
1248.000000	100.006749
1247.000000	99.992245
1246.000000	99.996978
1245.000000	100.007756
1244.000000	100.003324
1243.000000	100.001108
1242.000000	100.022259
1241.000000	99.993556
1240.000000	100.006545
1239.000000	100.023261
1238.000000	100.012585
1237.000000	99.991345
1236.000000	100.001409
1235.000000	99.997082
1234.000000	99.994365
1233.000000	100.007143
1232.000000	99.999598
1231.000000	99.988231
1230.000000	99.992557
1229.000000	99.997787
1228.000000	99.995073
1227.000000	99.986124
1226.000000	100.007944
1225.000000	100.014579
1224.000000	100.002312
1223.000000	99.981405
1222.000000	99.997889
1221.000000	100.029651
1220.000000	100.007236
1219.000000	100.015075
1218.000000	100.000000
1217.000000	99.984128
1216.000000	99.983224
1215.000000	99.998995
1214.000000	99.996786
1213.000000	99.999196
1212.000000	99.996684
1211.000000	99.997288
1210.000000	100.017880
1209.000000	100.020897
1208.000000	99.964950
1207.000000	99.991563
1206.000000	99.968965
1205.000000	99.991061
1204.000000	99.987548
1203.000000	99.993472
1202.000000	99.987846
1201.000000	99.991564
1200.000000	99.990159
1199.000000	99.974597
1198.000000	99.992368
1197.000000	100.010146
1196.000000	100.008035
1195.000000	99.976403
1194.000000	99.997188
1193.000000	99.995682
1192.000000	99.971588
1191.000000	99.973495
1190.000000	99.999598
1189.000000	99.997289
1188.000000	100.005824
1187.000000	99.995884
1186.000000	99.995382
1185.000000	99.983936
1184.000000	99.984741
1183.000000	99.988257
1182.000000	99.996688
1181.000000	100.003914
1180.000000	100.006323
1179.000000	100.006724
1178.000000	99.992073
1177.000000	99.984550
1176.000000	99.988865
1175.000000	99.999900
1174.000000	100.018057
1173.000000	100.005717
1172.000000	99.999097
1171.000000	100.004312
1170.000000	100.005817
1169.000000	100.005415
1168.000000	100.008623
1167.000000	100.008421
1166.000000	100.003910
1165.000000	99.992683
1164.000000	99.999800
1163.000000	100.004109
1162.000000	99.991283
1161.000000	99.982569
1160.000000	99.999299
1159.000000	100.016426
1158.000000	100.009814
1157.000000	99.987886
1156.000000	99.990190
1155.000000	99.992593
1154.000000	99.989191
1153.000000	99.996097
1152.000000	100.010808
1151.000000	100.014610
1150.000000	99.997099
1149.000000	99.986795
1148.000000	99.981398
1147.000000	100.000100
1146.000000	99.993300
1145.000000	99.976105
1144.000000	99.972415
1143.000000	100.001199
1142.000000	100.011093
1141.000000	99.991907
1140.000000	99.997802
1139.000000	99.998901
1138.000000	99.990310
1137.000000	99.993907
1136.000000	99.989414
1135.000000	99.999700
1134.000000	100.008787
1133.000000	100.003095
1132.000000	99.986326
1131.000000	99.999401
1130.000000	100.004490
1129.000000	99.988627
1128.000000	99.985937
1127.000000	100.017854
1126.000000	100.004089
1125.000000	99.993319
1124.000000	99.994715
1123.000000	99.988733
1122.000000	99.977869
1121.000000	99.976676
1120.000000	99.990133
1119.000000	99.991827
1118.000000	99.985750
1117.000000	99.989439
1116.000000	99.965332
1115.000000	99.988941
1114.000000	100.019628
1113.000000	100.010460
1112.000000	99.986953
1111.000000	100.000299
1110.000000	100.003784
1109.000000	99.978594
1108.000000	99.987555
1107.000000	100.008860
1106.000000	100.005076
1105.000000	99.999005
1104.000000	100.008557
1103.000000	100.010446
1102.000000	99.991744
1101.000000	99.986078
1100.000000	99.996818
1099.000000	100.000000
1098.000000	99.985884
1097.000000	100.000795
1096.000000	100.004473
1095.000000	99.992846
1094.000000	99.989768
1093.000000	99.999603
1092.000000	100.008641
1091.000000	99.998908
1090.000000	99.992951
1089.000000	100.012312
1088.000000	100.007941
1087.000000	100.004565
1086.000000	99.997520
1085.000000	99.987601
1084.000000	100.012994
1083.000000	100.021621
1082.000000	100.030643
1081.000000	100.007832
1080.000000	100.002180
1079.000000	100.000099
1078.000000	99.982267
1077.000000	100.000792
1076.000000	99.996633
1075.000000	99.987030
1074.000000	99.996535
1073.000000	100.000000
1072.000000	100.011083
1071.000000	99.994263
1070.000000	100.008606
1069.000000	100.012163
1068.000000	100.001285
1067.000000	100.001977
1066.000000	99.992392
1065.000000	100.012253
1064.000000	99.982021
1063.000000	99.976001
1062.000000	100.004543
1061.000000	99.975521
1060.000000	100.002763
1059.000000	99.998125
1058.000000	99.980370
1057.000000	100.003255
1056.000000	99.990633
1055.000000	99.994479
1054.000000	99.990439
1053.000000	100.011727
1052.000000	100.025717
1051.000000	100.017535
1050.000000	99.995175
1049.000000	99.997539
1048.000000	100.003936
1047.000000	100.005313
1046.000000	99.983670
1045.000000	99.983477
1044.000000	99.990068
1043.000000	99.994497
1042.000000	100.012580
1041.000000	100.020342
1040.000000	100.014834
1039.000000	100.015715
1038.000000	100.003829
1037.000000	100.001963
1036.000000	100.020314
1035.000000	99.985582
1034.000000	100.004511
1033.000000	100.002157
1032.000000	99.993825
1031.000000	100.030473
1030.000000	100.017928
1029.000000	100.008911
1028.000000	99.987569
1027.000000	99.991097
1026.000000	99.999902
1025.000000	100.008704
1024.000000	99.997947
1023.000000	99.996677
1022.000000	100.000879
1021.000000	99.999707
1020.000000	99.984281
1019.000000	100.006540
1018.000000	100.001757
1017.000000	99.982444
1016.000000	99.990249
1015.000000	99.995906
1014.000000	100.003216
1013.000000	99.985194
1012.000000	100.002045
1011.000000	99.996398
1010.000000	100.003211
1009.000000	99.999514
1008.000000	100.004959
1007.000000	99.986976
1006.000000	99.993393
1005.000000	100.002720
1004.000000	99.967578
1003.000000	99.984571
1002.000000	100.003686
1001.000000	99.995927
1000.000000	99.979063
999.000000	99.987984
998.000000	99.988377
997.000000	100.015589
996.000000	100.021681
995.000000	100.006870
994.000000	99.991877
993.000000	100.000967
992.000000	100.001159
991.000000	100.006858
990.000000	100.001352
989.000000	99.981279
988.000000	99.985820
987.000000	100.003182
986.000000	100.019664
985.000000	100.025922
984.000000	100.007224
983.000000	99.997882
982.000000	100.000192
981.000000	100.008177
980.000000	100.009712
979.000000	99.998558
978.000000	99.992026
977.000000	100.004129
976.000000	100.006527
975.000000	100.003454
974.000000	99.989451
973.000000	99.992811
972.000000	100.012361
971.000000	99.975102
970.000000	99.974922
969.000000	99.974456
968.000000	99.981160
967.000000	99.994456
966.000000	99.996370
965.000000	100.013846
964.000000	100.007635
963.000000	99.998855
962.000000	99.989608
961.000000	99.997522
960.000000	99.994952
959.000000	99.970304
958.000000	99.963188
957.000000	99.975946
956.000000	99.999240
955.000000	100.010163
954.000000	100.008354
953.000000	100.019357
952.000000	100.031865
951.000000	100.004738
950.000000	99.980681
949.000000	99.987222
948.000000	99.999149
947.000000	99.977973
946.000000	99.981483
945.000000	100.003778
944.000000	100.014346
943.000000	100.020939
942.000000	99.995947
941.000000	99.986250
940.000000	99.997365
939.000000	99.988995
938.000000	99.981013
937.000000	100.000282
936.000000	100.007698
935.000000	99.987430
934.000000	99.998125
933.000000	100.005434
932.000000	100.016759
931.000000	99.985124
930.000000	99.953439
929.000000	99.966174
928.000000	100.000654
927.000000	100.016048
926.000000	100.002610
925.000000	99.998416
924.000000	99.992553
923.000000	100.025120
922.000000	100.034870
921.000000	100.000093
920.000000	99.987749
919.000000	100.014187
918.000000	100.015567
917.000000	99.988148
916.000000	99.982515
915.000000	99.964787
914.000000	99.986979
913.000000	100.004984
912.000000	100.015586
911.000000	99.971994
910.000000	99.960050
909.000000	99.952266
908.000000	99.987039
907.000000	99.962540
906.000000	99.985595
905.000000	99.994132
904.000000	99.987908
903.000000	100.026912
902.000000	99.986648
901.000000	99.935597
900.000000	99.966412
899.000000	100.015869
898.000000	100.001914
897.000000	99.950673
896.000000	99.975080
895.000000	99.972286
894.000000	99.959958
893.000000	99.995102
892.000000	99.987040
891.000000	100.031599
890.000000	99.978206
889.000000	100.010576
888.000000	99.963172
887.000000	99.996303
886.000000	99.995224
885.000000	99.921554
884.000000	99.970237
883.000000	99.932641
882.000000	99.906979
881.000000	99.921031
880.000000	100.008866
879.000000	100.056133
878.000000	100.024607
877.000000	100.076342
876.000000	99.911559
875.000000	99.987515
874.000000	100.036100
873.000000	100.038023
872.000000	100.092006
871.000000	99.914524
870.000000	99.949347
869.000000	100.041518
868.000000	99.939229
867.000000	99.960605
866.000000	100.008581
865.000000	99.953429
864.000000	100.015802
863.000000	99.959445
862.000000	99.988541
861.000000	100.039031
860.000000	100.013209
859.000000	99.792838
858.000000	100.059119
857.000000	99.397955
856.000000	99.920406
855.000000	100.230209
854.000000	99.824998
853.000000	99.802214
852.000000	99.714810
851.000000	100.386523
850.000000	99.791248
849.000000	100.403190
848.000000	99.952125
847.000000	99.905093
846.000000	100.181184
845.000000	100.045310
844.000000	99.848012
843.000000	99.803345
842.000000	100.040547
841.000000	100.016472
840.000000	100.147041
839.000000	99.963517
838.000000	99.742904
837.000000	99.867376
836.000000	99.696669
835.000000	99.914923
834.000000	99.641978
833.000000	100.048403
832.000000	100.059272
831.000000	99.954320
830.000000	100.086784
829.000000	100.268003
828.000000	99.880520
827.000000	99.959379
826.000000	100.075048
825.000000	99.994225
824.000000	100.026877
823.000000	99.983364
822.000000	100.097671
821.000000	99.880305
820.000000	99.805701
819.000000	99.736696
818.000000	99.974280
817.000000	100.059547
816.000000	100.264690
815.000000	99.986701
814.000000	100.147807
813.000000	99.949067
812.000000	100.007016
811.000000	100.136263
810.000000	100.156664
809.000000	100.156303
808.000000	99.873802
807.000000	99.878915
806.000000	99.888452
805.000000	99.981497
804.000000	99.965809
803.000000	100.048135
802.000000	100.008953
801.000000	99.905134
800.000000	99.856022
799.000000	99.973750
798.000000	100.026271
797.000000	100.068550
796.000000	99.882274
795.000000	99.913579
794.000000	99.946482
793.000000	99.808545
792.000000	99.970491
791.000000	100.070273
790.000000	99.969784
789.000000	99.970891
788.000000	100.031985
787.000000	100.153422
786.000000	100.050205
785.000000	99.881076
784.000000	99.901068
783.000000	99.945158
782.000000	100.202658
781.000000	100.074649
780.000000	100.006202
779.000000	99.926978
778.000000	99.929970
777.000000	100.004878
776.000000	100.000621
775.000000	100.042779
774.000000	99.952501
773.000000	99.881000
772.000000	99.998844
771.000000	99.963808
770.000000	99.986305
769.000000	99.951414
768.000000	99.759514
767.000000	99.946983
766.000000	100.049856
765.000000	99.939916
764.000000	100.012129
763.000000	99.887157
762.000000	99.922711
761.000000	100.029023
760.000000	99.938398
759.000000	100.054285
758.000000	100.037580
757.000000	99.848949
756.000000	100.013238
755.000000	100.018181
754.000000	99.971871
753.000000	100.076648
752.000000	100.000986
751.000000	99.966127
750.000000	100.025554
749.000000	99.991207
748.000000	100.106831
747.000000	99.954386
746.000000	99.996673
745.000000	99.979056
744.000000	99.923924
743.000000	99.971739
742.000000	100.018811
741.000000	100.000360
740.000000	100.005137
739.000000	99.912149
738.000000	99.904785
737.000000	99.855687
736.000000	99.827896
735.000000	99.960308
734.000000	99.990431
733.000000	100.007584
732.000000	99.995936
731.000000	99.906608
730.000000	99.936571
729.000000	99.920296
728.000000	99.873175
727.000000	99.865172
726.000000	99.951169
725.000000	99.976655
724.000000	99.933274
723.000000	99.938943
722.000000	100.001450
721.000000	100.041421
720.000000	100.103964
719.000000	100.072256
718.000000	100.071361
717.000000	100.022785
716.000000	99.976131
715.000000	99.988566
714.000000	99.951084
713.000000	99.947410
712.000000	99.986010
711.000000	100.019987
710.000000	100.054449
709.000000	100.019465
708.000000	100.025207
707.000000	100.066083
706.000000	100.003458
705.000000	99.958067
704.000000	99.928503
703.000000	99.955754
702.000000	99.986616
701.000000	99.945108
700.000000	99.922560
699.000000	99.974286
698.000000	99.971450
697.000000	99.931640
696.000000	99.943596
695.000000	100.037947
694.000000	99.947432
693.000000	99.923123
692.000000	99.984845
691.000000	100.034048
690.000000	100.022735
689.000000	100.009218
688.000000	100.087723
687.000000	100.153640
686.000000	100.124392
685.000000	100.131741
684.000000	100.152687
683.000000	100.144649
682.000000	100.133379
681.000000	100.038577
680.000000	100.138323
679.000000	100.228463
678.000000	100.211914
677.000000	100.151495
676.000000	100.135636
675.000000	100.098893
674.000000	100.094327
673.000000	100.037557
672.000000	100.082559
671.000000	100.155033
670.000000	100.114430
669.000000	100.109354
668.000000	100.117080
667.000000	100.154856
666.000000	100.176916
665.000000	100.082647
664.000000	100.118468
663.000000	100.117410
662.000000	100.140635
661.000000	100.157440
660.000000	100.076739
659.000000	100.031667
658.000000	100.146889
657.000000	100.149142
656.000000	100.148205
655.000000	100.182951
654.000000	100.206011
653.000000	100.183796
652.000000	100.184849
651.000000	100.137961
650.000000	100.125162
649.000000	100.253151
648.000000	100.214215
647.000000	100.177892
646.000000	100.175924
645.000000	100.144253
644.000000	100.134274
643.000000	100.132642
642.000000	100.132770
641.000000	100.116397
640.000000	100.149335
639.000000	100.141425
638.000000	100.114034
637.000000	100.092876
636.000000	100.141770
635.000000	100.168965
634.000000	100.116871
633.000000	100.135733
632.000000	100.150406
631.000000	100.085462
630.000000	100.187559
629.000000	100.190537
628.000000	100.269798
627.000000	100.196910
626.000000	100.113448
625.000000	100.154289
624.000000	100.237821
623.000000	100.187209
622.000000	100.185992
621.000000	100.122753
620.000000	100.135302
619.000000	100.127772
618.000000	100.165874
617.000000	100.113210
616.000000	100.140275
615.000000	100.083227
614.000000	100.163393
613.000000	100.162958
612.000000	100.183567
611.000000	100.114341
610.000000	100.134898
609.000000	100.190893
608.000000	100.077189
607.000000	100.076459
606.000000	100.117784
605.000000	100.097711
604.000000	100.165532
603.000000	100.108547
602.000000	100.160488
601.000000	100.168386
600.000000	100.206369
599.000000	100.216780
598.000000	100.238546
597.000000	100.068827
596.000000	100.227987
595.000000	100.298549
594.000000	100.138556
593.000000	100.330607
592.000000	100.156724
591.000000	100.184215
590.000000	100.228604
589.000000	100.129204
588.000000	100.168428
587.000000	100.136459
586.000000	100.129565
585.000000	100.083187
584.000000	100.087140
583.000000	100.134607
582.000000	100.144133
581.000000	100.191046
580.000000	100.212406
579.000000	100.075446
578.000000	100.154923
577.000000	100.151309
576.000000	100.127072
575.000000	100.152292
574.000000	100.168570
573.000000	99.954563
572.000000	100.139533
571.000000	100.142929
570.000000	100.298193
569.000000	100.146540
568.000000	100.107526
567.000000	100.097951
566.000000	100.153551
565.000000	100.118268
564.000000	100.194312
563.000000	100.286222
562.000000	100.058317
561.000000	99.960659
560.000000	99.980003
559.000000	99.966396
558.000000	100.042039
557.000000	99.976489
556.000000	99.976860
555.000000	99.880919
554.000000	99.993891
553.000000	99.944360
552.000000	99.939076
551.000000	99.937242
550.000000	99.933276
549.000000	100.027964
548.000000	99.905896
547.000000	99.884543
546.000000	99.902958
545.000000	99.890493
544.000000	99.922027
543.000000	99.922143
542.000000	99.888544
541.000000	99.907805
540.000000	99.911922
539.000000	99.992955
538.000000	100.002502
537.000000	99.931164
536.000000	99.907352
535.000000	99.979056
534.000000	99.905097
533.000000	99.929400
532.000000	99.949974
531.000000	99.988967
530.000000	100.047293
529.000000	99.955119
528.000000	99.958943
527.000000	99.923810
526.000000	100.007047
525.000000	100.036370
524.000000	99.944051
523.000000	99.907331
522.000000	99.939352
521.000000	99.985999
520.000000	99.992397
519.000000	99.934724
518.000000	99.949624
517.000000	100.004638
516.000000	99.991374
515.000000	99.981629
514.000000	99.929331
513.000000	99.950193
512.000000	100.005289
511.000000	99.978657
510.000000	99.952678
509.000000	100.018376
508.000000	100.034879
507.000000	100.001855
506.000000	99.997308
505.000000	99.950170
504.000000	99.957696
503.000000	99.984129
502.000000	99.949530
501.000000	99.986916
500.000000	99.967882
499.000000	99.944304
498.000000	99.954525
497.000000	99.952963
496.000000	99.946465
495.000000	99.942187
494.000000	99.949708
493.000000	99.966220
492.000000	99.954351
491.000000	99.890112
490.000000	99.898048
489.000000	99.923394
488.000000	99.990257
487.000000	99.994342
486.000000	99.920100
485.000000	100.005842
484.000000	100.017816
483.000000	99.929783
482.000000	99.931624
481.000000	99.941454
480.000000	99.907984
479.000000	99.920609
478.000000	99.970346
477.000000	99.972854
476.000000	99.908233
475.000000	99.892788
474.000000	99.875387
473.000000	99.927073
472.000000	99.941962
471.000000	99.954882
470.000000	99.953187
469.000000	99.994230
468.000000	100.021223
467.000000	99.957745
466.000000	99.959616
465.000000	99.974954
464.000000	99.964330
463.000000	99.967132
462.000000	99.946660
461.000000	99.933737
460.000000	99.976540
459.000000	99.959584
458.000000	99.941522
457.000000	99.959027
456.000000	100.027111
455.000000	100.059239
454.000000	100.017134
453.000000	99.949339
452.000000	99.912866
451.000000	99.969170
450.000000	99.979688
449.000000	99.968149
448.000000	99.959106
447.000000	99.990587
446.000000	100.012307
445.000000	99.981450
444.000000	99.951629
443.000000	99.933010
442.000000	99.973523
441.000000	100.007554
440.000000	99.960179
439.000000	100.020804
438.000000	99.971466
437.000000	99.918191
436.000000	99.948083
435.000000	99.997762
434.000000	99.994589
433.000000	99.945058
432.000000	99.923945
431.000000	99.929631
430.000000	99.962953
429.000000	99.874913
428.000000	99.956416
427.000000	100.032968
426.000000	100.069352
425.000000	99.992345
424.000000	99.959202
423.000000	99.940342
422.000000	99.980757
421.000000	100.041030
420.000000	100.044314
419.000000	99.995515
418.000000	100.041477
417.000000	99.985339
416.000000	99.929645
415.000000	100.005421
414.000000	100.017383
413.000000	99.960865
412.000000	99.893640
411.000000	99.918117
410.000000	99.961387
409.000000	99.939706
408.000000	99.902104
407.000000	99.968770
406.000000	99.996727
405.000000	99.995512
404.000000	100.019460
403.000000	99.996259
402.000000	99.972975
401.000000	100.096278
400.000000	99.998784
399.000000	99.995789
398.000000	99.949465
397.000000	99.936759
396.000000	99.936666
395.000000	100.068713
394.000000	99.967558
393.000000	99.981850
392.000000	99.947431
391.000000	100.098586
390.000000	99.955093
389.000000	99.972609
388.000000	100.062575
387.000000	100.043230
386.000000	99.925708
385.000000	99.885535
384.000000	99.965394
383.000000	100.075480
382.000000	100.038552
381.000000	99.960938
380.000000	100.046385
379.000000	100.072848
378.000000	99.632484
377.000000	99.898818
376.000000	99.981730
375.000000	99.766121
374.000000	99.837414
373.000000	99.790576
372.000000	99.706042
371.000000	100.025671
370.000000	100.000373
369.000000	99.998224
368.000000	99.975959
367.000000	99.935273
366.000000	100.003451
365.000000	99.813846
364.000000	99.939177
363.000000	99.918755
362.000000	99.865920
361.000000	99.836747
360.000000	100.067523
359.000000	100.069365
358.000000	99.977415
357.000000	99.814334
356.000000	100.252033
355.000000	99.925396
354.000000	99.759366
353.000000	99.981866
352.000000	99.692897
351.000000	99.660470
350.000000	100.028969
349.000000	99.928276
348.000000	100.127504
347.000000	100.133474
346.000000	100.038535
345.000000	100.250607
344.000000	100.226114
343.000000	100.188479
342.000000	99.985953
341.000000	100.513960
340.000000	99.593950
339.000000	99.929488
338.000000	99.779795
337.000000	99.935348
336.000000	99.679200
335.000000	99.780992
334.000000	99.970243
333.000000	99.778265
332.000000	99.883279
331.000000	100.380200
330.000000	100.355342
329.000000	100.030881
328.000000	100.111058
327.000000	99.631022
326.000000	99.841862
325.000000	100.110139
324.000000	100.002867
323.000000	100.076659
322.000000	99.896241
321.000000	100.149706
320.000000	99.875314
319.000000	100.060944
318.000000	100.292877
317.000000	100.122896
316.000000	99.778058
315.000000	99.724451
314.000000	99.703727
313.000000	100.066398
312.000000	99.854088
311.000000	99.936549
310.000000	99.735398
309.000000	99.789103
308.000000	100.169548
307.000000	99.704805
306.000000	100.173866
305.000000	99.852187
304.000000	99.772329
303.000000	100.029420
302.000000	100.076788
301.000000	100.000369
300.000000	100.447140
299.000000	99.869070
298.000000	100.108912
297.000000	99.968571
296.000000	100.095465
295.000000	100.164924
294.000000	100.058176
293.000000	99.986431
292.000000	99.948159
291.000000	99.662561
290.000000	99.932732
289.000000	100.029201
288.000000	100.141907
287.000000	100.067516
286.000000	99.918591
285.000000	99.983128
284.000000	99.860761
283.000000	99.862511
282.000000	99.726293
281.000000	100.019071
280.000000	99.924753
279.000000	100.279693
278.000000	100.183483
277.000000	100.000093
276.000000	99.637855
275.000000	99.962108
274.000000	99.991743
273.000000	100.139895
272.000000	100.007156
271.000000	99.801848
270.000000	99.652111
269.000000	99.969848
268.000000	99.957326
267.000000	100.223370
266.000000	100.154054
265.000000	99.775138
264.000000	99.973000
263.000000	99.932004
262.000000	100.062788
261.000000	100.072208
260.000000	100.158142
259.000000	99.898397
258.000000	100.141581
257.000000	100.126641
256.000000	99.949799
255.000000	99.952809
254.000000	99.655748
253.000000	99.941371
252.000000	100.126608
251.000000	99.786775
250.000000	99.765556
249.000000	99.769403
248.000000	99.805844
247.000000	100.081184
246.000000	100.078985
245.000000	99.918198
244.000000	99.689440
243.000000	99.719867
242.000000	99.849525
241.000000	100.065934
240.000000	100.292748
239.000000	100.080439
238.000000	99.911546
237.000000	100.044498
236.000000	100.147058
235.000000	100.001936
234.000000	100.129325
233.000000	100.326425
232.000000	100.048208
231.000000	99.811700
230.000000	99.858831
229.000000	100.086884
228.000000	100.040431
227.000000	99.809191
226.000000	99.812436
225.000000	99.842965
224.000000	100.105967
223.000000	100.328580
222.000000	100.042920
221.000000	99.790451
220.000000	100.108542
219.000000	100.065718
218.000000	99.658393
217.000000	99.678579
216.000000	99.965633
215.000000	100.136836
214.000000	99.915944
213.000000	99.929657
212.000000	99.894215
211.000000	99.911517
210.000000	99.782657
209.000000	98.998310
208.000000	98.895722
207.000000	99.112858
206.000000	99.549646
205.000000	99.482113
204.000000	99.278067
203.000000	99.623564
202.000000	99.520506
201.000000	99.426082
200.000000	99.919716
