PE UV       SUBTECH     SPECTRUM    ASCII       PEDS        4.00        
   -1
RDmshap11.Sample.asc
18/03/12
15:56:07.00
18/03/12
15:56:07.00
Administrator

200.000000
1
Lambda 750
750N8071901
PerkinElmer UV WinLab 6.0.4.0738 / 1.61.00 Lambda 900

0
0
3350/servo 860.8/2
0
0
UV/VIS
1
1
1
CommonBeamDepol,150mm sphere / downward view
0
0
0
0
Program
Program
3350/servo 860.8/2
3350/0.2 860.8/0.2
3350/0.2 860.8/0.2
0
1
 
 
 
0
 
860.8
319.2
860.8
Front
100
on
 
 
0
0
0
 
0
 
 
 
0
 
 
0
0
0
0
0
 
 
 
 
0
0


0
0
#HDR
-1
-1
#GR
nm
%R
1.0
0.0
2350.000000
-1.000000
2151
8
70.216144
10.615667
#DATA
2350.000000	26.905447
2349.000000	26.888619
2348.000000	26.455579
2347.000000	26.913198
2346.000000	26.824290
2345.000000	26.623607
2344.000000	26.548244
2343.000000	26.887509
2342.000000	26.597317
2341.000000	27.250004
2340.000000	26.883311
2339.000000	27.496582
2338.000000	27.487972
2337.000000	27.491399
2336.000000	27.576844
2335.000000	27.585267
2334.000000	27.600884
2333.000000	27.924452
2332.000000	28.083387
2331.000000	27.695367
2330.000000	27.443559
2329.000000	27.438113
2328.000000	27.516640
2327.000000	27.460576
2326.000000	27.452941
2325.000000	27.523204
2324.000000	27.723213
2323.000000	27.400155
2322.000000	27.310340
2321.000000	27.599014
2320.000000	27.421725
2319.000000	27.466299
2318.000000	27.303201
2317.000000	27.115189
2316.000000	26.952608
2315.000000	26.689320
2314.000000	26.943611
2313.000000	26.976014
2312.000000	26.576063
2311.000000	26.812224
2310.000000	26.403980
2309.000000	26.464586
2308.000000	26.257728
2307.000000	26.446175
2306.000000	26.506441
2305.000000	26.569416
2304.000000	26.354792
2303.000000	26.574017
2302.000000	26.208766
2301.000000	26.147504
2300.000000	26.070885
2299.000000	26.206992
2298.000000	26.115679
2297.000000	25.912638
2296.000000	25.854299
2295.000000	25.812711
2294.000000	25.856038
2293.000000	25.813129
2292.000000	25.832541
2291.000000	25.739532
2290.000000	25.716530
2289.000000	25.618293
2288.000000	25.588675
2287.000000	25.703123
2286.000000	25.740652
2285.000000	25.943352
2284.000000	25.809835
2283.000000	25.635107
2282.000000	25.670828
2281.000000	25.735469
2280.000000	25.896075
2279.000000	25.906115
2278.000000	25.797133
2277.000000	25.797071
2276.000000	25.893923
2275.000000	25.878637
2274.000000	25.782645
2273.000000	26.017465
2272.000000	26.194443
2271.000000	26.209609
2270.000000	26.086298
2269.000000	26.149602
2268.000000	26.321515
2267.000000	26.369185
2266.000000	26.499391
2265.000000	26.671913
2264.000000	26.873454
2263.000000	26.875501
2262.000000	26.965153
2261.000000	27.246396
2260.000000	27.142916
2259.000000	27.226017
2258.000000	27.470356
2257.000000	27.740101
2256.000000	27.946974
2255.000000	27.954877
2254.000000	28.153822
2253.000000	28.437078
2252.000000	28.580582
2251.000000	28.866951
2250.000000	29.221049
2249.000000	29.398598
2248.000000	29.518785
2247.000000	29.709523
2246.000000	29.880125
2245.000000	30.107426
2244.000000	30.277213
2243.000000	30.431535
2242.000000	30.669189
2241.000000	30.773217
2240.000000	30.771797
2239.000000	30.999642
2238.000000	31.229195
2237.000000	31.352442
2236.000000	31.367235
2235.000000	31.569174
2234.000000	31.772568
2233.000000	31.674093
2232.000000	31.687549
2231.000000	31.887237
2230.000000	31.956356
2229.000000	31.931360
2228.000000	31.981250
2227.000000	32.079732
2226.000000	32.051248
2225.000000	31.982405
2224.000000	32.048930
2223.000000	32.045093
2222.000000	31.819275
2221.000000	31.794790
2220.000000	32.022912
2219.000000	32.041797
2218.000000	31.871602
2217.000000	31.759969
2216.000000	31.665921
2215.000000	31.695282
2214.000000	31.762187
2213.000000	31.717881
2212.000000	31.626354
2211.000000	31.564172
2210.000000	31.423807
2209.000000	31.394074
2208.000000	31.324922
2207.000000	31.287984
2206.000000	31.162146
2205.000000	31.046568
2204.000000	31.079109
2203.000000	31.046570
2202.000000	30.934485
2201.000000	30.902123
2200.000000	30.855284
2199.000000	30.556982
2198.000000	30.586160
2197.000000	30.547163
2196.000000	30.439222
2195.000000	30.309169
2194.000000	30.204463
2193.000000	30.203793
2192.000000	30.212153
2191.000000	30.049164
2190.000000	30.060995
2189.000000	30.060412
2188.000000	29.869885
2187.000000	29.923548
2186.000000	29.863295
2185.000000	29.674641
2184.000000	29.740937
2183.000000	29.781159
2182.000000	29.623833
2181.000000	29.585207
2180.000000	29.689459
2179.000000	29.781044
2178.000000	29.716121
2177.000000	29.674993
2176.000000	29.455670
2175.000000	29.573303
2174.000000	29.754789
2173.000000	29.672410
2172.000000	29.659029
2171.000000	29.734832
2170.000000	29.918494
2169.000000	29.985429
2168.000000	29.907286
2167.000000	30.106908
2166.000000	30.169039
2165.000000	30.211177
2164.000000	30.352002
2163.000000	30.279001
2162.000000	30.487702
2161.000000	30.513273
2160.000000	30.744528
2159.000000	30.808552
2158.000000	31.029275
2157.000000	31.132920
2156.000000	31.282793
2155.000000	31.308489
2154.000000	31.479477
2153.000000	31.655075
2152.000000	31.805239
2151.000000	31.711992
2150.000000	32.100449
2149.000000	32.039808
2148.000000	32.275277
2147.000000	32.443137
2146.000000	32.440754
2145.000000	32.789572
2144.000000	32.891496
2143.000000	32.948528
2142.000000	33.099602
2141.000000	33.299486
2140.000000	33.290817
2139.000000	33.228451
2138.000000	33.530908
2137.000000	33.731128
2136.000000	33.672168
2135.000000	33.631380
2134.000000	34.068553
2133.000000	33.852283
2132.000000	34.043876
2131.000000	34.251956
2130.000000	34.448235
2129.000000	34.337073
2128.000000	34.281682
2127.000000	34.327325
2126.000000	34.469972
2125.000000	34.439490
2124.000000	34.555709
2123.000000	34.425640
2122.000000	34.640350
2121.000000	34.629983
2120.000000	34.616484
2119.000000	34.691040
2118.000000	34.722345
2117.000000	34.837935
2116.000000	34.917693
2115.000000	34.776347
2114.000000	34.866824
2113.000000	34.819044
2112.000000	34.867440
2111.000000	34.887486
2110.000000	34.907555
2109.000000	35.001259
2108.000000	34.947136
2107.000000	35.006632
2106.000000	35.160150
2105.000000	34.976996
2104.000000	34.959577
2103.000000	35.028750
2102.000000	35.238587
2101.000000	35.066645
2100.000000	35.093871
2099.000000	35.150116
2098.000000	35.110279
2097.000000	35.087942
2096.000000	35.201040
2095.000000	35.129802
2094.000000	35.193769
2093.000000	34.993780
2092.000000	35.096101
2091.000000	35.071325
2090.000000	35.000449
2089.000000	34.980743
2088.000000	35.063505
2087.000000	34.970209
2086.000000	34.869938
2085.000000	34.853082
2084.000000	34.751517
2083.000000	34.709552
2082.000000	34.712652
2081.000000	34.573733
2080.000000	34.472795
2079.000000	34.465735
2078.000000	34.335712
2077.000000	34.252520
2076.000000	34.079097
2075.000000	34.051985
2074.000000	33.998772
2073.000000	33.930660
2072.000000	33.848941
2071.000000	33.642701
2070.000000	33.538890
2069.000000	33.395279
2068.000000	33.303869
2067.000000	33.150586
2066.000000	32.917512
2065.000000	32.754128
2064.000000	32.708201
2063.000000	32.487244
2062.000000	32.346315
2061.000000	32.178474
2060.000000	32.090546
2059.000000	32.012835
2058.000000	31.792292
2057.000000	31.589074
2056.000000	31.462323
2055.000000	31.340555
2054.000000	31.214810
2053.000000	31.111432
2052.000000	30.991304
2051.000000	30.815126
2050.000000	30.709201
2049.000000	30.634055
2048.000000	30.557508
2047.000000	30.467028
2046.000000	30.372253
2045.000000	30.278765
2044.000000	30.302507
2043.000000	30.310191
2042.000000	30.245773
2041.000000	30.294691
2040.000000	30.335445
2039.000000	30.345059
2038.000000	30.406229
2037.000000	30.466826
2036.000000	30.515355
2035.000000	30.568177
2034.000000	30.627470
2033.000000	30.726742
2032.000000	30.856643
2031.000000	30.927921
2030.000000	30.971811
2029.000000	31.100619
2028.000000	31.211893
2027.000000	31.308152
2026.000000	31.440948
2025.000000	31.544693
2024.000000	31.536986
2023.000000	31.541989
2022.000000	31.636990
2021.000000	31.661331
2020.000000	31.718237
2019.000000	31.762892
2018.000000	31.734763
2017.000000	31.721235
2016.000000	31.675029
2015.000000	31.619832
2014.000000	31.637494
2013.000000	31.677127
2012.000000	31.641096
2011.000000	31.578452
2010.000000	31.513871
2009.000000	31.419658
2008.000000	31.329036
2007.000000	31.257071
2006.000000	31.163250
2005.000000	31.107561
2004.000000	31.000291
2003.000000	30.904705
2002.000000	30.807621
2001.000000	30.684818
2000.000000	30.592977
1999.000000	30.495364
1998.000000	30.418875
1997.000000	30.313031
1996.000000	30.204054
1995.000000	30.101575
1994.000000	29.949618
1993.000000	29.813548
1992.000000	29.724223
1991.000000	29.610396
1990.000000	29.530904
1989.000000	29.380911
1988.000000	29.321104
1987.000000	29.225090
1986.000000	29.088062
1985.000000	29.010925
1984.000000	28.922991
1983.000000	28.803865
1982.000000	28.666249
1981.000000	28.582369
1980.000000	28.485039
1979.000000	28.365453
1978.000000	28.271738
1977.000000	28.147799
1976.000000	28.050621
1975.000000	27.945709
1974.000000	27.826078
1973.000000	27.701611
1972.000000	27.646889
1971.000000	27.506262
1970.000000	27.417318
1969.000000	27.305412
1968.000000	27.211482
1967.000000	27.115182
1966.000000	27.061048
1965.000000	26.956203
1964.000000	26.849760
1963.000000	26.765245
1962.000000	26.649430
1961.000000	26.544021
1960.000000	26.464717
1959.000000	26.409091
1958.000000	26.319845
1957.000000	26.268483
1956.000000	26.154100
1955.000000	26.052294
1954.000000	26.052882
1953.000000	26.026510
1952.000000	26.018432
1951.000000	26.027564
1950.000000	25.877747
1949.000000	25.852459
1948.000000	25.852358
1947.000000	25.817451
1946.000000	25.722920
1945.000000	25.729487
1944.000000	25.710892
1943.000000	25.734322
1942.000000	25.782157
1941.000000	25.847039
1940.000000	25.872566
1939.000000	25.932985
1938.000000	25.877860
1937.000000	26.019153
1936.000000	26.149023
1935.000000	26.163053
1934.000000	26.253858
1933.000000	26.476803
1932.000000	26.557293
1931.000000	26.671280
1930.000000	26.840299
1929.000000	26.962155
1928.000000	27.107382
1927.000000	27.251126
1926.000000	27.478833
1925.000000	27.705864
1924.000000	27.966720
1923.000000	28.213499
1922.000000	28.419602
1921.000000	28.709717
1920.000000	29.025868
1919.000000	29.252967
1918.000000	29.479508
1917.000000	29.855920
1916.000000	30.095056
1915.000000	30.588787
1914.000000	30.902849
1913.000000	31.332635
1912.000000	31.635713
1911.000000	31.967814
1910.000000	32.480605
1909.000000	33.007760
1908.000000	33.384714
1907.000000	33.896967
1906.000000	34.304497
1905.000000	34.933963
1904.000000	35.519075
1903.000000	36.066568
1902.000000	36.625023
1901.000000	37.099922
1900.000000	37.715186
1899.000000	38.344786
1898.000000	38.945181
1897.000000	39.537197
1896.000000	40.149188
1895.000000	40.759764
1894.000000	41.330833
1893.000000	41.950614
1892.000000	42.488688
1891.000000	43.053826
1890.000000	43.667865
1889.000000	44.253625
1888.000000	44.742498
1887.000000	45.223198
1886.000000	45.754609
1885.000000	46.236173
1884.000000	46.748300
1883.000000	47.289355
1882.000000	47.694147
1881.000000	48.150647
1880.000000	48.661564
1879.000000	49.032021
1878.000000	49.461964
1877.000000	49.840804
1876.000000	50.198261
1875.000000	50.550614
1874.000000	50.831994
1873.000000	51.129439
1872.000000	51.411740
1871.000000	51.755537
1870.000000	52.042977
1869.000000	52.329729
1868.000000	52.471186
1867.000000	52.632142
1866.000000	52.827004
1865.000000	52.973397
1864.000000	53.052157
1863.000000	53.258812
1862.000000	53.351106
1861.000000	53.409710
1860.000000	53.534067
1859.000000	53.626533
1858.000000	53.698843
1857.000000	53.758499
1856.000000	53.805456
1855.000000	53.864195
1854.000000	53.945983
1853.000000	53.959320
1852.000000	54.003491
1851.000000	54.072165
1850.000000	54.099742
1849.000000	54.105872
1848.000000	54.115229
1847.000000	54.121232
1846.000000	54.107824
1845.000000	54.098847
1844.000000	54.057793
1843.000000	54.057352
1842.000000	54.046601
1841.000000	53.990946
1840.000000	53.948342
1839.000000	53.908411
1838.000000	53.891243
1837.000000	53.850668
1836.000000	53.802013
1835.000000	53.757231
1834.000000	53.709037
1833.000000	53.660311
1832.000000	53.627194
1831.000000	53.561325
1830.000000	53.511101
1829.000000	53.458811
1828.000000	53.419876
1827.000000	53.388938
1826.000000	53.354600
1825.000000	53.311635
1824.000000	53.286159
1823.000000	53.213905
1822.000000	53.147093
1821.000000	53.135008
1820.000000	53.122732
1819.000000	53.079836
1818.000000	53.026029
1817.000000	52.974057
1816.000000	52.918570
1815.000000	52.878455
1814.000000	52.844292
1813.000000	52.810729
1812.000000	52.767441
1811.000000	52.725098
1810.000000	52.671472
1809.000000	52.633797
1808.000000	52.611433
1807.000000	52.545458
1806.000000	52.487367
1805.000000	52.437417
1804.000000	52.395220
1803.000000	52.379939
1802.000000	52.345701
1801.000000	52.292477
1800.000000	52.250502
1799.000000	52.229607
1798.000000	52.210423
1797.000000	52.184791
1796.000000	52.147555
1795.000000	52.113604
1794.000000	52.088059
1793.000000	52.050414
1792.000000	52.009377
1791.000000	51.995625
1790.000000	51.957529
1789.000000	51.908178
1788.000000	51.887619
1787.000000	51.878852
1786.000000	51.849606
1785.000000	51.803402
1784.000000	51.784255
1783.000000	51.741650
1782.000000	51.699652
1781.000000	51.632233
1780.000000	51.582207
1779.000000	51.565485
1778.000000	51.511914
1777.000000	51.426046
1776.000000	51.369277
1775.000000	51.303591
1774.000000	51.226341
1773.000000	51.179576
1772.000000	51.093343
1771.000000	51.014966
1770.000000	50.954160
1769.000000	50.889346
1768.000000	50.844384
1767.000000	50.767977
1766.000000	50.697365
1765.000000	50.637449
1764.000000	50.577852
1763.000000	50.524734
1762.000000	50.436305
1761.000000	50.396730
1760.000000	50.349546
1759.000000	50.280330
1758.000000	50.232293
1757.000000	50.184376
1756.000000	50.140905
1755.000000	50.064666
1754.000000	49.990018
1753.000000	49.945436
1752.000000	49.903887
1751.000000	49.881611
1750.000000	49.825371
1749.000000	49.750722
1748.000000	49.673713
1747.000000	49.633085
1746.000000	49.539448
1745.000000	49.459562
1744.000000	49.392238
1743.000000	49.347992
1742.000000	49.279122
1741.000000	49.198723
1740.000000	49.169139
1739.000000	49.071788
1738.000000	49.044334
1737.000000	49.002437
1736.000000	48.942940
1735.000000	48.938726
1734.000000	48.910320
1733.000000	48.877373
1732.000000	48.881175
1731.000000	48.880099
1730.000000	48.866911
1729.000000	48.912591
1728.000000	48.962153
1727.000000	49.051098
1726.000000	49.121732
1725.000000	49.230153
1724.000000	49.278563
1723.000000	49.410761
1722.000000	49.542382
1721.000000	49.629435
1720.000000	49.763033
1719.000000	49.906694
1718.000000	50.022596
1717.000000	50.161876
1716.000000	50.284141
1715.000000	50.375062
1714.000000	50.525471
1713.000000	50.636469
1712.000000	50.763138
1711.000000	50.853316
1710.000000	50.969864
1709.000000	51.037074
1708.000000	51.099680
1707.000000	51.189992
1706.000000	51.237868
1705.000000	51.311189
1704.000000	51.386472
1703.000000	51.402987
1702.000000	51.412320
1701.000000	51.471540
1700.000000	51.520320
1699.000000	51.511412
1698.000000	51.582582
1697.000000	51.607649
1696.000000	51.671515
1695.000000	51.720299
1694.000000	51.781481
1693.000000	51.838717
1692.000000	51.944274
1691.000000	52.012353
1690.000000	52.110811
1689.000000	52.221359
1688.000000	52.315120
1687.000000	52.432426
1686.000000	52.626072
1685.000000	52.770988
1684.000000	52.961603
1683.000000	53.136386
1682.000000	53.317377
1681.000000	53.557657
1680.000000	53.752262
1679.000000	53.946110
1678.000000	54.170710
1677.000000	54.378210
1676.000000	54.577354
1675.000000	54.799213
1674.000000	55.001732
1673.000000	55.207427
1672.000000	55.414081
1671.000000	55.595939
1670.000000	55.742085
1669.000000	55.976993
1668.000000	56.117454
1667.000000	56.311743
1666.000000	56.384854
1665.000000	56.543849
1664.000000	56.682764
1663.000000	56.749703
1662.000000	56.838422
1661.000000	56.934949
1660.000000	57.015276
1659.000000	57.078859
1658.000000	57.155252
1657.000000	57.221706
1656.000000	57.276361
1655.000000	57.309621
1654.000000	57.327409
1653.000000	57.359551
1652.000000	57.374138
1651.000000	57.373312
1650.000000	57.404696
1649.000000	57.397271
1648.000000	57.370357
1647.000000	57.360756
1646.000000	57.377152
1645.000000	57.352337
1644.000000	57.340430
1643.000000	57.336574
1642.000000	57.291582
1641.000000	57.243468
1640.000000	57.209846
1639.000000	57.195812
1638.000000	57.145027
1637.000000	57.098155
1636.000000	57.052050
1635.000000	57.013943
1634.000000	56.974925
1633.000000	56.940779
1632.000000	56.879467
1631.000000	56.818854
1630.000000	56.769119
1629.000000	56.716007
1628.000000	56.668776
1627.000000	56.612700
1626.000000	56.557374
1625.000000	56.516862
1624.000000	56.457987
1623.000000	56.385004
1622.000000	56.333922
1621.000000	56.271773
1620.000000	56.207990
1619.000000	56.134104
1618.000000	56.066782
1617.000000	56.021283
1616.000000	55.942622
1615.000000	55.879250
1614.000000	55.812969
1613.000000	55.722098
1612.000000	55.648622
1611.000000	55.576532
1610.000000	55.505083
1609.000000	55.441003
1608.000000	55.369530
1607.000000	55.276092
1606.000000	55.198858
1605.000000	55.122860
1604.000000	55.044915
1603.000000	54.973662
1602.000000	54.883683
1601.000000	54.799148
1600.000000	54.732670
1599.000000	54.670476
1598.000000	54.598445
1597.000000	54.524620
1596.000000	54.449724
1595.000000	54.373342
1594.000000	54.302247
1593.000000	54.245104
1592.000000	54.174295
1591.000000	54.102596
1590.000000	54.032849
1589.000000	53.961086
1588.000000	53.904318
1587.000000	53.853006
1586.000000	53.805747
1585.000000	53.733852
1584.000000	53.661485
1583.000000	53.606559
1582.000000	53.534194
1581.000000	53.472730
1580.000000	53.422954
1579.000000	53.361329
1578.000000	53.310381
1577.000000	53.254722
1576.000000	53.200125
1575.000000	53.144965
1574.000000	53.079735
1573.000000	53.023484
1572.000000	52.966453
1571.000000	52.902190
1570.000000	52.831867
1569.000000	52.786829
1568.000000	52.744560
1567.000000	52.702953
1566.000000	52.660705
1565.000000	52.614446
1564.000000	52.566293
1563.000000	52.534466
1562.000000	52.495776
1561.000000	52.455425
1560.000000	52.426700
1559.000000	52.387520
1558.000000	52.370054
1557.000000	52.343778
1556.000000	52.314111
1555.000000	52.300237
1554.000000	52.244686
1553.000000	52.196415
1552.000000	52.149232
1551.000000	52.104811
1550.000000	52.086010
1549.000000	52.025549
1548.000000	51.976496
1547.000000	51.905437
1546.000000	51.822301
1545.000000	51.757089
1544.000000	51.664142
1543.000000	51.577726
1542.000000	51.478975
1541.000000	51.384367
1540.000000	51.301907
1539.000000	51.179628
1538.000000	51.070035
1537.000000	50.972107
1536.000000	50.857237
1535.000000	50.766608
1534.000000	50.657768
1533.000000	50.555266
1532.000000	50.451385
1531.000000	50.356287
1530.000000	50.256929
1529.000000	50.148825
1528.000000	50.078314
1527.000000	50.009512
1526.000000	49.941194
1525.000000	49.823644
1524.000000	49.758285
1523.000000	49.710474
1522.000000	49.647119
1521.000000	49.570008
1520.000000	49.536339
1519.000000	49.476977
1518.000000	49.429561
1517.000000	49.375844
1516.000000	49.353362
1515.000000	49.300856
1514.000000	49.256069
1513.000000	49.234781
1512.000000	49.199941
1511.000000	49.196425
1510.000000	49.151423
1509.000000	49.126894
1508.000000	49.096975
1507.000000	49.061025
1506.000000	49.033903
1505.000000	49.025200
1504.000000	49.023112
1503.000000	49.006198
1502.000000	48.981843
1501.000000	48.958753
1500.000000	48.959726
1499.000000	48.944539
1498.000000	48.940930
1497.000000	48.947152
1496.000000	48.938583
1495.000000	48.937387
1494.000000	48.939011
1493.000000	48.966508
1492.000000	48.967322
1491.000000	49.019112
1490.000000	49.017900
1489.000000	49.031491
1488.000000	49.059677
1487.000000	49.092537
1486.000000	49.117658
1485.000000	49.150275
1484.000000	49.168000
1483.000000	49.216990
1482.000000	49.224751
1481.000000	49.296353
1480.000000	49.317794
1479.000000	49.379536
1478.000000	49.403071
1477.000000	49.445390
1476.000000	49.480086
1475.000000	49.504078
1474.000000	49.558226
1473.000000	49.607880
1472.000000	49.617159
1471.000000	49.654381
1470.000000	49.718558
1469.000000	49.774074
1468.000000	49.791751
1467.000000	49.837761
1466.000000	49.890944
1465.000000	49.928264
1464.000000	49.973759
1463.000000	50.021030
1462.000000	50.088501
1461.000000	50.138889
1460.000000	50.176212
1459.000000	50.220075
1458.000000	50.305315
1457.000000	50.368621
1456.000000	50.417231
1455.000000	50.483705
1454.000000	50.566933
1453.000000	50.625168
1452.000000	50.717284
1451.000000	50.802409
1450.000000	50.889792
1449.000000	50.963096
1448.000000	51.061287
1447.000000	51.141868
1446.000000	51.249486
1445.000000	51.351696
1444.000000	51.445970
1443.000000	51.557092
1442.000000	51.673895
1441.000000	51.778474
1440.000000	51.896004
1439.000000	52.030941
1438.000000	52.159798
1437.000000	52.285339
1436.000000	52.435772
1435.000000	52.575654
1434.000000	52.714122
1433.000000	52.852156
1432.000000	53.001579
1431.000000	53.194016
1430.000000	53.364484
1429.000000	53.528278
1428.000000	53.697364
1427.000000	53.888671
1426.000000	54.081046
1425.000000	54.270330
1424.000000	54.455856
1423.000000	54.668702
1422.000000	54.901551
1421.000000	55.118183
1420.000000	55.349646
1419.000000	55.580440
1418.000000	55.802917
1417.000000	56.036695
1416.000000	56.283499
1415.000000	56.530475
1414.000000	56.785268
1413.000000	57.035081
1412.000000	57.289045
1411.000000	57.572433
1410.000000	57.835094
1409.000000	58.090109
1408.000000	58.348348
1407.000000	58.604431
1406.000000	58.871535
1405.000000	59.140878
1404.000000	59.381384
1403.000000	59.639621
1402.000000	59.893011
1401.000000	60.144887
1400.000000	60.370771
1399.000000	60.603143
1398.000000	60.838694
1397.000000	61.072942
1396.000000	61.285195
1395.000000	61.490164
1394.000000	61.706094
1393.000000	61.930230
1392.000000	62.146809
1391.000000	62.340975
1390.000000	62.512150
1389.000000	62.684729
1388.000000	62.878170
1387.000000	63.042039
1386.000000	63.188378
1385.000000	63.336274
1384.000000	63.499789
1383.000000	63.647233
1382.000000	63.755433
1381.000000	63.883114
1380.000000	64.004146
1379.000000	64.100946
1378.000000	64.212173
1377.000000	64.337684
1376.000000	64.442515
1375.000000	64.515564
1374.000000	64.601326
1373.000000	64.682695
1372.000000	64.752890
1371.000000	64.839467
1370.000000	64.912392
1369.000000	64.974777
1368.000000	65.040262
1367.000000	65.104409
1366.000000	65.154459
1365.000000	65.219149
1364.000000	65.300480
1363.000000	65.377204
1362.000000	65.443944
1361.000000	65.515420
1360.000000	65.588048
1359.000000	65.650287
1358.000000	65.720140
1357.000000	65.787992
1356.000000	65.853993
1355.000000	65.946034
1354.000000	66.026842
1353.000000	66.094360
1352.000000	66.155667
1351.000000	66.213035
1350.000000	66.304431
1349.000000	66.398973
1348.000000	66.447212
1347.000000	66.508043
1346.000000	66.601756
1345.000000	66.669021
1344.000000	66.722320
1343.000000	66.804825
1342.000000	66.872620
1341.000000	66.924926
1340.000000	66.988801
1339.000000	67.044351
1338.000000	67.127184
1337.000000	67.188109
1336.000000	67.235237
1335.000000	67.290081
1334.000000	67.337184
1333.000000	67.392065
1332.000000	67.450913
1331.000000	67.507608
1330.000000	67.541629
1329.000000	67.600495
1328.000000	67.666248
1327.000000	67.717041
1326.000000	67.746645
1325.000000	67.744314
1324.000000	67.792903
1323.000000	67.790667
1322.000000	67.799002
1321.000000	67.862721
1320.000000	67.909779
1319.000000	67.942789
1318.000000	67.939564
1317.000000	67.948461
1316.000000	67.968779
1315.000000	68.003996
1314.000000	68.042707
1313.000000	68.058533
1312.000000	68.064842
1311.000000	68.077625
1310.000000	68.123930
1309.000000	68.152189
1308.000000	68.141534
1307.000000	68.169251
1306.000000	68.168431
1305.000000	68.216153
1304.000000	68.226690
1303.000000	68.239019
1302.000000	68.229943
1301.000000	68.269923
1300.000000	68.278140
1299.000000	68.280657
1298.000000	68.276527
1297.000000	68.289242
1296.000000	68.291442
1295.000000	68.294472
1294.000000	68.297002
1293.000000	68.294226
1292.000000	68.305553
1291.000000	68.290901
1290.000000	68.291829
1289.000000	68.280954
1288.000000	68.304323
1287.000000	68.280252
1286.000000	68.274337
1285.000000	68.257358
1284.000000	68.245527
1283.000000	68.264187
1282.000000	68.261346
1281.000000	68.273141
1280.000000	68.254365
1279.000000	68.244572
1278.000000	68.248037
1277.000000	68.261077
1276.000000	68.256758
1275.000000	68.257003
1274.000000	68.254810
1273.000000	68.271135
1272.000000	68.262870
1271.000000	68.233668
1270.000000	68.265421
1269.000000	68.252564
1268.000000	68.257439
1267.000000	68.262121
1266.000000	68.265044
1265.000000	68.305460
1264.000000	68.311333
1263.000000	68.321239
1262.000000	68.333184
1261.000000	68.338788
1260.000000	68.346624
1259.000000	68.349946
1258.000000	68.335471
1257.000000	68.333137
1256.000000	68.382931
1255.000000	68.370467
1254.000000	68.376996
1253.000000	68.357453
1252.000000	68.364322
1251.000000	68.376616
1250.000000	68.358404
1249.000000	68.353473
1248.000000	68.360336
1247.000000	68.348921
1246.000000	68.334181
1245.000000	68.332872
1244.000000	68.313834
1243.000000	68.298916
1242.000000	68.275029
1241.000000	68.260712
1240.000000	68.235798
1239.000000	68.221515
1238.000000	68.190451
1237.000000	68.164419
1236.000000	68.137579
1235.000000	68.111374
1234.000000	68.086109
1233.000000	68.044776
1232.000000	68.024334
1231.000000	67.993447
1230.000000	67.969741
1229.000000	67.923738
1228.000000	67.892872
1227.000000	67.887056
1226.000000	67.853482
1225.000000	67.808491
1224.000000	67.799786
1223.000000	67.767833
1222.000000	67.724252
1221.000000	67.693922
1220.000000	67.643121
1219.000000	67.620080
1218.000000	67.585239
1217.000000	67.551533
1216.000000	67.516655
1215.000000	67.474265
1214.000000	67.457167
1213.000000	67.414322
1212.000000	67.399500
1211.000000	67.363641
1210.000000	67.328431
1209.000000	67.275714
1208.000000	67.270829
1207.000000	67.229665
1206.000000	67.179618
1205.000000	67.166004
1204.000000	67.137805
1203.000000	67.090402
1202.000000	67.051822
1201.000000	67.037014
1200.000000	67.010925
1199.000000	66.958967
1198.000000	66.923054
1197.000000	66.904300
1196.000000	66.892108
1195.000000	66.876024
1194.000000	66.864695
1193.000000	66.829613
1192.000000	66.806632
1191.000000	66.811604
1190.000000	66.796032
1189.000000	66.756879
1188.000000	66.758448
1187.000000	66.749995
1186.000000	66.743461
1185.000000	66.760334
1184.000000	66.777069
1183.000000	66.798481
1182.000000	66.837836
1181.000000	66.866882
1180.000000	66.898153
1179.000000	66.931221
1178.000000	66.970240
1177.000000	67.012131
1176.000000	67.056703
1175.000000	67.121098
1174.000000	67.176069
1173.000000	67.244708
1172.000000	67.308043
1171.000000	67.366380
1170.000000	67.445105
1169.000000	67.516408
1168.000000	67.599516
1167.000000	67.674169
1166.000000	67.740027
1165.000000	67.822259
1164.000000	67.916368
1163.000000	68.003473
1162.000000	68.078057
1161.000000	68.151686
1160.000000	68.220729
1159.000000	68.292048
1158.000000	68.377294
1157.000000	68.452639
1156.000000	68.521696
1155.000000	68.599983
1154.000000	68.673478
1153.000000	68.737369
1152.000000	68.802611
1151.000000	68.874533
1150.000000	68.949761
1149.000000	69.012812
1148.000000	69.056646
1147.000000	69.115664
1146.000000	69.177009
1145.000000	69.215288
1144.000000	69.272585
1143.000000	69.332497
1142.000000	69.362541
1141.000000	69.401009
1140.000000	69.452743
1139.000000	69.491783
1138.000000	69.544368
1137.000000	69.598659
1136.000000	69.659609
1135.000000	69.698777
1134.000000	69.732018
1133.000000	69.769571
1132.000000	69.791647
1131.000000	69.831782
1130.000000	69.856817
1129.000000	69.870251
1128.000000	69.904565
1127.000000	69.937982
1126.000000	69.968912
1125.000000	70.003940
1124.000000	70.029689
1123.000000	70.026770
1122.000000	70.039882
1121.000000	70.063499
1120.000000	70.070624
1119.000000	70.097015
1118.000000	70.111651
1117.000000	70.109545
1116.000000	70.124302
1115.000000	70.120787
1114.000000	70.129123
1113.000000	70.159255
1112.000000	70.139458
1111.000000	70.130327
1110.000000	70.139172
1109.000000	70.151177
1108.000000	70.177355
1107.000000	70.178798
1106.000000	70.191605
1105.000000	70.186109
1104.000000	70.183245
1103.000000	70.182738
1102.000000	70.194619
1101.000000	70.180847
1100.000000	70.186031
1099.000000	70.188151
1098.000000	70.195316
1097.000000	70.190804
1096.000000	70.210733
1095.000000	70.216144
1094.000000	70.210630
1093.000000	70.198287
1092.000000	70.179685
1091.000000	70.190123
1090.000000	70.173949
1089.000000	70.214987
1088.000000	70.186591
1087.000000	70.189736
1086.000000	70.177046
1085.000000	70.183254
1084.000000	70.165111
1083.000000	70.173117
1082.000000	70.187945
1081.000000	70.158627
1080.000000	70.148832
1079.000000	70.140908
1078.000000	70.138990
1077.000000	70.150276
1076.000000	70.152476
1075.000000	70.144159
1074.000000	70.120008
1073.000000	70.127882
1072.000000	70.124750
1071.000000	70.100441
1070.000000	70.113257
1069.000000	70.116401
1068.000000	70.087325
1067.000000	70.084839
1066.000000	70.083578
1065.000000	70.083963
1064.000000	70.040593
1063.000000	70.055699
1062.000000	70.037127
1061.000000	70.032250
1060.000000	70.009962
1059.000000	70.019843
1058.000000	70.017908
1057.000000	70.039775
1056.000000	70.010705
1055.000000	69.996026
1054.000000	69.991806
1053.000000	69.988268
1052.000000	69.977713
1051.000000	69.960652
1050.000000	69.960581
1049.000000	69.963261
1048.000000	69.949118
1047.000000	69.930552
1046.000000	69.907741
1045.000000	69.897979
1044.000000	69.906919
1043.000000	69.894580
1042.000000	69.889895
1041.000000	69.886745
1040.000000	69.880882
1039.000000	69.873674
1038.000000	69.870674
1037.000000	69.855864
1036.000000	69.863844
1035.000000	69.860751
1034.000000	69.855156
1033.000000	69.833048
1032.000000	69.838762
1031.000000	69.850247
1030.000000	69.837139
1029.000000	69.816940
1028.000000	69.796177
1027.000000	69.797142
1026.000000	69.792040
1025.000000	69.781883
1024.000000	69.770572
1023.000000	69.784873
1022.000000	69.775796
1021.000000	69.768706
1020.000000	69.786494
1019.000000	69.789653
1018.000000	69.801726
1017.000000	69.800885
1016.000000	69.792918
1015.000000	69.761787
1014.000000	69.773292
1013.000000	69.772738
1012.000000	69.778599
1011.000000	69.766932
1010.000000	69.754239
1009.000000	69.761704
1008.000000	69.766464
1007.000000	69.758658
1006.000000	69.769057
1005.000000	69.760814
1004.000000	69.764328
1003.000000	69.769287
1002.000000	69.748683
1001.000000	69.768259
1000.000000	69.786300
999.000000	69.764361
998.000000	69.764342
997.000000	69.768438
996.000000	69.773892
995.000000	69.761400
994.000000	69.772306
993.000000	69.767424
992.000000	69.782476
991.000000	69.790098
990.000000	69.790044
989.000000	69.771757
988.000000	69.785336
987.000000	69.813874
986.000000	69.807528
985.000000	69.814156
984.000000	69.789516
983.000000	69.780558
982.000000	69.798871
981.000000	69.814393
980.000000	69.808132
979.000000	69.801402
978.000000	69.803673
977.000000	69.814356
976.000000	69.821269
975.000000	69.856230
974.000000	69.858099
973.000000	69.850900
972.000000	69.845608
971.000000	69.853724
970.000000	69.867112
969.000000	69.873400
968.000000	69.879953
967.000000	69.890399
966.000000	69.887108
965.000000	69.909037
964.000000	69.925286
963.000000	69.926654
962.000000	69.933125
961.000000	69.957522
960.000000	69.961752
959.000000	69.966124
958.000000	69.977225
957.000000	69.985207
956.000000	69.961418
955.000000	69.958586
954.000000	69.952540
953.000000	69.958614
952.000000	69.982630
951.000000	69.994014
950.000000	69.993459
949.000000	69.983704
948.000000	69.973099
947.000000	69.964778
946.000000	69.995526
945.000000	70.049605
944.000000	70.031801
943.000000	70.001652
942.000000	69.979448
941.000000	69.965390
940.000000	69.997720
939.000000	69.989615
938.000000	69.950102
937.000000	69.959478
936.000000	69.989270
935.000000	69.986225
934.000000	69.974444
933.000000	69.974616
932.000000	69.967683
931.000000	69.947192
930.000000	69.955452
929.000000	69.971583
928.000000	69.942751
927.000000	69.892840
926.000000	69.901302
925.000000	69.922925
924.000000	69.860900
923.000000	69.855702
922.000000	69.860796
921.000000	69.821647
920.000000	69.818791
919.000000	69.811827
918.000000	69.816021
917.000000	69.839117
916.000000	69.835529
915.000000	69.838917
914.000000	69.833635
913.000000	69.794883
912.000000	69.755603
911.000000	69.736697
910.000000	69.782980
909.000000	69.760162
908.000000	69.781355
907.000000	69.706970
906.000000	69.744656
905.000000	69.777769
904.000000	69.783155
903.000000	69.742523
902.000000	69.740040
901.000000	69.726859
900.000000	69.757482
899.000000	69.770230
898.000000	69.758011
897.000000	69.756604
896.000000	69.809820
895.000000	69.771418
894.000000	69.763587
893.000000	69.751505
892.000000	69.726983
891.000000	69.731705
890.000000	69.798904
889.000000	69.813358
888.000000	69.822406
887.000000	69.787565
886.000000	69.748461
885.000000	69.824836
884.000000	69.847159
883.000000	69.789019
882.000000	69.747250
881.000000	69.775720
880.000000	69.824660
879.000000	69.640612
878.000000	69.766443
877.000000	69.800713
876.000000	69.856022
875.000000	69.789546
874.000000	69.782980
873.000000	69.752271
872.000000	69.636542
871.000000	69.693146
870.000000	69.673447
869.000000	69.698590
868.000000	69.616568
867.000000	69.602293
866.000000	69.640709
865.000000	69.673334
864.000000	69.499166
863.000000	69.702813
862.000000	69.466224
861.000000	69.552369
860.000000	69.456527
859.000000	68.573281
858.000000	68.359808
857.000000	68.626211
856.000000	68.410112
855.000000	68.860471
854.000000	68.829495
853.000000	68.756681
852.000000	68.520928
851.000000	68.725484
850.000000	68.725601
849.000000	68.621115
848.000000	68.454629
847.000000	68.555412
846.000000	68.288368
845.000000	68.313219
844.000000	68.266577
843.000000	68.284522
842.000000	68.383719
841.000000	68.431310
840.000000	68.409353
839.000000	68.278548
838.000000	68.497729
837.000000	68.027143
836.000000	68.150839
835.000000	68.080280
834.000000	68.447970
833.000000	67.983731
832.000000	68.366243
831.000000	68.193923
830.000000	68.291434
829.000000	68.168763
828.000000	68.183118
827.000000	68.082760
826.000000	67.994469
825.000000	68.112898
824.000000	68.066452
823.000000	67.895122
822.000000	68.125719
821.000000	67.945260
820.000000	68.009206
819.000000	68.059864
818.000000	67.979883
817.000000	68.107642
816.000000	68.126368
815.000000	67.909243
814.000000	68.088636
813.000000	67.899924
812.000000	67.790694
811.000000	67.924143
810.000000	67.784284
809.000000	67.746470
808.000000	67.924571
807.000000	67.667895
806.000000	67.805211
805.000000	67.809964
804.000000	67.867873
803.000000	67.795746
802.000000	67.733678
801.000000	67.672521
800.000000	67.728487
799.000000	67.609233
798.000000	67.729148
797.000000	67.755009
796.000000	67.574915
795.000000	67.583137
794.000000	67.625407
793.000000	67.606481
792.000000	67.613870
791.000000	67.559244
790.000000	67.406163
789.000000	67.496186
788.000000	67.543630
787.000000	67.400835
786.000000	67.366725
785.000000	67.345986
784.000000	67.303815
783.000000	67.264022
782.000000	67.225713
781.000000	67.337775
780.000000	67.370112
779.000000	67.329123
778.000000	67.214171
777.000000	67.300008
776.000000	67.166019
775.000000	67.270339
774.000000	67.168547
773.000000	67.036537
772.000000	67.000333
771.000000	67.018768
770.000000	67.034599
769.000000	67.141431
768.000000	66.970972
767.000000	66.911742
766.000000	66.801144
765.000000	66.866897
764.000000	66.868722
763.000000	66.962702
762.000000	66.852488
761.000000	66.762670
760.000000	66.811619
759.000000	66.784654
758.000000	66.722778
757.000000	66.685083
756.000000	66.662409
755.000000	66.538646
754.000000	66.525071
753.000000	66.610628
752.000000	66.491353
751.000000	66.541474
750.000000	66.388320
749.000000	66.375110
748.000000	66.289205
747.000000	66.294516
746.000000	66.177757
745.000000	66.158921
744.000000	66.246268
743.000000	66.253058
742.000000	66.210960
741.000000	66.061024
740.000000	66.063273
739.000000	65.991481
738.000000	65.988740
737.000000	66.003519
736.000000	65.998428
735.000000	65.902692
734.000000	65.770769
733.000000	65.741505
732.000000	65.764625
731.000000	65.730765
730.000000	65.693650
729.000000	65.663750
728.000000	65.586785
727.000000	65.556676
726.000000	65.526679
725.000000	65.480594
724.000000	65.443181
723.000000	65.370573
722.000000	65.299118
721.000000	65.333450
720.000000	65.281776
719.000000	65.122994
718.000000	65.133966
717.000000	65.182427
716.000000	65.082733
715.000000	65.017374
714.000000	64.945804
713.000000	64.859027
712.000000	64.811581
711.000000	64.836618
710.000000	64.773731
709.000000	64.682006
708.000000	64.634006
707.000000	64.570336
706.000000	64.520520
705.000000	64.506015
704.000000	64.452075
703.000000	64.326744
702.000000	64.232497
701.000000	64.189516
700.000000	64.193032
699.000000	64.079733
698.000000	64.002108
697.000000	63.946371
696.000000	63.901860
695.000000	63.879888
694.000000	63.796429
693.000000	63.718391
692.000000	63.674763
691.000000	63.591564
690.000000	63.554651
689.000000	63.488467
688.000000	63.372285
687.000000	63.266389
686.000000	63.169578
685.000000	63.139427
684.000000	63.046449
683.000000	63.013438
682.000000	63.004889
681.000000	62.822678
680.000000	62.769414
679.000000	62.788236
678.000000	62.718604
677.000000	62.645761
676.000000	62.498845
675.000000	62.426481
674.000000	62.356039
673.000000	62.316556
672.000000	62.259247
671.000000	62.161986
670.000000	62.067908
669.000000	61.994076
668.000000	61.901643
667.000000	61.865015
666.000000	61.727862
665.000000	61.675986
664.000000	61.573515
663.000000	61.486066
662.000000	61.434114
661.000000	61.360843
660.000000	61.331297
659.000000	61.255120
658.000000	61.136642
657.000000	61.119172
656.000000	60.967616
655.000000	60.873256
654.000000	60.841100
653.000000	60.744709
652.000000	60.663740
651.000000	60.593716
650.000000	60.536795
649.000000	60.461866
648.000000	60.258917
647.000000	60.227724
646.000000	60.160599
645.000000	60.087453
644.000000	60.007818
643.000000	59.920527
642.000000	59.876442
641.000000	59.761802
640.000000	59.661127
639.000000	59.646240
638.000000	59.510016
637.000000	59.467116
636.000000	59.425514
635.000000	59.329228
634.000000	59.263453
633.000000	59.209047
632.000000	59.085643
631.000000	58.966851
630.000000	58.924136
629.000000	58.799847
628.000000	58.669075
627.000000	58.600049
626.000000	58.534534
625.000000	58.476627
624.000000	58.401665
623.000000	58.272896
622.000000	58.144263
621.000000	58.101360
620.000000	57.927208
619.000000	57.884898
618.000000	57.753934
617.000000	57.679356
616.000000	57.568747
615.000000	57.462798
614.000000	57.330737
613.000000	57.301403
612.000000	57.162178
611.000000	57.031389
610.000000	56.925458
609.000000	56.818430
608.000000	56.757449
607.000000	56.582623
606.000000	56.432788
605.000000	56.325337
604.000000	56.225569
603.000000	56.124936
602.000000	55.997298
601.000000	55.858626
600.000000	55.822836
599.000000	55.637181
598.000000	55.547426
597.000000	55.430516
596.000000	55.253145
595.000000	55.116215
594.000000	55.030208
593.000000	54.968524
592.000000	54.812263
591.000000	54.668296
590.000000	54.521325
589.000000	54.371034
588.000000	54.305924
587.000000	54.188090
586.000000	53.996614
585.000000	53.918508
584.000000	53.823276
583.000000	53.579170
582.000000	53.469710
581.000000	53.344446
580.000000	53.202260
579.000000	53.089039
578.000000	52.926010
577.000000	52.828872
576.000000	52.648666
575.000000	52.556647
574.000000	52.400986
573.000000	52.363047
572.000000	52.176806
571.000000	51.996744
570.000000	51.888001
569.000000	51.794310
568.000000	51.574845
567.000000	51.459959
566.000000	51.292369
565.000000	51.163140
564.000000	51.038481
563.000000	50.895132
562.000000	50.732716
561.000000	50.549503
560.000000	50.431739
559.000000	50.280884
558.000000	50.137183
557.000000	50.008095
556.000000	49.890982
555.000000	49.745430
554.000000	49.557856
553.000000	49.427486
552.000000	49.261489
551.000000	49.129302
550.000000	49.012158
549.000000	48.872108
548.000000	48.718431
547.000000	48.530214
546.000000	48.398004
545.000000	48.255385
544.000000	48.099098
543.000000	47.955485
542.000000	47.814570
541.000000	47.692174
540.000000	47.525454
539.000000	47.387228
538.000000	47.219005
537.000000	47.086890
536.000000	46.917779
535.000000	46.809633
534.000000	46.608018
533.000000	46.482328
532.000000	46.346077
531.000000	46.165675
530.000000	45.998840
529.000000	45.878744
528.000000	45.747213
527.000000	45.554009
526.000000	45.412799
525.000000	45.284644
524.000000	45.075887
523.000000	44.897356
522.000000	44.771082
521.000000	44.596520
520.000000	44.429623
519.000000	44.249044
518.000000	44.098487
517.000000	43.927839
516.000000	43.738628
515.000000	43.581028
514.000000	43.433505
513.000000	43.271469
512.000000	43.084132
511.000000	42.931903
510.000000	42.775588
509.000000	42.608793
508.000000	42.430539
507.000000	42.295964
506.000000	42.143467
505.000000	41.995193
504.000000	41.801141
503.000000	41.657113
502.000000	41.505041
501.000000	41.345793
500.000000	41.180982
499.000000	41.036049
498.000000	40.868522
497.000000	40.735159
496.000000	40.571211
495.000000	40.444131
494.000000	40.278731
493.000000	40.108889
492.000000	39.927326
491.000000	39.846487
490.000000	39.697072
489.000000	39.485868
488.000000	39.311678
487.000000	39.191075
486.000000	39.052535
485.000000	38.925131
484.000000	38.806761
483.000000	38.664063
482.000000	38.535491
481.000000	38.336512
480.000000	38.136413
479.000000	37.946397
478.000000	37.783226
477.000000	37.610381
476.000000	37.417817
475.000000	37.216330
474.000000	37.030363
473.000000	36.902591
472.000000	36.738426
471.000000	36.541895
470.000000	36.358824
469.000000	36.188690
468.000000	36.008353
467.000000	35.848491
466.000000	35.676412
465.000000	35.522611
464.000000	35.333338
463.000000	35.121818
462.000000	34.944497
461.000000	34.758672
460.000000	34.580304
459.000000	34.405863
458.000000	34.205171
457.000000	34.006867
456.000000	33.808814
455.000000	33.636271
454.000000	33.505782
453.000000	33.316438
452.000000	33.095499
451.000000	32.892759
450.000000	32.669887
449.000000	32.482289
448.000000	32.274074
447.000000	32.041316
446.000000	31.834894
445.000000	31.635693
444.000000	31.426596
443.000000	31.208738
442.000000	30.977934
441.000000	30.748357
440.000000	30.541447
439.000000	30.330993
438.000000	30.080258
437.000000	29.845459
436.000000	29.648941
435.000000	29.423909
434.000000	29.178752
433.000000	28.991225
432.000000	28.738748
431.000000	28.503483
430.000000	28.313359
429.000000	28.072521
428.000000	27.827198
427.000000	27.614782
426.000000	27.420916
425.000000	27.176357
424.000000	26.911572
423.000000	26.738432
422.000000	26.527985
421.000000	26.300875
420.000000	26.116634
419.000000	25.892528
418.000000	25.672640
417.000000	25.485703
416.000000	25.284694
415.000000	25.084710
414.000000	24.885690
413.000000	24.688841
412.000000	24.498508
411.000000	24.306817
410.000000	24.131021
409.000000	23.956111
408.000000	23.800315
407.000000	23.645101
406.000000	23.438090
405.000000	23.213865
404.000000	23.054299
403.000000	22.894796
402.000000	22.732457
401.000000	22.552407
400.000000	22.378678
399.000000	22.212380
398.000000	22.045033
397.000000	21.847645
396.000000	21.724305
395.000000	21.498200
394.000000	21.306005
393.000000	21.158460
392.000000	21.009114
391.000000	20.838577
390.000000	20.659134
389.000000	20.473910
388.000000	20.301007
387.000000	20.160198
386.000000	19.936675
385.000000	19.767162
384.000000	19.640235
383.000000	19.471271
382.000000	19.250188
381.000000	19.125533
380.000000	18.971373
379.000000	18.781970
378.000000	18.634259
377.000000	18.494337
376.000000	18.330360
375.000000	18.202984
374.000000	17.920968
373.000000	17.857090
372.000000	17.666937
371.000000	17.545720
370.000000	17.388477
369.000000	17.252360
368.000000	17.092043
367.000000	16.887937
366.000000	16.790470
365.000000	16.542787
364.000000	16.428658
363.000000	16.303056
362.000000	16.233669
361.000000	16.059272
360.000000	15.884100
359.000000	15.732662
358.000000	15.652421
357.000000	15.558817
356.000000	15.399588
355.000000	15.245100
354.000000	15.180638
353.000000	15.060425
352.000000	15.014799
351.000000	14.845761
350.000000	14.725139
349.000000	14.646347
348.000000	14.555842
347.000000	14.482138
346.000000	14.334060
345.000000	14.233306
344.000000	14.093703
343.000000	13.931744
342.000000	13.894103
341.000000	13.801315
340.000000	13.686863
339.000000	13.592963
338.000000	13.481651
337.000000	13.360894
336.000000	13.206024
335.000000	13.184411
334.000000	13.108546
333.000000	13.014670
332.000000	12.990959
331.000000	12.835332
330.000000	12.683866
329.000000	12.616362
328.000000	12.594159
327.000000	12.476163
326.000000	12.391193
325.000000	12.321970
324.000000	12.237296
323.000000	12.175120
322.000000	12.063921
321.000000	11.969657
320.000000	12.008267
319.000000	11.861522
318.000000	11.848813
317.000000	11.725813
316.000000	11.726421
315.000000	11.649612
314.000000	11.611812
313.000000	11.540027
312.000000	11.377247
311.000000	11.478614
310.000000	11.413221
309.000000	11.327140
308.000000	11.325824
307.000000	11.244120
306.000000	11.171804
305.000000	11.193239
304.000000	11.212592
303.000000	11.212669
302.000000	11.102574
301.000000	11.138718
300.000000	11.056610
299.000000	11.103026
298.000000	11.091255
297.000000	10.983532
296.000000	10.984778
295.000000	10.923445
294.000000	10.924353
293.000000	10.886358
292.000000	10.772783
291.000000	10.746426
290.000000	10.692581
289.000000	10.692988
288.000000	10.651520
287.000000	10.638817
286.000000	10.619332
285.000000	10.626090
284.000000	10.621308
283.000000	10.687025
282.000000	10.615667
281.000000	10.706965
280.000000	10.719566
279.000000	10.747290
278.000000	10.712051
277.000000	10.778520
276.000000	10.815385
275.000000	10.844797
274.000000	10.883973
273.000000	10.878614
272.000000	10.971766
271.000000	10.897564
270.000000	10.909601
269.000000	10.917931
268.000000	10.968223
267.000000	11.010440
266.000000	10.989243
265.000000	11.005810
264.000000	11.018773
263.000000	11.045765
262.000000	11.163418
261.000000	11.175435
260.000000	11.249982
259.000000	11.344319
258.000000	11.419373
257.000000	11.449768
256.000000	11.516784
255.000000	11.635560
254.000000	11.727853
253.000000	11.794388
252.000000	11.895330
251.000000	12.015183
250.000000	12.180142
249.000000	12.352215
248.000000	12.429901
247.000000	12.470576
246.000000	12.619364
245.000000	12.688294
244.000000	12.736757
243.000000	12.740847
242.000000	12.782641
241.000000	12.748034
240.000000	12.712853
239.000000	12.684502
238.000000	12.593618
237.000000	12.487631
236.000000	12.371625
235.000000	12.314512
234.000000	12.256355
233.000000	12.105851
232.000000	12.033561
231.000000	11.935847
230.000000	11.793911
229.000000	11.656971
228.000000	11.553519
227.000000	11.488800
226.000000	11.425384
225.000000	11.385028
224.000000	11.340472
223.000000	11.348471
222.000000	11.382825
221.000000	11.354252
220.000000	11.391189
219.000000	11.520005
218.000000	11.557100
217.000000	11.628794
216.000000	11.751070
215.000000	11.905093
214.000000	12.060277
213.000000	12.194484
212.000000	12.462268
211.000000	12.650800
210.000000	12.688963
209.000000	13.057119
208.000000	13.441060
207.000000	13.616489
206.000000	13.863373
205.000000	14.218505
204.000000	14.680665
203.000000	15.379618
202.000000	15.940933
201.000000	16.235803
200.000000	16.574896
