PE UV       SUBTECH     SPECTRUM    ASCII       PEDS        4.00        
   -1
RDmshap21.Sample.asc
18/03/12
18:07:35.00
18/03/12
18:07:35.00
Administrator

200.000000
1
Lambda 750
750N8071901
PerkinElmer UV WinLab 6.0.4.0738 / 1.61.00 Lambda 900

0
0
3350/servo 860.8/2
0
0
UV/VIS
1
1
1
CommonBeamDepol,150mm sphere / downward view
0
0
0
0
Program
Program
3350/servo 860.8/2
3350/0.2 860.8/0.2
3350/0.2 860.8/0.2
0
1
 
 
 
0
 
860.8
319.2
860.8
Front
100
on
 
 
0
0
0
 
0
 
 
 
0
 
 
0
0
0
0
0
 
 
 
 
0
0


0
0
#HDR
-1
-1
#GR
nm
%R
1.0
0.0
2350.000000
-1.000000
2151
8
55.858068
9.444281
#DATA
2350.000000	28.803614
2349.000000	28.862738
2348.000000	28.863636
2347.000000	29.593901
2346.000000	28.952001
2345.000000	28.989946
2344.000000	28.921933
2343.000000	28.600865
2342.000000	28.952227
2341.000000	29.327852
2340.000000	28.750216
2339.000000	29.095501
2338.000000	29.534010
2337.000000	29.502206
2336.000000	29.342645
2335.000000	29.603807
2334.000000	29.676411
2333.000000	30.005501
2332.000000	29.960027
2331.000000	29.285664
2330.000000	29.573575
2329.000000	29.414877
2328.000000	29.454781
2327.000000	29.332241
2326.000000	29.253440
2325.000000	29.462480
2324.000000	29.236237
2323.000000	29.347213
2322.000000	29.329497
2321.000000	29.370406
2320.000000	29.212753
2319.000000	29.142588
2318.000000	29.366519
2317.000000	29.154811
2316.000000	29.223726
2315.000000	29.144468
2314.000000	28.923489
2313.000000	28.822991
2312.000000	28.894297
2311.000000	28.880707
2310.000000	28.804804
2309.000000	28.809140
2308.000000	28.789956
2307.000000	28.594553
2306.000000	28.577473
2305.000000	28.548653
2304.000000	28.592746
2303.000000	28.596032
2302.000000	28.528323
2301.000000	28.322720
2300.000000	28.246698
2299.000000	28.131303
2298.000000	28.170706
2297.000000	28.055682
2296.000000	28.049021
2295.000000	27.960668
2294.000000	28.102476
2293.000000	27.906998
2292.000000	27.727241
2291.000000	27.480989
2290.000000	27.548418
2289.000000	27.881824
2288.000000	27.967623
2287.000000	27.901253
2286.000000	27.694188
2285.000000	27.504839
2284.000000	27.386389
2283.000000	27.551016
2282.000000	27.540373
2281.000000	27.625834
2280.000000	27.678750
2279.000000	27.651841
2278.000000	27.655430
2277.000000	27.563513
2276.000000	27.626155
2275.000000	27.743125
2274.000000	27.814011
2273.000000	27.876517
2272.000000	27.849385
2271.000000	27.863973
2270.000000	27.932124
2269.000000	27.907954
2268.000000	27.980546
2267.000000	28.044860
2266.000000	28.277353
2265.000000	28.376685
2264.000000	28.441052
2263.000000	28.455263
2262.000000	28.455729
2261.000000	28.612821
2260.000000	28.775525
2259.000000	28.848184
2258.000000	29.035365
2257.000000	29.159520
2256.000000	29.261339
2255.000000	29.513234
2254.000000	29.711028
2253.000000	29.834579
2252.000000	29.944168
2251.000000	30.198130
2250.000000	30.332813
2249.000000	30.335476
2248.000000	30.490710
2247.000000	30.775411
2246.000000	30.988921
2245.000000	31.158124
2244.000000	31.373911
2243.000000	31.574840
2242.000000	31.723719
2241.000000	31.817700
2240.000000	31.922068
2239.000000	31.990772
2238.000000	32.056561
2237.000000	32.104593
2236.000000	32.138410
2235.000000	32.241741
2234.000000	32.344981
2233.000000	32.441581
2232.000000	32.563703
2231.000000	32.601788
2230.000000	32.728060
2229.000000	32.835881
2228.000000	32.843842
2227.000000	32.801289
2226.000000	32.754923
2225.000000	32.737307
2224.000000	32.819426
2223.000000	32.682741
2222.000000	32.696726
2221.000000	32.774924
2220.000000	32.653494
2219.000000	32.483169
2218.000000	32.403214
2217.000000	32.517609
2216.000000	32.642450
2215.000000	32.618051
2214.000000	32.613256
2213.000000	32.511785
2212.000000	32.374931
2211.000000	32.267820
2210.000000	32.290080
2209.000000	32.268339
2208.000000	32.146562
2207.000000	32.155044
2206.000000	32.133627
2205.000000	32.113120
2204.000000	32.042201
2203.000000	32.027712
2202.000000	31.964076
2201.000000	31.825894
2200.000000	31.714660
2199.000000	31.580699
2198.000000	31.617861
2197.000000	31.575285
2196.000000	31.495676
2195.000000	31.377078
2194.000000	31.367995
2193.000000	31.196930
2192.000000	31.232270
2191.000000	31.339083
2190.000000	31.249370
2189.000000	31.125270
2188.000000	30.880143
2187.000000	30.999013
2186.000000	30.838218
2185.000000	30.850169
2184.000000	30.801318
2183.000000	30.786977
2182.000000	30.783912
2181.000000	30.700244
2180.000000	30.651226
2179.000000	30.613264
2178.000000	30.547181
2177.000000	30.717060
2176.000000	30.815982
2175.000000	30.748462
2174.000000	30.720004
2173.000000	30.756729
2172.000000	30.793567
2171.000000	30.915612
2170.000000	30.986993
2169.000000	31.087549
2168.000000	31.128771
2167.000000	31.218809
2166.000000	31.190812
2165.000000	31.359895
2164.000000	31.303674
2163.000000	31.307142
2162.000000	31.525039
2161.000000	31.867358
2160.000000	31.841707
2159.000000	31.926952
2158.000000	31.783700
2157.000000	31.918506
2156.000000	32.335491
2155.000000	32.324958
2154.000000	32.382320
2153.000000	32.746951
2152.000000	32.668384
2151.000000	32.884210
2150.000000	32.770896
2149.000000	32.920028
2148.000000	33.031368
2147.000000	33.146271
2146.000000	33.096469
2145.000000	33.433692
2144.000000	33.581527
2143.000000	33.615077
2142.000000	33.852337
2141.000000	33.773182
2140.000000	33.886200
2139.000000	34.146327
2138.000000	34.143607
2137.000000	34.169337
2136.000000	34.278166
2135.000000	34.313915
2134.000000	34.527273
2133.000000	34.234476
2132.000000	34.499864
2131.000000	34.634655
2130.000000	34.781406
2129.000000	34.719362
2128.000000	34.612317
2127.000000	34.745268
2126.000000	34.703280
2125.000000	34.895750
2124.000000	35.020690
2123.000000	34.885421
2122.000000	34.941097
2121.000000	35.009391
2120.000000	34.963484
2119.000000	35.141678
2118.000000	35.160428
2117.000000	35.188656
2116.000000	35.201197
2115.000000	35.189589
2114.000000	35.096318
2113.000000	35.160217
2112.000000	35.139299
2111.000000	35.119008
2110.000000	35.146187
2109.000000	35.317465
2108.000000	35.299042
2107.000000	35.247431
2106.000000	35.315121
2105.000000	35.282901
2104.000000	35.379094
2103.000000	35.467145
2102.000000	35.337150
2101.000000	35.349784
2100.000000	35.439288
2099.000000	35.447661
2098.000000	35.300441
2097.000000	35.292618
2096.000000	35.220391
2095.000000	35.262798
2094.000000	35.248349
2093.000000	35.248633
2092.000000	35.273332
2091.000000	35.301302
2090.000000	35.210464
2089.000000	35.202959
2088.000000	35.247951
2087.000000	35.261567
2086.000000	35.218102
2085.000000	35.231687
2084.000000	35.067855
2083.000000	35.035906
2082.000000	34.975070
2081.000000	34.841923
2080.000000	34.718470
2079.000000	34.691187
2078.000000	34.677077
2077.000000	34.590309
2076.000000	34.481817
2075.000000	34.430379
2074.000000	34.407781
2073.000000	34.232536
2072.000000	34.188493
2071.000000	34.016309
2070.000000	33.996852
2069.000000	33.867416
2068.000000	33.806017
2067.000000	33.663059
2066.000000	33.499278
2065.000000	33.406597
2064.000000	33.248642
2063.000000	33.105166
2062.000000	32.985800
2061.000000	32.872280
2060.000000	32.714258
2059.000000	32.521147
2058.000000	32.430197
2057.000000	32.291994
2056.000000	32.232594
2055.000000	32.197512
2054.000000	31.956872
2053.000000	31.814601
2052.000000	31.728966
2051.000000	31.648566
2050.000000	31.531501
2049.000000	31.447315
2048.000000	31.375893
2047.000000	31.312717
2046.000000	31.212774
2045.000000	31.173082
2044.000000	31.145368
2043.000000	31.158798
2042.000000	31.174270
2041.000000	31.214829
2040.000000	31.228594
2039.000000	31.207720
2038.000000	31.196071
2037.000000	31.256143
2036.000000	31.306446
2035.000000	31.382749
2034.000000	31.449849
2033.000000	31.492367
2032.000000	31.589433
2031.000000	31.662205
2030.000000	31.743417
2029.000000	31.812386
2028.000000	31.865772
2027.000000	31.969944
2026.000000	32.068940
2025.000000	32.105590
2024.000000	32.133914
2023.000000	32.218014
2022.000000	32.286426
2021.000000	32.245839
2020.000000	32.253000
2019.000000	32.318800
2018.000000	32.321367
2017.000000	32.331514
2016.000000	32.317286
2015.000000	32.298306
2014.000000	32.294960
2013.000000	32.302033
2012.000000	32.259561
2011.000000	32.185588
2010.000000	32.146743
2009.000000	32.040969
2008.000000	31.982224
2007.000000	31.898605
2006.000000	31.809248
2005.000000	31.772799
2004.000000	31.690715
2003.000000	31.613944
2002.000000	31.542731
2001.000000	31.409527
2000.000000	31.317391
1999.000000	31.242264
1998.000000	31.169032
1997.000000	31.114290
1996.000000	31.005789
1995.000000	30.872982
1994.000000	30.759759
1993.000000	30.700506
1992.000000	30.660160
1991.000000	30.528312
1990.000000	30.396540
1989.000000	30.327972
1988.000000	30.226355
1987.000000	30.120128
1986.000000	30.005213
1985.000000	29.910634
1984.000000	29.871153
1983.000000	29.760338
1982.000000	29.652432
1981.000000	29.548171
1980.000000	29.474254
1979.000000	29.383260
1978.000000	29.302788
1977.000000	29.188651
1976.000000	29.075087
1975.000000	28.989898
1974.000000	28.913338
1973.000000	28.857759
1972.000000	28.750729
1971.000000	28.638934
1970.000000	28.546492
1969.000000	28.467665
1968.000000	28.409722
1967.000000	28.340838
1966.000000	28.271262
1965.000000	28.184398
1964.000000	28.039259
1963.000000	27.987845
1962.000000	27.938563
1961.000000	27.853664
1960.000000	27.774286
1959.000000	27.568726
1958.000000	27.575406
1957.000000	27.535424
1956.000000	27.403009
1955.000000	27.412849
1954.000000	27.381405
1953.000000	27.314187
1952.000000	27.247932
1951.000000	27.234778
1950.000000	27.160217
1949.000000	27.056797
1948.000000	27.072294
1947.000000	27.026855
1946.000000	27.057786
1945.000000	26.986154
1944.000000	27.056330
1943.000000	27.060923
1942.000000	27.094210
1941.000000	27.103328
1940.000000	27.154092
1939.000000	27.204169
1938.000000	27.308078
1937.000000	27.356574
1936.000000	27.413820
1935.000000	27.469064
1934.000000	27.500797
1933.000000	27.629833
1932.000000	27.702202
1931.000000	27.812503
1930.000000	27.972699
1929.000000	28.070779
1928.000000	28.189307
1927.000000	28.384926
1926.000000	28.553926
1925.000000	28.733497
1924.000000	28.998404
1923.000000	29.202948
1922.000000	29.407813
1921.000000	29.537778
1920.000000	29.813373
1919.000000	30.014958
1918.000000	30.363961
1917.000000	30.579279
1916.000000	30.721007
1915.000000	31.055810
1914.000000	31.477447
1913.000000	31.789303
1912.000000	32.106173
1911.000000	32.395862
1910.000000	32.779063
1909.000000	33.060388
1908.000000	33.478700
1907.000000	33.950179
1906.000000	34.297419
1905.000000	34.751953
1904.000000	35.128785
1903.000000	35.580084
1902.000000	36.003931
1901.000000	36.391168
1900.000000	36.875643
1899.000000	37.388205
1898.000000	37.792208
1897.000000	38.241057
1896.000000	38.816067
1895.000000	39.294990
1894.000000	39.698380
1893.000000	40.085812
1892.000000	40.619660
1891.000000	40.896983
1890.000000	41.326448
1889.000000	41.794044
1888.000000	42.223379
1887.000000	42.557469
1886.000000	42.972700
1885.000000	43.317161
1884.000000	43.713763
1883.000000	44.021700
1882.000000	44.363020
1881.000000	44.695291
1880.000000	44.991793
1879.000000	45.277897
1878.000000	45.570271
1877.000000	45.910790
1876.000000	46.157789
1875.000000	46.376331
1874.000000	46.600074
1873.000000	46.810485
1872.000000	46.952956
1871.000000	47.172377
1870.000000	47.365169
1869.000000	47.564990
1868.000000	47.724658
1867.000000	47.773302
1866.000000	47.889863
1865.000000	48.015859
1864.000000	48.080527
1863.000000	48.177117
1862.000000	48.233094
1861.000000	48.301162
1860.000000	48.373142
1859.000000	48.437777
1858.000000	48.506616
1857.000000	48.511436
1856.000000	48.519174
1855.000000	48.574420
1854.000000	48.625435
1853.000000	48.661468
1852.000000	48.632195
1851.000000	48.649177
1850.000000	48.691637
1849.000000	48.671418
1848.000000	48.740454
1847.000000	48.731861
1846.000000	48.673187
1845.000000	48.676412
1844.000000	48.653387
1843.000000	48.647970
1842.000000	48.661689
1841.000000	48.702509
1840.000000	48.634455
1839.000000	48.618734
1838.000000	48.575023
1837.000000	48.493763
1836.000000	48.502372
1835.000000	48.503382
1834.000000	48.407777
1833.000000	48.391804
1832.000000	48.389651
1831.000000	48.315864
1830.000000	48.272056
1829.000000	48.260215
1828.000000	48.233748
1827.000000	48.191741
1826.000000	48.131898
1825.000000	48.095346
1824.000000	48.090501
1823.000000	48.061805
1822.000000	47.997105
1821.000000	47.968108
1820.000000	47.937599
1819.000000	47.894552
1818.000000	47.875432
1817.000000	47.862529
1816.000000	47.822306
1815.000000	47.794268
1814.000000	47.762797
1813.000000	47.731640
1812.000000	47.729836
1811.000000	47.701654
1810.000000	47.632278
1809.000000	47.610804
1808.000000	47.608605
1807.000000	47.553961
1806.000000	47.513516
1805.000000	47.483126
1804.000000	47.448485
1803.000000	47.432687
1802.000000	47.404418
1801.000000	47.381042
1800.000000	47.351429
1799.000000	47.321777
1798.000000	47.286892
1797.000000	47.262428
1796.000000	47.251458
1795.000000	47.234510
1794.000000	47.229320
1793.000000	47.206510
1792.000000	47.177604
1791.000000	47.187993
1790.000000	47.154819
1789.000000	47.107390
1788.000000	47.114626
1787.000000	47.122394
1786.000000	47.098441
1785.000000	47.052721
1784.000000	47.027503
1783.000000	47.023835
1782.000000	46.991616
1781.000000	46.940788
1780.000000	46.937201
1779.000000	46.916358
1778.000000	46.859597
1777.000000	46.807000
1776.000000	46.772208
1775.000000	46.704813
1774.000000	46.645575
1773.000000	46.623987
1772.000000	46.608746
1771.000000	46.545645
1770.000000	46.511682
1769.000000	46.452004
1768.000000	46.404323
1767.000000	46.342819
1766.000000	46.332011
1765.000000	46.299126
1764.000000	46.254667
1763.000000	46.200956
1762.000000	46.162058
1761.000000	46.140274
1760.000000	46.081011
1759.000000	46.024635
1758.000000	45.994677
1757.000000	45.947553
1756.000000	45.901005
1755.000000	45.875745
1754.000000	45.847620
1753.000000	45.816952
1752.000000	45.778266
1751.000000	45.721660
1750.000000	45.662186
1749.000000	45.642582
1748.000000	45.577689
1747.000000	45.553378
1746.000000	45.510944
1745.000000	45.439134
1744.000000	45.368110
1743.000000	45.348991
1742.000000	45.303998
1741.000000	45.280409
1740.000000	45.257108
1739.000000	45.195480
1738.000000	45.158491
1737.000000	45.136754
1736.000000	45.089750
1735.000000	45.088457
1734.000000	45.125580
1733.000000	45.092036
1732.000000	45.051573
1731.000000	45.073541
1730.000000	45.104647
1729.000000	45.100165
1728.000000	45.150280
1727.000000	45.190875
1726.000000	45.257147
1725.000000	45.326516
1724.000000	45.376210
1723.000000	45.440991
1722.000000	45.503740
1721.000000	45.576130
1720.000000	45.650722
1719.000000	45.806720
1718.000000	45.862379
1717.000000	45.905616
1716.000000	46.047122
1715.000000	46.088013
1714.000000	46.122260
1713.000000	46.228808
1712.000000	46.286444
1711.000000	46.352197
1710.000000	46.421278
1709.000000	46.460788
1708.000000	46.495888
1707.000000	46.538926
1706.000000	46.552715
1705.000000	46.612558
1704.000000	46.629935
1703.000000	46.632425
1702.000000	46.677343
1701.000000	46.667639
1700.000000	46.691331
1699.000000	46.689178
1698.000000	46.723545
1697.000000	46.749436
1696.000000	46.793949
1695.000000	46.800434
1694.000000	46.845508
1693.000000	46.894349
1692.000000	46.909916
1691.000000	46.979500
1690.000000	47.039555
1689.000000	47.049692
1688.000000	47.176708
1687.000000	47.267363
1686.000000	47.332345
1685.000000	47.459730
1684.000000	47.553960
1683.000000	47.677976
1682.000000	47.785346
1681.000000	47.953636
1680.000000	48.062793
1679.000000	48.173375
1678.000000	48.337482
1677.000000	48.449015
1676.000000	48.605960
1675.000000	48.738822
1674.000000	48.864601
1673.000000	48.994083
1672.000000	49.124162
1671.000000	49.233231
1670.000000	49.350987
1669.000000	49.479093
1668.000000	49.560463
1667.000000	49.691195
1666.000000	49.765572
1665.000000	49.839588
1664.000000	49.898217
1663.000000	49.974961
1662.000000	50.029793
1661.000000	50.091417
1660.000000	50.139797
1659.000000	50.146556
1658.000000	50.200775
1657.000000	50.265336
1656.000000	50.274299
1655.000000	50.292065
1654.000000	50.317960
1653.000000	50.330234
1652.000000	50.346149
1651.000000	50.343459
1650.000000	50.338344
1649.000000	50.324827
1648.000000	50.308947
1647.000000	50.297257
1646.000000	50.272857
1645.000000	50.282082
1644.000000	50.268244
1643.000000	50.252103
1642.000000	50.236452
1641.000000	50.193374
1640.000000	50.198684
1639.000000	50.155572
1638.000000	50.107172
1637.000000	50.107025
1636.000000	50.083519
1635.000000	50.044870
1634.000000	50.001366
1633.000000	49.953467
1632.000000	49.915782
1631.000000	49.871784
1630.000000	49.859175
1629.000000	49.815106
1628.000000	49.771298
1627.000000	49.753056
1626.000000	49.706499
1625.000000	49.659272
1624.000000	49.623689
1623.000000	49.565091
1622.000000	49.538277
1621.000000	49.488176
1620.000000	49.444935
1619.000000	49.390843
1618.000000	49.330238
1617.000000	49.289397
1616.000000	49.252152
1615.000000	49.218686
1614.000000	49.163821
1613.000000	49.098329
1612.000000	49.035419
1611.000000	48.990323
1610.000000	48.957446
1609.000000	48.906157
1608.000000	48.847400
1607.000000	48.791247
1606.000000	48.729657
1605.000000	48.679448
1604.000000	48.619619
1603.000000	48.553997
1602.000000	48.513252
1601.000000	48.452648
1600.000000	48.389746
1599.000000	48.349806
1598.000000	48.310303
1597.000000	48.254389
1596.000000	48.195550
1595.000000	48.140859
1594.000000	48.093625
1593.000000	48.058790
1592.000000	48.011363
1591.000000	47.956359
1590.000000	47.917602
1589.000000	47.875832
1588.000000	47.822468
1587.000000	47.772981
1586.000000	47.740421
1585.000000	47.703173
1584.000000	47.649379
1583.000000	47.608134
1582.000000	47.576689
1581.000000	47.537880
1580.000000	47.494542
1579.000000	47.441711
1578.000000	47.407802
1577.000000	47.358873
1576.000000	47.306549
1575.000000	47.268541
1574.000000	47.221621
1573.000000	47.185417
1572.000000	47.160110
1571.000000	47.128093
1570.000000	47.080960
1569.000000	47.034332
1568.000000	46.992574
1567.000000	46.943453
1566.000000	46.924885
1565.000000	46.898885
1564.000000	46.852243
1563.000000	46.823251
1562.000000	46.795534
1561.000000	46.759281
1560.000000	46.757853
1559.000000	46.737584
1558.000000	46.704262
1557.000000	46.677033
1556.000000	46.661935
1555.000000	46.655726
1554.000000	46.615622
1553.000000	46.590208
1552.000000	46.556258
1551.000000	46.520002
1550.000000	46.501648
1549.000000	46.446621
1548.000000	46.389012
1547.000000	46.345314
1546.000000	46.283027
1545.000000	46.251680
1544.000000	46.162369
1543.000000	46.108973
1542.000000	46.048277
1541.000000	45.972627
1540.000000	45.905278
1539.000000	45.824859
1538.000000	45.757855
1537.000000	45.672909
1536.000000	45.593420
1535.000000	45.517579
1534.000000	45.454711
1533.000000	45.381817
1532.000000	45.289859
1531.000000	45.234673
1530.000000	45.159154
1529.000000	45.105201
1528.000000	45.030411
1527.000000	44.977748
1526.000000	44.937545
1525.000000	44.892330
1524.000000	44.817167
1523.000000	44.765268
1522.000000	44.708781
1521.000000	44.676844
1520.000000	44.641455
1519.000000	44.598022
1518.000000	44.565494
1517.000000	44.515583
1516.000000	44.513228
1515.000000	44.480089
1514.000000	44.468019
1513.000000	44.426279
1512.000000	44.403440
1511.000000	44.383919
1510.000000	44.368611
1509.000000	44.334921
1508.000000	44.334787
1507.000000	44.303501
1506.000000	44.298200
1505.000000	44.281336
1504.000000	44.263774
1503.000000	44.257425
1502.000000	44.237081
1501.000000	44.228296
1500.000000	44.216532
1499.000000	44.189340
1498.000000	44.208894
1497.000000	44.202017
1496.000000	44.189978
1495.000000	44.197304
1494.000000	44.190114
1493.000000	44.198195
1492.000000	44.194362
1491.000000	44.222978
1490.000000	44.245573
1489.000000	44.251148
1488.000000	44.278602
1487.000000	44.284410
1486.000000	44.278342
1485.000000	44.328198
1484.000000	44.347079
1483.000000	44.383335
1482.000000	44.368224
1481.000000	44.407683
1480.000000	44.427390
1479.000000	44.447105
1478.000000	44.477441
1477.000000	44.474471
1476.000000	44.494257
1475.000000	44.527511
1474.000000	44.553488
1473.000000	44.603095
1472.000000	44.603042
1471.000000	44.634779
1470.000000	44.673655
1469.000000	44.705145
1468.000000	44.728624
1467.000000	44.734548
1466.000000	44.764837
1465.000000	44.806887
1464.000000	44.819205
1463.000000	44.858998
1462.000000	44.881698
1461.000000	44.902534
1460.000000	44.954100
1459.000000	44.975823
1458.000000	45.018371
1457.000000	45.067914
1456.000000	45.116930
1455.000000	45.153300
1454.000000	45.217209
1453.000000	45.259884
1452.000000	45.295822
1451.000000	45.361593
1450.000000	45.416492
1449.000000	45.458228
1448.000000	45.521365
1447.000000	45.596548
1446.000000	45.641657
1445.000000	45.707349
1444.000000	45.778708
1443.000000	45.847951
1442.000000	45.922325
1441.000000	46.013838
1440.000000	46.083474
1439.000000	46.161545
1438.000000	46.241272
1437.000000	46.314101
1436.000000	46.427727
1435.000000	46.512215
1434.000000	46.614661
1433.000000	46.723514
1432.000000	46.824323
1431.000000	46.925702
1430.000000	47.031658
1429.000000	47.152068
1428.000000	47.276121
1427.000000	47.381181
1426.000000	47.497169
1425.000000	47.637202
1424.000000	47.777965
1423.000000	47.907095
1422.000000	48.035133
1421.000000	48.182738
1420.000000	48.327224
1419.000000	48.465706
1418.000000	48.618393
1417.000000	48.785434
1416.000000	48.934216
1415.000000	49.083582
1414.000000	49.244988
1413.000000	49.401378
1412.000000	49.574121
1411.000000	49.741489
1410.000000	49.902947
1409.000000	50.055294
1408.000000	50.208735
1407.000000	50.372473
1406.000000	50.546278
1405.000000	50.712959
1404.000000	50.861440
1403.000000	51.006004
1402.000000	51.171781
1401.000000	51.313517
1400.000000	51.454866
1399.000000	51.616146
1398.000000	51.758715
1397.000000	51.866649
1396.000000	52.008844
1395.000000	52.129754
1394.000000	52.241481
1393.000000	52.372701
1392.000000	52.489965
1391.000000	52.604789
1390.000000	52.718244
1389.000000	52.813156
1388.000000	52.914193
1387.000000	53.014713
1386.000000	53.112457
1385.000000	53.196236
1384.000000	53.264530
1383.000000	53.330794
1382.000000	53.404939
1381.000000	53.481582
1380.000000	53.539612
1379.000000	53.618227
1378.000000	53.672729
1377.000000	53.712467
1376.000000	53.770917
1375.000000	53.815067
1374.000000	53.865151
1373.000000	53.906802
1372.000000	53.951688
1371.000000	53.994068
1370.000000	54.029712
1369.000000	54.074329
1368.000000	54.103242
1367.000000	54.121808
1366.000000	54.159445
1365.000000	54.184010
1364.000000	54.225078
1363.000000	54.268030
1362.000000	54.314874
1361.000000	54.355554
1360.000000	54.374624
1359.000000	54.407676
1358.000000	54.461778
1357.000000	54.493671
1356.000000	54.515449
1355.000000	54.556470
1354.000000	54.617779
1353.000000	54.665610
1352.000000	54.681041
1351.000000	54.724031
1350.000000	54.762171
1349.000000	54.813786
1348.000000	54.836710
1347.000000	54.879918
1346.000000	54.922385
1345.000000	54.939060
1344.000000	54.998896
1343.000000	55.040316
1342.000000	55.056239
1341.000000	55.111164
1340.000000	55.153349
1339.000000	55.174445
1338.000000	55.191705
1337.000000	55.230878
1336.000000	55.262439
1335.000000	55.301711
1334.000000	55.334959
1333.000000	55.363672
1332.000000	55.386285
1331.000000	55.395168
1330.000000	55.428021
1329.000000	55.446463
1328.000000	55.454865
1327.000000	55.491641
1326.000000	55.558952
1325.000000	55.586722
1324.000000	55.612088
1323.000000	55.626885
1322.000000	55.618204
1321.000000	55.614098
1320.000000	55.638423
1319.000000	55.646500
1318.000000	55.675441
1317.000000	55.691399
1316.000000	55.688039
1315.000000	55.674975
1314.000000	55.715865
1313.000000	55.694784
1312.000000	55.709810
1311.000000	55.757052
1310.000000	55.739179
1309.000000	55.731110
1308.000000	55.746027
1307.000000	55.762223
1306.000000	55.742092
1305.000000	55.751028
1304.000000	55.744858
1303.000000	55.762194
1302.000000	55.810064
1301.000000	55.795134
1300.000000	55.779982
1299.000000	55.787849
1298.000000	55.793530
1297.000000	55.778946
1296.000000	55.775931
1295.000000	55.761560
1294.000000	55.784350
1293.000000	55.774351
1292.000000	55.783428
1291.000000	55.785193
1290.000000	55.764614
1289.000000	55.760576
1288.000000	55.748703
1287.000000	55.744352
1286.000000	55.736812
1285.000000	55.720849
1284.000000	55.697948
1283.000000	55.688899
1282.000000	55.696864
1281.000000	55.683419
1280.000000	55.688913
1279.000000	55.678664
1278.000000	55.669674
1277.000000	55.662636
1276.000000	55.674937
1275.000000	55.653496
1274.000000	55.660694
1273.000000	55.649410
1272.000000	55.636946
1271.000000	55.633313
1270.000000	55.654059
1269.000000	55.636148
1268.000000	55.618653
1267.000000	55.620198
1266.000000	55.626076
1265.000000	55.631097
1264.000000	55.643689
1263.000000	55.644824
1262.000000	55.653505
1261.000000	55.625907
1260.000000	55.657763
1259.000000	55.656094
1258.000000	55.665309
1257.000000	55.651270
1256.000000	55.656446
1255.000000	55.656645
1254.000000	55.638702
1253.000000	55.636426
1252.000000	55.628376
1251.000000	55.621296
1250.000000	55.617563
1249.000000	55.631353
1248.000000	55.603669
1247.000000	55.602275
1246.000000	55.612823
1245.000000	55.591660
1244.000000	55.578239
1243.000000	55.576203
1242.000000	55.577669
1241.000000	55.507181
1240.000000	55.511798
1239.000000	55.503327
1238.000000	55.475416
1237.000000	55.415506
1236.000000	55.420153
1235.000000	55.407683
1234.000000	55.397279
1233.000000	55.342917
1232.000000	55.332655
1231.000000	55.329658
1230.000000	55.296476
1229.000000	55.306598
1228.000000	55.274301
1227.000000	55.212723
1226.000000	55.214376
1225.000000	55.196554
1224.000000	55.188499
1223.000000	55.167017
1222.000000	55.138096
1221.000000	55.127846
1220.000000	55.116854
1219.000000	55.102982
1218.000000	55.056946
1217.000000	55.010689
1216.000000	54.986268
1215.000000	54.971079
1214.000000	54.955225
1213.000000	54.954604
1212.000000	54.947032
1211.000000	54.895939
1210.000000	54.890590
1209.000000	54.888343
1208.000000	54.834262
1207.000000	54.813863
1206.000000	54.796280
1205.000000	54.748753
1204.000000	54.721877
1203.000000	54.709424
1202.000000	54.696603
1201.000000	54.655731
1200.000000	54.617439
1199.000000	54.588875
1198.000000	54.587003
1197.000000	54.609700
1196.000000	54.567924
1195.000000	54.535806
1194.000000	54.516387
1193.000000	54.499174
1192.000000	54.473918
1191.000000	54.456885
1190.000000	54.449867
1189.000000	54.407870
1188.000000	54.394584
1187.000000	54.383023
1186.000000	54.373790
1185.000000	54.381082
1184.000000	54.389949
1183.000000	54.388191
1182.000000	54.407478
1181.000000	54.421722
1180.000000	54.439356
1179.000000	54.459985
1178.000000	54.469296
1177.000000	54.478674
1176.000000	54.516809
1175.000000	54.552239
1174.000000	54.579033
1173.000000	54.604430
1172.000000	54.635168
1171.000000	54.670618
1170.000000	54.713441
1169.000000	54.756745
1168.000000	54.791573
1167.000000	54.824981
1166.000000	54.852717
1165.000000	54.885858
1164.000000	54.935516
1163.000000	54.981340
1162.000000	55.010506
1161.000000	55.046003
1160.000000	55.085319
1159.000000	55.131455
1158.000000	55.149588
1157.000000	55.159168
1156.000000	55.206367
1155.000000	55.239507
1154.000000	55.267432
1153.000000	55.315849
1152.000000	55.354366
1151.000000	55.382164
1150.000000	55.415785
1149.000000	55.447661
1148.000000	55.468678
1147.000000	55.498917
1146.000000	55.534944
1145.000000	55.560732
1144.000000	55.546172
1143.000000	55.558254
1142.000000	55.592499
1141.000000	55.603214
1140.000000	55.623977
1139.000000	55.649493
1138.000000	55.669965
1137.000000	55.695156
1136.000000	55.733753
1135.000000	55.757690
1134.000000	55.768115
1133.000000	55.778477
1132.000000	55.751644
1131.000000	55.751351
1130.000000	55.777917
1129.000000	55.793372
1128.000000	55.797021
1127.000000	55.812232
1126.000000	55.821890
1125.000000	55.837568
1124.000000	55.844048
1123.000000	55.845929
1122.000000	55.848462
1121.000000	55.852119
1120.000000	55.846703
1119.000000	55.851117
1118.000000	55.855350
1117.000000	55.848383
1116.000000	55.845584
1115.000000	55.854733
1114.000000	55.858068
1113.000000	55.845993
1112.000000	55.838982
1111.000000	55.818271
1110.000000	55.810084
1109.000000	55.805252
1108.000000	55.813921
1107.000000	55.813083
1106.000000	55.806502
1105.000000	55.805962
1104.000000	55.814752
1103.000000	55.793852
1102.000000	55.792432
1101.000000	55.788951
1100.000000	55.793927
1099.000000	55.778533
1098.000000	55.760665
1097.000000	55.748041
1096.000000	55.745008
1095.000000	55.763452
1094.000000	55.758143
1093.000000	55.753824
1092.000000	55.726725
1091.000000	55.713212
1090.000000	55.703527
1089.000000	55.716525
1088.000000	55.705766
1087.000000	55.689977
1086.000000	55.653765
1085.000000	55.648411
1084.000000	55.662890
1083.000000	55.652331
1082.000000	55.667505
1081.000000	55.645916
1080.000000	55.616773
1079.000000	55.610809
1078.000000	55.612574
1077.000000	55.602333
1076.000000	55.605846
1075.000000	55.573355
1074.000000	55.566951
1073.000000	55.556413
1072.000000	55.553203
1071.000000	55.530189
1070.000000	55.514638
1069.000000	55.510473
1068.000000	55.485594
1067.000000	55.490999
1066.000000	55.456823
1065.000000	55.477305
1064.000000	55.461578
1063.000000	55.456452
1062.000000	55.460411
1061.000000	55.423825
1060.000000	55.424656
1059.000000	55.413740
1058.000000	55.385875
1057.000000	55.393269
1056.000000	55.369128
1055.000000	55.379910
1054.000000	55.353385
1053.000000	55.352041
1052.000000	55.350497
1051.000000	55.320266
1050.000000	55.324971
1049.000000	55.317008
1048.000000	55.272336
1047.000000	55.291202
1046.000000	55.279162
1045.000000	55.252365
1044.000000	55.249303
1043.000000	55.216033
1042.000000	55.229443
1041.000000	55.227609
1040.000000	55.190848
1039.000000	55.187624
1038.000000	55.162333
1037.000000	55.169378
1036.000000	55.151900
1035.000000	55.139901
1034.000000	55.145306
1033.000000	55.130318
1032.000000	55.117296
1031.000000	55.098807
1030.000000	55.124727
1029.000000	55.070977
1028.000000	55.070726
1027.000000	55.042111
1026.000000	55.042929
1025.000000	55.043237
1024.000000	55.015568
1023.000000	54.998402
1022.000000	54.998285
1021.000000	54.974824
1020.000000	54.990403
1019.000000	54.993148
1018.000000	54.976833
1017.000000	54.953926
1016.000000	54.946454
1015.000000	54.924020
1014.000000	54.946510
1013.000000	54.927170
1012.000000	54.914525
1011.000000	54.897019
1010.000000	54.891295
1009.000000	54.893366
1008.000000	54.891641
1007.000000	54.879894
1006.000000	54.857904
1005.000000	54.848170
1004.000000	54.838096
1003.000000	54.831654
1002.000000	54.823418
1001.000000	54.837017
1000.000000	54.812992
999.000000	54.811258
998.000000	54.786338
997.000000	54.799177
996.000000	54.793355
995.000000	54.796571
994.000000	54.769876
993.000000	54.753546
992.000000	54.735266
991.000000	54.730107
990.000000	54.734912
989.000000	54.735145
988.000000	54.726039
987.000000	54.708875
986.000000	54.710714
985.000000	54.715968
984.000000	54.714182
983.000000	54.698847
982.000000	54.700578
981.000000	54.692577
980.000000	54.694104
979.000000	54.687341
978.000000	54.675949
977.000000	54.656643
976.000000	54.668935
975.000000	54.676853
974.000000	54.665376
973.000000	54.656720
972.000000	54.668805
971.000000	54.641783
970.000000	54.650656
969.000000	54.644736
968.000000	54.645749
967.000000	54.647609
966.000000	54.638852
965.000000	54.651751
964.000000	54.650174
963.000000	54.640654
962.000000	54.622910
961.000000	54.618999
960.000000	54.628005
959.000000	54.634578
958.000000	54.618265
957.000000	54.615352
956.000000	54.601067
955.000000	54.591643
954.000000	54.595865
953.000000	54.603154
952.000000	54.587243
951.000000	54.558256
950.000000	54.548692
949.000000	54.566450
948.000000	54.580949
947.000000	54.544629
946.000000	54.522308
945.000000	54.560994
944.000000	54.562125
943.000000	54.537069
942.000000	54.503332
941.000000	54.497594
940.000000	54.526947
939.000000	54.509934
938.000000	54.478265
937.000000	54.475752
936.000000	54.472204
935.000000	54.475212
934.000000	54.470195
933.000000	54.445786
932.000000	54.425713
931.000000	54.440327
930.000000	54.434355
929.000000	54.421381
928.000000	54.387125
927.000000	54.344498
926.000000	54.338126
925.000000	54.358971
924.000000	54.353432
923.000000	54.333065
922.000000	54.350321
921.000000	54.345336
920.000000	54.313144
919.000000	54.273112
918.000000	54.252823
917.000000	54.255711
916.000000	54.242425
915.000000	54.238093
914.000000	54.241566
913.000000	54.226731
912.000000	54.200391
911.000000	54.200399
910.000000	54.192483
909.000000	54.187464
908.000000	54.214130
907.000000	54.187956
906.000000	54.167194
905.000000	54.152742
904.000000	54.149182
903.000000	54.129472
902.000000	54.113560
901.000000	54.134001
900.000000	54.124614
899.000000	54.107872
898.000000	54.081190
897.000000	54.002208
896.000000	54.086631
895.000000	54.054398
894.000000	54.030255
893.000000	54.047276
892.000000	54.030673
891.000000	53.980295
890.000000	53.980022
889.000000	53.985890
888.000000	54.031244
887.000000	54.030317
886.000000	53.955047
885.000000	53.969518
884.000000	53.993882
883.000000	53.946073
882.000000	53.927755
881.000000	53.902983
880.000000	53.929217
879.000000	53.936355
878.000000	53.958164
877.000000	53.957311
876.000000	53.902090
875.000000	53.886880
874.000000	53.914473
873.000000	53.914370
872.000000	53.881719
871.000000	53.828595
870.000000	53.769590
869.000000	53.883850
868.000000	53.703031
867.000000	53.749924
866.000000	53.808073
865.000000	53.716699
864.000000	53.688453
863.000000	53.688084
862.000000	53.718794
861.000000	53.775296
860.000000	53.743154
859.000000	53.533368
858.000000	53.707597
857.000000	53.637965
856.000000	53.874359
855.000000	53.862671
854.000000	53.659861
853.000000	53.826887
852.000000	54.024504
851.000000	53.787110
850.000000	54.033360
849.000000	53.692919
848.000000	53.545232
847.000000	53.639251
846.000000	53.797877
845.000000	53.676808
844.000000	53.839912
843.000000	53.692249
842.000000	53.408828
841.000000	53.740645
840.000000	53.570677
839.000000	53.448561
838.000000	53.379835
837.000000	53.437911
836.000000	53.353152
835.000000	53.538892
834.000000	53.334582
833.000000	53.575284
832.000000	53.532433
831.000000	53.472594
830.000000	53.284325
829.000000	53.449039
828.000000	53.278510
827.000000	53.452243
826.000000	53.435417
825.000000	53.283631
824.000000	53.353533
823.000000	53.140881
822.000000	53.327038
821.000000	53.204340
820.000000	52.992141
819.000000	53.078829
818.000000	53.196861
817.000000	53.019968
816.000000	53.203016
815.000000	53.102108
814.000000	52.979560
813.000000	53.229497
812.000000	53.154025
811.000000	53.164212
810.000000	53.092934
809.000000	52.990507
808.000000	52.872799
807.000000	52.953669
806.000000	52.840128
805.000000	52.959133
804.000000	52.946689
803.000000	52.940143
802.000000	52.863369
801.000000	52.757340
800.000000	52.751983
799.000000	52.886456
798.000000	52.831276
797.000000	52.855064
796.000000	52.727621
795.000000	52.590920
794.000000	52.730322
793.000000	52.647747
792.000000	52.665539
791.000000	52.748509
790.000000	52.635469
789.000000	52.593287
788.000000	52.609755
787.000000	52.655478
786.000000	52.580625
785.000000	52.551294
784.000000	52.488995
783.000000	52.538329
782.000000	52.498654
781.000000	52.461825
780.000000	52.469071
779.000000	52.356164
778.000000	52.340910
777.000000	52.409217
776.000000	52.389972
775.000000	52.296066
774.000000	52.225886
773.000000	52.274098
772.000000	52.273463
771.000000	52.134230
770.000000	52.044273
769.000000	52.176463
768.000000	52.051653
767.000000	52.063389
766.000000	52.039072
765.000000	51.958758
764.000000	51.952179
763.000000	51.941678
762.000000	51.992589
761.000000	51.942529
760.000000	51.832343
759.000000	51.828464
758.000000	51.864037
757.000000	51.764640
756.000000	51.788145
755.000000	51.791005
754.000000	51.724024
753.000000	51.687073
752.000000	51.673655
751.000000	51.630224
750.000000	51.603923
749.000000	51.583551
748.000000	51.512107
747.000000	51.500902
746.000000	51.611261
745.000000	51.531037
744.000000	51.472206
743.000000	51.467793
742.000000	51.417061
741.000000	51.345302
740.000000	51.319495
739.000000	51.313040
738.000000	51.270161
737.000000	51.213541
736.000000	51.133454
735.000000	51.185653
734.000000	51.205905
733.000000	51.128842
732.000000	51.078020
731.000000	50.990460
730.000000	50.947239
729.000000	50.965030
728.000000	50.924860
727.000000	50.882932
726.000000	50.837042
725.000000	50.795907
724.000000	50.828960
723.000000	50.838402
722.000000	50.716816
721.000000	50.672024
720.000000	50.737681
719.000000	50.712625
718.000000	50.650924
717.000000	50.587451
716.000000	50.537408
715.000000	50.510926
714.000000	50.462390
713.000000	50.457683
712.000000	50.394548
711.000000	50.341142
710.000000	50.339873
709.000000	50.330548
708.000000	50.301570
707.000000	50.236251
706.000000	50.158315
705.000000	50.048027
704.000000	50.015282
703.000000	50.014385
702.000000	49.957846
701.000000	49.904144
700.000000	49.861565
699.000000	49.853652
698.000000	49.871661
697.000000	49.791002
696.000000	49.669050
695.000000	49.699480
694.000000	49.700562
693.000000	49.605847
692.000000	49.556567
691.000000	49.533786
690.000000	49.483535
689.000000	49.402178
688.000000	49.366681
687.000000	49.321272
686.000000	49.283030
685.000000	49.265964
684.000000	49.225500
683.000000	49.184406
682.000000	49.115712
681.000000	49.051585
680.000000	49.051227
679.000000	49.019213
678.000000	48.949451
677.000000	48.865294
676.000000	48.849795
675.000000	48.784124
674.000000	48.710061
673.000000	48.660743
672.000000	48.639335
671.000000	48.587151
670.000000	48.517774
669.000000	48.506170
668.000000	48.448300
667.000000	48.393785
666.000000	48.351967
665.000000	48.272528
664.000000	48.219762
663.000000	48.154097
662.000000	48.124746
661.000000	48.106034
660.000000	48.008137
659.000000	47.955189
658.000000	47.954711
657.000000	47.903009
656.000000	47.859072
655.000000	47.801513
654.000000	47.741647
653.000000	47.671998
652.000000	47.625700
651.000000	47.569456
650.000000	47.494682
649.000000	47.509038
648.000000	47.436547
647.000000	47.337044
646.000000	47.319507
645.000000	47.217806
644.000000	47.195382
643.000000	47.145809
642.000000	47.074270
641.000000	47.027699
640.000000	46.971392
639.000000	46.927251
638.000000	46.843944
637.000000	46.819058
636.000000	46.739665
635.000000	46.703889
634.000000	46.590043
633.000000	46.581373
632.000000	46.481827
631.000000	46.431459
630.000000	46.409023
629.000000	46.318803
628.000000	46.301913
627.000000	46.261195
626.000000	46.124232
625.000000	46.064752
624.000000	46.012326
623.000000	45.969882
622.000000	45.908728
621.000000	45.834769
620.000000	45.768641
619.000000	45.667445
618.000000	45.634164
617.000000	45.542252
616.000000	45.507235
615.000000	45.435517
614.000000	45.359507
613.000000	45.298218
612.000000	45.266130
611.000000	45.181301
610.000000	45.097813
609.000000	45.042970
608.000000	44.962358
607.000000	44.884901
606.000000	44.844814
605.000000	44.760368
604.000000	44.718768
603.000000	44.572644
602.000000	44.538631
601.000000	44.488381
600.000000	44.425720
599.000000	44.334857
598.000000	44.281434
597.000000	44.181174
596.000000	44.109237
595.000000	44.074446
594.000000	43.986035
593.000000	43.973081
592.000000	43.801111
591.000000	43.742232
590.000000	43.661969
589.000000	43.577973
588.000000	43.540576
587.000000	43.395320
586.000000	43.345398
585.000000	43.226192
584.000000	43.192024
583.000000	43.111811
582.000000	43.044561
581.000000	42.944764
580.000000	42.870422
579.000000	42.781842
578.000000	42.684641
577.000000	42.606069
576.000000	42.515514
575.000000	42.461762
574.000000	42.377011
573.000000	42.207729
572.000000	42.172991
571.000000	42.120411
570.000000	42.066391
569.000000	41.928580
568.000000	41.825237
567.000000	41.740107
566.000000	41.646658
565.000000	41.565198
564.000000	41.476805
563.000000	41.388710
562.000000	41.283767
561.000000	41.134401
560.000000	41.054460
559.000000	40.957124
558.000000	40.907605
557.000000	40.800113
556.000000	40.685838
555.000000	40.575325
554.000000	40.502443
553.000000	40.379500
552.000000	40.290213
551.000000	40.203492
550.000000	40.054027
549.000000	39.996370
548.000000	39.890631
547.000000	39.801455
546.000000	39.692521
545.000000	39.610272
544.000000	39.519828
543.000000	39.405214
542.000000	39.302841
541.000000	39.212663
540.000000	39.083583
539.000000	39.035550
538.000000	38.903515
537.000000	38.796511
536.000000	38.696680
535.000000	38.617869
534.000000	38.510394
533.000000	38.390618
532.000000	38.296451
531.000000	38.234280
530.000000	38.109929
529.000000	38.019801
528.000000	37.867473
527.000000	37.791411
526.000000	37.708185
525.000000	37.633477
524.000000	37.518743
523.000000	37.394739
522.000000	37.277275
521.000000	37.183443
520.000000	37.095120
519.000000	36.960868
518.000000	36.877603
517.000000	36.765166
516.000000	36.662496
515.000000	36.536529
514.000000	36.430427
513.000000	36.304234
512.000000	36.223755
511.000000	36.098659
510.000000	36.000089
509.000000	35.909227
508.000000	35.776430
507.000000	35.649632
506.000000	35.570421
505.000000	35.414186
504.000000	35.312754
503.000000	35.230519
502.000000	35.100202
501.000000	34.981525
500.000000	34.895709
499.000000	34.800169
498.000000	34.674085
497.000000	34.542400
496.000000	34.458156
495.000000	34.337286
494.000000	34.199741
493.000000	34.111469
492.000000	34.001251
491.000000	33.884444
490.000000	33.780134
489.000000	33.643436
488.000000	33.552655
487.000000	33.443116
486.000000	33.328637
485.000000	33.230254
484.000000	33.119082
483.000000	33.044169
482.000000	32.921717
481.000000	32.814411
480.000000	32.690799
479.000000	32.549747
478.000000	32.424631
477.000000	32.306171
476.000000	32.185762
475.000000	32.062345
474.000000	31.939531
473.000000	31.844092
472.000000	31.714306
471.000000	31.589073
470.000000	31.473502
469.000000	31.334739
468.000000	31.212877
467.000000	31.090914
466.000000	30.967548
465.000000	30.845227
464.000000	30.713000
463.000000	30.595101
462.000000	30.449017
461.000000	30.317791
460.000000	30.201075
459.000000	30.066434
458.000000	29.899443
457.000000	29.755474
456.000000	29.674959
455.000000	29.524116
454.000000	29.360882
453.000000	29.217711
452.000000	29.050690
451.000000	28.960335
450.000000	28.857777
449.000000	28.683453
448.000000	28.519171
447.000000	28.350692
446.000000	28.201942
445.000000	28.031872
444.000000	27.870538
443.000000	27.718619
442.000000	27.579806
441.000000	27.409693
440.000000	27.241562
439.000000	27.072972
438.000000	26.887973
437.000000	26.692731
436.000000	26.528929
435.000000	26.369602
434.000000	26.212177
433.000000	26.047195
432.000000	25.873764
431.000000	25.714216
430.000000	25.540314
429.000000	25.335033
428.000000	25.168363
427.000000	25.003479
426.000000	24.828253
425.000000	24.655753
424.000000	24.473565
423.000000	24.280187
422.000000	24.126567
421.000000	23.950225
420.000000	23.788462
419.000000	23.593116
418.000000	23.427131
417.000000	23.238862
416.000000	23.079970
415.000000	22.902242
414.000000	22.732608
413.000000	22.544192
412.000000	22.362687
411.000000	22.228807
410.000000	22.043702
409.000000	21.874895
408.000000	21.706799
407.000000	21.538477
406.000000	21.405924
405.000000	21.201901
404.000000	21.050785
403.000000	20.881267
402.000000	20.720391
401.000000	20.590729
400.000000	20.399814
399.000000	20.204882
398.000000	20.082953
397.000000	19.945684
396.000000	19.728270
395.000000	19.585998
394.000000	19.419464
393.000000	19.273974
392.000000	19.102704
391.000000	18.978939
390.000000	18.795263
389.000000	18.633723
388.000000	18.487448
387.000000	18.307986
386.000000	18.161625
385.000000	17.978976
384.000000	17.846851
383.000000	17.703778
382.000000	17.562024
381.000000	17.343462
380.000000	17.223189
379.000000	17.034227
378.000000	16.869798
377.000000	16.791001
376.000000	16.627439
375.000000	16.461723
374.000000	16.320915
373.000000	16.137126
372.000000	15.952717
371.000000	15.901088
370.000000	15.771065
369.000000	15.640356
368.000000	15.427300
367.000000	15.317754
366.000000	15.182106
365.000000	15.031128
364.000000	14.938152
363.000000	14.855161
362.000000	14.711234
361.000000	14.527163
360.000000	14.393925
359.000000	14.371546
358.000000	14.219593
357.000000	14.060336
356.000000	13.951426
355.000000	13.861098
354.000000	13.739665
353.000000	13.681335
352.000000	13.527597
351.000000	13.348176
350.000000	13.319846
349.000000	13.232480
348.000000	13.122536
347.000000	13.016327
346.000000	12.912547
345.000000	12.872237
344.000000	12.749554
343.000000	12.692076
342.000000	12.568571
341.000000	12.498276
340.000000	12.233202
339.000000	12.276960
338.000000	12.064086
337.000000	12.058953
336.000000	11.944597
335.000000	11.848036
334.000000	11.814362
333.000000	11.731162
332.000000	11.658139
331.000000	11.619316
330.000000	11.482217
329.000000	11.391914
328.000000	11.309497
327.000000	11.184302
326.000000	11.084282
325.000000	11.078330
324.000000	10.949587
323.000000	10.951892
322.000000	10.846422
321.000000	10.792134
320.000000	10.755693
319.000000	10.778719
318.000000	10.695381
317.000000	10.646774
316.000000	10.563577
315.000000	10.468736
314.000000	10.407507
313.000000	10.489710
312.000000	10.376603
311.000000	10.372563
310.000000	10.334632
309.000000	10.291896
308.000000	10.286608
307.000000	10.177835
306.000000	10.221776
305.000000	10.174491
304.000000	10.114158
303.000000	10.090980
302.000000	10.029275
301.000000	10.105395
300.000000	10.115682
299.000000	9.998542
298.000000	10.003023
297.000000	9.920432
296.000000	9.882177
295.000000	9.890075
294.000000	9.844285
293.000000	9.776941
292.000000	9.724359
291.000000	9.661384
290.000000	9.576433
289.000000	9.520949
288.000000	9.504551
287.000000	9.510484
286.000000	9.482807
285.000000	9.487075
284.000000	9.456562
283.000000	9.444281
282.000000	9.469156
281.000000	9.459716
280.000000	9.470026
279.000000	9.476273
278.000000	9.472798
277.000000	9.524248
276.000000	9.556177
275.000000	9.553539
274.000000	9.635279
273.000000	9.669511
272.000000	9.644333
271.000000	9.640338
270.000000	9.706006
269.000000	9.783902
268.000000	9.765873
267.000000	9.818659
266.000000	9.874279
265.000000	9.910572
264.000000	10.008013
263.000000	10.017577
262.000000	10.097784
261.000000	10.153229
260.000000	10.267322
259.000000	10.324651
258.000000	10.443166
257.000000	10.500167
256.000000	10.607153
255.000000	10.685083
254.000000	10.776929
253.000000	10.876707
252.000000	11.008977
251.000000	11.066896
250.000000	11.186478
249.000000	11.283324
248.000000	11.335764
247.000000	11.431689
246.000000	11.459736
245.000000	11.476202
244.000000	11.510525
243.000000	11.497161
242.000000	11.446755
241.000000	11.376878
240.000000	11.365525
239.000000	11.256202
238.000000	11.121793
237.000000	10.963000
236.000000	10.890541
235.000000	10.820035
234.000000	10.701667
233.000000	10.600169
232.000000	10.496200
231.000000	10.383758
230.000000	10.311796
229.000000	10.229822
228.000000	10.120531
227.000000	10.046468
226.000000	10.017953
225.000000	9.989191
224.000000	9.971153
223.000000	9.929053
222.000000	9.983243
221.000000	10.030912
220.000000	10.056599
219.000000	10.116727
218.000000	10.176490
217.000000	10.215609
216.000000	10.318229
215.000000	10.441774
214.000000	10.499727
213.000000	10.653012
212.000000	10.794630
211.000000	10.937750
210.000000	11.078908
209.000000	11.184679
208.000000	11.448407
207.000000	11.719036
206.000000	12.072764
205.000000	12.381269
204.000000	12.544776
203.000000	12.989705
202.000000	13.323084
201.000000	13.778721
200.000000	14.212873
