PE UV       SUBTECH     SPECTRUM    ASCII       PEDS        4.00        
   -1
RTmshap21.Sample.asc
18/03/12
17:57:55.00
18/03/12
17:57:55.00
Administrator

200.000000
1
Lambda 750
750N8071901
PerkinElmer UV WinLab 6.0.4.0738 / 1.61.00 Lambda 900

0
0
3350/servo 860.8/2
0
0
UV/VIS
1
1
1
CommonBeamDepol,150mm sphere / downward view
0
0
0
0
Program
Program
3350/servo 860.8/2
3350/0.2 860.8/0.2
3350/0.2 860.8/0.2
0
1
 
 
 
0
 
860.8
319.2
860.8
Front
100
on
 
 
0
0
0
 
0
 
 
 
0
 
 
0
0
0
0
0
 
 
 
 
0
0


0
0
#HDR
-1
-1
#GR
nm
%R
1.0
0.0
2350.000000
-1.000000
2151
8
55.442125
9.608044
#DATA
2350.000000	28.718640
2349.000000	28.714497
2348.000000	28.372453
2347.000000	29.365837
2346.000000	29.057363
2345.000000	28.469817
2344.000000	29.042160
2343.000000	28.595646
2342.000000	28.760441
2341.000000	28.755895
2340.000000	28.753830
2339.000000	29.102247
2338.000000	29.341827
2337.000000	29.321004
2336.000000	29.279311
2335.000000	29.446366
2334.000000	29.189273
2333.000000	29.632533
2332.000000	29.512121
2331.000000	29.569088
2330.000000	29.459647
2329.000000	29.509039
2328.000000	29.699814
2327.000000	29.317917
2326.000000	29.062497
2325.000000	29.070560
2324.000000	28.939722
2323.000000	29.071226
2322.000000	29.062004
2321.000000	29.085660
2320.000000	29.193989
2319.000000	28.899393
2318.000000	29.126626
2317.000000	28.986126
2316.000000	28.853476
2315.000000	28.774545
2314.000000	28.670352
2313.000000	28.772670
2312.000000	28.773622
2311.000000	28.729737
2310.000000	28.583839
2309.000000	28.718972
2308.000000	28.533056
2307.000000	28.421096
2306.000000	28.565557
2305.000000	28.468889
2304.000000	28.321824
2303.000000	28.211905
2302.000000	28.215592
2301.000000	28.303839
2300.000000	27.991469
2299.000000	27.846923
2298.000000	28.050388
2297.000000	27.961056
2296.000000	27.927923
2295.000000	27.780246
2294.000000	27.672884
2293.000000	27.715557
2292.000000	27.547588
2291.000000	27.539833
2290.000000	27.586374
2289.000000	27.566778
2288.000000	27.621618
2287.000000	27.585852
2286.000000	27.383717
2285.000000	27.470242
2284.000000	27.428758
2283.000000	27.284638
2282.000000	27.061935
2281.000000	27.122569
2280.000000	27.328082
2279.000000	27.333265
2278.000000	27.393533
2277.000000	27.391243
2276.000000	27.491846
2275.000000	27.582046
2274.000000	27.602458
2273.000000	27.765398
2272.000000	27.722704
2271.000000	27.581383
2270.000000	27.580264
2269.000000	27.609363
2268.000000	27.672026
2267.000000	27.769631
2266.000000	28.024645
2265.000000	28.101396
2264.000000	28.202841
2263.000000	28.277735
2262.000000	28.274575
2261.000000	28.417907
2260.000000	28.501048
2259.000000	28.728023
2258.000000	28.964974
2257.000000	29.069420
2256.000000	29.178622
2255.000000	29.316677
2254.000000	29.501708
2253.000000	29.504422
2252.000000	29.780288
2251.000000	30.204595
2250.000000	30.334025
2249.000000	30.372550
2248.000000	30.429471
2247.000000	30.561487
2246.000000	30.808217
2245.000000	30.996224
2244.000000	31.143377
2243.000000	31.349808
2242.000000	31.519689
2241.000000	31.512556
2240.000000	31.567713
2239.000000	31.663848
2238.000000	31.787185
2237.000000	31.989891
2236.000000	32.156299
2235.000000	32.127741
2234.000000	32.138278
2233.000000	32.213807
2232.000000	32.346166
2231.000000	32.410721
2230.000000	32.350647
2229.000000	32.356379
2228.000000	32.412360
2227.000000	32.490504
2226.000000	32.399337
2225.000000	32.406648
2224.000000	32.491271
2223.000000	32.382755
2222.000000	32.381064
2221.000000	32.434305
2220.000000	32.378293
2219.000000	32.450726
2218.000000	32.409571
2217.000000	32.217347
2216.000000	32.252283
2215.000000	32.295422
2214.000000	32.350135
2213.000000	32.338341
2212.000000	32.241121
2211.000000	32.093796
2210.000000	32.096004
2209.000000	32.034092
2208.000000	31.904694
2207.000000	31.957461
2206.000000	31.879939
2205.000000	31.804084
2204.000000	31.794821
2203.000000	31.703317
2202.000000	31.573215
2201.000000	31.486264
2200.000000	31.466801
2199.000000	31.466949
2198.000000	31.521457
2197.000000	31.259170
2196.000000	31.122614
2195.000000	31.143078
2194.000000	31.104562
2193.000000	30.990952
2192.000000	31.114844
2191.000000	30.979674
2190.000000	30.906007
2189.000000	30.907203
2188.000000	30.748378
2187.000000	30.693612
2186.000000	30.668672
2185.000000	30.627129
2184.000000	30.549466
2183.000000	30.629683
2182.000000	30.486606
2181.000000	30.406165
2180.000000	30.466710
2179.000000	30.561495
2178.000000	30.484973
2177.000000	30.525098
2176.000000	30.684078
2175.000000	30.634088
2174.000000	30.633382
2173.000000	30.634133
2172.000000	30.573787
2171.000000	30.680798
2170.000000	30.713099
2169.000000	30.769841
2168.000000	30.894205
2167.000000	30.760380
2166.000000	31.017695
2165.000000	31.292793
2164.000000	31.287401
2163.000000	31.238182
2162.000000	31.262822
2161.000000	31.484361
2160.000000	31.544844
2159.000000	31.731298
2158.000000	31.717814
2157.000000	31.814241
2156.000000	31.869236
2155.000000	32.069560
2154.000000	32.167945
2153.000000	32.367541
2152.000000	32.396537
2151.000000	32.520442
2150.000000	32.613623
2149.000000	32.671925
2148.000000	32.823412
2147.000000	32.873869
2146.000000	33.036157
2145.000000	33.131812
2144.000000	33.401988
2143.000000	33.389608
2142.000000	33.396286
2141.000000	33.626722
2140.000000	33.624839
2139.000000	33.728809
2138.000000	33.868560
2137.000000	33.945082
2136.000000	34.006361
2135.000000	33.974865
2134.000000	34.100280
2133.000000	34.066778
2132.000000	34.434666
2131.000000	34.405181
2130.000000	34.396657
2129.000000	34.487426
2128.000000	34.546640
2127.000000	34.406525
2126.000000	34.516958
2125.000000	34.532617
2124.000000	34.695981
2123.000000	34.643801
2122.000000	34.701043
2121.000000	34.894262
2120.000000	34.817096
2119.000000	34.859277
2118.000000	34.866431
2117.000000	34.994090
2116.000000	34.868055
2115.000000	35.019299
2114.000000	35.094406
2113.000000	35.029553
2112.000000	35.038714
2111.000000	35.054049
2110.000000	34.958490
2109.000000	35.123041
2108.000000	35.052129
2107.000000	35.120229
2106.000000	34.998027
2105.000000	34.964203
2104.000000	34.945224
2103.000000	35.028576
2102.000000	35.173710
2101.000000	35.068550
2100.000000	35.124019
2099.000000	35.125648
2098.000000	35.103797
2097.000000	35.034412
2096.000000	35.080772
2095.000000	35.058539
2094.000000	35.223250
2093.000000	35.045776
2092.000000	35.030169
2091.000000	35.074241
2090.000000	35.003693
2089.000000	35.023437
2088.000000	34.934034
2087.000000	34.906896
2086.000000	34.897204
2085.000000	34.851352
2084.000000	34.816029
2083.000000	34.731653
2082.000000	34.696744
2081.000000	34.619739
2080.000000	34.547040
2079.000000	34.530006
2078.000000	34.453366
2077.000000	34.394687
2076.000000	34.305251
2075.000000	34.225200
2074.000000	34.188411
2073.000000	34.094168
2072.000000	33.972251
2071.000000	33.865346
2070.000000	33.749443
2069.000000	33.612334
2068.000000	33.447748
2067.000000	33.352114
2066.000000	33.282855
2065.000000	33.159976
2064.000000	33.054078
2063.000000	32.882310
2062.000000	32.757807
2061.000000	32.610928
2060.000000	32.473936
2059.000000	32.344494
2058.000000	32.277967
2057.000000	32.131587
2056.000000	32.076128
2055.000000	31.951781
2054.000000	31.751592
2053.000000	31.677329
2052.000000	31.576038
2051.000000	31.443437
2050.000000	31.349024
2049.000000	31.204031
2048.000000	31.139980
2047.000000	31.120860
2046.000000	31.055268
2045.000000	31.011504
2044.000000	30.970455
2043.000000	30.956316
2042.000000	30.935969
2041.000000	30.939919
2040.000000	30.969555
2039.000000	30.983100
2038.000000	30.982018
2037.000000	30.993483
2036.000000	31.071476
2035.000000	31.156765
2034.000000	31.241860
2033.000000	31.327360
2032.000000	31.384551
2031.000000	31.407337
2030.000000	31.531886
2029.000000	31.659527
2028.000000	31.712886
2027.000000	31.768616
2026.000000	31.846685
2025.000000	31.918444
2024.000000	31.968966
2023.000000	32.052564
2022.000000	32.030634
2021.000000	32.005270
2020.000000	32.074970
2019.000000	32.126579
2018.000000	32.147922
2017.000000	32.143395
2016.000000	32.104709
2015.000000	32.068974
2014.000000	32.084396
2013.000000	32.046104
2012.000000	31.989139
2011.000000	31.959981
2010.000000	31.901147
2009.000000	31.817901
2008.000000	31.771296
2007.000000	31.686337
2006.000000	31.608872
2005.000000	31.569616
2004.000000	31.510352
2003.000000	31.428138
2002.000000	31.324929
2001.000000	31.218360
2000.000000	31.125527
1999.000000	31.044665
1998.000000	30.999220
1997.000000	30.923985
1996.000000	30.799861
1995.000000	30.672165
1994.000000	30.578040
1993.000000	30.500989
1992.000000	30.428312
1991.000000	30.335096
1990.000000	30.245808
1989.000000	30.125040
1988.000000	30.051667
1987.000000	29.966639
1986.000000	29.844991
1985.000000	29.749697
1984.000000	29.695590
1983.000000	29.581371
1982.000000	29.465928
1981.000000	29.403448
1980.000000	29.315827
1979.000000	29.198357
1978.000000	29.077362
1977.000000	28.981633
1976.000000	28.883332
1975.000000	28.819082
1974.000000	28.734731
1973.000000	28.654382
1972.000000	28.569823
1971.000000	28.493265
1970.000000	28.424861
1969.000000	28.327314
1968.000000	28.256516
1967.000000	28.183564
1966.000000	28.086836
1965.000000	27.975195
1964.000000	27.887118
1963.000000	27.792686
1962.000000	27.718553
1961.000000	27.608078
1960.000000	27.549415
1959.000000	27.466625
1958.000000	27.449898
1957.000000	27.368022
1956.000000	27.293463
1955.000000	27.255307
1954.000000	27.199543
1953.000000	27.130207
1952.000000	27.134967
1951.000000	27.077021
1950.000000	27.025649
1949.000000	27.002794
1948.000000	26.971696
1947.000000	26.974702
1946.000000	26.877406
1945.000000	26.962087
1944.000000	26.921576
1943.000000	26.956023
1942.000000	26.922879
1941.000000	26.930823
1940.000000	27.021786
1939.000000	26.997080
1938.000000	27.100827
1937.000000	27.175382
1936.000000	27.229419
1935.000000	27.225598
1934.000000	27.315415
1933.000000	27.463232
1932.000000	27.503438
1931.000000	27.613368
1930.000000	27.784719
1929.000000	27.918553
1928.000000	28.059690
1927.000000	28.227601
1926.000000	28.316757
1925.000000	28.575762
1924.000000	28.812346
1923.000000	28.915920
1922.000000	29.139609
1921.000000	29.340069
1920.000000	29.653530
1919.000000	29.857210
1918.000000	30.139876
1917.000000	30.324431
1916.000000	30.593993
1915.000000	30.913459
1914.000000	31.184322
1913.000000	31.571436
1912.000000	31.891961
1911.000000	32.147981
1910.000000	32.495789
1909.000000	32.811015
1908.000000	33.227756
1907.000000	33.650405
1906.000000	33.940314
1905.000000	34.386848
1904.000000	34.901396
1903.000000	35.290761
1902.000000	35.760433
1901.000000	36.215211
1900.000000	36.651927
1899.000000	37.085948
1898.000000	37.564823
1897.000000	37.990579
1896.000000	38.423485
1895.000000	38.886026
1894.000000	39.343366
1893.000000	39.749414
1892.000000	40.209142
1891.000000	40.639408
1890.000000	41.051734
1889.000000	41.475769
1888.000000	41.837323
1887.000000	42.209717
1886.000000	42.604394
1885.000000	42.984696
1884.000000	43.344632
1883.000000	43.731227
1882.000000	43.993434
1881.000000	44.344503
1880.000000	44.695706
1879.000000	44.966092
1878.000000	45.239223
1877.000000	45.559093
1876.000000	45.830575
1875.000000	46.071581
1874.000000	46.260223
1873.000000	46.495263
1872.000000	46.713043
1871.000000	46.909047
1870.000000	47.035727
1869.000000	47.215022
1868.000000	47.356382
1867.000000	47.451242
1866.000000	47.610737
1865.000000	47.648843
1864.000000	47.734172
1863.000000	47.819559
1862.000000	47.908024
1861.000000	48.014668
1860.000000	48.045168
1859.000000	48.079686
1858.000000	48.141897
1857.000000	48.187032
1856.000000	48.250190
1855.000000	48.277866
1854.000000	48.273247
1853.000000	48.315907
1852.000000	48.345606
1851.000000	48.366136
1850.000000	48.355674
1849.000000	48.360489
1848.000000	48.422870
1847.000000	48.395290
1846.000000	48.401432
1845.000000	48.369495
1844.000000	48.345895
1843.000000	48.345402
1842.000000	48.331157
1841.000000	48.286682
1840.000000	48.252683
1839.000000	48.274300
1838.000000	48.230204
1837.000000	48.164167
1836.000000	48.152275
1835.000000	48.110414
1834.000000	48.049329
1833.000000	48.029064
1832.000000	47.994915
1831.000000	47.935003
1830.000000	47.929305
1829.000000	47.915743
1828.000000	47.889953
1827.000000	47.825938
1826.000000	47.753964
1825.000000	47.728451
1824.000000	47.723385
1823.000000	47.693486
1822.000000	47.647580
1821.000000	47.622687
1820.000000	47.596485
1819.000000	47.545868
1818.000000	47.518658
1817.000000	47.519862
1816.000000	47.468256
1815.000000	47.439979
1814.000000	47.422627
1813.000000	47.379659
1812.000000	47.351518
1811.000000	47.346047
1810.000000	47.331279
1809.000000	47.293796
1808.000000	47.249160
1807.000000	47.214531
1806.000000	47.206855
1805.000000	47.172217
1804.000000	47.119894
1803.000000	47.110344
1802.000000	47.086081
1801.000000	47.051553
1800.000000	47.030602
1799.000000	47.011319
1798.000000	46.994893
1797.000000	46.967257
1796.000000	46.942302
1795.000000	46.925164
1794.000000	46.920736
1793.000000	46.895537
1792.000000	46.868420
1791.000000	46.870259
1790.000000	46.848897
1789.000000	46.806487
1788.000000	46.815194
1787.000000	46.804984
1786.000000	46.764780
1785.000000	46.744438
1784.000000	46.716400
1783.000000	46.674830
1782.000000	46.651320
1781.000000	46.635267
1780.000000	46.611288
1779.000000	46.574912
1778.000000	46.534445
1777.000000	46.488227
1776.000000	46.466281
1775.000000	46.422009
1774.000000	46.378213
1773.000000	46.335644
1772.000000	46.292263
1771.000000	46.225789
1770.000000	46.189166
1769.000000	46.137981
1768.000000	46.092082
1767.000000	46.061307
1766.000000	46.014037
1765.000000	45.978597
1764.000000	45.955640
1763.000000	45.892008
1762.000000	45.844108
1761.000000	45.807239
1760.000000	45.769376
1759.000000	45.717607
1758.000000	45.685866
1757.000000	45.649483
1756.000000	45.602110
1755.000000	45.569843
1754.000000	45.539282
1753.000000	45.508064
1752.000000	45.463992
1751.000000	45.406854
1750.000000	45.376111
1749.000000	45.354170
1748.000000	45.289903
1747.000000	45.255914
1746.000000	45.200145
1745.000000	45.165606
1744.000000	45.109908
1743.000000	45.074667
1742.000000	45.024382
1741.000000	44.979539
1740.000000	44.952853
1739.000000	44.889780
1738.000000	44.876520
1737.000000	44.868531
1736.000000	44.815254
1735.000000	44.790512
1734.000000	44.792556
1733.000000	44.800169
1732.000000	44.770220
1731.000000	44.762588
1730.000000	44.790742
1729.000000	44.790019
1728.000000	44.857791
1727.000000	44.912474
1726.000000	44.962371
1725.000000	45.003924
1724.000000	45.070520
1723.000000	45.117784
1722.000000	45.211654
1721.000000	45.281533
1720.000000	45.371249
1719.000000	45.449447
1718.000000	45.542683
1717.000000	45.582572
1716.000000	45.701280
1715.000000	45.769681
1714.000000	45.832515
1713.000000	45.871036
1712.000000	45.939240
1711.000000	46.032382
1710.000000	46.086980
1709.000000	46.148324
1708.000000	46.176145
1707.000000	46.199987
1706.000000	46.196714
1705.000000	46.288050
1704.000000	46.320994
1703.000000	46.320043
1702.000000	46.336311
1701.000000	46.363380
1700.000000	46.380987
1699.000000	46.379448
1698.000000	46.408754
1697.000000	46.435332
1696.000000	46.458281
1695.000000	46.481773
1694.000000	46.501678
1693.000000	46.549575
1692.000000	46.599385
1691.000000	46.627315
1690.000000	46.688296
1689.000000	46.743261
1688.000000	46.865232
1687.000000	46.929935
1686.000000	47.035269
1685.000000	47.099032
1684.000000	47.227706
1683.000000	47.337654
1682.000000	47.481301
1681.000000	47.607050
1680.000000	47.712874
1679.000000	47.839144
1678.000000	47.987212
1677.000000	48.102890
1676.000000	48.227212
1675.000000	48.377198
1674.000000	48.496950
1673.000000	48.638738
1672.000000	48.762975
1671.000000	48.880163
1670.000000	48.999382
1669.000000	49.159243
1668.000000	49.258165
1667.000000	49.348798
1666.000000	49.423317
1665.000000	49.518662
1664.000000	49.553206
1663.000000	49.601552
1662.000000	49.648104
1661.000000	49.735261
1660.000000	49.806875
1659.000000	49.850409
1658.000000	49.866504
1657.000000	49.893006
1656.000000	49.908769
1655.000000	49.972179
1654.000000	49.969099
1653.000000	49.999191
1652.000000	50.000809
1651.000000	49.992918
1650.000000	49.994637
1649.000000	49.996813
1648.000000	49.976328
1647.000000	49.967219
1646.000000	49.955586
1645.000000	49.923979
1644.000000	49.910316
1643.000000	49.891855
1642.000000	49.892016
1641.000000	49.860445
1640.000000	49.831462
1639.000000	49.796077
1638.000000	49.786718
1637.000000	49.761469
1636.000000	49.721923
1635.000000	49.689550
1634.000000	49.649296
1633.000000	49.608618
1632.000000	49.580226
1631.000000	49.545755
1630.000000	49.523603
1629.000000	49.489835
1628.000000	49.438540
1627.000000	49.398675
1626.000000	49.361357
1625.000000	49.325777
1624.000000	49.276613
1623.000000	49.236645
1622.000000	49.204464
1621.000000	49.148411
1620.000000	49.115456
1619.000000	49.067726
1618.000000	49.006155
1617.000000	48.967347
1616.000000	48.928149
1615.000000	48.882428
1614.000000	48.826962
1613.000000	48.755158
1612.000000	48.710571
1611.000000	48.668193
1610.000000	48.624290
1609.000000	48.565311
1608.000000	48.517955
1607.000000	48.475049
1606.000000	48.409657
1605.000000	48.355618
1604.000000	48.288315
1603.000000	48.223201
1602.000000	48.186449
1601.000000	48.144027
1600.000000	48.087419
1599.000000	48.029901
1598.000000	47.975418
1597.000000	47.923249
1596.000000	47.877784
1595.000000	47.834120
1594.000000	47.768395
1593.000000	47.728514
1592.000000	47.701094
1591.000000	47.645780
1590.000000	47.600236
1589.000000	47.552304
1588.000000	47.499957
1587.000000	47.462870
1586.000000	47.422941
1585.000000	47.385690
1584.000000	47.341466
1583.000000	47.288423
1582.000000	47.247412
1581.000000	47.211863
1580.000000	47.166225
1579.000000	47.122197
1578.000000	47.087431
1577.000000	47.047004
1576.000000	46.998452
1575.000000	46.956704
1574.000000	46.911620
1573.000000	46.875404
1572.000000	46.849719
1571.000000	46.809498
1570.000000	46.760875
1569.000000	46.711421
1568.000000	46.676482
1567.000000	46.651251
1566.000000	46.616620
1565.000000	46.578299
1564.000000	46.544691
1563.000000	46.510358
1562.000000	46.494679
1561.000000	46.473088
1560.000000	46.459358
1559.000000	46.416292
1558.000000	46.401267
1557.000000	46.380004
1556.000000	46.353870
1555.000000	46.337315
1554.000000	46.298515
1553.000000	46.272698
1552.000000	46.228104
1551.000000	46.194687
1550.000000	46.168255
1549.000000	46.121354
1548.000000	46.078819
1547.000000	46.039258
1546.000000	45.984537
1545.000000	45.945954
1544.000000	45.881237
1543.000000	45.806529
1542.000000	45.728528
1541.000000	45.667354
1540.000000	45.612545
1539.000000	45.531198
1538.000000	45.447755
1537.000000	45.360356
1536.000000	45.298388
1535.000000	45.222643
1534.000000	45.151601
1533.000000	45.075559
1532.000000	45.001511
1531.000000	44.934736
1530.000000	44.874681
1529.000000	44.798575
1528.000000	44.728167
1527.000000	44.673847
1526.000000	44.622011
1525.000000	44.582504
1524.000000	44.527238
1523.000000	44.488880
1522.000000	44.424810
1521.000000	44.391447
1520.000000	44.351129
1519.000000	44.319642
1518.000000	44.276478
1517.000000	44.225682
1516.000000	44.197887
1515.000000	44.173239
1514.000000	44.158563
1513.000000	44.129634
1512.000000	44.136617
1511.000000	44.136930
1510.000000	44.146267
1509.000000	44.137557
1508.000000	44.111392
1507.000000	44.072957
1506.000000	44.051362
1505.000000	44.022989
1504.000000	44.004700
1503.000000	43.993310
1502.000000	43.966715
1501.000000	43.946779
1500.000000	43.912642
1499.000000	43.899290
1498.000000	43.899746
1497.000000	43.912289
1496.000000	43.899722
1495.000000	43.894514
1494.000000	43.897762
1493.000000	43.901226
1492.000000	43.913334
1491.000000	43.909171
1490.000000	43.937763
1489.000000	43.960933
1488.000000	43.957465
1487.000000	43.970452
1486.000000	43.979905
1485.000000	44.020631
1484.000000	44.033418
1483.000000	44.067959
1482.000000	44.075054
1481.000000	44.114725
1480.000000	44.122337
1479.000000	44.153688
1478.000000	44.173602
1477.000000	44.190696
1476.000000	44.209894
1475.000000	44.238029
1474.000000	44.259191
1473.000000	44.295315
1472.000000	44.304190
1471.000000	44.322707
1470.000000	44.368303
1469.000000	44.397559
1468.000000	44.407646
1467.000000	44.439842
1466.000000	44.466077
1465.000000	44.516039
1464.000000	44.548456
1463.000000	44.569862
1462.000000	44.595591
1461.000000	44.620380
1460.000000	44.687005
1459.000000	44.719507
1458.000000	44.744400
1457.000000	44.787752
1456.000000	44.855918
1455.000000	44.902076
1454.000000	44.926762
1453.000000	44.968043
1452.000000	45.007843
1451.000000	45.063022
1450.000000	45.141471
1449.000000	45.196499
1448.000000	45.233701
1447.000000	45.303295
1446.000000	45.358649
1445.000000	45.415166
1444.000000	45.463854
1443.000000	45.554593
1442.000000	45.637436
1441.000000	45.712525
1440.000000	45.764961
1439.000000	45.841990
1438.000000	45.922015
1437.000000	46.006905
1436.000000	46.075489
1435.000000	46.164037
1434.000000	46.256274
1433.000000	46.354416
1432.000000	46.445968
1431.000000	46.559262
1430.000000	46.662628
1429.000000	46.786225
1428.000000	46.884313
1427.000000	46.999343
1426.000000	47.122421
1425.000000	47.251426
1424.000000	47.391941
1423.000000	47.528907
1422.000000	47.646367
1421.000000	47.760114
1420.000000	47.898439
1419.000000	48.041657
1418.000000	48.191166
1417.000000	48.346478
1416.000000	48.512278
1415.000000	48.664861
1414.000000	48.808370
1413.000000	48.965147
1412.000000	49.136656
1411.000000	49.301638
1410.000000	49.472733
1409.000000	49.645577
1408.000000	49.793480
1407.000000	49.941655
1406.000000	50.102330
1405.000000	50.266510
1404.000000	50.433916
1403.000000	50.589834
1402.000000	50.742824
1401.000000	50.901275
1400.000000	51.043273
1399.000000	51.201871
1398.000000	51.349676
1397.000000	51.475884
1396.000000	51.608282
1395.000000	51.740304
1394.000000	51.868982
1393.000000	51.992973
1392.000000	52.110784
1391.000000	52.215823
1390.000000	52.324530
1389.000000	52.437345
1388.000000	52.536196
1387.000000	52.637717
1386.000000	52.735516
1385.000000	52.817098
1384.000000	52.914113
1383.000000	53.001303
1382.000000	53.074388
1381.000000	53.144775
1380.000000	53.217528
1379.000000	53.286317
1378.000000	53.329097
1377.000000	53.382590
1376.000000	53.442945
1375.000000	53.475667
1374.000000	53.505705
1373.000000	53.541637
1372.000000	53.589053
1371.000000	53.643703
1370.000000	53.680592
1369.000000	53.709536
1368.000000	53.735052
1367.000000	53.756173
1366.000000	53.792900
1365.000000	53.819816
1364.000000	53.857754
1363.000000	53.891546
1362.000000	53.932205
1361.000000	53.983784
1360.000000	54.016123
1359.000000	54.045572
1358.000000	54.095755
1357.000000	54.150752
1356.000000	54.180453
1355.000000	54.219822
1354.000000	54.273513
1353.000000	54.321483
1352.000000	54.332808
1351.000000	54.376808
1350.000000	54.428815
1349.000000	54.465217
1348.000000	54.473720
1347.000000	54.526296
1346.000000	54.560278
1345.000000	54.595268
1344.000000	54.655351
1343.000000	54.685568
1342.000000	54.720309
1341.000000	54.760555
1340.000000	54.776154
1339.000000	54.796561
1338.000000	54.845168
1337.000000	54.872826
1336.000000	54.877219
1335.000000	54.924843
1334.000000	54.955094
1333.000000	54.997544
1332.000000	55.022395
1331.000000	55.032101
1330.000000	55.056987
1329.000000	55.060449
1328.000000	55.077798
1327.000000	55.112757
1326.000000	55.138416
1325.000000	55.149076
1324.000000	55.170863
1323.000000	55.185458
1322.000000	55.184584
1321.000000	55.221055
1320.000000	55.235909
1319.000000	55.213449
1318.000000	55.231914
1317.000000	55.240759
1316.000000	55.262141
1315.000000	55.263261
1314.000000	55.285581
1313.000000	55.268761
1312.000000	55.305994
1311.000000	55.317509
1310.000000	55.302647
1309.000000	55.329026
1308.000000	55.322812
1307.000000	55.322165
1306.000000	55.324982
1305.000000	55.341454
1304.000000	55.350706
1303.000000	55.349444
1302.000000	55.364988
1301.000000	55.353984
1300.000000	55.351073
1299.000000	55.371497
1298.000000	55.386568
1297.000000	55.371133
1296.000000	55.364060
1295.000000	55.354394
1294.000000	55.376779
1293.000000	55.353195
1292.000000	55.336472
1291.000000	55.358528
1290.000000	55.309945
1289.000000	55.310125
1288.000000	55.304815
1287.000000	55.297447
1286.000000	55.281816
1285.000000	55.272096
1284.000000	55.255848
1283.000000	55.264668
1282.000000	55.279998
1281.000000	55.228778
1280.000000	55.223810
1279.000000	55.231844
1278.000000	55.230021
1277.000000	55.219383
1276.000000	55.223350
1275.000000	55.226524
1274.000000	55.225570
1273.000000	55.224798
1272.000000	55.212752
1271.000000	55.204720
1270.000000	55.197393
1269.000000	55.195709
1268.000000	55.193729
1267.000000	55.204006
1266.000000	55.248388
1265.000000	55.216363
1264.000000	55.235453
1263.000000	55.208318
1262.000000	55.224371
1261.000000	55.197925
1260.000000	55.218526
1259.000000	55.232629
1258.000000	55.224906
1257.000000	55.221059
1256.000000	55.243951
1255.000000	55.228892
1254.000000	55.217453
1253.000000	55.214451
1252.000000	55.241310
1251.000000	55.245486
1250.000000	55.228498
1249.000000	55.226904
1248.000000	55.214865
1247.000000	55.196807
1246.000000	55.188877
1245.000000	55.182209
1244.000000	55.130666
1243.000000	55.119853
1242.000000	55.130182
1241.000000	55.094666
1240.000000	55.096124
1239.000000	55.051794
1238.000000	55.032836
1237.000000	55.004685
1236.000000	55.001968
1235.000000	54.962792
1234.000000	54.952101
1233.000000	54.938455
1232.000000	54.916585
1231.000000	54.867333
1230.000000	54.857450
1229.000000	54.858313
1228.000000	54.835073
1227.000000	54.823605
1226.000000	54.817992
1225.000000	54.764627
1224.000000	54.750779
1223.000000	54.736018
1222.000000	54.715868
1221.000000	54.713236
1220.000000	54.700173
1219.000000	54.683496
1218.000000	54.655735
1217.000000	54.621920
1216.000000	54.603041
1215.000000	54.598595
1214.000000	54.583603
1213.000000	54.559754
1212.000000	54.541938
1211.000000	54.484977
1210.000000	54.479048
1209.000000	54.482764
1208.000000	54.448312
1207.000000	54.434318
1206.000000	54.404981
1205.000000	54.352437
1204.000000	54.318103
1203.000000	54.318441
1202.000000	54.292421
1201.000000	54.247400
1200.000000	54.230109
1199.000000	54.212054
1198.000000	54.194543
1197.000000	54.176842
1196.000000	54.139985
1195.000000	54.103322
1194.000000	54.114794
1193.000000	54.110081
1192.000000	54.078762
1191.000000	54.059207
1190.000000	54.020284
1189.000000	53.963714
1188.000000	53.970855
1187.000000	53.964952
1186.000000	53.953720
1185.000000	53.954987
1184.000000	53.950462
1183.000000	53.944875
1182.000000	53.966670
1181.000000	53.984226
1180.000000	54.000986
1179.000000	54.015993
1178.000000	54.015453
1177.000000	54.038441
1176.000000	54.077111
1175.000000	54.110157
1174.000000	54.141057
1173.000000	54.169437
1172.000000	54.189482
1171.000000	54.214728
1170.000000	54.254938
1169.000000	54.296740
1168.000000	54.331967
1167.000000	54.381958
1166.000000	54.429229
1165.000000	54.456857
1164.000000	54.495634
1163.000000	54.542494
1162.000000	54.568737
1161.000000	54.599598
1160.000000	54.653391
1159.000000	54.698663
1158.000000	54.716872
1157.000000	54.727272
1156.000000	54.763702
1155.000000	54.805405
1154.000000	54.842987
1153.000000	54.886417
1152.000000	54.935840
1151.000000	54.969168
1150.000000	54.990970
1149.000000	55.016606
1148.000000	55.031424
1147.000000	55.063776
1146.000000	55.093945
1145.000000	55.117233
1144.000000	55.134689
1143.000000	55.130807
1142.000000	55.145779
1141.000000	55.177086
1140.000000	55.197396
1139.000000	55.215336
1138.000000	55.243626
1137.000000	55.267466
1136.000000	55.292537
1135.000000	55.315720
1134.000000	55.334964
1133.000000	55.355874
1132.000000	55.362495
1131.000000	55.346933
1130.000000	55.341509
1129.000000	55.363686
1128.000000	55.370641
1127.000000	55.396496
1126.000000	55.402607
1125.000000	55.412771
1124.000000	55.430537
1123.000000	55.442125
1122.000000	55.435154
1121.000000	55.438771
1120.000000	55.441743
1119.000000	55.436013
1118.000000	55.428246
1117.000000	55.422742
1116.000000	55.410541
1115.000000	55.420462
1114.000000	55.434322
1113.000000	55.428700
1112.000000	55.413311
1111.000000	55.402488
1110.000000	55.398200
1109.000000	55.401917
1108.000000	55.410990
1107.000000	55.414580
1106.000000	55.412829
1105.000000	55.388670
1104.000000	55.355741
1103.000000	55.358193
1102.000000	55.345525
1101.000000	55.339662
1100.000000	55.343559
1099.000000	55.337583
1098.000000	55.335105
1097.000000	55.345664
1096.000000	55.344359
1095.000000	55.306565
1094.000000	55.286079
1093.000000	55.293391
1092.000000	55.292179
1091.000000	55.298731
1090.000000	55.290391
1089.000000	55.300206
1088.000000	55.302848
1087.000000	55.255554
1086.000000	55.246200
1085.000000	55.233883
1084.000000	55.228439
1083.000000	55.228842
1082.000000	55.230670
1081.000000	55.193640
1080.000000	55.178108
1079.000000	55.177238
1078.000000	55.170238
1077.000000	55.178070
1076.000000	55.172349
1075.000000	55.155149
1074.000000	55.106631
1073.000000	55.101889
1072.000000	55.105823
1071.000000	55.100392
1070.000000	55.094449
1069.000000	55.081692
1068.000000	55.079272
1067.000000	55.051858
1066.000000	55.023349
1065.000000	55.027797
1064.000000	55.038778
1063.000000	55.009550
1062.000000	55.025447
1061.000000	54.978457
1060.000000	54.954285
1059.000000	54.944683
1058.000000	54.918199
1057.000000	54.945766
1056.000000	54.936971
1055.000000	54.936054
1054.000000	54.895939
1053.000000	54.869940
1052.000000	54.891431
1051.000000	54.860611
1050.000000	54.870531
1049.000000	54.817907
1048.000000	54.800942
1047.000000	54.812531
1046.000000	54.816204
1045.000000	54.784614
1044.000000	54.786728
1043.000000	54.745208
1042.000000	54.769201
1041.000000	54.764254
1040.000000	54.733854
1039.000000	54.733272
1038.000000	54.729393
1037.000000	54.711029
1036.000000	54.701357
1035.000000	54.674300
1034.000000	54.675318
1033.000000	54.668983
1032.000000	54.647739
1031.000000	54.628287
1030.000000	54.647332
1029.000000	54.631712
1028.000000	54.597555
1027.000000	54.589892
1026.000000	54.592120
1025.000000	54.562845
1024.000000	54.564313
1023.000000	54.571725
1022.000000	54.563707
1021.000000	54.550232
1020.000000	54.535833
1019.000000	54.541506
1018.000000	54.525494
1017.000000	54.506646
1016.000000	54.499290
1015.000000	54.484096
1014.000000	54.485382
1013.000000	54.476571
1012.000000	54.469596
1011.000000	54.452663
1010.000000	54.445248
1009.000000	54.439866
1008.000000	54.446420
1007.000000	54.436016
1006.000000	54.433982
1005.000000	54.437473
1004.000000	54.403899
1003.000000	54.407683
1002.000000	54.400102
1001.000000	54.405655
1000.000000	54.390859
999.000000	54.402523
998.000000	54.405205
997.000000	54.411591
996.000000	54.391767
995.000000	54.395712
994.000000	54.386174
993.000000	54.385658
992.000000	54.373623
991.000000	54.362084
990.000000	54.363387
989.000000	54.359765
988.000000	54.358907
987.000000	54.347885
986.000000	54.356281
985.000000	54.365295
984.000000	54.364152
983.000000	54.348021
982.000000	54.347008
981.000000	54.337700
980.000000	54.333784
979.000000	54.332573
978.000000	54.346341
977.000000	54.325644
976.000000	54.323941
975.000000	54.315988
974.000000	54.313797
973.000000	54.309712
972.000000	54.299502
971.000000	54.282004
970.000000	54.282528
969.000000	54.287688
968.000000	54.289127
967.000000	54.284002
966.000000	54.276491
965.000000	54.264829
964.000000	54.260985
963.000000	54.255598
962.000000	54.254725
961.000000	54.264487
960.000000	54.249029
959.000000	54.241102
958.000000	54.239018
957.000000	54.237620
956.000000	54.237087
955.000000	54.231177
954.000000	54.238057
953.000000	54.243723
952.000000	54.226959
951.000000	54.221562
950.000000	54.203120
949.000000	54.188977
948.000000	54.204604
947.000000	54.203162
946.000000	54.192309
945.000000	54.184563
944.000000	54.187816
943.000000	54.184124
942.000000	54.160254
941.000000	54.160054
940.000000	54.158929
939.000000	54.144884
938.000000	54.138848
937.000000	54.140861
936.000000	54.131709
935.000000	54.098865
934.000000	54.086080
933.000000	54.086364
932.000000	54.080224
931.000000	54.059817
930.000000	54.049336
929.000000	54.047521
928.000000	54.031180
927.000000	54.024376
926.000000	54.011725
925.000000	54.008390
924.000000	54.001080
923.000000	53.986033
922.000000	53.978658
921.000000	53.950631
920.000000	53.929097
919.000000	53.920848
918.000000	53.921014
917.000000	53.917373
916.000000	53.900766
915.000000	53.864524
914.000000	53.858408
913.000000	53.853402
912.000000	53.845686
911.000000	53.842589
910.000000	53.841126
909.000000	53.833462
908.000000	53.839175
907.000000	53.822353
906.000000	53.814874
905.000000	53.800938
904.000000	53.787893
903.000000	53.817326
902.000000	53.787625
901.000000	53.775814
900.000000	53.788738
899.000000	53.780188
898.000000	53.770813
897.000000	53.709247
896.000000	53.726744
895.000000	53.725099
894.000000	53.746605
893.000000	53.682640
892.000000	53.687632
891.000000	53.651176
890.000000	53.654374
889.000000	53.710200
888.000000	53.672263
887.000000	53.637940
886.000000	53.624056
885.000000	53.594651
884.000000	53.595726
883.000000	53.591316
882.000000	53.531899
881.000000	53.584775
880.000000	53.568559
879.000000	53.579233
878.000000	53.555498
877.000000	53.557365
876.000000	53.470859
875.000000	53.440375
874.000000	53.501954
873.000000	53.527287
872.000000	53.502129
871.000000	53.435336
870.000000	53.363654
869.000000	53.465746
868.000000	53.429208
867.000000	53.405637
866.000000	53.447582
865.000000	53.406786
864.000000	53.350165
863.000000	53.404640
862.000000	53.355293
861.000000	53.321721
860.000000	53.340267
859.000000	53.522199
858.000000	53.797793
857.000000	52.999829
856.000000	53.487150
855.000000	53.620266
854.000000	53.716568
853.000000	53.614644
852.000000	53.426571
851.000000	53.270156
850.000000	53.322507
849.000000	53.300967
848.000000	53.409557
847.000000	53.407138
846.000000	53.477797
845.000000	53.456605
844.000000	53.421748
843.000000	53.277040
842.000000	53.305129
841.000000	53.375257
840.000000	53.346770
839.000000	53.140170
838.000000	53.205455
837.000000	53.090420
836.000000	53.090552
835.000000	53.173763
834.000000	53.129610
833.000000	53.275378
832.000000	53.032390
831.000000	53.175017
830.000000	53.028533
829.000000	53.115940
828.000000	52.936264
827.000000	52.923209
826.000000	52.969456
825.000000	53.014584
824.000000	52.861957
823.000000	52.992817
822.000000	53.141945
821.000000	52.955325
820.000000	52.788048
819.000000	52.905566
818.000000	52.884025
817.000000	52.857965
816.000000	52.849540
815.000000	52.691690
814.000000	52.722912
813.000000	52.827815
812.000000	52.758857
811.000000	52.698866
810.000000	52.796447
809.000000	52.735089
808.000000	52.589292
807.000000	52.558696
806.000000	52.523887
805.000000	52.628879
804.000000	52.694900
803.000000	52.730475
802.000000	52.538765
801.000000	52.462563
800.000000	52.495174
799.000000	52.467076
798.000000	52.477191
797.000000	52.518827
796.000000	52.356506
795.000000	52.335349
794.000000	52.355786
793.000000	52.257713
792.000000	52.315836
791.000000	52.369456
790.000000	52.269173
789.000000	52.345152
788.000000	52.334258
787.000000	52.339968
786.000000	52.299546
785.000000	52.199735
784.000000	52.231277
783.000000	52.177967
782.000000	52.155401
781.000000	52.111249
780.000000	52.021534
779.000000	52.075330
778.000000	52.076391
777.000000	52.018332
776.000000	51.977522
775.000000	51.978060
774.000000	51.901028
773.000000	51.874826
772.000000	51.926948
771.000000	51.925791
770.000000	51.843380
769.000000	51.799874
768.000000	51.772820
767.000000	51.803026
766.000000	51.737436
765.000000	51.711556
764.000000	51.739918
763.000000	51.607518
762.000000	51.576338
761.000000	51.600951
760.000000	51.532994
759.000000	51.586911
758.000000	51.540308
757.000000	51.390005
756.000000	51.450570
755.000000	51.447008
754.000000	51.421860
753.000000	51.523198
752.000000	51.427117
751.000000	51.339164
750.000000	51.202863
749.000000	51.260443
748.000000	51.293238
747.000000	51.225243
746.000000	51.246688
745.000000	51.168784
744.000000	51.164303
743.000000	51.131266
742.000000	51.122740
741.000000	51.062625
740.000000	51.114756
739.000000	51.042999
738.000000	50.993083
737.000000	50.908330
736.000000	50.854213
735.000000	50.848094
734.000000	50.840392
733.000000	50.803349
732.000000	50.766802
731.000000	50.780374
730.000000	50.738338
729.000000	50.661125
728.000000	50.580245
727.000000	50.544055
726.000000	50.563499
725.000000	50.564989
724.000000	50.516425
723.000000	50.510107
722.000000	50.459435
721.000000	50.412894
720.000000	50.407737
719.000000	50.425324
718.000000	50.362845
717.000000	50.320391
716.000000	50.279663
715.000000	50.202855
714.000000	50.155370
713.000000	50.123708
712.000000	50.090029
711.000000	50.039156
710.000000	50.007181
709.000000	50.001182
708.000000	49.988079
707.000000	49.936420
706.000000	49.876179
705.000000	49.830995
704.000000	49.773775
703.000000	49.732610
702.000000	49.710752
701.000000	49.667916
700.000000	49.639175
699.000000	49.601440
698.000000	49.551589
697.000000	49.468983
696.000000	49.412911
695.000000	49.399462
694.000000	49.370002
693.000000	49.321714
692.000000	49.249350
691.000000	49.226263
690.000000	49.193917
689.000000	49.115793
688.000000	49.052121
687.000000	49.054093
686.000000	49.025563
685.000000	48.991329
684.000000	48.979737
683.000000	48.915864
682.000000	48.790811
681.000000	48.707778
680.000000	48.766531
679.000000	48.762547
678.000000	48.705118
677.000000	48.638280
676.000000	48.594183
675.000000	48.504111
674.000000	48.443474
673.000000	48.400320
672.000000	48.352623
671.000000	48.303765
670.000000	48.264249
669.000000	48.210099
668.000000	48.165273
667.000000	48.126640
666.000000	48.093384
665.000000	48.001838
664.000000	47.984110
663.000000	47.895336
662.000000	47.885429
661.000000	47.883285
660.000000	47.765986
659.000000	47.711950
658.000000	47.692534
657.000000	47.612812
656.000000	47.530505
655.000000	47.545970
654.000000	47.478115
653.000000	47.406781
652.000000	47.372889
651.000000	47.323151
650.000000	47.263394
649.000000	47.260673
648.000000	47.179176
647.000000	47.101357
646.000000	47.068977
645.000000	46.976525
644.000000	46.887444
643.000000	46.893597
642.000000	46.831933
641.000000	46.756874
640.000000	46.690502
639.000000	46.636846
638.000000	46.558491
637.000000	46.563742
636.000000	46.498344
635.000000	46.409744
634.000000	46.352429
633.000000	46.298381
632.000000	46.244183
631.000000	46.173597
630.000000	46.178010
629.000000	46.124206
628.000000	46.072465
627.000000	45.972473
626.000000	45.872802
625.000000	45.876391
624.000000	45.815143
623.000000	45.693869
622.000000	45.649836
621.000000	45.565895
620.000000	45.539874
619.000000	45.427412
618.000000	45.391910
617.000000	45.311124
616.000000	45.265404
615.000000	45.178263
614.000000	45.149443
613.000000	45.092557
612.000000	45.008989
611.000000	44.939585
610.000000	44.880811
609.000000	44.821648
608.000000	44.727739
607.000000	44.658761
606.000000	44.615255
605.000000	44.509297
604.000000	44.454972
603.000000	44.351759
602.000000	44.322827
601.000000	44.265224
600.000000	44.164751
599.000000	44.076627
598.000000	44.071121
597.000000	43.933804
596.000000	43.866163
595.000000	43.852224
594.000000	43.724842
593.000000	43.721627
592.000000	43.566627
591.000000	43.541994
590.000000	43.449389
589.000000	43.314011
588.000000	43.280018
587.000000	43.210629
586.000000	43.097936
585.000000	42.993656
584.000000	42.949125
583.000000	42.892995
582.000000	42.809650
581.000000	42.724625
580.000000	42.647451
579.000000	42.543192
578.000000	42.498492
577.000000	42.397128
576.000000	42.302121
575.000000	42.223134
574.000000	42.102054
573.000000	41.981377
572.000000	41.938769
571.000000	41.891279
570.000000	41.814109
569.000000	41.731896
568.000000	41.580522
567.000000	41.509546
566.000000	41.426386
565.000000	41.345994
564.000000	41.249861
563.000000	41.166134
562.000000	41.061811
561.000000	40.936028
560.000000	40.868094
559.000000	40.752721
558.000000	40.649535
557.000000	40.606652
556.000000	40.498033
555.000000	40.392217
554.000000	40.264652
553.000000	40.191472
552.000000	40.081701
551.000000	40.008368
550.000000	39.872733
549.000000	39.811642
548.000000	39.717057
547.000000	39.577022
546.000000	39.512697
545.000000	39.408012
544.000000	39.317673
543.000000	39.199972
542.000000	39.108465
541.000000	39.032535
540.000000	38.917708
539.000000	38.840788
538.000000	38.750152
537.000000	38.616870
536.000000	38.523335
535.000000	38.427891
534.000000	38.353026
533.000000	38.211616
532.000000	38.104220
531.000000	38.017883
530.000000	37.905364
529.000000	37.815799
528.000000	37.710196
527.000000	37.607055
526.000000	37.501599
525.000000	37.442163
524.000000	37.326492
523.000000	37.199847
522.000000	37.110816
521.000000	36.979174
520.000000	36.872953
519.000000	36.786550
518.000000	36.699942
517.000000	36.566653
516.000000	36.460299
515.000000	36.391327
514.000000	36.269335
513.000000	36.139140
512.000000	36.066563
511.000000	35.922907
510.000000	35.795675
509.000000	35.714332
508.000000	35.604077
507.000000	35.478491
506.000000	35.389118
505.000000	35.243726
504.000000	35.136394
503.000000	35.037190
502.000000	34.910106
501.000000	34.801410
500.000000	34.708290
499.000000	34.585555
498.000000	34.470374
497.000000	34.368541
496.000000	34.273891
495.000000	34.151783
494.000000	34.040699
493.000000	33.925032
492.000000	33.800096
491.000000	33.675981
490.000000	33.597753
489.000000	33.499591
488.000000	33.411338
487.000000	33.270141
486.000000	33.147333
485.000000	33.054633
484.000000	32.969413
483.000000	32.886088
482.000000	32.789426
481.000000	32.694252
480.000000	32.570806
479.000000	32.428151
478.000000	32.272365
477.000000	32.143478
476.000000	32.042579
475.000000	31.941743
474.000000	31.814361
473.000000	31.703726
472.000000	31.565025
471.000000	31.423949
470.000000	31.318451
469.000000	31.208910
468.000000	31.097362
467.000000	30.970477
466.000000	30.818762
465.000000	30.705195
464.000000	30.583081
463.000000	30.456275
462.000000	30.322229
461.000000	30.182660
460.000000	30.056685
459.000000	29.940904
458.000000	29.812098
457.000000	29.670268
456.000000	29.540057
455.000000	29.397070
454.000000	29.262267
453.000000	29.120860
452.000000	28.950989
451.000000	28.824441
450.000000	28.694165
449.000000	28.528854
448.000000	28.397980
447.000000	28.250875
446.000000	28.105910
445.000000	27.938377
444.000000	27.768670
443.000000	27.609423
442.000000	27.457956
441.000000	27.310650
440.000000	27.156978
439.000000	26.990782
438.000000	26.806941
437.000000	26.614277
436.000000	26.460607
435.000000	26.314577
434.000000	26.114598
433.000000	25.938616
432.000000	25.797896
431.000000	25.625088
430.000000	25.454274
429.000000	25.281678
428.000000	25.098087
427.000000	24.952486
426.000000	24.756661
425.000000	24.575753
424.000000	24.415401
423.000000	24.238362
422.000000	24.090698
421.000000	23.920878
420.000000	23.758452
419.000000	23.587791
418.000000	23.405738
417.000000	23.213835
416.000000	23.049044
415.000000	22.861303
414.000000	22.675879
413.000000	22.532330
412.000000	22.349240
411.000000	22.172068
410.000000	22.006492
409.000000	21.862836
408.000000	21.691558
407.000000	21.522114
406.000000	21.366000
405.000000	21.178245
404.000000	21.025337
403.000000	20.856953
402.000000	20.682613
401.000000	20.537210
400.000000	20.383910
399.000000	20.220885
398.000000	20.063394
397.000000	19.896757
396.000000	19.742770
395.000000	19.601912
394.000000	19.411797
393.000000	19.286978
392.000000	19.123844
391.000000	18.974071
390.000000	18.800409
389.000000	18.645876
388.000000	18.484922
387.000000	18.332502
386.000000	18.200174
385.000000	17.983461
384.000000	17.872198
383.000000	17.712102
382.000000	17.546023
381.000000	17.366638
380.000000	17.235813
379.000000	17.103522
378.000000	16.892040
377.000000	16.833300
376.000000	16.718882
375.000000	16.528320
374.000000	16.364215
373.000000	16.204324
372.000000	15.967694
371.000000	15.941321
370.000000	15.811731
369.000000	15.728690
368.000000	15.498772
367.000000	15.372888
366.000000	15.311186
365.000000	15.076899
364.000000	14.983793
363.000000	14.842676
362.000000	14.733301
361.000000	14.643599
360.000000	14.498236
359.000000	14.382999
358.000000	14.232233
357.000000	14.124237
356.000000	14.072041
355.000000	13.938961
354.000000	13.850126
353.000000	13.723740
352.000000	13.598331
351.000000	13.450861
350.000000	13.404051
349.000000	13.258215
348.000000	13.129134
347.000000	13.088505
346.000000	12.968354
345.000000	12.873911
344.000000	12.812337
343.000000	12.731187
342.000000	12.625037
341.000000	12.567506
340.000000	12.361234
339.000000	12.326689
338.000000	12.179285
337.000000	12.140208
336.000000	11.946912
335.000000	11.988853
334.000000	11.921989
333.000000	11.830298
332.000000	11.746167
331.000000	11.744312
330.000000	11.553990
329.000000	11.506443
328.000000	11.365536
327.000000	11.334818
326.000000	11.264918
325.000000	11.138355
324.000000	11.076218
323.000000	11.052466
322.000000	10.914764
321.000000	10.891660
320.000000	10.819796
319.000000	10.809099
318.000000	10.808857
317.000000	10.696782
316.000000	10.692951
315.000000	10.676479
314.000000	10.665652
313.000000	10.591888
312.000000	10.533371
311.000000	10.556284
310.000000	10.379314
309.000000	10.377875
308.000000	10.405670
307.000000	10.357490
306.000000	10.357108
305.000000	10.331888
304.000000	10.272810
303.000000	10.318222
302.000000	10.243395
301.000000	10.244907
300.000000	10.192514
299.000000	10.125873
298.000000	10.155667
297.000000	10.062923
296.000000	10.079397
295.000000	10.014393
294.000000	10.007251
293.000000	9.937370
292.000000	9.953214
291.000000	9.822332
290.000000	9.752010
289.000000	9.731531
288.000000	9.713032
287.000000	9.715244
286.000000	9.682184
285.000000	9.609975
284.000000	9.617442
283.000000	9.623599
282.000000	9.608044
281.000000	9.661162
280.000000	9.697436
279.000000	9.695527
278.000000	9.747093
277.000000	9.778314
276.000000	9.796830
275.000000	9.866967
274.000000	9.890205
273.000000	9.952500
272.000000	9.911723
271.000000	9.961793
270.000000	10.001427
269.000000	10.030522
268.000000	10.069058
267.000000	10.152761
266.000000	10.206499
265.000000	10.229972
264.000000	10.320097
263.000000	10.346289
262.000000	10.470453
261.000000	10.574736
260.000000	10.654204
259.000000	10.701001
258.000000	10.808198
257.000000	10.933619
256.000000	10.997811
255.000000	11.120092
254.000000	11.175777
253.000000	11.320710
252.000000	11.409635
251.000000	11.484009
250.000000	11.583609
249.000000	11.687958
248.000000	11.819630
247.000000	11.894216
246.000000	11.941104
245.000000	11.945824
244.000000	11.893392
243.000000	11.906681
242.000000	11.875992
241.000000	11.836874
240.000000	11.746735
239.000000	11.609805
238.000000	11.483295
237.000000	11.369416
236.000000	11.251195
235.000000	11.131165
234.000000	10.991400
233.000000	10.890732
232.000000	10.823793
231.000000	10.654192
230.000000	10.466120
229.000000	10.365268
228.000000	10.298915
227.000000	10.262868
226.000000	10.250960
225.000000	10.205370
224.000000	10.113499
223.000000	10.080753
222.000000	10.058712
221.000000	10.093374
220.000000	10.185524
219.000000	10.221731
218.000000	10.267766
217.000000	10.339088
216.000000	10.307751
215.000000	10.401187
214.000000	10.577651
213.000000	10.644113
212.000000	10.752889
211.000000	10.939244
210.000000	11.075910
209.000000	11.256626
208.000000	11.550541
207.000000	11.742011
206.000000	11.914567
205.000000	12.172378
204.000000	12.451969
203.000000	12.918832
202.000000	13.442762
201.000000	13.799787
200.000000	14.249141
