PE UV       SUBTECH     SPECTRUM    ASCII       PEDS        4.00        
   -1
TTmshap21.Sample.asc
18/03/12
17:43:38.00
18/03/12
17:43:38.00
Administrator

200.000000
1
Lambda 750
750N8071901
PerkinElmer UV WinLab 6.0.4.0738 / 1.61.00 Lambda 900

0
0
3350/servo 860.8/2
0
0
UV/VIS
1
1
1
CommonBeamDepol,150mm sphere / downward view
0
0
0
0
Program
Program
3350/servo 860.8/2
3350/0.2 860.8/0.2
3350/0.2 860.8/0.2
0
1
 
 
 
0
 
860.8
319.2
860.8
Front
100
on
 
 
0
0
0
 
0
 
 
 
0
 
 
0
0
0
0
0
 
 
 
 
0
0


0
0
#HDR
-1
-1
#GR
nm
%T
1.0
0.0
2350.000000
-1.000000
2151
8
13.701290
0.052499
#DATA
2350.000000	5.926337
2349.000000	5.871006
2348.000000	5.469442
2347.000000	6.340724
2346.000000	5.960286
2345.000000	5.877447
2344.000000	5.478466
2343.000000	5.492257
2342.000000	5.612827
2341.000000	5.772082
2340.000000	5.596508
2339.000000	6.024658
2338.000000	6.043535
2337.000000	6.138056
2336.000000	6.142861
2335.000000	6.254911
2334.000000	6.766736
2333.000000	6.588500
2332.000000	6.298807
2331.000000	6.299720
2330.000000	6.372520
2329.000000	6.678061
2328.000000	6.551720
2327.000000	6.606271
2326.000000	6.578124
2325.000000	6.081219
2324.000000	5.816569
2323.000000	6.276214
2322.000000	6.063772
2321.000000	5.831238
2320.000000	6.005234
2319.000000	6.032052
2318.000000	6.103783
2317.000000	6.196674
2316.000000	5.896661
2315.000000	5.832712
2314.000000	5.898271
2313.000000	5.960679
2312.000000	5.908015
2311.000000	5.773978
2310.000000	5.713600
2309.000000	5.991566
2308.000000	5.901835
2307.000000	5.752897
2306.000000	5.912905
2305.000000	5.671129
2304.000000	5.682715
2303.000000	5.736731
2302.000000	5.882092
2301.000000	5.629367
2300.000000	5.591501
2299.000000	5.536631
2298.000000	5.633536
2297.000000	5.496495
2296.000000	5.517754
2295.000000	5.646917
2294.000000	5.548651
2293.000000	5.378812
2292.000000	5.403419
2291.000000	5.382031
2290.000000	5.348479
2289.000000	5.302828
2288.000000	5.418254
2287.000000	5.432081
2286.000000	5.444748
2285.000000	5.242427
2284.000000	5.309296
2283.000000	5.292360
2282.000000	5.231877
2281.000000	5.264723
2280.000000	5.353665
2279.000000	5.391979
2278.000000	5.389833
2277.000000	5.298741
2276.000000	5.273621
2275.000000	5.424258
2274.000000	5.450485
2273.000000	5.349671
2272.000000	5.433033
2271.000000	5.535533
2270.000000	5.464581
2269.000000	5.586965
2268.000000	5.424388
2267.000000	5.318280
2266.000000	5.461707
2265.000000	5.566313
2264.000000	5.451171
2263.000000	5.603994
2262.000000	5.752458
2261.000000	5.719497
2260.000000	5.692906
2259.000000	5.823749
2258.000000	5.865019
2257.000000	5.838321
2256.000000	5.897211
2255.000000	5.968018
2254.000000	5.965338
2253.000000	5.961082
2252.000000	6.086373
2251.000000	6.274009
2250.000000	6.318250
2249.000000	6.363729
2248.000000	6.374616
2247.000000	6.515730
2246.000000	6.671527
2245.000000	6.640147
2244.000000	6.673998
2243.000000	6.815369
2242.000000	6.786923
2241.000000	6.705705
2240.000000	6.804412
2239.000000	6.910530
2238.000000	7.008602
2237.000000	7.016320
2236.000000	7.031379
2235.000000	7.024453
2234.000000	7.052026
2233.000000	6.990953
2232.000000	7.051832
2231.000000	7.193023
2230.000000	7.241283
2229.000000	7.214049
2228.000000	7.194700
2227.000000	7.338897
2226.000000	7.212436
2225.000000	7.071345
2224.000000	7.101575
2223.000000	7.195226
2222.000000	7.288390
2221.000000	7.241071
2220.000000	7.186839
2219.000000	7.232542
2218.000000	7.265785
2217.000000	7.213062
2216.000000	7.137155
2215.000000	7.125299
2214.000000	7.174553
2213.000000	7.074189
2212.000000	6.956824
2211.000000	6.828040
2210.000000	6.818118
2209.000000	6.883992
2208.000000	6.912362
2207.000000	6.897712
2206.000000	6.885849
2205.000000	6.899417
2204.000000	6.844277
2203.000000	6.840963
2202.000000	6.886353
2201.000000	6.836089
2200.000000	6.624383
2199.000000	6.685726
2198.000000	6.697248
2197.000000	6.540214
2196.000000	6.543657
2195.000000	6.565923
2194.000000	6.521858
2193.000000	6.408000
2192.000000	6.441902
2191.000000	6.391890
2190.000000	6.474012
2189.000000	6.392108
2188.000000	6.290849
2187.000000	6.392464
2186.000000	6.444732
2185.000000	6.455980
2184.000000	6.395870
2183.000000	6.426931
2182.000000	6.290112
2181.000000	6.161264
2180.000000	6.192704
2179.000000	6.251693
2178.000000	6.177644
2177.000000	6.311203
2176.000000	6.177635
2175.000000	6.231233
2174.000000	6.356963
2173.000000	6.319199
2172.000000	6.178131
2171.000000	6.397513
2170.000000	6.464799
2169.000000	6.279826
2168.000000	6.340916
2167.000000	6.453907
2166.000000	6.441051
2165.000000	6.393546
2164.000000	6.527162
2163.000000	6.471925
2162.000000	6.525893
2161.000000	6.484587
2160.000000	6.578983
2159.000000	6.564780
2158.000000	6.617855
2157.000000	6.666473
2156.000000	6.849014
2155.000000	6.754127
2154.000000	6.658366
2153.000000	6.890437
2152.000000	7.001587
2151.000000	6.813834
2150.000000	6.851088
2149.000000	6.997625
2148.000000	6.883743
2147.000000	7.189497
2146.000000	6.982810
2145.000000	7.118426
2144.000000	7.179069
2143.000000	7.088043
2142.000000	7.222285
2141.000000	7.191393
2140.000000	7.330354
2139.000000	7.315737
2138.000000	7.277898
2137.000000	7.332463
2136.000000	7.404841
2135.000000	7.590589
2134.000000	7.585710
2133.000000	7.278417
2132.000000	7.501080
2131.000000	7.574539
2130.000000	7.637218
2129.000000	7.597672
2128.000000	7.387154
2127.000000	7.587940
2126.000000	7.501913
2125.000000	7.535009
2124.000000	7.515316
2123.000000	7.601200
2122.000000	7.507797
2121.000000	7.564231
2120.000000	7.665275
2119.000000	7.638197
2118.000000	7.701881
2117.000000	7.708513
2116.000000	7.635209
2115.000000	7.633493
2114.000000	7.581464
2113.000000	7.494629
2112.000000	7.608514
2111.000000	7.673334
2110.000000	7.718691
2109.000000	7.683776
2108.000000	7.533551
2107.000000	7.590794
2106.000000	7.636028
2105.000000	7.556843
2104.000000	7.635027
2103.000000	7.751031
2102.000000	7.695366
2101.000000	7.662579
2100.000000	7.698425
2099.000000	7.643116
2098.000000	7.604323
2097.000000	7.633792
2096.000000	7.723753
2095.000000	7.662757
2094.000000	7.639970
2093.000000	7.601542
2092.000000	7.615815
2091.000000	7.650722
2090.000000	7.636832
2089.000000	7.637202
2088.000000	7.606603
2087.000000	7.579406
2086.000000	7.562075
2085.000000	7.596439
2084.000000	7.517525
2083.000000	7.404120
2082.000000	7.406254
2081.000000	7.429674
2080.000000	7.466062
2079.000000	7.379019
2078.000000	7.308825
2077.000000	7.329703
2076.000000	7.317400
2075.000000	7.221297
2074.000000	7.222291
2073.000000	7.148537
2072.000000	7.098398
2071.000000	7.120939
2070.000000	7.099163
2069.000000	7.036466
2068.000000	6.882529
2067.000000	6.884627
2066.000000	6.863462
2065.000000	6.816421
2064.000000	6.738931
2063.000000	6.691440
2062.000000	6.673581
2061.000000	6.595582
2060.000000	6.518043
2059.000000	6.469141
2058.000000	6.500648
2057.000000	6.416201
2056.000000	6.312575
2055.000000	6.294827
2054.000000	6.228440
2053.000000	6.164426
2052.000000	6.130140
2051.000000	6.095680
2050.000000	6.046839
2049.000000	6.003918
2048.000000	5.965314
2047.000000	5.923051
2046.000000	5.889463
2045.000000	5.924210
2044.000000	5.920502
2043.000000	5.900124
2042.000000	5.887941
2041.000000	5.872755
2040.000000	5.866575
2039.000000	5.833959
2038.000000	5.881095
2037.000000	5.891114
2036.000000	5.908975
2035.000000	5.932195
2034.000000	5.929926
2033.000000	5.989342
2032.000000	6.051631
2031.000000	6.029526
2030.000000	6.085359
2029.000000	6.192697
2028.000000	6.230447
2027.000000	6.212087
2026.000000	6.224149
2025.000000	6.245910
2024.000000	6.227027
2023.000000	6.239104
2022.000000	6.274372
2021.000000	6.270050
2020.000000	6.269216
2019.000000	6.287002
2018.000000	6.306596
2017.000000	6.308105
2016.000000	6.325035
2015.000000	6.311898
2014.000000	6.275405
2013.000000	6.333655
2012.000000	6.294186
2011.000000	6.242602
2010.000000	6.245349
2009.000000	6.233562
2008.000000	6.175042
2007.000000	6.147075
2006.000000	6.145642
2005.000000	6.109749
2004.000000	6.025305
2003.000000	5.988277
2002.000000	5.983432
2001.000000	5.940030
2000.000000	5.896013
1999.000000	5.893382
1998.000000	5.858865
1997.000000	5.839152
1996.000000	5.815571
1995.000000	5.761369
1994.000000	5.714228
1993.000000	5.740440
1992.000000	5.685041
1991.000000	5.623605
1990.000000	5.612515
1989.000000	5.564422
1988.000000	5.493096
1987.000000	5.464440
1986.000000	5.423556
1985.000000	5.414676
1984.000000	5.380780
1983.000000	5.346232
1982.000000	5.318251
1981.000000	5.275707
1980.000000	5.216256
1979.000000	5.220715
1978.000000	5.209504
1977.000000	5.152475
1976.000000	5.109976
1975.000000	5.091569
1974.000000	5.046434
1973.000000	5.042614
1972.000000	4.971310
1971.000000	4.945280
1970.000000	4.910598
1969.000000	4.911069
1968.000000	4.893591
1967.000000	4.858904
1966.000000	4.831724
1965.000000	4.808428
1964.000000	4.761428
1963.000000	4.723401
1962.000000	4.736291
1961.000000	4.690730
1960.000000	4.688707
1959.000000	4.649970
1958.000000	4.642406
1957.000000	4.570564
1956.000000	4.610444
1955.000000	4.598335
1954.000000	4.546659
1953.000000	4.536687
1952.000000	4.536973
1951.000000	4.578063
1950.000000	4.537866
1949.000000	4.521804
1948.000000	4.539852
1947.000000	4.517834
1946.000000	4.463896
1945.000000	4.475091
1944.000000	4.452222
1943.000000	4.508705
1942.000000	4.577226
1941.000000	4.581831
1940.000000	4.558203
1939.000000	4.513548
1938.000000	4.619185
1937.000000	4.646879
1936.000000	4.629613
1935.000000	4.637581
1934.000000	4.715498
1933.000000	4.710184
1932.000000	4.733601
1931.000000	4.777925
1930.000000	4.793369
1929.000000	4.819569
1928.000000	4.940674
1927.000000	4.943160
1926.000000	4.990224
1925.000000	5.033396
1924.000000	5.093952
1923.000000	5.147271
1922.000000	5.271684
1921.000000	5.375546
1920.000000	5.468827
1919.000000	5.532150
1918.000000	5.586180
1917.000000	5.731345
1916.000000	5.689632
1915.000000	5.892968
1914.000000	5.999883
1913.000000	6.107435
1912.000000	6.200441
1911.000000	6.342318
1910.000000	6.374525
1909.000000	6.571464
1908.000000	6.658366
1907.000000	6.784220
1906.000000	6.920814
1905.000000	7.104463
1904.000000	7.234345
1903.000000	7.487238
1902.000000	7.609430
1901.000000	7.768875
1900.000000	7.911035
1899.000000	8.166817
1898.000000	8.358004
1897.000000	8.369811
1896.000000	8.535193
1895.000000	8.761952
1894.000000	8.944693
1893.000000	9.108005
1892.000000	9.325335
1891.000000	9.411894
1890.000000	9.623483
1889.000000	9.797536
1888.000000	9.958626
1887.000000	10.142352
1886.000000	10.286528
1885.000000	10.408432
1884.000000	10.537759
1883.000000	10.704481
1882.000000	10.861895
1881.000000	10.949812
1880.000000	11.092213
1879.000000	11.240716
1878.000000	11.327094
1877.000000	11.474141
1876.000000	11.560333
1875.000000	11.671253
1874.000000	11.760412
1873.000000	11.837483
1872.000000	11.926792
1871.000000	11.998859
1870.000000	12.081695
1869.000000	12.136987
1868.000000	12.173297
1867.000000	12.192405
1866.000000	12.234921
1865.000000	12.267325
1864.000000	12.295279
1863.000000	12.332338
1862.000000	12.286594
1861.000000	12.309857
1860.000000	12.368094
1859.000000	12.407677
1858.000000	12.406020
1857.000000	12.422858
1856.000000	12.410103
1855.000000	12.428761
1854.000000	12.432805
1853.000000	12.474880
1852.000000	12.488933
1851.000000	12.491517
1850.000000	12.515855
1849.000000	12.496044
1848.000000	12.481998
1847.000000	12.482758
1846.000000	12.487950
1845.000000	12.491528
1844.000000	12.462395
1843.000000	12.466199
1842.000000	12.439412
1841.000000	12.433956
1840.000000	12.413632
1839.000000	12.428466
1838.000000	12.410567
1837.000000	12.353866
1836.000000	12.331019
1835.000000	12.319680
1834.000000	12.292827
1833.000000	12.247132
1832.000000	12.203897
1831.000000	12.180870
1830.000000	12.201090
1829.000000	12.204812
1828.000000	12.175552
1827.000000	12.137189
1826.000000	12.110562
1825.000000	12.089061
1824.000000	12.077344
1823.000000	12.058220
1822.000000	12.047793
1821.000000	12.028697
1820.000000	11.988720
1819.000000	11.982636
1818.000000	11.996541
1817.000000	11.984849
1816.000000	11.947486
1815.000000	11.921310
1814.000000	11.925072
1813.000000	11.914679
1812.000000	11.892048
1811.000000	11.875462
1810.000000	11.863805
1809.000000	11.852337
1808.000000	11.831644
1807.000000	11.815575
1806.000000	11.812923
1805.000000	11.805022
1804.000000	11.780707
1803.000000	11.770552
1802.000000	11.764789
1801.000000	11.767772
1800.000000	11.770381
1799.000000	11.749236
1798.000000	11.736325
1797.000000	11.741055
1796.000000	11.727477
1795.000000	11.716993
1794.000000	11.727526
1793.000000	11.703759
1792.000000	11.701256
1791.000000	11.716577
1790.000000	11.708425
1789.000000	11.692988
1788.000000	11.698303
1787.000000	11.703627
1786.000000	11.698919
1785.000000	11.686996
1784.000000	11.677150
1783.000000	11.662200
1782.000000	11.656070
1781.000000	11.639981
1780.000000	11.640086
1779.000000	11.622913
1778.000000	11.597804
1777.000000	11.586047
1776.000000	11.562450
1775.000000	11.545108
1774.000000	11.538878
1773.000000	11.509850
1772.000000	11.492679
1771.000000	11.454555
1770.000000	11.411331
1769.000000	11.401137
1768.000000	11.410703
1767.000000	11.383634
1766.000000	11.354700
1765.000000	11.317168
1764.000000	11.306703
1763.000000	11.275681
1762.000000	11.262067
1761.000000	11.249740
1760.000000	11.218568
1759.000000	11.168347
1758.000000	11.145547
1757.000000	11.136634
1756.000000	11.142679
1755.000000	11.121859
1754.000000	11.110391
1753.000000	11.089877
1752.000000	11.069271
1751.000000	11.037768
1750.000000	11.024687
1749.000000	11.012206
1748.000000	10.975780
1747.000000	10.958074
1746.000000	10.944983
1745.000000	10.933035
1744.000000	10.907666
1743.000000	10.890040
1742.000000	10.840925
1741.000000	10.843176
1740.000000	10.831029
1739.000000	10.800753
1738.000000	10.787516
1737.000000	10.761919
1736.000000	10.749391
1735.000000	10.752355
1734.000000	10.761278
1733.000000	10.752393
1732.000000	10.727953
1731.000000	10.734341
1730.000000	10.734549
1729.000000	10.730109
1728.000000	10.764979
1727.000000	10.766286
1726.000000	10.765973
1725.000000	10.784458
1724.000000	10.821700
1723.000000	10.816753
1722.000000	10.867138
1721.000000	10.894229
1720.000000	10.922187
1719.000000	10.959961
1718.000000	10.966943
1717.000000	11.018514
1716.000000	11.026336
1715.000000	11.059344
1714.000000	11.083192
1713.000000	11.098243
1712.000000	11.096535
1711.000000	11.149582
1710.000000	11.157885
1709.000000	11.152399
1708.000000	11.161236
1707.000000	11.181066
1706.000000	11.200893
1705.000000	11.218471
1704.000000	11.232234
1703.000000	11.227138
1702.000000	11.235631
1701.000000	11.235987
1700.000000	11.248615
1699.000000	11.213950
1698.000000	11.238838
1697.000000	11.248520
1696.000000	11.284445
1695.000000	11.266606
1694.000000	11.280603
1693.000000	11.285709
1692.000000	11.300397
1691.000000	11.298570
1690.000000	11.342123
1689.000000	11.384090
1688.000000	11.417818
1687.000000	11.418517
1686.000000	11.480366
1685.000000	11.521895
1684.000000	11.549309
1683.000000	11.600202
1682.000000	11.632575
1681.000000	11.699596
1680.000000	11.751791
1679.000000	11.794721
1678.000000	11.852696
1677.000000	11.903061
1676.000000	11.940076
1675.000000	12.003236
1674.000000	12.043333
1673.000000	12.089724
1672.000000	12.157363
1671.000000	12.212424
1670.000000	12.246480
1669.000000	12.282804
1668.000000	12.299037
1667.000000	12.378203
1666.000000	12.398510
1665.000000	12.411647
1664.000000	12.416858
1663.000000	12.425199
1662.000000	12.446700
1661.000000	12.493992
1660.000000	12.512889
1659.000000	12.547035
1658.000000	12.556112
1657.000000	12.557962
1656.000000	12.575882
1655.000000	12.587837
1654.000000	12.602603
1653.000000	12.603325
1652.000000	12.599261
1651.000000	12.594388
1650.000000	12.581247
1649.000000	12.568762
1648.000000	12.558699
1647.000000	12.557342
1646.000000	12.556074
1645.000000	12.537568
1644.000000	12.543059
1643.000000	12.512089
1642.000000	12.493463
1641.000000	12.474798
1640.000000	12.470258
1639.000000	12.462346
1638.000000	12.448323
1637.000000	12.435992
1636.000000	12.428913
1635.000000	12.412017
1634.000000	12.390345
1633.000000	12.367331
1632.000000	12.351860
1631.000000	12.336290
1630.000000	12.309527
1629.000000	12.286765
1628.000000	12.277963
1627.000000	12.263527
1626.000000	12.244520
1625.000000	12.225438
1624.000000	12.196726
1623.000000	12.185451
1622.000000	12.164430
1621.000000	12.141243
1620.000000	12.120296
1619.000000	12.097457
1618.000000	12.077764
1617.000000	12.062201
1616.000000	12.035263
1615.000000	12.009991
1614.000000	11.991272
1613.000000	11.971033
1612.000000	11.943615
1611.000000	11.915565
1610.000000	11.887722
1609.000000	11.877829
1608.000000	11.868598
1607.000000	11.846186
1606.000000	11.810480
1605.000000	11.783279
1604.000000	11.757841
1603.000000	11.728924
1602.000000	11.717078
1601.000000	11.700681
1600.000000	11.668878
1599.000000	11.637835
1598.000000	11.617804
1597.000000	11.606460
1596.000000	11.589052
1595.000000	11.568685
1594.000000	11.545043
1593.000000	11.525805
1592.000000	11.510106
1591.000000	11.488584
1590.000000	11.462189
1589.000000	11.438763
1588.000000	11.420374
1587.000000	11.407782
1586.000000	11.390641
1585.000000	11.377631
1584.000000	11.356477
1583.000000	11.331489
1582.000000	11.318291
1581.000000	11.303423
1580.000000	11.281410
1579.000000	11.265509
1578.000000	11.258712
1577.000000	11.225056
1576.000000	11.207788
1575.000000	11.194092
1574.000000	11.171350
1573.000000	11.143063
1572.000000	11.125428
1571.000000	11.111583
1570.000000	11.109920
1569.000000	11.079412
1568.000000	11.047351
1567.000000	11.037055
1566.000000	11.019781
1565.000000	11.010911
1564.000000	10.997967
1563.000000	10.992604
1562.000000	10.973714
1561.000000	10.957810
1560.000000	10.942719
1559.000000	10.923651
1558.000000	10.914484
1557.000000	10.908464
1556.000000	10.885716
1555.000000	10.872278
1554.000000	10.856158
1553.000000	10.850137
1552.000000	10.828765
1551.000000	10.807565
1550.000000	10.791399
1549.000000	10.768492
1548.000000	10.736085
1547.000000	10.712885
1546.000000	10.687315
1545.000000	10.660150
1544.000000	10.630529
1543.000000	10.599570
1542.000000	10.569199
1541.000000	10.533317
1540.000000	10.500476
1539.000000	10.473436
1538.000000	10.444551
1537.000000	10.399751
1536.000000	10.356343
1535.000000	10.328746
1534.000000	10.282603
1533.000000	10.266829
1532.000000	10.229435
1531.000000	10.230609
1530.000000	10.228600
1529.000000	10.232300
1528.000000	10.245363
1527.000000	10.239218
1526.000000	10.193961
1525.000000	10.143547
1524.000000	10.086655
1523.000000	10.058725
1522.000000	10.049273
1521.000000	10.017389
1520.000000	10.014526
1519.000000	9.997523
1518.000000	9.967388
1517.000000	9.938007
1516.000000	9.941886
1515.000000	9.957809
1514.000000	9.913110
1513.000000	9.889582
1512.000000	9.874172
1511.000000	9.884796
1510.000000	9.885037
1509.000000	9.853463
1508.000000	9.818139
1507.000000	9.814180
1506.000000	9.810528
1505.000000	9.785426
1504.000000	9.771991
1503.000000	9.780740
1502.000000	9.795456
1501.000000	9.804961
1500.000000	9.783526
1499.000000	9.776583
1498.000000	9.772921
1497.000000	9.765408
1496.000000	9.762649
1495.000000	9.730522
1494.000000	9.714128
1493.000000	9.731535
1492.000000	9.726878
1491.000000	9.728307
1490.000000	9.747313
1489.000000	9.730841
1488.000000	9.735923
1487.000000	9.692784
1486.000000	9.707060
1485.000000	9.716316
1484.000000	9.732281
1483.000000	9.756221
1482.000000	9.745555
1481.000000	9.769666
1480.000000	9.784654
1479.000000	9.787636
1478.000000	9.787222
1477.000000	9.783113
1476.000000	9.797157
1475.000000	9.816247
1474.000000	9.812622
1473.000000	9.820758
1472.000000	9.816335
1471.000000	9.824739
1470.000000	9.850810
1469.000000	9.854594
1468.000000	9.845735
1467.000000	9.869964
1466.000000	9.905341
1465.000000	9.898618
1464.000000	9.894448
1463.000000	9.898509
1462.000000	9.928877
1461.000000	9.945408
1460.000000	9.944257
1459.000000	9.939644
1458.000000	9.944468
1457.000000	9.982380
1456.000000	10.013207
1455.000000	10.002808
1454.000000	10.025044
1453.000000	10.035528
1452.000000	10.068858
1451.000000	10.081420
1450.000000	10.089983
1449.000000	10.103490
1448.000000	10.116712
1447.000000	10.131141
1446.000000	10.150917
1445.000000	10.204275
1444.000000	10.237090
1443.000000	10.251268
1442.000000	10.258137
1441.000000	10.282525
1440.000000	10.314605
1439.000000	10.328191
1438.000000	10.359566
1437.000000	10.383672
1436.000000	10.396592
1435.000000	10.430486
1434.000000	10.481889
1433.000000	10.512162
1432.000000	10.547186
1431.000000	10.599895
1430.000000	10.631086
1429.000000	10.670241
1428.000000	10.715714
1427.000000	10.750222
1426.000000	10.805331
1425.000000	10.857023
1424.000000	10.912419
1423.000000	10.977065
1422.000000	11.029326
1421.000000	11.055107
1420.000000	11.105944
1419.000000	11.164256
1418.000000	11.214487
1417.000000	11.264220
1416.000000	11.347762
1415.000000	11.408279
1414.000000	11.447333
1413.000000	11.503351
1412.000000	11.565223
1411.000000	11.619491
1410.000000	11.697478
1409.000000	11.775115
1408.000000	11.834953
1407.000000	11.875734
1406.000000	11.951369
1405.000000	12.027945
1404.000000	12.088444
1403.000000	12.125082
1402.000000	12.180987
1401.000000	12.241141
1400.000000	12.318104
1399.000000	12.381966
1398.000000	12.435072
1397.000000	12.497447
1396.000000	12.555729
1395.000000	12.611155
1394.000000	12.659235
1393.000000	12.700801
1392.000000	12.738207
1391.000000	12.766931
1390.000000	12.801129
1389.000000	12.841126
1388.000000	12.888678
1387.000000	12.931372
1386.000000	12.961097
1385.000000	12.990651
1384.000000	13.025752
1383.000000	13.066859
1382.000000	13.098596
1381.000000	13.112461
1380.000000	13.138615
1379.000000	13.183074
1378.000000	13.202684
1377.000000	13.217672
1376.000000	13.226603
1375.000000	13.225272
1374.000000	13.236483
1373.000000	13.242429
1372.000000	13.254541
1371.000000	13.280092
1370.000000	13.309000
1369.000000	13.317871
1368.000000	13.319231
1367.000000	13.325932
1366.000000	13.341794
1365.000000	13.347680
1364.000000	13.356080
1363.000000	13.365754
1362.000000	13.363970
1361.000000	13.365314
1360.000000	13.364430
1359.000000	13.378343
1358.000000	13.427077
1357.000000	13.450625
1356.000000	13.434345
1355.000000	13.433606
1354.000000	13.466226
1353.000000	13.491166
1352.000000	13.478717
1351.000000	13.470442
1350.000000	13.490962
1349.000000	13.530069
1348.000000	13.552303
1347.000000	13.540976
1346.000000	13.524434
1345.000000	13.541470
1344.000000	13.578683
1343.000000	13.595137
1342.000000	13.582102
1341.000000	13.581960
1340.000000	13.573467
1339.000000	13.575473
1338.000000	13.608143
1337.000000	13.632274
1336.000000	13.622874
1335.000000	13.622695
1334.000000	13.619473
1333.000000	13.618543
1332.000000	13.648489
1331.000000	13.667133
1330.000000	13.669773
1329.000000	13.652722
1328.000000	13.643088
1327.000000	13.656542
1326.000000	13.677831
1325.000000	13.679900
1324.000000	13.685863
1323.000000	13.701290
1322.000000	13.686026
1321.000000	13.682268
1320.000000	13.697075
1319.000000	13.677905
1318.000000	13.686911
1317.000000	13.695008
1316.000000	13.681194
1315.000000	13.670248
1314.000000	13.681112
1313.000000	13.656751
1312.000000	13.675761
1311.000000	13.696283
1310.000000	13.673324
1309.000000	13.675296
1308.000000	13.678226
1307.000000	13.678735
1306.000000	13.662031
1305.000000	13.640715
1304.000000	13.683022
1303.000000	13.696491
1302.000000	13.691299
1301.000000	13.675335
1300.000000	13.660216
1299.000000	13.649280
1298.000000	13.641446
1297.000000	13.617639
1296.000000	13.635130
1295.000000	13.632191
1294.000000	13.639955
1293.000000	13.641367
1292.000000	13.621033
1291.000000	13.624408
1290.000000	13.613922
1289.000000	13.613201
1288.000000	13.625748
1287.000000	13.621762
1286.000000	13.611561
1285.000000	13.605396
1284.000000	13.537939
1283.000000	13.530514
1282.000000	13.546324
1281.000000	13.557263
1280.000000	13.553614
1279.000000	13.546265
1278.000000	13.546783
1277.000000	13.534882
1276.000000	13.537959
1275.000000	13.527124
1274.000000	13.526440
1273.000000	13.518128
1272.000000	13.503783
1271.000000	13.502178
1270.000000	13.490177
1269.000000	13.488797
1268.000000	13.477775
1267.000000	13.469317
1266.000000	13.468108
1265.000000	13.483344
1264.000000	13.504525
1263.000000	13.489706
1262.000000	13.482303
1261.000000	13.469380
1260.000000	13.465383
1259.000000	13.506876
1258.000000	13.510274
1257.000000	13.487945
1256.000000	13.478845
1255.000000	13.460316
1254.000000	13.442570
1253.000000	13.449895
1252.000000	13.453150
1251.000000	13.438230
1250.000000	13.444725
1249.000000	13.451965
1248.000000	13.441050
1247.000000	13.440364
1246.000000	13.434010
1245.000000	13.428808
1244.000000	13.422338
1243.000000	13.419245
1242.000000	13.416438
1241.000000	13.423401
1240.000000	13.368201
1239.000000	13.358870
1238.000000	13.354919
1237.000000	13.348074
1236.000000	13.323249
1235.000000	13.315958
1234.000000	13.307338
1233.000000	13.304069
1232.000000	13.280231
1231.000000	13.271308
1230.000000	13.268346
1229.000000	13.257442
1228.000000	13.220570
1227.000000	13.217342
1226.000000	13.225258
1225.000000	13.218032
1224.000000	13.212727
1223.000000	13.204281
1222.000000	13.212591
1221.000000	13.186707
1220.000000	13.188966
1219.000000	13.170309
1218.000000	13.143830
1217.000000	13.138152
1216.000000	13.118612
1215.000000	13.101646
1214.000000	13.091029
1213.000000	13.109689
1212.000000	13.100558
1211.000000	13.073044
1210.000000	13.081653
1209.000000	13.076571
1208.000000	13.043749
1207.000000	13.018824
1206.000000	13.011007
1205.000000	13.007195
1204.000000	12.980919
1203.000000	12.984398
1202.000000	12.969871
1201.000000	12.937529
1200.000000	12.923106
1199.000000	12.950883
1198.000000	12.939032
1197.000000	12.920238
1196.000000	12.899818
1195.000000	12.877406
1194.000000	12.867938
1193.000000	12.856046
1192.000000	12.842273
1191.000000	12.830411
1190.000000	12.830045
1189.000000	12.820376
1188.000000	12.813391
1187.000000	12.815737
1186.000000	12.799892
1185.000000	12.780052
1184.000000	12.776536
1183.000000	12.779669
1182.000000	12.787750
1181.000000	12.795051
1180.000000	12.805482
1179.000000	12.819445
1178.000000	12.826109
1177.000000	12.814599
1176.000000	12.798587
1175.000000	12.815387
1174.000000	12.832407
1173.000000	12.851482
1172.000000	12.868814
1171.000000	12.878947
1170.000000	12.899447
1169.000000	12.905312
1168.000000	12.907870
1167.000000	12.932484
1166.000000	12.959393
1165.000000	12.973192
1164.000000	12.984481
1163.000000	13.000329
1162.000000	13.025020
1161.000000	13.045234
1160.000000	13.056701
1159.000000	13.071201
1158.000000	13.093258
1157.000000	13.102328
1156.000000	13.107363
1155.000000	13.122465
1154.000000	13.113661
1153.000000	13.093195
1152.000000	13.109799
1151.000000	13.126925
1150.000000	13.142637
1149.000000	13.171842
1148.000000	13.182335
1147.000000	13.189040
1146.000000	13.200587
1145.000000	13.203790
1144.000000	13.213923
1143.000000	13.232753
1142.000000	13.242410
1141.000000	13.238956
1140.000000	13.239299
1139.000000	13.229419
1138.000000	13.224291
1137.000000	13.228818
1136.000000	13.243552
1135.000000	13.259392
1134.000000	13.274228
1133.000000	13.278916
1132.000000	13.283849
1131.000000	13.295090
1130.000000	13.305357
1129.000000	13.321149
1128.000000	13.297468
1127.000000	13.283122
1126.000000	13.283812
1125.000000	13.280191
1124.000000	13.284806
1123.000000	13.285734
1122.000000	13.280871
1121.000000	13.294739
1120.000000	13.296502
1119.000000	13.289095
1118.000000	13.290370
1117.000000	13.295711
1116.000000	13.287886
1115.000000	13.273199
1114.000000	13.281895
1113.000000	13.282164
1112.000000	13.276272
1111.000000	13.269497
1110.000000	13.261725
1109.000000	13.263871
1108.000000	13.264356
1107.000000	13.276921
1106.000000	13.270213
1105.000000	13.267756
1104.000000	13.265147
1103.000000	13.254731
1102.000000	13.249051
1101.000000	13.243495
1100.000000	13.218784
1099.000000	13.203345
1098.000000	13.222773
1097.000000	13.222885
1096.000000	13.213871
1095.000000	13.212060
1094.000000	13.211622
1093.000000	13.221531
1092.000000	13.184187
1091.000000	13.174413
1090.000000	13.187877
1089.000000	13.192852
1088.000000	13.190266
1087.000000	13.192964
1086.000000	13.184429
1085.000000	13.165822
1084.000000	13.151962
1083.000000	13.148969
1082.000000	13.150679
1081.000000	13.157644
1080.000000	13.171762
1079.000000	13.169119
1078.000000	13.131903
1077.000000	13.123504
1076.000000	13.122564
1075.000000	13.123485
1074.000000	13.114168
1073.000000	13.111128
1072.000000	13.114812
1071.000000	13.075033
1070.000000	13.062268
1069.000000	13.089006
1068.000000	13.080603
1067.000000	13.088632
1066.000000	13.080824
1065.000000	13.084070
1064.000000	13.070545
1063.000000	13.041640
1062.000000	13.041323
1061.000000	13.039152
1060.000000	13.042071
1059.000000	13.046473
1058.000000	13.045224
1057.000000	13.005019
1056.000000	12.997934
1055.000000	13.001779
1054.000000	13.003169
1053.000000	13.012984
1052.000000	13.009921
1051.000000	12.967671
1050.000000	12.979944
1049.000000	12.989048
1048.000000	12.951343
1047.000000	12.950764
1046.000000	12.952703
1045.000000	12.956392
1044.000000	12.960756
1043.000000	12.959058
1042.000000	12.928940
1041.000000	12.934144
1040.000000	12.940945
1039.000000	12.942246
1038.000000	12.941247
1037.000000	12.903251
1036.000000	12.899205
1035.000000	12.903723
1034.000000	12.903150
1033.000000	12.876207
1032.000000	12.903352
1031.000000	12.901099
1030.000000	12.893205
1029.000000	12.870268
1028.000000	12.868398
1027.000000	12.875805
1026.000000	12.849308
1025.000000	12.865062
1024.000000	12.858030
1023.000000	12.866171
1022.000000	12.830123
1021.000000	12.832033
1020.000000	12.850470
1019.000000	12.844905
1018.000000	12.827111
1017.000000	12.824634
1016.000000	12.818005
1015.000000	12.807998
1014.000000	12.815613
1013.000000	12.817616
1012.000000	12.802547
1011.000000	12.806511
1010.000000	12.822214
1009.000000	12.790514
1008.000000	12.789274
1007.000000	12.786074
1006.000000	12.779744
1005.000000	12.799098
1004.000000	12.791382
1003.000000	12.774431
1002.000000	12.777474
1001.000000	12.774547
1000.000000	12.767407
999.000000	12.773011
998.000000	12.754431
997.000000	12.757334
996.000000	12.758276
995.000000	12.743607
994.000000	12.748807
993.000000	12.753998
992.000000	12.749758
991.000000	12.741895
990.000000	12.751465
989.000000	12.757519
988.000000	12.757721
987.000000	12.766259
986.000000	12.779717
985.000000	12.796913
984.000000	12.796415
983.000000	12.810836
982.000000	12.814630
981.000000	12.803291
980.000000	12.824078
979.000000	12.836722
978.000000	12.832910
977.000000	12.825693
976.000000	12.822652
975.000000	12.824284
974.000000	12.832063
973.000000	12.841904
972.000000	12.837275
971.000000	12.832031
970.000000	12.843995
969.000000	12.845029
968.000000	12.835822
967.000000	12.827393
966.000000	12.820971
965.000000	12.816833
964.000000	12.822037
963.000000	12.824739
962.000000	12.819183
961.000000	12.824958
960.000000	12.831949
959.000000	12.819581
958.000000	12.820213
957.000000	12.833177
956.000000	12.812186
955.000000	12.801908
954.000000	12.815467
953.000000	12.810019
952.000000	12.799423
951.000000	12.794655
950.000000	12.786832
949.000000	12.787234
948.000000	12.788834
947.000000	12.795298
946.000000	12.799980
945.000000	12.786951
944.000000	12.786277
943.000000	12.789869
942.000000	12.785714
941.000000	12.779607
940.000000	12.757506
939.000000	12.750413
938.000000	12.774525
937.000000	12.782039
936.000000	12.771061
935.000000	12.760134
934.000000	12.762971
933.000000	12.748332
932.000000	12.719582
931.000000	12.707178
930.000000	12.703285
929.000000	12.710314
928.000000	12.709346
927.000000	12.691959
926.000000	12.706343
925.000000	12.700387
924.000000	12.678620
923.000000	12.679703
922.000000	12.668234
921.000000	12.667917
920.000000	12.652742
919.000000	12.649972
918.000000	12.662569
917.000000	12.658984
916.000000	12.634066
915.000000	12.629899
914.000000	12.646432
913.000000	12.648951
912.000000	12.619895
911.000000	12.638232
910.000000	12.631344
909.000000	12.607964
908.000000	12.611227
907.000000	12.609178
906.000000	12.618747
905.000000	12.604512
904.000000	12.589761
903.000000	12.584307
902.000000	12.575116
901.000000	12.590643
900.000000	12.577831
899.000000	12.588739
898.000000	12.588119
897.000000	12.556824
896.000000	12.595952
895.000000	12.605302
894.000000	12.616981
893.000000	12.615309
892.000000	12.582248
891.000000	12.553035
890.000000	12.564320
889.000000	12.522021
888.000000	12.536794
887.000000	12.559846
886.000000	12.544967
885.000000	12.565626
884.000000	12.525289
883.000000	12.563183
882.000000	12.528828
881.000000	12.516437
880.000000	12.486980
879.000000	12.531592
878.000000	12.539920
877.000000	12.543143
876.000000	12.488989
875.000000	12.508483
874.000000	12.516936
873.000000	12.474355
872.000000	12.496474
871.000000	12.562630
870.000000	12.475793
869.000000	12.522267
868.000000	12.446228
867.000000	12.473276
866.000000	12.429660
865.000000	12.455097
864.000000	12.445476
863.000000	12.465826
862.000000	12.414931
861.000000	12.412774
860.000000	12.487572
859.000000	12.027193
858.000000	12.001622
857.000000	11.953142
856.000000	12.053640
855.000000	12.043222
854.000000	12.086212
853.000000	12.011090
852.000000	12.050521
851.000000	11.933957
850.000000	11.981883
849.000000	11.970226
848.000000	11.819944
847.000000	11.892555
846.000000	11.967263
845.000000	11.967916
844.000000	11.949309
843.000000	11.871063
842.000000	11.885096
841.000000	11.916947
840.000000	11.931724
839.000000	11.854757
838.000000	11.804049
837.000000	11.853831
836.000000	11.816859
835.000000	11.831916
834.000000	11.790314
833.000000	11.847601
832.000000	11.856260
831.000000	11.811546
830.000000	11.819329
829.000000	11.798091
828.000000	11.825236
827.000000	11.777317
826.000000	11.744106
825.000000	11.756569
824.000000	11.743473
823.000000	11.738005
822.000000	11.762933
821.000000	11.745091
820.000000	11.714102
819.000000	11.670433
818.000000	11.738796
817.000000	11.720751
816.000000	11.691774
815.000000	11.687858
814.000000	11.659578
813.000000	11.689536
812.000000	11.675362
811.000000	11.674772
810.000000	11.664202
809.000000	11.634861
808.000000	11.639565
807.000000	11.580918
806.000000	11.605340
805.000000	11.606775
804.000000	11.577313
803.000000	11.613796
802.000000	11.594359
801.000000	11.571789
800.000000	11.527427
799.000000	11.548986
798.000000	11.535359
797.000000	11.540634
796.000000	11.489094
795.000000	11.505970
794.000000	11.526264
793.000000	11.490660
792.000000	11.467352
791.000000	11.462057
790.000000	11.471798
789.000000	11.498088
788.000000	11.476153
787.000000	11.466128
786.000000	11.454240
785.000000	11.424010
784.000000	11.429352
783.000000	11.436082
782.000000	11.403131
781.000000	11.404394
780.000000	11.408415
779.000000	11.373395
778.000000	11.349125
777.000000	11.373988
776.000000	11.344981
775.000000	11.354652
774.000000	11.344641
773.000000	11.337142
772.000000	11.318943
771.000000	11.316872
770.000000	11.301994
769.000000	11.319991
768.000000	11.295833
767.000000	11.299943
766.000000	11.268340
765.000000	11.216868
764.000000	11.227191
763.000000	11.225261
762.000000	11.232181
761.000000	11.223403
760.000000	11.196808
759.000000	11.197581
758.000000	11.203551
757.000000	11.173193
756.000000	11.178256
755.000000	11.169643
754.000000	11.154688
753.000000	11.142269
752.000000	11.113043
751.000000	11.108234
750.000000	11.116590
749.000000	11.108679
748.000000	11.096328
747.000000	11.079405
746.000000	11.087280
745.000000	11.067874
744.000000	11.060583
743.000000	11.038418
742.000000	11.017054
741.000000	10.998386
740.000000	11.017613
739.000000	11.007462
738.000000	10.990179
737.000000	10.973609
736.000000	10.945275
735.000000	10.963470
734.000000	10.966123
733.000000	10.945952
732.000000	10.935904
731.000000	10.909966
730.000000	10.897110
729.000000	10.882362
728.000000	10.864536
727.000000	10.849749
726.000000	10.843968
725.000000	10.840480
724.000000	10.836059
723.000000	10.809540
722.000000	10.794792
721.000000	10.795434
720.000000	10.790661
719.000000	10.784101
718.000000	10.763686
717.000000	10.751773
716.000000	10.742443
715.000000	10.722047
714.000000	10.706844
713.000000	10.696016
712.000000	10.685877
711.000000	10.673799
710.000000	10.646968
709.000000	10.638191
708.000000	10.641942
707.000000	10.624683
706.000000	10.607038
705.000000	10.580801
704.000000	10.569466
703.000000	10.578536
702.000000	10.555953
701.000000	10.527183
700.000000	10.519531
699.000000	10.507086
698.000000	10.497612
697.000000	10.479519
696.000000	10.461635
695.000000	10.457945
694.000000	10.436627
693.000000	10.419809
692.000000	10.418070
691.000000	10.412432
690.000000	10.394025
689.000000	10.354769
688.000000	10.334752
687.000000	10.332773
686.000000	10.329589
685.000000	10.316909
684.000000	10.289759
683.000000	10.271999
682.000000	10.255203
681.000000	10.244531
680.000000	10.233959
679.000000	10.223408
678.000000	10.209047
677.000000	10.178939
676.000000	10.155675
675.000000	10.154080
674.000000	10.149265
673.000000	10.129735
672.000000	10.104724
671.000000	10.091965
670.000000	10.079652
669.000000	10.045795
668.000000	10.033767
667.000000	10.029934
666.000000	10.018407
665.000000	9.994524
664.000000	9.973829
663.000000	9.937461
662.000000	9.942204
661.000000	9.931035
660.000000	9.905848
659.000000	9.887605
658.000000	9.889534
657.000000	9.875338
656.000000	9.840586
655.000000	9.822094
654.000000	9.802140
653.000000	9.779124
652.000000	9.775486
651.000000	9.757125
650.000000	9.733425
649.000000	9.714933
648.000000	9.699316
647.000000	9.686806
646.000000	9.665873
645.000000	9.642331
644.000000	9.612611
643.000000	9.599728
642.000000	9.582189
641.000000	9.577943
640.000000	9.545437
639.000000	9.522748
638.000000	9.498150
637.000000	9.482523
636.000000	9.478291
635.000000	9.455689
634.000000	9.431451
633.000000	9.416267
632.000000	9.391662
631.000000	9.375884
630.000000	9.356828
629.000000	9.344441
628.000000	9.324000
627.000000	9.288927
626.000000	9.273306
625.000000	9.264639
624.000000	9.238522
623.000000	9.211922
622.000000	9.188638
621.000000	9.175599
620.000000	9.149480
619.000000	9.119235
618.000000	9.110892
617.000000	9.098792
616.000000	9.077014
615.000000	9.041768
614.000000	9.014917
613.000000	9.006846
612.000000	8.990244
611.000000	8.958375
610.000000	8.936090
609.000000	8.916310
608.000000	8.890914
607.000000	8.888983
606.000000	8.845188
605.000000	8.823266
604.000000	8.802039
603.000000	8.769479
602.000000	8.758134
601.000000	8.737728
600.000000	8.708592
599.000000	8.685998
598.000000	8.658360
597.000000	8.636748
596.000000	8.617113
595.000000	8.600689
594.000000	8.570408
593.000000	8.561940
592.000000	8.514944
591.000000	8.491323
590.000000	8.477446
589.000000	8.438157
588.000000	8.411945
587.000000	8.377207
586.000000	8.357474
585.000000	8.332439
584.000000	8.308940
583.000000	8.293359
582.000000	8.271626
581.000000	8.231950
580.000000	8.208472
579.000000	8.170399
578.000000	8.156828
577.000000	8.139356
576.000000	8.100028
575.000000	8.063433
574.000000	8.048074
573.000000	8.014181
572.000000	7.997302
571.000000	7.981132
570.000000	7.959208
569.000000	7.927614
568.000000	7.897513
567.000000	7.860581
566.000000	7.819898
565.000000	7.806155
564.000000	7.788408
563.000000	7.761392
562.000000	7.730919
561.000000	7.688135
560.000000	7.663572
559.000000	7.629870
558.000000	7.602545
557.000000	7.576253
556.000000	7.548703
555.000000	7.505783
554.000000	7.485176
553.000000	7.461415
552.000000	7.423100
551.000000	7.398974
550.000000	7.368566
549.000000	7.340807
548.000000	7.315320
547.000000	7.287030
546.000000	7.245468
545.000000	7.215913
544.000000	7.199339
543.000000	7.156909
542.000000	7.120569
541.000000	7.099857
540.000000	7.072621
539.000000	7.042874
538.000000	7.006326
537.000000	6.976981
536.000000	6.949176
535.000000	6.920014
534.000000	6.893995
533.000000	6.856626
532.000000	6.823330
531.000000	6.795732
530.000000	6.762718
529.000000	6.736819
528.000000	6.700420
527.000000	6.664455
526.000000	6.634461
525.000000	6.603582
524.000000	6.572150
523.000000	6.530870
522.000000	6.498193
521.000000	6.469846
520.000000	6.429213
519.000000	6.389384
518.000000	6.359647
517.000000	6.318372
516.000000	6.278759
515.000000	6.249530
514.000000	6.206429
513.000000	6.171760
512.000000	6.130024
511.000000	6.092766
510.000000	6.055967
509.000000	6.016410
508.000000	5.971705
507.000000	5.934757
506.000000	5.892849
505.000000	5.857190
504.000000	5.822482
503.000000	5.790774
502.000000	5.744997
501.000000	5.710688
500.000000	5.683719
499.000000	5.648645
498.000000	5.616958
497.000000	5.587800
496.000000	5.554648
495.000000	5.518802
494.000000	5.484051
493.000000	5.452608
492.000000	5.422360
491.000000	5.396117
490.000000	5.369963
489.000000	5.336445
488.000000	5.302793
487.000000	5.268108
486.000000	5.238341
485.000000	5.211983
484.000000	5.188604
483.000000	5.156571
482.000000	5.131326
481.000000	5.098803
480.000000	5.059039
479.000000	5.022427
478.000000	4.978401
477.000000	4.933580
476.000000	4.890628
475.000000	4.851707
474.000000	4.813211
473.000000	4.779897
472.000000	4.737005
471.000000	4.695922
470.000000	4.658591
469.000000	4.625900
468.000000	4.591306
467.000000	4.545801
466.000000	4.503599
465.000000	4.461833
464.000000	4.419489
463.000000	4.378763
462.000000	4.343928
461.000000	4.304842
460.000000	4.263450
459.000000	4.228089
458.000000	4.182741
457.000000	4.144624
456.000000	4.114879
455.000000	4.068463
454.000000	4.020036
453.000000	3.982824
452.000000	3.938980
451.000000	3.894530
450.000000	3.857288
449.000000	3.815911
448.000000	3.769189
447.000000	3.729945
446.000000	3.690116
445.000000	3.640801
444.000000	3.604232
443.000000	3.560724
442.000000	3.505592
441.000000	3.467153
440.000000	3.432811
439.000000	3.380530
438.000000	3.328920
437.000000	3.287441
436.000000	3.241526
435.000000	3.192924
434.000000	3.143319
433.000000	3.094314
432.000000	3.049928
431.000000	3.003577
430.000000	2.958473
429.000000	2.903297
428.000000	2.856754
427.000000	2.809462
426.000000	2.771005
425.000000	2.724478
424.000000	2.681401
423.000000	2.630631
422.000000	2.583541
421.000000	2.540974
420.000000	2.498897
419.000000	2.451763
418.000000	2.404191
417.000000	2.359577
416.000000	2.322750
415.000000	2.273849
414.000000	2.226831
413.000000	2.183874
412.000000	2.137566
411.000000	2.096242
410.000000	2.048059
409.000000	2.011393
408.000000	1.971484
407.000000	1.928122
406.000000	1.888797
405.000000	1.842843
404.000000	1.811934
403.000000	1.773381
402.000000	1.734165
401.000000	1.697353
400.000000	1.657316
399.000000	1.613261
398.000000	1.576798
397.000000	1.542753
396.000000	1.516566
395.000000	1.483795
394.000000	1.448396
393.000000	1.411842
392.000000	1.374361
391.000000	1.345373
390.000000	1.314459
389.000000	1.289900
388.000000	1.251403
387.000000	1.215305
386.000000	1.195499
385.000000	1.166978
384.000000	1.136584
383.000000	1.107135
382.000000	1.077386
381.000000	1.041593
380.000000	1.012513
379.000000	0.993878
378.000000	0.968253
377.000000	0.947627
376.000000	0.927853
375.000000	0.909624
374.000000	0.898135
373.000000	0.855591
372.000000	0.840944
371.000000	0.814555
370.000000	0.794868
369.000000	0.762757
368.000000	0.748447
367.000000	0.722055
366.000000	0.704997
365.000000	0.680611
364.000000	0.664586
363.000000	0.651357
362.000000	0.631668
361.000000	0.604147
360.000000	0.590480
359.000000	0.588906
358.000000	0.566293
357.000000	0.554210
356.000000	0.537596
355.000000	0.521480
354.000000	0.508511
353.000000	0.501794
352.000000	0.471158
351.000000	0.469048
350.000000	0.450180
349.000000	0.438243
348.000000	0.430188
347.000000	0.427674
346.000000	0.414323
345.000000	0.404470
344.000000	0.398002
343.000000	0.396328
342.000000	0.390053
341.000000	0.366648
340.000000	0.373811
339.000000	0.343189
338.000000	0.343375
337.000000	0.342087
336.000000	0.324411
335.000000	0.306278
334.000000	0.305918
333.000000	0.301118
332.000000	0.279962
331.000000	0.285825
330.000000	0.280138
329.000000	0.279041
328.000000	0.271940
327.000000	0.272244
326.000000	0.256280
325.000000	0.250753
324.000000	0.246973
323.000000	0.231088
322.000000	0.254001
321.000000	0.246732
320.000000	0.236310
319.000000	0.231272
318.000000	0.237201
317.000000	0.240165
316.000000	0.243565
315.000000	0.244084
314.000000	0.237332
313.000000	0.239861
312.000000	0.223100
311.000000	0.220189
310.000000	0.227918
309.000000	0.221576
308.000000	0.223726
307.000000	0.215624
306.000000	0.227519
305.000000	0.224392
304.000000	0.225278
303.000000	0.215622
302.000000	0.216427
301.000000	0.218454
300.000000	0.213504
299.000000	0.224952
298.000000	0.212647
297.000000	0.203505
296.000000	0.210171
295.000000	0.213393
294.000000	0.214483
293.000000	0.205105
292.000000	0.199337
291.000000	0.206105
290.000000	0.202448
289.000000	0.197409
288.000000	0.197047
287.000000	0.193706
286.000000	0.194865
285.000000	0.195183
284.000000	0.200939
283.000000	0.193999
282.000000	0.200842
281.000000	0.201353
280.000000	0.203316
279.000000	0.208189
278.000000	0.213692
277.000000	0.217757
276.000000	0.218275
275.000000	0.216779
274.000000	0.226778
273.000000	0.232092
272.000000	0.235756
271.000000	0.236802
270.000000	0.243144
269.000000	0.241499
268.000000	0.241977
267.000000	0.258117
266.000000	0.264188
265.000000	0.264476
264.000000	0.267116
263.000000	0.280652
262.000000	0.275975
261.000000	0.284563
260.000000	0.289504
259.000000	0.294073
258.000000	0.290025
257.000000	0.293626
256.000000	0.304163
255.000000	0.311541
254.000000	0.325391
253.000000	0.321759
252.000000	0.322329
251.000000	0.316825
250.000000	0.317099
249.000000	0.323241
248.000000	0.335000
247.000000	0.326063
246.000000	0.309297
245.000000	0.301205
244.000000	0.301022
243.000000	0.289170
242.000000	0.282358
241.000000	0.265173
240.000000	0.247179
239.000000	0.223852
238.000000	0.214113
237.000000	0.207044
236.000000	0.196043
235.000000	0.179259
234.000000	0.169376
233.000000	0.161990
232.000000	0.153270
231.000000	0.144596
230.000000	0.137526
229.000000	0.124700
228.000000	0.111439
227.000000	0.109367
226.000000	0.107049
225.000000	0.101563
224.000000	0.089720
223.000000	0.086086
222.000000	0.097853
221.000000	0.092663
220.000000	0.063842
219.000000	0.061986
218.000000	0.064662
217.000000	0.061218
216.000000	0.055217
215.000000	0.052499
214.000000	0.060267
213.000000	0.056359
212.000000	0.056610
211.000000	0.057103
210.000000	0.055781
209.000000	0.067659
208.000000	0.070103
207.000000	0.083772
206.000000	0.088870
205.000000	0.061645
204.000000	0.094794
203.000000	0.087621
202.000000	0.060006
201.000000	0.069441
200.000000	0.100945
