PE UV       SUBTECH     SPECTRUM    ASCII       PEDS        4.00        
   -1
010-5G-XXX-NR003-F001.Sample.asc
24/01/09
16:08:35.00
24/01/09
16:08:35.00
Administrator

250.000000
1
Lambda 750
750N8071901
PerkinElmer UV WinLab 6.0.4.0738 / 1.61.00 Lambda 900

0
0
3350/servo 860.8/2
0
0
UV/VIS
1
1
1
CommonBeamDepol,150mm sphere / downward view
0
0
0
0
Program
Program
3350/servo 860.8/2
3350/0.2 860.8/0.2
3350/0.2 860.8/0.2
0
1
 
 
 
0
 
860.8
319.2
860.8
Front
100
on
 
 
0
0
0
 
0
 
 
 
0
 
 
0
0
0
0
0
 
 
 
 
0
0


0
0
#HDR
-1
-1
#GR
nm
%R
1.0
0.0
2500.000000
-10.000000
226
8
59.557277
0.317564
#DATA
2500.000000	1.961706
2490.000000	0.317564
2480.000000	6.588500
2470.000000	5.121008
2460.000000	3.880243
2450.000000	4.002705
2440.000000	6.400852
2430.000000	4.269536
2420.000000	5.497162
2410.000000	9.282689
2400.000000	5.068732
2390.000000	3.851173
2380.000000	5.334600
2370.000000	6.552640
2360.000000	4.820879
2350.000000	5.550984
2340.000000	6.492793
2330.000000	5.350408
2320.000000	5.544864
2310.000000	4.326254
2300.000000	3.270094
2290.000000	5.595868
2280.000000	4.848498
2270.000000	7.617642
2260.000000	8.487604
2250.000000	10.209072
2240.000000	9.936834
2230.000000	9.303556
2220.000000	8.821003
2210.000000	8.167753
2200.000000	7.147421
2190.000000	8.215311
2180.000000	8.255039
2170.000000	8.579762
2160.000000	10.384182
2150.000000	11.737085
2140.000000	12.250822
2130.000000	12.159093
2120.000000	13.073115
2110.000000	12.975329
2100.000000	12.741084
2090.000000	11.310557
2080.000000	10.104288
2070.000000	8.581594
2060.000000	8.575171
2050.000000	8.908080
2040.000000	9.920685
2030.000000	10.023692
2020.000000	9.320109
2010.000000	8.431996
2000.000000	7.784182
1990.000000	6.721259
1980.000000	5.932615
1970.000000	5.417657
1960.000000	5.170507
1950.000000	5.765366
1940.000000	7.417078
1930.000000	10.375711
1920.000000	15.079550
1910.000000	20.961710
1900.000000	26.624893
1890.000000	31.438593
1880.000000	33.979457
1870.000000	34.674611
1860.000000	34.733519
1850.000000	34.264106
1840.000000	33.732301
1830.000000	33.314852
1820.000000	32.671259
1810.000000	32.218599
1800.000000	31.551124
1790.000000	30.882648
1780.000000	30.134686
1770.000000	29.374700
1760.000000	28.502773
1750.000000	27.874009
1740.000000	28.281628
1730.000000	29.896941
1720.000000	30.866638
1710.000000	31.299017
1700.000000	32.996567
1690.000000	35.869876
1680.000000	38.064795
1670.000000	38.961309
1660.000000	39.093147
1650.000000	38.618308
1640.000000	37.849137
1630.000000	36.925051
1620.000000	35.808279
1610.000000	34.743962
1600.000000	33.820266
1590.000000	33.047672
1580.000000	32.372973
1570.000000	31.931098
1560.000000	31.212669
1550.000000	29.889623
1540.000000	28.768532
1530.000000	28.080543
1520.000000	27.606981
1510.000000	27.480739
1500.000000	27.727928
1490.000000	28.237383
1480.000000	28.798742
1470.000000	29.548914
1460.000000	30.572420
1450.000000	32.112334
1440.000000	34.134770
1430.000000	37.043860
1420.000000	40.681261
1410.000000	44.214186
1400.000000	47.215729
1390.000000	49.100791
1380.000000	50.210301
1370.000000	51.404402
1360.000000	52.708186
1350.000000	54.091482
1340.000000	55.128417
1330.000000	55.650138
1320.000000	55.821135
1310.000000	55.759575
1300.000000	55.626450
1290.000000	55.544640
1280.000000	55.583799
1270.000000	55.725421
1260.000000	55.512962
1250.000000	55.198496
1240.000000	54.548736
1230.000000	54.023075
1220.000000	53.309560
1210.000000	52.666438
1200.000000	52.664108
1190.000000	53.337764
1180.000000	54.602164
1170.000000	56.061185
1160.000000	57.182263
1150.000000	58.100818
1140.000000	58.681726
1130.000000	58.964433
1120.000000	59.099409
1110.000000	59.070086
1100.000000	59.058897
1090.000000	58.924051
1080.000000	58.812766
1070.000000	58.648320
1060.000000	58.473446
1050.000000	58.443361
1040.000000	58.281983
1030.000000	58.184528
1020.000000	58.214624
1010.000000	58.449677
1000.000000	58.545854
990.000000	58.670793
980.000000	58.827226
970.000000	58.946377
960.000000	58.986216
950.000000	59.090010
940.000000	59.052588
930.000000	58.945123
920.000000	59.073756
910.000000	58.908108
900.000000	59.133948
890.000000	58.854406
880.000000	59.557277
870.000000	58.870133
860.000000	58.656294
850.000000	58.764151
840.000000	58.836030
830.000000	58.399183
820.000000	58.319341
810.000000	58.211614
800.000000	57.931664
790.000000	57.735256
780.000000	57.678089
770.000000	57.393085
760.000000	57.070696
750.000000	56.722789
740.000000	56.707151
730.000000	56.192330
720.000000	55.820763
710.000000	55.670898
700.000000	55.087113
690.000000	54.731069
680.000000	54.125559
670.000000	53.666279
660.000000	52.984892
650.000000	52.433602
640.000000	51.778205
630.000000	51.188335
620.000000	50.410365
610.000000	49.642700
600.000000	48.919341
590.000000	48.080136
580.000000	47.189079
570.000000	46.258796
560.000000	45.282905
550.000000	44.282145
540.000000	43.120782
530.000000	41.918356
520.000000	40.619492
510.000000	39.288205
500.000000	37.667748
490.000000	35.946795
480.000000	34.052417
470.000000	32.139309
460.000000	30.164675
450.000000	27.961447
440.000000	25.466950
430.000000	22.967182
420.000000	20.398589
410.000000	18.212220
400.000000	16.489699
390.000000	14.773621
380.000000	12.864526
370.000000	11.183644
360.000000	9.605191
350.000000	8.581637
340.000000	7.594793
330.000000	6.326453
320.000000	5.506629
310.000000	4.765111
300.000000	4.498341
290.000000	4.455090
280.000000	4.682706
270.000000	4.825605
260.000000	5.140405
250.000000	5.342270
