PE UV       SUBTECH     SPECTRUM    ASCII       PEDS        4.00        
   -1
010-4G-XXX-NR003-C001.Sample.asc
24/01/09
16:04:29.00
24/01/09
16:04:29.00
Administrator

250.000000
1
Lambda 750
750N8071901
PerkinElmer UV WinLab 6.0.4.0738 / 1.61.00 Lambda 900

0
0
3350/servo 860.8/2
0
0
UV/VIS
1
1
1
CommonBeamDepol,150mm sphere / downward view
0
0
0
0
Program
Program
3350/servo 860.8/2
3350/0.2 860.8/0.2
3350/0.2 860.8/0.2
0
1
 
 
 
0
 
860.8
319.2
860.8
Front
100
on
 
 
0
0
0
 
0
 
 
 
0
 
 
0
0
0
0
0
 
 
 
 
0
0


0
0
#HDR
-1
-1
#GR
nm
%R
1.0
0.0
2500.000000
-10.000000
226
8
60.997304
17.210933
#DATA
2500.000000	17.541927
2490.000000	17.210933
2480.000000	18.974847
2470.000000	18.721313
2460.000000	20.036610
2450.000000	21.420875
2440.000000	22.514159
2430.000000	20.876862
2420.000000	22.429804
2410.000000	23.197961
2400.000000	19.975900
2390.000000	21.081842
2380.000000	21.298900
2370.000000	22.600367
2360.000000	22.544066
2350.000000	20.822682
2340.000000	21.768354
2330.000000	21.707004
2320.000000	21.584773
2310.000000	20.607682
2300.000000	19.137657
2290.000000	21.012325
2280.000000	20.662183
2270.000000	23.317224
2260.000000	23.711749
2250.000000	24.524572
2240.000000	25.765189
2230.000000	24.632011
2220.000000	24.041963
2210.000000	23.878995
2200.000000	23.634065
2190.000000	23.488155
2180.000000	24.283500
2170.000000	24.479539
2160.000000	25.601497
2150.000000	27.344289
2140.000000	28.286382
2130.000000	27.823294
2120.000000	28.503144
2110.000000	28.007607
2100.000000	27.808636
2090.000000	27.017488
2080.000000	25.609746
2070.000000	24.327900
2060.000000	24.419860
2050.000000	24.738114
2040.000000	25.421858
2030.000000	25.096054
2020.000000	24.715683
2010.000000	23.847575
2000.000000	23.080147
1990.000000	22.091149
1980.000000	21.287202
1970.000000	20.898665
1960.000000	20.758421
1950.000000	20.996578
1940.000000	22.722533
1930.000000	25.580704
1920.000000	29.552100
1910.000000	34.148529
1900.000000	38.553922
1890.000000	42.020077
1880.000000	43.864715
1870.000000	44.670055
1860.000000	44.697628
1850.000000	44.206258
1840.000000	43.922611
1830.000000	43.481918
1820.000000	43.093721
1810.000000	42.783909
1800.000000	42.258206
1790.000000	41.968337
1780.000000	41.423902
1770.000000	41.060433
1760.000000	40.510538
1750.000000	40.159046
1740.000000	40.483313
1730.000000	41.591147
1720.000000	42.121907
1710.000000	42.380169
1700.000000	43.482063
1690.000000	45.291579
1680.000000	46.868346
1670.000000	47.458757
1660.000000	47.648294
1650.000000	47.191702
1640.000000	46.729335
1630.000000	46.070587
1620.000000	45.181196
1610.000000	44.521930
1600.000000	43.848495
1590.000000	43.443417
1580.000000	42.841537
1570.000000	42.593497
1560.000000	42.140457
1550.000000	41.195445
1540.000000	40.428213
1530.000000	39.949755
1520.000000	39.638372
1510.000000	39.566252
1500.000000	39.743390
1490.000000	40.165936
1480.000000	40.592029
1470.000000	41.168749
1460.000000	41.883992
1450.000000	42.996540
1440.000000	44.349941
1430.000000	46.355282
1420.000000	48.772871
1410.000000	51.201722
1400.000000	53.046159
1390.000000	54.269634
1380.000000	54.900515
1370.000000	55.699137
1360.000000	56.677294
1350.000000	57.650843
1340.000000	58.201313
1330.000000	58.370006
1320.000000	58.296427
1310.000000	58.294335
1300.000000	58.253985
1290.000000	58.241716
1280.000000	58.310463
1270.000000	58.416426
1260.000000	58.392717
1250.000000	58.215997
1240.000000	57.800199
1230.000000	57.535805
1220.000000	57.131269
1210.000000	56.764347
1200.000000	56.726459
1190.000000	57.120563
1180.000000	57.850187
1170.000000	58.663651
1160.000000	59.362680
1150.000000	59.903503
1140.000000	60.160288
1130.000000	60.397633
1120.000000	60.413396
1110.000000	60.513428
1100.000000	60.509499
1090.000000	60.373220
1080.000000	60.303278
1070.000000	60.228182
1060.000000	60.110061
1050.000000	59.976328
1040.000000	59.955007
1030.000000	59.858345
1020.000000	59.852153
1010.000000	60.025468
1000.000000	60.145281
990.000000	60.181279
980.000000	60.329830
970.000000	60.431048
960.000000	60.573210
950.000000	60.632791
940.000000	60.610482
930.000000	60.623067
920.000000	60.636614
910.000000	60.821569
900.000000	60.780371
890.000000	60.770715
880.000000	60.889840
870.000000	60.775824
860.000000	60.989976
850.000000	60.351208
840.000000	60.997304
830.000000	60.503172
820.000000	60.743564
810.000000	60.544958
800.000000	60.354237
790.000000	60.425109
780.000000	60.535583
770.000000	60.550429
760.000000	60.401990
750.000000	60.047730
740.000000	60.193849
730.000000	60.039999
720.000000	59.883075
710.000000	59.870476
700.000000	59.631685
690.000000	59.505240
680.000000	59.349621
670.000000	59.115922
660.000000	58.996841
650.000000	58.715639
640.000000	58.398951
630.000000	58.245117
620.000000	58.010151
610.000000	57.654268
600.000000	57.481701
590.000000	57.179308
580.000000	56.861067
570.000000	56.521201
560.000000	56.247919
550.000000	55.873936
540.000000	55.347033
530.000000	54.936913
520.000000	54.360438
510.000000	53.894391
500.000000	53.199605
490.000000	52.405072
480.000000	51.578364
470.000000	50.677581
460.000000	49.863502
450.000000	48.609269
440.000000	47.477470
430.000000	46.146544
420.000000	44.742081
410.000000	43.370887
400.000000	42.203331
390.000000	40.808324
380.000000	39.248552
370.000000	37.730667
360.000000	36.135296
350.000000	34.405453
340.000000	33.480833
330.000000	30.807428
320.000000	30.523285
310.000000	28.400473
300.000000	26.574373
290.000000	21.486621
280.000000	18.134741
270.000000	18.869751
260.000000	20.024616
250.000000	19.269888
