PE UV       SUBTECH     SPECTRUM    ASCII       PEDS        4.00        
   -1
014-3C-XXX-NR003-F001.Sample.asc
24/01/09
15:11:36.00
24/01/09
15:11:36.00
Administrator

250.000000
1
Lambda 750
750N8071901
PerkinElmer UV WinLab 6.0.4.0738 / 1.61.00 Lambda 900

0
0
3350/servo 860.8/2
0
0
UV/VIS
1
1
1
CommonBeamDepol,150mm sphere / downward view
0
0
0
0
Program
Program
3350/servo 860.8/2
3350/0.2 860.8/0.2
3350/0.2 860.8/0.2
0
1
 
 
 
0
 
860.8
319.2
860.8
Front
100
on
 
 
0
0
0
 
0
 
 
 
0
 
 
0
0
0
0
0
 
 
 
 
0
0


0
0
#HDR
-1
-1
#GR
nm
%R
1.0
0.0
2500.000000
-10.000000
226
8
64.823109
5.295475
#DATA
2500.000000	9.208188
2490.000000	11.464349
2480.000000	11.495448
2470.000000	9.800724
2460.000000	12.497026
2450.000000	11.917956
2440.000000	13.867409
2430.000000	14.735229
2420.000000	15.893078
2410.000000	16.866216
2400.000000	13.517821
2390.000000	14.588684
2380.000000	13.689802
2370.000000	15.693331
2360.000000	14.029847
2350.000000	13.896734
2340.000000	15.417767
2330.000000	14.332664
2320.000000	14.439383
2310.000000	13.064288
2300.000000	13.578276
2290.000000	13.698900
2280.000000	13.375761
2270.000000	16.408105
2260.000000	18.112017
2250.000000	19.284103
2240.000000	19.678010
2230.000000	19.290040
2220.000000	18.747350
2210.000000	17.616188
2200.000000	16.876030
2190.000000	17.297199
2180.000000	17.485842
2170.000000	18.719134
2160.000000	21.015717
2150.000000	21.870016
2140.000000	22.871203
2130.000000	22.539458
2120.000000	23.499813
2110.000000	23.015720
2100.000000	22.947202
2090.000000	21.868928
2080.000000	20.521739
2070.000000	18.699028
2060.000000	18.246886
2050.000000	18.467241
2040.000000	19.791206
2030.000000	20.103432
2020.000000	19.287682
2010.000000	17.935114
2000.000000	17.049821
1990.000000	15.619947
1980.000000	14.746092
1970.000000	14.010540
1960.000000	13.687070
1950.000000	14.221218
1940.000000	15.926464
1930.000000	19.827972
1920.000000	24.970030
1910.000000	31.397447
1900.000000	37.262334
1890.000000	41.649043
1880.000000	44.022634
1870.000000	44.838201
1860.000000	44.995547
1850.000000	44.600188
1840.000000	44.204331
1830.000000	43.642304
1820.000000	43.227526
1810.000000	42.652971
1800.000000	41.962979
1790.000000	41.592616
1780.000000	40.744639
1770.000000	40.148882
1760.000000	39.364968
1750.000000	38.792386
1740.000000	39.215739
1730.000000	40.680321
1720.000000	41.620752
1710.000000	42.088638
1700.000000	43.441726
1690.000000	45.938092
1680.000000	47.967778
1670.000000	48.732079
1660.000000	48.900952
1650.000000	48.489769
1640.000000	47.818072
1630.000000	47.016816
1620.000000	45.923733
1610.000000	45.070074
1600.000000	44.208707
1590.000000	43.418870
1580.000000	42.849898
1570.000000	42.458919
1560.000000	41.881010
1550.000000	40.590743
1540.000000	39.516652
1530.000000	38.836991
1520.000000	38.415735
1510.000000	38.317714
1500.000000	38.568134
1490.000000	39.137969
1480.000000	39.716482
1470.000000	40.441502
1460.000000	41.404584
1450.000000	42.822877
1440.000000	44.609484
1430.000000	47.234568
1420.000000	50.326817
1410.000000	53.375415
1400.000000	55.684072
1390.000000	57.063299
1380.000000	57.828157
1370.000000	58.608654
1360.000000	59.538763
1350.000000	60.574908
1340.000000	61.418256
1330.000000	61.829296
1320.000000	61.910826
1310.000000	61.894425
1300.000000	61.819013
1290.000000	61.763820
1280.000000	61.717577
1270.000000	61.820381
1260.000000	61.820177
1250.000000	61.529700
1240.000000	61.108493
1230.000000	60.807378
1220.000000	60.301078
1210.000000	59.850026
1200.000000	59.805681
1190.000000	60.226123
1180.000000	61.060436
1170.000000	62.030534
1160.000000	62.882728
1150.000000	63.478123
1140.000000	63.762795
1130.000000	64.001879
1120.000000	64.036936
1110.000000	64.084772
1100.000000	64.104445
1090.000000	64.030996
1080.000000	63.914281
1070.000000	63.844845
1060.000000	63.697716
1050.000000	63.607380
1040.000000	63.562221
1030.000000	63.501998
1020.000000	63.476301
1010.000000	63.726117
1000.000000	63.816850
990.000000	63.899359
980.000000	64.020445
970.000000	64.151206
960.000000	64.197282
950.000000	64.283371
940.000000	64.278790
930.000000	64.264258
920.000000	64.365171
910.000000	64.305763
900.000000	64.392571
890.000000	64.640189
880.000000	64.786052
870.000000	64.823109
860.000000	64.741166
850.000000	63.865281
840.000000	64.547130
830.000000	64.190269
820.000000	64.584039
810.000000	64.193190
800.000000	64.077600
790.000000	64.164418
780.000000	64.372123
770.000000	64.516916
760.000000	64.179773
750.000000	63.986448
740.000000	64.245285
730.000000	64.221839
720.000000	64.189065
710.000000	64.225830
700.000000	64.193364
690.000000	64.178116
680.000000	64.016309
670.000000	63.969278
660.000000	63.902490
650.000000	63.849865
640.000000	63.743785
630.000000	63.557222
620.000000	63.326277
610.000000	63.120056
600.000000	62.970197
590.000000	62.636272
580.000000	62.269449
570.000000	61.903257
560.000000	61.529360
550.000000	60.960032
540.000000	60.294651
530.000000	59.676016
520.000000	58.738705
510.000000	57.987819
500.000000	56.809751
490.000000	55.588282
480.000000	54.286531
470.000000	52.749661
460.000000	51.041471
450.000000	48.827018
440.000000	46.219599
430.000000	43.644539
420.000000	40.639577
410.000000	37.517115
400.000000	34.342962
390.000000	30.862209
380.000000	27.457388
370.000000	24.138116
360.000000	20.817507
350.000000	18.124646
340.000000	14.995573
330.000000	12.416054
320.000000	10.200975
310.000000	8.059284
300.000000	6.860549
290.000000	5.421037
280.000000	5.295475
270.000000	5.437282
260.000000	6.028750
250.000000	6.779030
