PE UV       SUBTECH     SPECTRUM    ASCII       PEDS        4.00        
   -1
014-4C-XXX-NR003-C001.Sample.asc
24/01/09
15:32:31.00
24/01/09
15:32:31.00
Administrator

250.000000
1
Lambda 750
750N8071901
PerkinElmer UV WinLab 6.0.4.0738 / 1.61.00 Lambda 900

0
0
3350/servo 860.8/2
0
0
UV/VIS
1
1
1
CommonBeamDepol,150mm sphere / downward view
0
0
0
0
Program
Program
3350/servo 860.8/2
3350/0.2 860.8/0.2
3350/0.2 860.8/0.2
0
1
 
 
 
0
 
860.8
319.2
860.8
Front
100
on
 
 
0
0
0
 
0
 
 
 
0
 
 
0
0
0
0
0
 
 
 
 
0
0


0
0
#HDR
-1
-1
#GR
nm
%R
1.0
0.0
2500.000000
-10.000000
226
8
66.078025
5.827499
#DATA
2500.000000	12.507764
2490.000000	12.412731
2480.000000	13.023666
2470.000000	16.365938
2460.000000	15.176505
2450.000000	16.342041
2440.000000	16.079099
2430.000000	17.626933
2420.000000	17.839943
2410.000000	20.082740
2400.000000	16.076064
2390.000000	16.104050
2380.000000	15.667902
2370.000000	16.462056
2360.000000	15.956637
2350.000000	16.979399
2340.000000	17.811337
2330.000000	16.567479
2320.000000	16.493297
2310.000000	14.444511
2300.000000	14.159484
2290.000000	16.084396
2280.000000	16.107691
2270.000000	18.685908
2260.000000	19.853772
2250.000000	21.609590
2240.000000	21.727780
2230.000000	21.267817
2220.000000	20.776757
2210.000000	19.924140
2200.000000	19.296802
2190.000000	19.434035
2180.000000	19.957940
2170.000000	20.802888
2160.000000	22.303468
2150.000000	24.114587
2140.000000	25.091967
2130.000000	24.752508
2120.000000	25.752463
2110.000000	25.951200
2100.000000	25.664705
2090.000000	23.994318
2080.000000	22.363631
2070.000000	20.592831
2060.000000	20.233304
2050.000000	20.692223
2040.000000	22.439091
2030.000000	22.320991
2020.000000	21.405642
2010.000000	20.475264
2000.000000	19.175674
1990.000000	17.967534
1980.000000	16.863128
1970.000000	16.307583
1960.000000	15.689227
1950.000000	16.614648
1940.000000	18.301845
1930.000000	21.729995
1920.000000	27.146608
1910.000000	33.769107
1900.000000	39.613421
1890.000000	43.931494
1880.000000	46.111611
1870.000000	46.843201
1860.000000	47.082602
1850.000000	46.638912
1840.000000	46.260723
1830.000000	45.768162
1820.000000	45.179892
1810.000000	44.760720
1800.000000	44.191147
1790.000000	43.607851
1780.000000	42.833426
1770.000000	42.360985
1760.000000	41.509087
1750.000000	40.856195
1740.000000	41.460661
1730.000000	42.938327
1720.000000	43.743417
1710.000000	44.277825
1700.000000	45.502658
1690.000000	48.019952
1680.000000	49.953178
1670.000000	50.721711
1660.000000	50.901800
1650.000000	50.497296
1640.000000	49.817959
1630.000000	49.004168
1620.000000	47.969759
1610.000000	47.106959
1600.000000	46.293675
1590.000000	45.642926
1580.000000	45.010776
1570.000000	44.669340
1560.000000	44.068130
1550.000000	42.781035
1540.000000	41.716942
1530.000000	41.092375
1520.000000	40.705020
1510.000000	40.593210
1500.000000	40.880474
1490.000000	41.424161
1480.000000	42.063100
1470.000000	42.816261
1460.000000	43.768628
1450.000000	45.070041
1440.000000	46.869988
1430.000000	49.334670
1420.000000	52.312250
1410.000000	55.136407
1400.000000	57.294001
1390.000000	58.625111
1380.000000	59.359318
1370.000000	60.228338
1360.000000	61.227814
1350.000000	62.248617
1340.000000	62.818246
1330.000000	62.895092
1320.000000	62.921242
1310.000000	62.981679
1300.000000	62.863934
1290.000000	62.886562
1280.000000	62.954489
1270.000000	63.008452
1260.000000	63.017542
1250.000000	62.778599
1240.000000	62.283889
1230.000000	62.043473
1220.000000	61.534734
1210.000000	61.198237
1200.000000	61.122780
1190.000000	61.476204
1180.000000	62.331979
1170.000000	63.244311
1160.000000	63.998290
1150.000000	64.600294
1140.000000	64.894067
1130.000000	65.051644
1120.000000	65.127843
1110.000000	65.152461
1100.000000	65.212383
1090.000000	65.085247
1080.000000	64.951784
1070.000000	64.910945
1060.000000	64.808732
1050.000000	64.735026
1040.000000	64.717823
1030.000000	64.628725
1020.000000	64.729106
1010.000000	64.832239
1000.000000	64.968725
990.000000	65.006861
980.000000	65.191031
970.000000	65.292871
960.000000	65.442625
950.000000	65.495806
940.000000	65.392034
930.000000	65.439339
920.000000	65.565191
910.000000	65.569678
900.000000	65.636151
890.000000	65.537277
880.000000	66.078025
870.000000	65.884668
860.000000	65.773213
850.000000	65.260706
840.000000	65.833917
830.000000	65.475451
820.000000	65.957757
810.000000	65.820097
800.000000	65.622537
790.000000	65.520795
780.000000	65.660988
770.000000	65.685734
760.000000	65.482995
750.000000	65.272277
740.000000	65.594917
730.000000	65.433241
720.000000	65.412546
710.000000	65.512645
700.000000	65.368825
690.000000	65.333033
680.000000	65.439286
670.000000	65.272776
660.000000	65.137591
650.000000	65.103206
640.000000	64.880712
630.000000	64.718384
620.000000	64.632865
610.000000	64.453536
600.000000	64.196080
590.000000	63.928029
580.000000	63.450183
570.000000	63.131622
560.000000	62.636104
550.000000	62.163287
540.000000	61.484336
530.000000	60.829994
520.000000	59.976213
510.000000	59.057235
500.000000	58.097130
490.000000	56.833049
480.000000	55.439290
470.000000	53.908382
460.000000	52.188856
450.000000	49.877438
440.000000	47.246186
430.000000	44.571507
420.000000	41.503455
410.000000	38.287246
400.000000	34.916373
390.000000	31.405587
380.000000	27.926541
370.000000	24.534463
360.000000	21.163616
350.000000	18.274729
340.000000	15.699073
330.000000	12.310736
320.000000	10.838757
310.000000	8.892744
300.000000	7.630979
290.000000	6.072290
280.000000	5.827499
270.000000	5.989056
260.000000	6.635467
250.000000	7.349366
