PE UV       SUBTECH     SPECTRUM    ASCII       PEDS        4.00        
   -1
Empty Chamber.Sample.asc
18/03/06
14:11:17.00
18/03/06
14:11:17.00
Administrator

200.000000
1
Lambda 750
750N8071901
PerkinElmer UV WinLab 6.0.4.0738 / 1.61.00 Lambda 900

0
0
3350/servo 860.8/2
0
0
UV/VIS
1
1
1
CommonBeamDepol,150mm sphere / downward view
0
0
0
0
Program
Program
3350/servo 860.8/2
3350/0.2 860.8/0.2
3350/0.2 860.8/0.2
0
1
 
 
 
0
 
860.8
319.2
860.8
Front
100
on
 
 
0
0
0
 
0
 
 
 
0
 
 
0
0
0
0
0
 
 
 
 
0
0


0
0
#HDR
-1
-1
#GR
nm
%T
1.0
0.0
2350.000000
-1.000000
2151
8
100.747587
99.488709
#DATA
2350.000000	99.781934
2349.000000	100.293889
2348.000000	100.353848
2347.000000	100.728860
2346.000000	99.565015
2345.000000	100.315591
2344.000000	100.037208
2343.000000	99.611133
2342.000000	99.836861
2341.000000	99.919929
2340.000000	99.960592
2339.000000	100.271034
2338.000000	100.747587
2337.000000	99.818761
2336.000000	99.613472
2335.000000	100.454532
2334.000000	100.224641
2333.000000	100.216158
2332.000000	99.949072
2331.000000	99.763938
2330.000000	99.775634
2329.000000	100.060349
2328.000000	99.681099
2327.000000	99.700065
2326.000000	100.026066
2325.000000	99.801959
2324.000000	100.297310
2323.000000	100.064669
2322.000000	99.509567
2321.000000	99.673160
2320.000000	99.843278
2319.000000	100.237601
2318.000000	100.172911
2317.000000	100.126486
2316.000000	100.479815
2315.000000	100.134369
2314.000000	100.159019
2313.000000	100.044398
2312.000000	99.564216
2311.000000	100.153425
2310.000000	100.136134
2309.000000	100.155370
2308.000000	100.157536
2307.000000	99.673839
2306.000000	99.908395
2305.000000	100.056955
2304.000000	100.409909
2303.000000	100.162236
2302.000000	100.339456
2301.000000	100.055317
2300.000000	100.144602
2299.000000	99.873842
2298.000000	99.774448
2297.000000	99.786396
2296.000000	99.966412
2295.000000	100.038909
2294.000000	100.246619
2293.000000	100.363988
2292.000000	99.876300
2291.000000	99.889353
2290.000000	99.868204
2289.000000	100.205485
2288.000000	100.228232
2287.000000	100.309628
2286.000000	99.920216
2285.000000	99.818200
2284.000000	99.992203
2283.000000	100.052606
2282.000000	100.027309
2281.000000	100.188601
2280.000000	100.138821
2279.000000	100.246550
2278.000000	100.038440
2277.000000	100.003944
2276.000000	100.051278
2275.000000	99.958143
2274.000000	100.080161
2273.000000	100.185440
2272.000000	99.942882
2271.000000	99.920103
2270.000000	99.945074
2269.000000	99.939569
2268.000000	100.017629
2267.000000	100.244536
2266.000000	100.152715
2265.000000	100.174819
2264.000000	100.251058
2263.000000	99.860522
2262.000000	99.783279
2261.000000	100.158113
2260.000000	99.995052
2259.000000	99.971506
2258.000000	100.209643
2257.000000	100.102452
2256.000000	99.953091
2255.000000	99.852292
2254.000000	99.929012
2253.000000	100.035093
2252.000000	100.045861
2251.000000	100.123248
2250.000000	100.078997
2249.000000	100.008402
2248.000000	99.983708
2247.000000	100.175240
2246.000000	100.300547
2245.000000	100.101380
2244.000000	100.095076
2243.000000	100.223275
2242.000000	100.310477
2241.000000	100.131330
2240.000000	99.888570
2239.000000	99.997368
2238.000000	100.128474
2237.000000	100.130130
2236.000000	100.005872
2235.000000	100.026936
2234.000000	100.147723
2233.000000	100.005770
2232.000000	99.931650
2231.000000	99.800670
2230.000000	99.914578
2229.000000	100.008397
2228.000000	100.052233
2227.000000	99.929688
2226.000000	99.845301
2225.000000	99.939278
2224.000000	99.962163
2223.000000	99.891488
2222.000000	100.158926
2221.000000	100.238628
2220.000000	99.974088
2219.000000	100.163146
2218.000000	100.074044
2217.000000	99.870242
2216.000000	100.043993
2215.000000	100.045426
2214.000000	99.922428
2213.000000	100.059189
2212.000000	99.959437
2211.000000	99.900510
2210.000000	100.162610
2209.000000	100.102300
2208.000000	99.855303
2207.000000	100.031280
2206.000000	100.309586
2205.000000	100.403438
2204.000000	100.257828
2203.000000	99.928260
2202.000000	100.082924
2201.000000	100.078661
2200.000000	99.935046
2199.000000	100.011523
2198.000000	100.012433
2197.000000	99.947334
2196.000000	99.928277
2195.000000	100.005157
2194.000000	100.007280
2193.000000	99.980894
2192.000000	100.155600
2191.000000	100.136083
2190.000000	100.088477
2189.000000	100.288057
2188.000000	99.961085
2187.000000	99.757670
2186.000000	99.622881
2185.000000	99.905484
2184.000000	99.870409
2183.000000	100.084073
2182.000000	99.897823
2181.000000	99.980196
2180.000000	100.189624
2179.000000	99.908498
2178.000000	99.938164
2177.000000	100.212074
2176.000000	100.129623
2175.000000	99.995454
2174.000000	100.264637
2173.000000	100.122930
2172.000000	100.058416
2171.000000	99.839888
2170.000000	100.202445
2169.000000	100.060654
2168.000000	99.985686
2167.000000	99.838779
2166.000000	100.086307
2165.000000	100.190617
2164.000000	100.022692
2163.000000	99.635315
2162.000000	100.112636
2161.000000	100.008765
2160.000000	100.047523
2159.000000	100.063291
2158.000000	100.118495
2157.000000	99.765092
2156.000000	99.697499
2155.000000	99.951829
2154.000000	99.654313
2153.000000	100.015112
2152.000000	100.108065
2151.000000	99.871100
2150.000000	100.118273
2149.000000	99.896525
2148.000000	99.952545
2147.000000	100.254202
2146.000000	100.006242
2145.000000	99.727853
2144.000000	100.028698
2143.000000	100.218851
2142.000000	99.908032
2141.000000	99.898195
2140.000000	100.004726
2139.000000	100.091360
2138.000000	100.130500
2137.000000	99.808542
2136.000000	99.986896
2135.000000	100.023640
2134.000000	99.993662
2133.000000	100.258728
2132.000000	99.996481
2131.000000	99.847095
2130.000000	100.094250
2129.000000	100.011768
2128.000000	100.088084
2127.000000	100.074681
2126.000000	99.983488
2125.000000	99.844828
2124.000000	100.095555
2123.000000	100.150006
2122.000000	99.960921
2121.000000	100.090144
2120.000000	99.914553
2119.000000	99.898922
2118.000000	99.966891
2117.000000	100.169525
2116.000000	100.221350
2115.000000	100.357732
2114.000000	99.986785
2113.000000	100.065221
2112.000000	100.081665
2111.000000	99.896252
2110.000000	100.028189
2109.000000	100.020605
2108.000000	100.133978
2107.000000	99.995758
2106.000000	100.013826
2105.000000	100.027445
2104.000000	99.781337
2103.000000	99.931629
2102.000000	100.037792
2101.000000	100.100645
2100.000000	100.138262
2099.000000	99.985258
2098.000000	100.000808
2097.000000	100.010194
2096.000000	99.885673
2095.000000	100.080910
2094.000000	100.006566
2093.000000	100.148926
2092.000000	100.051739
2091.000000	99.999293
2090.000000	100.011613
2089.000000	99.837769
2088.000000	100.007572
2087.000000	99.973668
2086.000000	99.941420
2085.000000	100.061922
2084.000000	99.924838
2083.000000	99.933320
2082.000000	100.084633
2081.000000	100.051240
2080.000000	100.036359
2079.000000	100.094808
2078.000000	100.053211
2077.000000	99.987760
2076.000000	99.941409
2075.000000	99.949980
2074.000000	99.836714
2073.000000	99.945169
2072.000000	100.071436
2071.000000	100.107258
2070.000000	100.110413
2069.000000	100.018299
2068.000000	100.026598
2067.000000	100.052506
2066.000000	99.993023
2065.000000	100.132541
2064.000000	100.222257
2063.000000	100.108606
2062.000000	100.040365
2061.000000	100.099588
2060.000000	100.014469
2059.000000	100.012448
2058.000000	100.018914
2057.000000	99.961808
2056.000000	100.004956
2055.000000	100.025297
2054.000000	99.929006
2053.000000	100.029745
2052.000000	100.027632
2051.000000	100.062368
2050.000000	100.059896
2049.000000	100.069625
2048.000000	100.043523
2047.000000	99.964873
2046.000000	99.942208
2045.000000	99.981986
2044.000000	100.003442
2043.000000	100.079993
2042.000000	100.061350
2041.000000	100.000304
2040.000000	99.961131
2039.000000	100.007899
2038.000000	100.102822
2037.000000	100.031391
2036.000000	99.988661
2035.000000	100.046578
2034.000000	100.129997
2033.000000	100.093202
2032.000000	100.040002
2031.000000	100.039305
2030.000000	99.980245
2029.000000	100.008915
2028.000000	100.056729
2027.000000	100.012462
2026.000000	100.054827
2025.000000	100.049141
2024.000000	100.033340
2023.000000	100.109435
2022.000000	100.025640
2021.000000	99.989263
2020.000000	100.052102
2019.000000	100.057898
2018.000000	100.036493
2017.000000	99.983988
2016.000000	100.027276
2015.000000	99.933395
2014.000000	99.870018
2013.000000	99.966459
2012.000000	99.993817
2011.000000	100.051003
2010.000000	100.049596
2009.000000	100.007099
2008.000000	100.009838
2007.000000	100.004768
2006.000000	99.980420
2005.000000	99.980928
2004.000000	100.045861
2003.000000	100.052667
2002.000000	100.025475
2001.000000	100.008524
2000.000000	99.940968
1999.000000	99.988128
1998.000000	99.982551
1997.000000	100.010859
1996.000000	100.026999
1995.000000	99.951396
1994.000000	100.013907
1993.000000	100.038480
1992.000000	100.054124
1991.000000	100.030974
1990.000000	100.040023
1989.000000	100.045394
1988.000000	100.056461
1987.000000	100.040836
1986.000000	99.975632
1985.000000	99.909972
1984.000000	99.942630
1983.000000	100.000813
1982.000000	100.002336
1981.000000	100.005686
1980.000000	99.915235
1979.000000	100.051906
1978.000000	100.083135
1977.000000	100.031303
1976.000000	100.047853
1975.000000	100.001625
1974.000000	100.054575
1973.000000	100.060584
1972.000000	100.028852
1971.000000	100.054664
1970.000000	99.979177
1969.000000	100.008532
1968.000000	100.040218
1967.000000	100.046009
1966.000000	99.986800
1965.000000	99.972277
1964.000000	100.004063
1963.000000	100.070294
1962.000000	99.985481
1961.000000	99.976747
1960.000000	99.990554
1959.000000	100.025504
1958.000000	100.021323
1957.000000	100.066330
1956.000000	100.101985
1955.000000	99.991981
1954.000000	100.017663
1953.000000	100.001827
1952.000000	100.041719
1951.000000	100.042740
1950.000000	99.968339
1949.000000	99.991475
1948.000000	100.023233
1947.000000	100.061896
1946.000000	100.005885
1945.000000	100.077473
1944.000000	100.144427
1943.000000	100.105256
1942.000000	100.003856
1941.000000	99.988949
1940.000000	100.026068
1939.000000	99.971402
1938.000000	100.023328
1937.000000	100.006689
1936.000000	100.019965
1935.000000	100.040467
1934.000000	100.028180
1933.000000	99.891215
1932.000000	99.962606
1931.000000	100.063619
1930.000000	100.073456
1929.000000	100.009524
1928.000000	100.049850
1927.000000	100.056140
1926.000000	100.075969
1925.000000	100.018350
1924.000000	100.032521
1923.000000	99.853270
1922.000000	99.947383
1921.000000	99.955438
1920.000000	99.868731
1919.000000	100.058303
1918.000000	100.078391
1917.000000	99.936819
1916.000000	99.941178
1915.000000	100.053468
1914.000000	99.900520
1913.000000	100.003343
1912.000000	99.914323
1911.000000	99.950270
1910.000000	99.905514
1909.000000	99.969682
1908.000000	99.835994
1907.000000	100.110757
1906.000000	100.022797
1905.000000	99.997161
1904.000000	100.119140
1903.000000	99.993212
1902.000000	99.926067
1901.000000	100.045293
1900.000000	100.042256
1899.000000	100.016926
1898.000000	99.997669
1897.000000	99.955344
1896.000000	100.048190
1895.000000	99.986416
1894.000000	99.887631
1893.000000	99.988543
1892.000000	100.035911
1891.000000	100.054156
1890.000000	100.044908
1889.000000	100.090887
1888.000000	99.950551
1887.000000	100.043675
1886.000000	100.026131
1885.000000	100.019645
1884.000000	99.936238
1883.000000	99.970750
1882.000000	99.964181
1881.000000	100.064193
1880.000000	100.014986
1879.000000	100.026512
1878.000000	100.031152
1877.000000	100.012339
1876.000000	100.017297
1875.000000	100.027322
1874.000000	100.097403
1873.000000	100.013750
1872.000000	100.007280
1871.000000	100.056336
1870.000000	99.906406
1869.000000	99.934516
1868.000000	99.968660
1867.000000	99.903999
1866.000000	99.967641
1865.000000	99.971881
1864.000000	99.888131
1863.000000	100.045926
1862.000000	100.014158
1861.000000	100.068509
1860.000000	100.022665
1859.000000	100.022865
1858.000000	99.979062
1857.000000	99.944877
1856.000000	99.948644
1855.000000	100.043485
1854.000000	100.022252
1853.000000	99.998179
1852.000000	99.976242
1851.000000	100.087587
1850.000000	99.992518
1849.000000	99.939669
1848.000000	100.033674
1847.000000	100.062717
1846.000000	100.016284
1845.000000	99.971294
1844.000000	100.006771
1843.000000	99.956552
1842.000000	99.971802
1841.000000	99.980395
1840.000000	99.989892
1839.000000	100.004550
1838.000000	100.013452
1837.000000	99.997572
1836.000000	100.022156
1835.000000	100.013758
1834.000000	99.970053
1833.000000	100.042308
1832.000000	100.030067
1831.000000	99.982489
1830.000000	100.023187
1829.000000	100.018531
1828.000000	99.991494
1827.000000	100.015904
1826.000000	99.978632
1825.000000	99.979544
1824.000000	100.011143
1823.000000	99.989161
1822.000000	100.020465
1821.000000	99.997062
1820.000000	99.954311
1819.000000	99.947213
1818.000000	99.964540
1817.000000	100.028484
1816.000000	100.039331
1815.000000	100.037808
1814.000000	100.043089
1813.000000	99.999696
1812.000000	99.990165
1811.000000	100.005373
1810.000000	100.023016
1809.000000	100.018153
1808.000000	99.992698
1807.000000	99.987728
1806.000000	100.008014
1805.000000	100.026985
1804.000000	100.044638
1803.000000	100.029826
1802.000000	100.022421
1801.000000	100.009130
1800.000000	100.002029
1799.000000	100.013491
1798.000000	99.997160
1797.000000	99.985191
1796.000000	99.967337
1795.000000	99.952328
1794.000000	100.000812
1793.000000	100.002638
1792.000000	99.990259
1791.000000	100.012888
1790.000000	100.030047
1789.000000	100.038373
1788.000000	100.013196
1787.000000	100.005989
1786.000000	100.013704
1785.000000	100.039391
1784.000000	100.004161
1783.000000	99.981426
1782.000000	99.984978
1781.000000	99.988026
1780.000000	100.001421
1779.000000	100.038369
1778.000000	100.023038
1777.000000	99.983055
1776.000000	99.989750
1775.000000	99.992895
1774.000000	100.004059
1773.000000	100.023547
1772.000000	100.034008
1771.000000	99.986501
1770.000000	99.990968
1769.000000	100.016847
1768.000000	100.005480
1767.000000	99.991273
1766.000000	100.003146
1765.000000	99.991579
1764.000000	100.012176
1763.000000	99.999797
1762.000000	99.995534
1761.000000	100.009744
1760.000000	99.956984
1759.000000	99.979202
1758.000000	100.005074
1757.000000	100.021116
1756.000000	100.000203
1755.000000	100.027003
1754.000000	99.969971
1753.000000	99.946439
1752.000000	99.939340
1751.000000	99.971699
1750.000000	99.997159
1749.000000	99.984987
1748.000000	99.966424
1747.000000	100.010757
1746.000000	100.008321
1745.000000	100.020093
1744.000000	100.028722
1743.000000	100.021210
1742.000000	100.007408
1741.000000	99.990969
1740.000000	100.031867
1739.000000	99.991378
1738.000000	99.978597
1737.000000	99.985598
1736.000000	100.009333
1735.000000	100.001928
1734.000000	99.989550
1733.000000	99.979203
1732.000000	100.033995
1731.000000	100.005580
1730.000000	100.001421
1729.000000	100.016840
1728.000000	100.012581
1727.000000	100.007407
1726.000000	100.008825
1725.000000	99.993710
1724.000000	99.998479
1723.000000	99.945455
1722.000000	100.008419
1721.000000	99.998580
1720.000000	100.026379
1719.000000	100.039974
1718.000000	99.986510
1717.000000	100.060660
1716.000000	99.999188
1715.000000	99.972315
1714.000000	99.988435
1713.000000	100.035816
1712.000000	99.990465
1711.000000	100.014912
1710.000000	100.023431
1709.000000	99.985091
1708.000000	100.010245
1707.000000	99.984483
1706.000000	99.963491
1705.000000	100.000406
1704.000000	99.988740
1703.000000	99.984174
1702.000000	100.030337
1701.000000	100.030840
1700.000000	99.958625
1699.000000	100.031236
1698.000000	99.969384
1697.000000	99.970084
1696.000000	100.036725
1695.000000	100.016636
1694.000000	99.987527
1693.000000	100.000507
1692.000000	100.052560
1691.000000	100.054985
1690.000000	100.041492
1689.000000	100.016332
1688.000000	100.026367
1687.000000	100.037119
1686.000000	100.031348
1685.000000	100.009026
1684.000000	100.008114
1683.000000	99.998682
1682.000000	100.026477
1681.000000	99.982156
1680.000000	100.009230
1679.000000	100.023232
1678.000000	99.991074
1677.000000	100.021302
1676.000000	100.015924
1675.000000	100.020792
1674.000000	100.007000
1673.000000	99.985903
1672.000000	99.983063
1671.000000	100.020490
1670.000000	100.014806
1669.000000	100.015006
1668.000000	99.994829
1667.000000	100.006287
1666.000000	99.998277
1665.000000	99.996655
1664.000000	100.010037
1663.000000	99.980636
1662.000000	100.026263
1661.000000	99.972724
1660.000000	99.968264
1659.000000	100.010850
1658.000000	100.009735
1657.000000	100.055073
1656.000000	100.009631
1655.000000	99.965639
1654.000000	99.979419
1653.000000	99.983577
1652.000000	99.978609
1651.000000	100.011458
1650.000000	100.027075
1649.000000	100.049601
1648.000000	99.998377
1647.000000	100.027179
1646.000000	100.011356
1645.000000	99.990976
1644.000000	100.021300
1643.000000	99.969989
1642.000000	99.968367
1641.000000	99.967148
1640.000000	99.977085
1639.000000	100.018659
1638.000000	99.997465
1637.000000	100.001115
1636.000000	99.998276
1635.000000	99.985503
1634.000000	99.989760
1633.000000	99.993510
1632.000000	99.994727
1631.000000	100.008519
1630.000000	100.019472
1629.000000	100.072932
1628.000000	100.011356
1627.000000	99.998783
1626.000000	99.993307
1625.000000	100.001927
1624.000000	99.981444
1623.000000	100.004564
1622.000000	99.995742
1621.000000	99.988745
1620.000000	100.022411
1619.000000	100.030523
1618.000000	100.027784
1617.000000	100.024842
1616.000000	100.006592
1615.000000	100.008012
1614.000000	100.029918
1613.000000	100.031541
1612.000000	100.022311
1611.000000	100.026977
1610.000000	100.021498
1609.000000	100.012573
1608.000000	99.997060
1607.000000	100.003245
1606.000000	100.001420
1605.000000	99.992699
1604.000000	99.998682
1603.000000	100.033463
1602.000000	100.036405
1601.000000	100.007200
1600.000000	99.997465
1599.000000	100.002028
1598.000000	100.004867
1597.000000	99.979318
1596.000000	99.988442
1595.000000	99.999696
1594.000000	100.003853
1593.000000	99.996857
1592.000000	99.989151
1591.000000	100.014399
1590.000000	100.011256
1589.000000	100.001318
1588.000000	100.021094
1587.000000	100.024036
1586.000000	100.005679
1585.000000	100.017747
1584.000000	100.024743
1583.000000	100.033973
1582.000000	100.006895
1581.000000	99.971713
1580.000000	99.976985
1579.000000	99.992801
1578.000000	99.988949
1577.000000	99.991281
1576.000000	100.013586
1575.000000	100.025654
1574.000000	100.000811
1573.000000	99.999797
1572.000000	100.019164
1571.000000	100.011356
1570.000000	100.020987
1569.000000	100.031029
1568.000000	100.003752
1567.000000	99.981956
1566.000000	99.995641
1565.000000	99.990774
1564.000000	100.012470
1563.000000	99.997567
1562.000000	99.997770
1561.000000	100.006387
1560.000000	99.991992
1559.000000	100.002129
1558.000000	100.027071
1557.000000	99.998277
1556.000000	99.986722
1555.000000	99.982364
1554.000000	99.990573
1553.000000	100.002129
1552.000000	99.987231
1551.000000	99.987333
1550.000000	100.002737
1549.000000	99.989865
1548.000000	99.994121
1547.000000	99.993108
1546.000000	100.011150
1545.000000	100.033354
1544.000000	99.991992
1543.000000	100.013381
1542.000000	100.013788
1541.000000	99.987635
1540.000000	100.002128
1539.000000	99.999595
1538.000000	100.010338
1537.000000	99.990474
1536.000000	99.980849
1535.000000	99.988447
1534.000000	100.011452
1533.000000	100.023517
1532.000000	100.021387
1531.000000	100.011960
1530.000000	100.003649
1529.000000	99.985508
1528.000000	99.998075
1527.000000	99.995743
1526.000000	99.996351
1525.000000	100.009020
1524.000000	99.991487
1523.000000	100.017331
1522.000000	100.013986
1521.000000	99.999797
1520.000000	100.033854
1519.000000	100.020675
1518.000000	100.014594
1517.000000	100.001317
1516.000000	100.009527
1515.000000	100.030208
1514.000000	100.006689
1513.000000	100.026858
1512.000000	100.018245
1511.000000	99.997365
1510.000000	100.009527
1509.000000	100.007601
1508.000000	99.987839
1507.000000	100.029798
1506.000000	100.007397
1505.000000	100.013277
1504.000000	100.003547
1503.000000	100.008817
1502.000000	99.996656
1501.000000	100.008513
1500.000000	100.020268
1499.000000	99.965147
1498.000000	100.032735
1497.000000	99.995744
1496.000000	100.019254
1495.000000	100.023307
1494.000000	100.007803
1493.000000	99.995947
1492.000000	99.993111
1491.000000	99.997670
1490.000000	100.018137
1489.000000	100.002836
1488.000000	100.004761
1487.000000	100.025431
1486.000000	100.011854
1485.000000	100.028270
1484.000000	100.023607
1483.000000	100.000304
1482.000000	100.002431
1481.000000	99.999797
1480.000000	99.988252
1479.000000	99.995138
1478.000000	99.993924
1477.000000	100.025225
1476.000000	100.004761
1475.000000	100.008306
1474.000000	99.986630
1473.000000	100.002937
1472.000000	100.009419
1471.000000	100.011851
1470.000000	99.983594
1469.000000	99.993316
1468.000000	99.999494
1467.000000	99.997164
1466.000000	99.992304
1465.000000	99.991190
1464.000000	100.027552
1463.000000	100.008811
1462.000000	99.985113
1461.000000	99.978736
1460.000000	100.014886
1459.000000	100.012153
1458.000000	99.990582
1457.000000	99.995444
1456.000000	100.027848
1455.000000	100.011946
1454.000000	100.010327
1453.000000	100.005569
1452.000000	99.980666
1451.000000	99.999899
1450.000000	100.001822
1449.000000	100.005972
1448.000000	100.018120
1447.000000	100.019538
1446.000000	99.993522
1445.000000	100.009210
1444.000000	100.023283
1443.000000	100.017612
1442.000000	100.025200
1441.000000	100.005364
1440.000000	100.007185
1439.000000	100.012750
1438.000000	99.986036
1437.000000	99.998077
1436.000000	100.001821
1435.000000	100.014670
1434.000000	100.026206
1433.000000	100.015885
1432.000000	100.024080
1431.000000	100.010521
1430.000000	100.012443
1429.000000	100.008093
1428.000000	99.998382
1427.000000	100.009102
1426.000000	100.011428
1425.000000	99.997775
1424.000000	99.998787
1423.000000	99.985949
1422.000000	99.986557
1421.000000	100.016983
1420.000000	100.020318
1419.000000	99.993027
1418.000000	100.003537
1417.000000	100.020817
1416.000000	100.017177
1415.000000	100.016065
1414.000000	100.017478
1413.000000	99.996162
1412.000000	99.995758
1411.000000	100.008383
1410.000000	100.003231
1409.000000	100.001111
1408.000000	100.011005
1407.000000	100.003836
1406.000000	99.993439
1405.000000	99.993540
1404.000000	99.992027
1403.000000	100.003431
1402.000000	100.016451
1401.000000	100.014533
1400.000000	99.993744
1399.000000	100.012108
1398.000000	100.008475
1397.000000	100.002017
1396.000000	100.008271
1395.000000	100.004639
1394.000000	100.011295
1393.000000	99.997378
1392.000000	99.984069
1391.000000	100.008873
1390.000000	100.011696
1389.000000	100.004234
1388.000000	100.015123
1387.000000	100.009376
1386.000000	99.998790
1385.000000	100.003528
1384.000000	100.000605
1383.000000	99.996371
1382.000000	100.008972
1381.000000	100.015523
1380.000000	99.987503
1379.000000	99.987100
1378.000000	100.006652
1377.000000	99.997279
1376.000000	99.999194
1375.000000	100.002418
1374.000000	99.996272
1373.000000	99.997280
1372.000000	99.994156
1371.000000	100.002821
1370.000000	100.007153
1369.000000	100.004534
1368.000000	100.009572
1367.000000	100.003929
1366.000000	100.000504
1365.000000	99.996877
1364.000000	99.989423
1363.000000	99.999496
1362.000000	100.003426
1361.000000	99.995767
1360.000000	100.009979
1359.000000	100.004133
1358.000000	100.004637
1357.000000	100.026520
1356.000000	100.001311
1355.000000	99.989713
1354.000000	100.005851
1353.000000	100.031585
1352.000000	100.027254
1351.000000	100.015747
1350.000000	100.005452
1349.000000	100.005452
1348.000000	100.026257
1347.000000	100.014950
1346.000000	100.003333
1345.000000	99.991920
1344.000000	99.992728
1343.000000	100.022426
1342.000000	100.034353
1341.000000	99.996768
1340.000000	99.989091
1339.000000	100.017173
1338.000000	100.020608
1337.000000	100.034653
1336.000000	100.028185
1335.000000	99.988989
1334.000000	99.993434
1333.000000	100.022124
1332.000000	100.025454
1331.000000	100.000707
1330.000000	99.977879
1329.000000	99.997778
1328.000000	100.038489
1327.000000	100.002121
1326.000000	100.002020
1325.000000	100.033744
1324.000000	100.025152
1323.000000	100.002929
1322.000000	100.023236
1321.000000	100.020302
1320.000000	99.990708
1319.000000	100.045665
1318.000000	99.985151
1317.000000	100.039206
1316.000000	100.028894
1315.000000	99.985555
1314.000000	99.999495
1313.000000	100.035259
1312.000000	100.016976
1311.000000	100.012931
1310.000000	100.012527
1309.000000	99.984341
1308.000000	100.003637
1307.000000	100.022426
1306.000000	100.040017
1305.000000	100.026876
1304.000000	99.975653
1303.000000	100.022533
1302.000000	100.005456
1301.000000	100.015156
1300.000000	100.002223
1299.000000	99.977675
1298.000000	100.001212
1297.000000	100.011517
1296.000000	100.024549
1295.000000	100.005556
1294.000000	100.027479
1293.000000	100.045162
1292.000000	100.045361
1291.000000	100.037986
1290.000000	100.015453
1289.000000	100.011413
1288.000000	100.010807
1287.000000	99.997778
1286.000000	100.010401
1285.000000	99.976579
1284.000000	99.980213
1283.000000	100.005048
1282.000000	100.005048
1281.000000	100.005048
1280.000000	100.010296
1279.000000	100.018473
1278.000000	100.032711
1277.000000	100.027657
1276.000000	100.009993
1275.000000	100.024627
1274.000000	100.021294
1273.000000	100.007569
1272.000000	100.024423
1271.000000	99.991424
1270.000000	99.996872
1269.000000	100.005146
1268.000000	100.028657
1267.000000	99.979821
1266.000000	100.027245
1265.000000	100.011197
1264.000000	100.003934
1263.000000	100.047328
1262.000000	100.004438
1261.000000	100.004136
1260.000000	99.987996
1259.000000	100.017956
1258.000000	100.001715
1257.000000	100.027139
1256.000000	100.015837
1255.000000	100.018561
1254.000000	100.026224
1253.000000	100.005346
1252.000000	99.994251
1251.000000	100.001916
1250.000000	100.006757
1249.000000	99.996470
1248.000000	100.003530
1247.000000	100.020778
1246.000000	99.994958
1245.000000	100.025215
1244.000000	100.001008
1243.000000	100.008168
1242.000000	99.993850
1241.000000	99.995766
1240.000000	99.994960
1239.000000	100.022583
1238.000000	100.004838
1237.000000	100.009274
1236.000000	100.011792
1235.000000	100.003930
1234.000000	100.018946
1233.000000	100.020656
1232.000000	100.003627
1231.000000	99.991034
1230.000000	100.017328
1229.000000	100.020550
1228.000000	100.013497
1227.000000	100.010273
1226.000000	99.990836
1225.000000	99.975434
1224.000000	99.998288
1223.000000	100.016411
1222.000000	100.002114
1221.000000	100.013086
1220.000000	100.021538
1219.000000	99.993761
1218.000000	100.006541
1217.000000	100.007446
1216.000000	100.005534
1215.000000	100.005937
1214.000000	100.001710
1213.000000	99.990342
1212.000000	100.038640
1211.000000	99.993864
1210.000000	99.987727
1209.000000	100.022437
1208.000000	99.995373
1207.000000	100.001811
1206.000000	100.017001
1205.000000	100.028168
1204.000000	99.990646
1203.000000	100.007141
1202.000000	100.013780
1201.000000	99.994770
1200.000000	99.986824
1199.000000	99.996279
1198.000000	99.992759
1197.000000	100.012572
1196.000000	100.008649
1195.000000	99.988537
1194.000000	99.980695
1193.000000	99.998190
1192.000000	100.001710
1191.000000	99.997687
1190.000000	100.017197
1189.000000	100.012069
1188.000000	100.001609
1187.000000	100.020315
1186.000000	100.023028
1185.000000	100.013675
1184.000000	100.008043
1183.000000	99.996180
1182.000000	100.004825
1181.000000	100.007337
1180.000000	100.005427
1179.000000	100.006833
1178.000000	100.008039
1177.000000	99.993369
1176.000000	100.005124
1175.000000	100.003215
1174.000000	100.000804
1173.000000	100.013058
1172.000000	100.010646
1171.000000	100.005524
1170.000000	100.000603
1169.000000	100.003113
1168.000000	99.990262
1167.000000	99.998193
1166.000000	100.014858
1165.000000	100.014655
1164.000000	100.006323
1163.000000	99.991069
1162.000000	100.003412
1161.000000	99.991973
1160.000000	99.989567
1159.000000	99.999900
1158.000000	99.998897
1157.000000	99.996690
1156.000000	100.004011
1155.000000	100.024969
1154.000000	100.021054
1153.000000	100.011427
1152.000000	100.011428
1151.000000	100.020046
1150.000000	100.025155
1149.000000	100.013529
1148.000000	100.018338
1147.000000	100.024848
1146.000000	100.010117
1145.000000	100.014222
1144.000000	100.015723
1143.000000	100.008911
1142.000000	100.011313
1141.000000	100.010812
1140.000000	100.006907
1139.000000	100.006506
1138.000000	100.007505
1137.000000	100.017112
1136.000000	100.018112
1135.000000	100.015606
1134.000000	100.027307
1133.000000	100.025504
1132.000000	100.027602
1131.000000	100.025800
1130.000000	100.010398
1129.000000	100.028195
1128.000000	100.012994
1127.000000	100.003297
1126.000000	100.006895
1125.000000	100.015990
1124.000000	100.007892
1123.000000	99.986316
1122.000000	100.005893
1121.000000	100.012585
1120.000000	100.030464
1119.000000	100.030859
1118.000000	100.035949
1117.000000	100.018172
1116.000000	100.023461
1115.000000	100.027153
1114.000000	100.042827
1113.000000	100.028545
1112.000000	100.003991
1111.000000	100.004889
1110.000000	100.016365
1109.000000	100.003492
1108.000000	100.019555
1107.000000	100.025936
1106.000000	100.011768
1105.000000	99.996510
1104.000000	100.015257
1103.000000	99.997109
1102.000000	99.993622
1101.000000	99.993523
1100.000000	100.018036
1099.000000	100.029093
1098.000000	100.000498
1097.000000	99.999701
1096.000000	100.012847
1095.000000	100.025494
1094.000000	100.018517
1093.000000	100.004977
1092.000000	99.995721
1091.000000	99.994827
1090.000000	99.998110
1089.000000	99.993832
1088.000000	100.005869
1087.000000	100.002287
1086.000000	99.975848
1085.000000	99.993042
1084.000000	99.994633
1083.000000	100.012821
1082.000000	100.026430
1081.000000	100.028115
1080.000000	100.033578
1079.000000	100.006753
1078.000000	99.997518
1077.000000	100.014592
1076.000000	100.031067
1075.000000	100.025999
1074.000000	99.986212
1073.000000	99.984925
1072.000000	100.001884
1071.000000	99.997918
1070.000000	100.027955
1069.000000	100.014670
1068.000000	100.025466
1067.000000	100.008025
1066.000000	100.010696
1065.000000	99.986930
1064.000000	99.982774
1063.000000	100.002870
1062.000000	100.015241
1061.000000	100.013755
1060.000000	100.033835
1059.000000	100.008209
1058.000000	100.013350
1057.000000	100.000791
1056.000000	100.021447
1055.000000	100.010573
1054.000000	100.012449
1053.000000	100.004840
1052.000000	99.982326
1051.000000	100.013722
1050.000000	100.025865
1049.000000	99.985200
1048.000000	100.023284
1047.000000	99.992405
1046.000000	99.998915
1045.000000	100.037073
1044.000000	100.013110
1043.000000	99.974385
1042.000000	100.032316
1041.000000	100.032803
1040.000000	99.983360
1039.000000	99.992519
1038.000000	100.015254
1037.000000	100.013382
1036.000000	100.017216
1035.000000	99.980433
1034.000000	100.002261
1033.000000	100.011498
1032.000000	100.004028
1031.000000	100.001866
1030.000000	100.010016
1029.000000	99.983707
1028.000000	99.998724
1027.000000	99.996076
1026.000000	100.004316
1025.000000	99.976961
1024.000000	100.003235
1023.000000	100.018521
1022.000000	100.002645
1021.000000	99.981295
1020.000000	100.007734
1019.000000	99.978663
1018.000000	99.985519
1017.000000	100.007630
1016.000000	100.011246
1015.000000	100.000196
1014.000000	100.017691
1013.000000	99.986615
1012.000000	100.002735
1011.000000	100.000293
1010.000000	100.007516
1009.000000	99.987803
1008.000000	99.993757
1007.000000	100.001170
1006.000000	99.992396
1005.000000	100.008186
1004.000000	100.019099
1003.000000	100.005065
1002.000000	99.995814
1001.000000	100.004963
1000.000000	99.986770
999.000000	99.978607
998.000000	99.993584
997.000000	100.021577
996.000000	100.020889
995.000000	99.999903
994.000000	100.009612
993.000000	100.031063
992.000000	100.009412
991.000000	100.001164
990.000000	100.010955
989.000000	100.007075
988.000000	99.980436
987.000000	99.983832
986.000000	99.988677
985.000000	99.997098
984.000000	99.998549
983.000000	99.979507
982.000000	99.997874
981.000000	100.011688
980.000000	100.005504
979.000000	100.004054
978.000000	100.004534
977.000000	100.003858
976.000000	100.001253
975.000000	99.994316
974.000000	100.011267
973.000000	100.014726
972.000000	100.033677
971.000000	100.021061
970.000000	99.990773
969.000000	100.007877
968.000000	99.997504
967.000000	99.983877
966.000000	99.989832
965.000000	100.009398
964.000000	100.005846
963.000000	99.998084
962.000000	100.023460
961.000000	100.015217
960.000000	99.992254
959.000000	100.007456
958.000000	100.013854
957.000000	100.014419
956.000000	100.004772
955.000000	99.985791
954.000000	99.997141
953.000000	99.989139
952.000000	100.009237
951.000000	100.008471
950.000000	100.010655
949.000000	100.003137
948.000000	99.986891
947.000000	100.005127
946.000000	100.022780
945.000000	100.022669
944.000000	100.027963
943.000000	100.006534
942.000000	99.975493
941.000000	99.982785
940.000000	100.017867
939.000000	100.008124
938.000000	99.965646
937.000000	99.960290
936.000000	100.023766
935.000000	100.065980
934.000000	100.029006
933.000000	100.039625
932.000000	100.035737
931.000000	99.995584
930.000000	99.983567
929.000000	100.014265
928.000000	100.003094
927.000000	99.983042
926.000000	99.991573
925.000000	100.008234
924.000000	99.971487
923.000000	99.990749
922.000000	100.024562
921.000000	100.018197
920.000000	100.018555
919.000000	99.943562
918.000000	99.961842
917.000000	99.974704
916.000000	99.990892
915.000000	100.016999
914.000000	100.026178
913.000000	100.025593
912.000000	99.959247
911.000000	99.956604
910.000000	99.965233
909.000000	99.957598
908.000000	99.991783
907.000000	99.996494
906.000000	99.981471
905.000000	99.984531
904.000000	99.940758
903.000000	99.962038
902.000000	99.983006
901.000000	100.026619
900.000000	99.923930
899.000000	100.035189
898.000000	100.026830
897.000000	100.000000
896.000000	99.957968
895.000000	100.007577
894.000000	99.997171
893.000000	99.988426
892.000000	99.971419
891.000000	100.011832
890.000000	100.039025
889.000000	100.066144
888.000000	100.048005
887.000000	99.998278
886.000000	99.956080
885.000000	100.029238
884.000000	100.014736
883.000000	100.015084
882.000000	99.978438
881.000000	99.936928
880.000000	99.900738
879.000000	100.037690
878.000000	99.976367
877.000000	100.052748
876.000000	100.010767
875.000000	99.997938
874.000000	99.829608
873.000000	100.052368
872.000000	99.991951
871.000000	100.001251
870.000000	99.917965
869.000000	100.037462
868.000000	99.940128
867.000000	100.044165
866.000000	100.029717
865.000000	99.967740
864.000000	99.995387
863.000000	99.836199
862.000000	100.022517
861.000000	100.044300
860.000000	99.987346
859.000000	100.225130
858.000000	100.249039
857.000000	100.219383
856.000000	99.725810
855.000000	100.117802
854.000000	99.814230
853.000000	99.974736
852.000000	100.412847
851.000000	100.104752
850.000000	100.095971
849.000000	99.828677
848.000000	100.200340
847.000000	100.234705
846.000000	100.064891
845.000000	99.928469
844.000000	100.166729
843.000000	99.873307
842.000000	100.271332
841.000000	100.072394
840.000000	100.022197
839.000000	100.064413
838.000000	99.953117
837.000000	99.682403
836.000000	99.527994
835.000000	99.661582
834.000000	100.025854
833.000000	99.852985
832.000000	99.890319
831.000000	99.939479
830.000000	100.060239
829.000000	100.100573
828.000000	100.067082
827.000000	99.700292
826.000000	99.878989
825.000000	100.011244
824.000000	99.922117
823.000000	99.878426
822.000000	100.015669
821.000000	100.220277
820.000000	100.178652
819.000000	100.157182
818.000000	99.993493
817.000000	99.919640
816.000000	100.394689
815.000000	99.835048
814.000000	99.899742
813.000000	99.986204
812.000000	99.913078
811.000000	99.737570
810.000000	100.052226
809.000000	100.070551
808.000000	99.895887
807.000000	100.003788
806.000000	99.934020
805.000000	99.904654
804.000000	99.932857
803.000000	99.893770
802.000000	99.878319
801.000000	99.996641
800.000000	99.903301
799.000000	99.932976
798.000000	100.044921
797.000000	99.824407
796.000000	99.795356
795.000000	99.975232
794.000000	99.982573
793.000000	100.032222
792.000000	100.259064
791.000000	100.047310
790.000000	100.081612
789.000000	100.164444
788.000000	100.015520
787.000000	99.955418
786.000000	99.904477
785.000000	100.030117
784.000000	100.035576
783.000000	99.888509
782.000000	100.085047
781.000000	100.187327
780.000000	100.038376
779.000000	100.013442
778.000000	100.017914
777.000000	100.120604
776.000000	99.988764
775.000000	99.984648
774.000000	100.027124
773.000000	99.960381
772.000000	100.019387
771.000000	99.941030
770.000000	99.953854
769.000000	99.956550
768.000000	99.950457
767.000000	99.977885
766.000000	100.048209
765.000000	100.183952
764.000000	100.138770
763.000000	100.055806
762.000000	100.179760
761.000000	100.046176
760.000000	99.954564
759.000000	99.929681
758.000000	99.994698
757.000000	99.942358
756.000000	99.879581
755.000000	99.945653
754.000000	100.069388
753.000000	100.047431
752.000000	99.989903
751.000000	99.915025
750.000000	99.955750
749.000000	100.035110
748.000000	100.046704
747.000000	100.017706
746.000000	99.968466
745.000000	99.983013
744.000000	99.950005
743.000000	99.929734
742.000000	99.932092
741.000000	100.048890
740.000000	99.897599
739.000000	99.921994
738.000000	100.072802
737.000000	100.039372
736.000000	99.994467
735.000000	99.905838
734.000000	99.989747
733.000000	100.030681
732.000000	99.952413
731.000000	100.016627
730.000000	100.016268
729.000000	100.007094
728.000000	100.030934
727.000000	100.074391
726.000000	99.910518
725.000000	99.897749
724.000000	100.034441
723.000000	99.976673
722.000000	99.974035
721.000000	100.033457
720.000000	100.075869
719.000000	100.056469
718.000000	99.977917
717.000000	99.946621
716.000000	100.044009
715.000000	100.010136
714.000000	100.017718
713.000000	100.031516
712.000000	100.054031
711.000000	100.051580
710.000000	99.920177
709.000000	99.905637
708.000000	99.940016
707.000000	99.981332
706.000000	99.973367
705.000000	99.920029
704.000000	99.934915
703.000000	100.007512
702.000000	100.048688
701.000000	100.001284
700.000000	100.007425
699.000000	100.088887
698.000000	100.038152
697.000000	100.022844
696.000000	99.974218
695.000000	99.885057
694.000000	99.969247
693.000000	99.969611
692.000000	99.936005
691.000000	100.007347
690.000000	99.998806
689.000000	99.976305
688.000000	99.989165
687.000000	100.008820
686.000000	99.983649
685.000000	99.948956
684.000000	99.928041
683.000000	100.002021
682.000000	99.949554
681.000000	100.000184
680.000000	99.998160
679.000000	99.977737
678.000000	100.069468
677.000000	100.034228
676.000000	99.910308
675.000000	99.916163
674.000000	99.931600
673.000000	99.931053
672.000000	99.990605
671.000000	100.024130
670.000000	99.922230
669.000000	99.897249
668.000000	99.946846
667.000000	99.958164
666.000000	99.861200
665.000000	99.941096
664.000000	99.938777
663.000000	99.995941
662.000000	100.023992
661.000000	99.938000
660.000000	99.909426
659.000000	99.996033
658.000000	100.057874
657.000000	100.035642
656.000000	99.938914
655.000000	99.971183
654.000000	99.977647
653.000000	99.966285
652.000000	99.965545
651.000000	99.996489
650.000000	99.966096
649.000000	99.937074
648.000000	99.852659
647.000000	100.009802
646.000000	100.030710
645.000000	100.016656
644.000000	99.944602
643.000000	99.991762
642.000000	99.969557
641.000000	99.971319
640.000000	99.999167
639.000000	100.023805
638.000000	100.040766
637.000000	100.025377
636.000000	99.973336
635.000000	99.902329
634.000000	99.896809
633.000000	100.099812
632.000000	99.986836
631.000000	99.977947
630.000000	99.936622
629.000000	99.981366
628.000000	100.004358
627.000000	100.053739
626.000000	100.017068
625.000000	99.982104
624.000000	100.098602
623.000000	99.996566
622.000000	99.933199
621.000000	100.031666
620.000000	99.972530
619.000000	99.917790
618.000000	100.055719
617.000000	100.022751
616.000000	99.926596
615.000000	99.935098
614.000000	99.940951
613.000000	99.952897
612.000000	99.983378
611.000000	99.932100
610.000000	100.017196
609.000000	100.057823
608.000000	99.941532
607.000000	100.016733
606.000000	99.967932
605.000000	100.051310
604.000000	99.992748
603.000000	100.059734
602.000000	99.996930
601.000000	100.026519
600.000000	99.996280
599.000000	100.001768
598.000000	99.895639
597.000000	99.974415
596.000000	99.954252
595.000000	99.994512
594.000000	99.952360
593.000000	99.940805
592.000000	99.938581
591.000000	99.937066
590.000000	100.055309
589.000000	100.014340
588.000000	99.943020
587.000000	100.017683
586.000000	99.995716
585.000000	100.068126
584.000000	99.950570
583.000000	99.846127
582.000000	100.058139
581.000000	99.925515
580.000000	99.984260
579.000000	99.987329
578.000000	99.996088
577.000000	99.946439
576.000000	100.008569
575.000000	100.007830
574.000000	99.925751
573.000000	100.028990
572.000000	100.011746
571.000000	99.993010
570.000000	100.001212
569.000000	99.928135
568.000000	99.985544
567.000000	100.047860
566.000000	99.990492
565.000000	99.944715
564.000000	99.973148
563.000000	100.008861
562.000000	99.983027
561.000000	99.987872
560.000000	99.923167
559.000000	100.022111
558.000000	100.110139
557.000000	99.937233
556.000000	99.987597
555.000000	99.981343
554.000000	100.038329
553.000000	99.984230
552.000000	99.934038
551.000000	99.987962
550.000000	100.049658
549.000000	99.979098
548.000000	99.930457
547.000000	99.984967
546.000000	100.028850
545.000000	99.950152
544.000000	100.032117
543.000000	99.992719
542.000000	99.948462
541.000000	99.899097
540.000000	99.973857
539.000000	99.956296
538.000000	99.986271
537.000000	99.969094
536.000000	99.957780
535.000000	99.929769
534.000000	99.996636
533.000000	99.926752
532.000000	100.007571
531.000000	100.018317
530.000000	99.951130
529.000000	99.992429
528.000000	99.959919
527.000000	99.944785
526.000000	100.005610
525.000000	100.007667
524.000000	99.947826
523.000000	99.960150
522.000000	99.992050
521.000000	99.956419
520.000000	99.941014
519.000000	99.945208
518.000000	99.969970
517.000000	99.948909
516.000000	99.886338
515.000000	99.922029
514.000000	100.031169
513.000000	99.954418
512.000000	99.944807
511.000000	100.032765
510.000000	100.037154
509.000000	99.995696
508.000000	99.983626
507.000000	99.878955
506.000000	99.935994
505.000000	99.978379
504.000000	99.995412
503.000000	100.043185
502.000000	100.014230
501.000000	100.024438
500.000000	99.956671
499.000000	99.974076
498.000000	99.964997
497.000000	99.989704
496.000000	100.033880
495.000000	100.024241
494.000000	99.993637
493.000000	99.940775
492.000000	99.991857
491.000000	99.952361
490.000000	99.973791
489.000000	99.907730
488.000000	99.955079
487.000000	100.020965
486.000000	99.936201
485.000000	99.928174
484.000000	99.939864
483.000000	99.950285
482.000000	99.979100
481.000000	100.037301
480.000000	99.955845
479.000000	99.929782
478.000000	99.953660
477.000000	99.912728
476.000000	99.936745
475.000000	99.947266
474.000000	99.942548
473.000000	99.988262
472.000000	99.970142
471.000000	99.967602
470.000000	100.003006
469.000000	99.946272
468.000000	99.945145
467.000000	99.970883
466.000000	99.986756
465.000000	99.987126
464.000000	99.968607
463.000000	100.009212
462.000000	100.055661
461.000000	99.993420
460.000000	99.962500
459.000000	100.024734
458.000000	99.984958
457.000000	99.956490
456.000000	99.965128
455.000000	100.024554
454.000000	100.008846
453.000000	99.985514
452.000000	99.915012
451.000000	99.954379
450.000000	100.013643
449.000000	99.921556
448.000000	99.896704
447.000000	99.930450
446.000000	100.025327
445.000000	100.043029
444.000000	100.038902
443.000000	100.044082
442.000000	99.977120
441.000000	99.925506
440.000000	99.963172
439.000000	100.019403
438.000000	99.995290
437.000000	99.948391
436.000000	99.958937
435.000000	99.998114
434.000000	99.959550
433.000000	100.037062
432.000000	100.044522
431.000000	100.053316
430.000000	100.089393
429.000000	100.059281
428.000000	99.998112
427.000000	100.007172
426.000000	99.927436
425.000000	99.972064
424.000000	100.019355
423.000000	99.994334
422.000000	99.956305
421.000000	99.930516
420.000000	99.896031
419.000000	99.885467
418.000000	99.921873
417.000000	99.944053
416.000000	99.977039
415.000000	99.979594
414.000000	99.948500
413.000000	99.976831
412.000000	99.931461
411.000000	99.863908
410.000000	99.988656
409.000000	99.980419
408.000000	99.964251
407.000000	100.061404
406.000000	100.004824
405.000000	99.861125
404.000000	99.867683
403.000000	100.096912
402.000000	99.997161
401.000000	99.884079
400.000000	99.898145
399.000000	99.962663
398.000000	99.871924
397.000000	100.031080
396.000000	100.028609
395.000000	100.074156
394.000000	100.022929
393.000000	99.931887
392.000000	100.080865
391.000000	100.052308
390.000000	99.997820
389.000000	99.971478
388.000000	99.968157
387.000000	99.893318
386.000000	99.915993
385.000000	99.853727
384.000000	99.855142
383.000000	99.869779
382.000000	100.013279
381.000000	99.813792
380.000000	99.990711
379.000000	99.988420
378.000000	99.957861
377.000000	99.686413
376.000000	99.710781
375.000000	99.782096
374.000000	100.021237
373.000000	99.969480
372.000000	99.900430
371.000000	99.938129
370.000000	99.840552
369.000000	100.022162
368.000000	99.749708
367.000000	100.154207
366.000000	100.162743
365.000000	99.826922
364.000000	99.937256
363.000000	100.262680
362.000000	100.145469
361.000000	99.748351
360.000000	99.971612
359.000000	99.676144
358.000000	99.971994
357.000000	100.200136
356.000000	99.965824
355.000000	99.925311
354.000000	99.953668
353.000000	99.840212
352.000000	99.835961
351.000000	99.782480
350.000000	99.616247
349.000000	100.192028
348.000000	100.130802
347.000000	99.962136
346.000000	99.642401
345.000000	100.109207
344.000000	100.071752
343.000000	99.811846
342.000000	99.913366
341.000000	100.208299
340.000000	99.837891
339.000000	99.744802
338.000000	99.695052
337.000000	99.950317
336.000000	100.050614
335.000000	100.264770
334.000000	99.916681
333.000000	99.618158
332.000000	99.906709
331.000000	100.064436
330.000000	99.964392
329.000000	100.141630
328.000000	99.976916
327.000000	99.735315
326.000000	100.076157
325.000000	99.953358
324.000000	100.664852
323.000000	99.867091
322.000000	99.683936
321.000000	99.756217
320.000000	100.582325
319.000000	99.614835
318.000000	100.377988
317.000000	100.054377
316.000000	99.741904
315.000000	99.758110
314.000000	99.927710
313.000000	99.713654
312.000000	100.284325
311.000000	99.488709
310.000000	99.917061
309.000000	99.949009
308.000000	100.118528
307.000000	99.659372
306.000000	99.785433
305.000000	99.736277
304.000000	100.224619
303.000000	100.439212
302.000000	100.062618
301.000000	99.922390
300.000000	100.009777
299.000000	100.193984
298.000000	100.120966
297.000000	100.068126
296.000000	99.773413
295.000000	100.004421
294.000000	99.950410
293.000000	99.897067
292.000000	99.927101
291.000000	99.800503
290.000000	99.983015
289.000000	99.812540
288.000000	99.689085
287.000000	99.873452
286.000000	99.974843
285.000000	99.968949
284.000000	100.260401
283.000000	100.267840
282.000000	99.963385
281.000000	100.247941
280.000000	99.942839
279.000000	100.044597
278.000000	100.084665
277.000000	100.207918
276.000000	99.895338
275.000000	99.736348
274.000000	99.960343
273.000000	99.869276
272.000000	100.024427
271.000000	100.100553
270.000000	100.129748
269.000000	100.070658
268.000000	99.857646
267.000000	100.061048
266.000000	99.788882
265.000000	99.963801
264.000000	99.683529
263.000000	99.836247
262.000000	99.954474
261.000000	100.055921
260.000000	99.883856
259.000000	99.870735
258.000000	99.884125
257.000000	99.945342
256.000000	99.902544
255.000000	99.897906
254.000000	99.934558
253.000000	100.061875
252.000000	99.887235
251.000000	99.825285
250.000000	99.904524
249.000000	100.337347
248.000000	100.359753
247.000000	100.242555
246.000000	99.848258
245.000000	100.104625
244.000000	100.076300
243.000000	99.844492
242.000000	99.758760
241.000000	99.801276
240.000000	99.981336
239.000000	100.156466
238.000000	100.001896
237.000000	100.059159
236.000000	100.247854
235.000000	99.843327
234.000000	100.266669
233.000000	100.263952
232.000000	99.880426
231.000000	99.522847
230.000000	99.939060
229.000000	100.113585
228.000000	100.072463
227.000000	100.426647
226.000000	100.373668
225.000000	100.156833
224.000000	99.763534
223.000000	99.936434
222.000000	100.159139
221.000000	100.309385
220.000000	100.124786
219.000000	100.065145
218.000000	100.129584
217.000000	100.039285
216.000000	99.989572
215.000000	99.597675
214.000000	99.511341
213.000000	100.026579
212.000000	100.309117
211.000000	100.681463
210.000000	100.249900
209.000000	99.834130
208.000000	100.508077
207.000000	100.291257
206.000000	100.061684
205.000000	99.871100
204.000000	99.653200
203.000000	99.809919
202.000000	99.715836
201.000000	99.674709
200.000000	100.161150
