PE UV       SUBTECH     SPECTRUM    ASCII       PEDS        4.00        
   -1
Empty Chamber.Sample.asc
18/03/15
17:41:22.00
18/03/15
17:41:22.00
Administrator

200.000000
1
Lambda 750
750N8071901
PerkinElmer UV WinLab 6.0.4.0738 / 1.61.00 Lambda 900

0
0
3350/servo 860.8/2
0
0
UV/VIS
1
1
1
CommonBeamDepol,150mm sphere / downward view
0
0
0
0
Program
Program
3350/servo 860.8/2
3350/0.2 860.8/0.2
3350/0.2 860.8/0.2
0
1
 
 
 
0
 
860.8
319.2
860.8
Front
100
on
 
 
0
0
0
 
0
 
 
 
0
 
 
0
0
0
0
0
 
 
 
 
0
0


0
0
#HDR
-1
-1
#GR
nm
%T
1.0
0.0
2350.000000
-1.000000
2151
8
100.681004
99.081052
#DATA
2350.000000	99.785739
2349.000000	99.737097
2348.000000	99.559145
2347.000000	99.771795
2346.000000	100.042809
2345.000000	99.621800
2344.000000	99.268831
2343.000000	100.016740
2342.000000	100.168366
2341.000000	99.845489
2340.000000	100.144448
2339.000000	99.870862
2338.000000	99.736246
2337.000000	99.754611
2336.000000	100.042075
2335.000000	99.692263
2334.000000	99.681329
2333.000000	100.053639
2332.000000	99.447008
2331.000000	100.103989
2330.000000	100.150227
2329.000000	100.235316
2328.000000	99.415323
2327.000000	99.922681
2326.000000	99.988763
2325.000000	99.931152
2324.000000	99.529983
2323.000000	99.616235
2322.000000	99.961659
2321.000000	100.172759
2320.000000	99.968596
2319.000000	100.481802
2318.000000	99.976581
2317.000000	100.212980
2316.000000	100.059316
2315.000000	99.828759
2314.000000	100.013688
2313.000000	100.239767
2312.000000	100.197109
2311.000000	99.933116
2310.000000	99.774016
2309.000000	100.021634
2308.000000	99.334456
2307.000000	99.803132
2306.000000	99.628199
2305.000000	99.749962
2304.000000	99.920655
2303.000000	100.099202
2302.000000	99.894336
2301.000000	100.173713
2300.000000	99.975601
2299.000000	99.883394
2298.000000	99.881666
2297.000000	99.985388
2296.000000	100.062003
2295.000000	100.138070
2294.000000	99.550261
2293.000000	99.644969
2292.000000	99.912982
2291.000000	99.967665
2290.000000	100.072681
2289.000000	99.913297
2288.000000	100.210715
2287.000000	100.047428
2286.000000	100.119186
2285.000000	99.912087
2284.000000	100.048484
2283.000000	100.233655
2282.000000	100.048926
2281.000000	99.803518
2280.000000	99.742809
2279.000000	99.792531
2278.000000	99.802315
2277.000000	99.969152
2276.000000	99.975377
2275.000000	99.792046
2274.000000	99.836674
2273.000000	100.048597
2272.000000	99.920680
2271.000000	99.853993
2270.000000	100.001522
2269.000000	100.125714
2268.000000	100.045209
2267.000000	100.131162
2266.000000	100.105652
2265.000000	100.143191
2264.000000	100.102649
2263.000000	100.085960
2262.000000	100.032384
2261.000000	100.095820
2260.000000	99.937064
2259.000000	100.066195
2258.000000	100.299462
2257.000000	100.233033
2256.000000	99.961050
2255.000000	99.866843
2254.000000	99.954697
2253.000000	99.923319
2252.000000	100.022545
2251.000000	100.103426
2250.000000	100.026472
2249.000000	99.876648
2248.000000	99.866018
2247.000000	100.008304
2246.000000	100.148007
2245.000000	100.061769
2244.000000	99.906580
2243.000000	99.881770
2242.000000	99.852831
2241.000000	99.898016
2240.000000	100.178640
2239.000000	100.203385
2238.000000	99.847489
2237.000000	99.754377
2236.000000	99.974135
2235.000000	100.088962
2234.000000	99.982233
2233.000000	99.951953
2232.000000	100.096531
2231.000000	100.026439
2230.000000	99.988759
2229.000000	100.238049
2228.000000	100.208448
2227.000000	100.090131
2226.000000	99.914137
2225.000000	100.012578
2224.000000	99.944004
2223.000000	99.844629
2222.000000	99.914682
2221.000000	99.917651
2220.000000	99.992501
2219.000000	100.001217
2218.000000	99.964695
2217.000000	99.847298
2216.000000	99.769484
2215.000000	99.891941
2214.000000	99.972358
2213.000000	100.053196
2212.000000	100.037514
2211.000000	100.085756
2210.000000	100.062594
2209.000000	100.022424
2208.000000	99.997059
2207.000000	99.929244
2206.000000	99.865924
2205.000000	99.930863
2204.000000	100.028182
2203.000000	100.076317
2202.000000	100.070316
2201.000000	99.856096
2200.000000	100.041640
2199.000000	100.063269
2198.000000	100.055926
2197.000000	99.934756
2196.000000	100.131360
2195.000000	100.063199
2194.000000	99.854967
2193.000000	99.844687
2192.000000	99.844198
2191.000000	100.015485
2190.000000	100.105207
2189.000000	99.980249
2188.000000	99.781658
2187.000000	99.955571
2186.000000	100.059939
2185.000000	99.953897
2184.000000	100.079202
2183.000000	100.056558
2182.000000	99.920792
2181.000000	99.939685
2180.000000	99.914545
2179.000000	99.852389
2178.000000	100.096462
2177.000000	100.011014
2176.000000	100.077480
2175.000000	99.985536
2174.000000	99.986162
2173.000000	100.002224
2172.000000	100.105409
2171.000000	99.955752
2170.000000	99.874028
2169.000000	99.903070
2168.000000	100.057341
2167.000000	100.075346
2166.000000	99.984248
2165.000000	100.045310
2164.000000	100.004439
2163.000000	100.085329
2162.000000	99.979597
2161.000000	99.855555
2160.000000	99.842283
2159.000000	100.051379
2158.000000	100.136496
2157.000000	100.151217
2156.000000	99.921957
2155.000000	100.177150
2154.000000	100.049075
2153.000000	100.220802
2152.000000	100.058899
2151.000000	99.943834
2150.000000	99.910706
2149.000000	100.041586
2148.000000	99.794123
2147.000000	99.933891
2146.000000	99.714715
2145.000000	99.894148
2144.000000	99.691620
2143.000000	99.987996
2142.000000	100.060475
2141.000000	100.119574
2140.000000	99.756150
2139.000000	100.026411
2138.000000	100.155094
2137.000000	100.076582
2136.000000	100.171784
2135.000000	100.077361
2134.000000	99.997475
2133.000000	100.043505
2132.000000	100.183445
2131.000000	100.006156
2130.000000	100.074263
2129.000000	100.068434
2128.000000	99.888300
2127.000000	100.057458
2126.000000	100.013422
2125.000000	100.026332
2124.000000	100.079418
2123.000000	99.902576
2122.000000	99.959735
2121.000000	99.986351
2120.000000	100.111059
2119.000000	99.933433
2118.000000	99.846600
2117.000000	99.907958
2116.000000	99.998890
2115.000000	100.237115
2114.000000	100.078395
2113.000000	100.277437
2112.000000	100.045980
2111.000000	99.983110
2110.000000	99.922514
2109.000000	99.810714
2108.000000	100.079792
2107.000000	99.985641
2106.000000	99.910529
2105.000000	99.980975
2104.000000	99.876650
2103.000000	99.862507
2102.000000	100.043981
2101.000000	100.031863
2100.000000	99.990200
2099.000000	100.031286
2098.000000	99.818866
2097.000000	100.036362
2096.000000	99.877611
2095.000000	100.030699
2094.000000	99.958728
2093.000000	100.047673
2092.000000	99.880364
2091.000000	99.852334
2090.000000	100.090833
2089.000000	99.982388
2088.000000	100.009818
2087.000000	99.938614
2086.000000	99.915674
2085.000000	99.926229
2084.000000	99.916197
2083.000000	99.987546
2082.000000	100.050284
2081.000000	100.069568
2080.000000	99.942019
2079.000000	99.802001
2078.000000	99.935822
2077.000000	99.958188
2076.000000	99.835425
2075.000000	99.948275
2074.000000	99.839525
2073.000000	99.927467
2072.000000	100.038591
2071.000000	100.109883
2070.000000	100.162848
2069.000000	100.026339
2068.000000	100.067476
2067.000000	99.985007
2066.000000	99.886776
2065.000000	100.020782
2064.000000	99.982364
2063.000000	99.877439
2062.000000	99.878076
2061.000000	99.962404
2060.000000	99.981663
2059.000000	99.946513
2058.000000	99.974077
2057.000000	99.998076
2056.000000	100.012158
2055.000000	100.066273
2054.000000	99.973551
2053.000000	100.020681
2052.000000	100.027668
2051.000000	99.997973
2050.000000	100.017229
2049.000000	99.986931
2048.000000	99.936381
2047.000000	99.995945
2046.000000	100.044215
2045.000000	99.978813
2044.000000	99.935051
2043.000000	99.955628
2042.000000	100.021693
2041.000000	99.992397
2040.000000	99.940407
2039.000000	99.963502
2038.000000	99.988843
2037.000000	99.986406
2036.000000	99.961150
2035.000000	99.952342
2034.000000	99.990063
2033.000000	100.023324
2032.000000	99.929754
2031.000000	99.993003
2030.000000	100.004260
2029.000000	99.970080
2028.000000	99.950403
2027.000000	99.940778
2026.000000	100.012375
2025.000000	100.007102
2024.000000	99.995740
2023.000000	99.974233
2022.000000	99.923831
2021.000000	100.007814
2020.000000	100.005886
2019.000000	99.930823
2018.000000	99.991678
2017.000000	100.004568
2016.000000	99.978479
2015.000000	99.954021
2014.000000	99.908895
2013.000000	100.029946
2012.000000	100.022028
2011.000000	100.017762
2010.000000	100.010359
2009.000000	99.961105
2008.000000	100.033408
2007.000000	99.976142
2006.000000	99.897805
2005.000000	99.933507
2004.000000	99.949533
2003.000000	99.946368
2002.000000	99.990248
2001.000000	99.973792
2000.000000	99.960283
1999.000000	99.945673
1998.000000	99.922938
1997.000000	99.940803
1996.000000	100.067272
1995.000000	100.023275
1994.000000	99.966981
1993.000000	99.984047
1992.000000	99.963822
1991.000000	100.007628
1990.000000	100.033451
1989.000000	99.988107
1988.000000	99.988408
1987.000000	99.978139
1986.000000	99.997560
1985.000000	99.999695
1984.000000	99.973775
1983.000000	99.970317
1982.000000	99.953745
1981.000000	100.031333
1980.000000	100.009868
1979.000000	100.025836
1978.000000	100.004170
1977.000000	99.929942
1976.000000	99.960541
1975.000000	100.005086
1974.000000	100.003560
1973.000000	99.963998
1972.000000	99.975499
1971.000000	100.001831
1970.000000	100.001424
1969.000000	100.032249
1968.000000	99.959346
1967.000000	99.961580
1966.000000	100.012406
1965.000000	99.992065
1964.000000	100.041605
1963.000000	100.062462
1962.000000	100.028266
1961.000000	100.034684
1960.000000	100.069174
1959.000000	99.966765
1958.000000	100.022995
1957.000000	100.038560
1956.000000	100.039154
1955.000000	99.964819
1954.000000	99.994410
1953.000000	100.013314
1952.000000	99.952044
1951.000000	99.971453
1950.000000	99.993294
1949.000000	100.000712
1948.000000	100.036808
1947.000000	99.933872
1946.000000	100.042597
1945.000000	100.058736
1944.000000	99.995125
1943.000000	100.045001
1942.000000	99.962218
1941.000000	99.921129
1940.000000	99.939353
1939.000000	99.956853
1938.000000	99.975758
1937.000000	99.919349
1936.000000	100.068622
1935.000000	99.948228
1934.000000	99.915396
1933.000000	99.941579
1932.000000	99.784446
1931.000000	99.939661
1930.000000	99.951844
1929.000000	99.988236
1928.000000	99.878252
1927.000000	99.999899
1926.000000	100.150594
1925.000000	99.955992
1924.000000	99.983468
1923.000000	99.898805
1922.000000	100.003445
1921.000000	100.038448
1920.000000	100.024958
1919.000000	100.039566
1918.000000	99.924241
1917.000000	99.976884
1916.000000	99.911321
1915.000000	99.999797
1914.000000	100.003955
1913.000000	100.022310
1912.000000	99.939252
1911.000000	100.115841
1910.000000	100.058448
1909.000000	99.925860
1908.000000	100.021717
1907.000000	100.016227
1906.000000	99.974343
1905.000000	99.903391
1904.000000	99.926968
1903.000000	100.103083
1902.000000	99.928143
1901.000000	99.927380
1900.000000	99.994622
1899.000000	100.021718
1898.000000	100.038971
1897.000000	100.044881
1896.000000	100.053184
1895.000000	99.970784
1894.000000	99.944196
1893.000000	99.904125
1892.000000	99.978801
1891.000000	99.941774
1890.000000	99.996652
1889.000000	100.113459
1888.000000	100.042891
1887.000000	99.998784
1886.000000	99.990982
1885.000000	100.008112
1884.000000	100.020481
1883.000000	100.018341
1882.000000	99.978219
1881.000000	99.980555
1880.000000	99.958280
1879.000000	100.036969
1878.000000	100.016707
1877.000000	99.985829
1876.000000	99.942023
1875.000000	99.963484
1874.000000	100.096166
1873.000000	100.047481
1872.000000	100.006374
1871.000000	100.013149
1870.000000	100.015478
1869.000000	100.018717
1868.000000	99.967425
1867.000000	100.002226
1866.000000	100.020751
1865.000000	100.027531
1864.000000	100.006174
1863.000000	100.083316
1862.000000	100.081291
1861.000000	99.989678
1860.000000	99.904896
1859.000000	99.963558
1858.000000	99.989571
1857.000000	99.952422
1856.000000	99.967101
1855.000000	100.023183
1854.000000	100.021159
1853.000000	100.021060
1852.000000	99.978836
1851.000000	99.981077
1850.000000	99.941100
1849.000000	99.970448
1848.000000	100.017915
1847.000000	100.003239
1846.000000	99.968826
1845.000000	99.989273
1844.000000	100.006173
1843.000000	99.999595
1842.000000	99.974095
1841.000000	99.956501
1840.000000	99.967523
1839.000000	100.016600
1838.000000	99.989065
1837.000000	99.984810
1836.000000	100.053886
1835.000000	100.025019
1834.000000	99.978122
1833.000000	99.992300
1832.000000	99.955732
1831.000000	99.953494
1830.000000	99.946088
1829.000000	99.979121
1828.000000	99.984694
1827.000000	99.955909
1826.000000	99.992295
1825.000000	99.983775
1824.000000	99.972013
1823.000000	99.994320
1822.000000	99.993609
1821.000000	100.030134
1820.000000	100.007204
1819.000000	99.992289
1818.000000	100.006087
1817.000000	99.997869
1816.000000	99.975443
1815.000000	99.964990
1814.000000	100.011269
1813.000000	100.025786
1812.000000	99.986603
1811.000000	99.964785
1810.000000	99.992285
1809.000000	99.983757
1808.000000	99.951587
1807.000000	99.954015
1806.000000	99.963445
1805.000000	99.972888
1804.000000	100.004569
1803.000000	99.998883
1802.000000	99.994923
1801.000000	99.989642
1800.000000	99.943859
1799.000000	99.992687
1798.000000	100.038708
1797.000000	99.989844
1796.000000	99.971159
1795.000000	99.999898
1794.000000	100.000914
1793.000000	99.992279
1792.000000	100.023165
1791.000000	100.036482
1790.000000	100.007215
1789.000000	100.010671
1788.000000	99.998679
1787.000000	99.989128
1786.000000	99.988517
1785.000000	99.946972
1784.000000	99.963118
1783.000000	99.985167
1782.000000	99.968709
1781.000000	99.935388
1780.000000	99.979783
1779.000000	99.997054
1778.000000	99.977342
1777.000000	100.041059
1776.000000	100.012398
1775.000000	99.998374
1774.000000	100.016461
1773.000000	100.014126
1772.000000	99.986181
1771.000000	99.941897
1770.000000	99.951138
1769.000000	100.024396
1768.000000	99.957935
1767.000000	99.976630
1766.000000	100.018089
1765.000000	100.006097
1764.000000	100.008435
1763.000000	99.961388
1762.000000	100.002946
1761.000000	99.981303
1760.000000	99.952658
1759.000000	100.018194
1758.000000	99.997358
1757.000000	100.005792
1756.000000	100.005285
1755.000000	99.990042
1754.000000	100.056514
1753.000000	99.982522
1752.000000	99.975921
1751.000000	100.015852
1750.000000	99.998679
1749.000000	100.024582
1748.000000	99.990755
1747.000000	100.013007
1746.000000	99.998882
1745.000000	99.972463
1744.000000	99.988113
1743.000000	100.005385
1742.000000	100.009958
1741.000000	99.995021
1740.000000	99.985570
1739.000000	99.960279
1738.000000	99.940177
1737.000000	100.019304
1736.000000	100.022148
1735.000000	99.999492
1734.000000	100.040347
1733.000000	99.998781
1732.000000	99.974300
1731.000000	99.938959
1730.000000	99.925058
1729.000000	99.992381
1728.000000	100.000813
1727.000000	99.980084
1726.000000	99.978263
1725.000000	99.997664
1724.000000	99.932468
1723.000000	99.909512
1722.000000	99.981821
1721.000000	99.907510
1720.000000	99.985782
1719.000000	100.009143
1718.000000	99.970649
1717.000000	99.997258
1716.000000	100.031197
1715.000000	99.975315
1714.000000	99.992585
1713.000000	100.014529
1712.000000	99.981712
1711.000000	100.021948
1710.000000	100.017469
1709.000000	100.017879
1708.000000	100.009346
1707.000000	99.982530
1706.000000	100.009955
1705.000000	100.020014
1704.000000	100.005181
1703.000000	100.009652
1702.000000	100.020117
1701.000000	100.020017
1700.000000	99.997258
1699.000000	100.013511
1698.000000	99.957051
1697.000000	100.009244
1696.000000	99.982533
1695.000000	99.952684
1694.000000	100.011578
1693.000000	100.013510
1692.000000	100.007312
1691.000000	100.009141
1690.000000	100.001219
1689.000000	99.997562
1688.000000	100.015236
1687.000000	100.030270
1686.000000	99.987407
1685.000000	99.999086
1684.000000	99.977147
1683.000000	100.008633
1682.000000	100.000508
1681.000000	100.021939
1680.000000	99.965782
1679.000000	99.989945
1678.000000	99.961308
1677.000000	99.998375
1676.000000	99.974313
1675.000000	99.994923
1674.000000	99.977459
1673.000000	100.015032
1672.000000	100.018995
1671.000000	99.959988
1670.000000	99.974312
1669.000000	99.999594
1668.000000	99.969243
1667.000000	99.961231
1666.000000	99.978892
1665.000000	100.036136
1664.000000	100.023962
1663.000000	99.947535
1662.000000	99.983860
1661.000000	100.003858
1660.000000	99.984266
1659.000000	99.981222
1658.000000	99.983965
1657.000000	99.965493
1656.000000	99.991475
1655.000000	99.974631
1654.000000	99.992490
1653.000000	99.970569
1652.000000	99.960319
1651.000000	99.980818
1650.000000	99.992387
1649.000000	100.011370
1648.000000	99.991170
1647.000000	100.009643
1646.000000	100.016139
1645.000000	99.978280
1644.000000	99.942770
1643.000000	99.974530
1642.000000	99.974529
1641.000000	99.983664
1640.000000	99.982644
1639.000000	99.995027
1638.000000	99.969559
1637.000000	99.972193
1636.000000	99.984271
1635.000000	99.995028
1634.000000	100.000406
1633.000000	99.962661
1632.000000	99.967328
1631.000000	99.969455
1630.000000	99.979601
1629.000000	99.996448
1628.000000	100.010049
1627.000000	99.994013
1626.000000	99.956674
1625.000000	99.967117
1624.000000	99.987619
1623.000000	99.994622
1622.000000	99.988736
1621.000000	99.987924
1620.000000	99.983255
1619.000000	99.971995
1618.000000	99.976360
1617.000000	99.999391
1616.000000	99.972395
1615.000000	99.964685
1614.000000	100.008831
1613.000000	99.990967
1612.000000	99.982850
1611.000000	100.012077
1610.000000	100.001624
1609.000000	99.985491
1608.000000	99.986503
1607.000000	99.968033
1606.000000	99.956976
1605.000000	99.988532
1604.000000	99.984066
1603.000000	99.990764
1602.000000	100.001624
1601.000000	99.969357
1600.000000	99.965504
1599.000000	100.006293
1598.000000	100.007409
1597.000000	99.994824
1596.000000	99.976459
1595.000000	99.962970
1594.000000	99.987520
1593.000000	100.001928
1592.000000	99.996347
1591.000000	100.020502
1590.000000	100.013196
1589.000000	99.980412
1588.000000	99.982038
1587.000000	99.987314
1586.000000	99.986603
1585.000000	99.994723
1584.000000	100.003146
1583.000000	100.002943
1582.000000	99.980417
1581.000000	99.964085
1580.000000	99.972400
1579.000000	99.983866
1578.000000	99.983359
1577.000000	99.959617
1576.000000	99.949473
1575.000000	99.980923
1574.000000	99.966414
1573.000000	99.961247
1572.000000	99.997564
1571.000000	100.007511
1570.000000	99.981026
1569.000000	99.983665
1568.000000	99.982346
1567.000000	99.950695
1566.000000	99.967125
1565.000000	100.010147
1564.000000	99.988942
1563.000000	99.970476
1562.000000	99.966114
1561.000000	99.995332
1560.000000	99.980723
1559.000000	99.953543
1558.000000	99.965611
1557.000000	99.984072
1556.000000	99.983567
1555.000000	99.998884
1554.000000	99.984173
1553.000000	99.980929
1552.000000	99.980828
1551.000000	99.981031
1550.000000	99.969772
1549.000000	99.984480
1548.000000	100.007305
1547.000000	99.972712
1546.000000	99.984784
1545.000000	99.996145
1544.000000	99.994117
1543.000000	99.993610
1542.000000	99.973424
1541.000000	99.976367
1540.000000	100.011970
1539.000000	100.012883
1538.000000	99.977486
1537.000000	99.991278
1536.000000	99.970995
1535.000000	99.988235
1534.000000	100.004159
1533.000000	100.002333
1532.000000	99.985192
1531.000000	99.998884
1530.000000	99.980122
1529.000000	99.997971
1528.000000	99.988438
1527.000000	100.008419
1526.000000	99.969983
1525.000000	99.975557
1524.000000	99.975456
1523.000000	99.979110
1522.000000	100.000000
1521.000000	99.984180
1520.000000	99.983772
1519.000000	99.988539
1518.000000	99.967447
1517.000000	99.971198
1516.000000	99.993103
1515.000000	99.986309
1514.000000	99.976570
1513.000000	99.987423
1512.000000	100.005680
1511.000000	99.991886
1510.000000	99.996044
1509.000000	99.994117
1508.000000	99.973428
1507.000000	99.979719
1506.000000	99.984583
1505.000000	99.978297
1504.000000	99.982050
1503.000000	99.990972
1502.000000	100.012679
1501.000000	99.986207
1500.000000	99.971503
1499.000000	99.994422
1498.000000	100.002739
1497.000000	99.959744
1496.000000	100.000000
1495.000000	100.009332
1494.000000	99.956699
1493.000000	99.980427
1492.000000	99.999899
1491.000000	99.977997
1490.000000	99.983777
1489.000000	100.017951
1488.000000	100.007301
1487.000000	99.990875
1486.000000	100.020890
1485.000000	99.991280
1484.000000	99.975161
1483.000000	100.013991
1482.000000	100.009226
1481.000000	99.979421
1480.000000	99.977092
1479.000000	99.977496
1478.000000	99.998277
1477.000000	99.995337
1476.000000	99.989357
1475.000000	99.997162
1474.000000	99.980943
1473.000000	99.960976
1472.000000	99.963415
1471.000000	100.000608
1470.000000	99.964023
1469.000000	99.968689
1468.000000	99.970205
1467.000000	99.986420
1466.000000	100.000101
1465.000000	99.987534
1464.000000	99.983684
1463.000000	99.987129
1462.000000	100.001014
1461.000000	99.995338
1460.000000	99.983887
1459.000000	99.987739
1458.000000	99.990271
1457.000000	100.002432
1456.000000	99.966870
1455.000000	99.978521
1454.000000	99.990477
1453.000000	100.002533
1452.000000	99.985919
1451.000000	99.994429
1450.000000	99.985918
1449.000000	99.998886
1448.000000	99.998987
1447.000000	99.993315
1446.000000	100.008913
1445.000000	100.001519
1444.000000	99.978529
1443.000000	99.982478
1442.000000	99.983798
1441.000000	100.001215
1440.000000	99.997164
1439.000000	99.993317
1438.000000	99.968107
1437.000000	99.980155
1436.000000	99.988457
1435.000000	99.989267
1434.000000	99.988356
1433.000000	99.999595
1432.000000	100.006277
1431.000000	99.997165
1430.000000	100.004860
1429.000000	99.987246
1428.000000	99.998785
1427.000000	100.017816
1426.000000	99.998279
1425.000000	99.980067
1424.000000	99.959438
1423.000000	99.958427
1422.000000	99.967734
1421.000000	99.994538
1420.000000	100.008698
1419.000000	99.991607
1418.000000	99.984430
1417.000000	99.988880
1416.000000	99.988679
1415.000000	99.994844
1414.000000	99.997574
1413.000000	99.982718
1412.000000	99.993735
1411.000000	99.981106
1410.000000	99.975047
1409.000000	99.976972
1408.000000	99.967786
1407.000000	99.985155
1406.000000	100.004646
1405.000000	100.002020
1404.000000	99.996567
1403.000000	99.991217
1402.000000	99.980519
1401.000000	99.992833
1400.000000	100.000303
1399.000000	100.003634
1398.000000	100.014836
1397.000000	100.013725
1396.000000	100.013218
1395.000000	100.001816
1394.000000	100.002926
1393.000000	100.003228
1392.000000	99.989713
1391.000000	99.996671
1390.000000	99.996772
1389.000000	99.991328
1388.000000	99.992739
1387.000000	99.994555
1386.000000	99.985682
1385.000000	99.970158
1384.000000	99.981449
1383.000000	99.991935
1382.000000	100.009074
1381.000000	100.006049
1380.000000	99.982661
1379.000000	99.983066
1378.000000	99.993852
1377.000000	99.994658
1376.000000	99.997883
1375.000000	99.992845
1374.000000	99.983271
1373.000000	100.010482
1372.000000	100.005643
1371.000000	100.003628
1370.000000	100.003427
1369.000000	99.983878
1368.000000	99.994156
1367.000000	99.993148
1366.000000	99.995164
1365.000000	99.992847
1364.000000	99.986801
1363.000000	99.983476
1362.000000	99.993551
1361.000000	99.993953
1360.000000	99.979839
1359.000000	99.977214
1358.000000	99.985680
1357.000000	99.985073
1356.000000	99.989610
1355.000000	100.009082
1354.000000	100.006661
1353.000000	100.000000
1352.000000	100.006966
1351.000000	99.986573
1350.000000	99.966486
1349.000000	99.957697
1348.000000	100.000808
1347.000000	100.015964
1346.000000	100.003738
1345.000000	99.986969
1344.000000	99.994544
1343.000000	99.991108
1342.000000	99.990099
1341.000000	100.004952
1340.000000	99.993735
1339.000000	99.980907
1338.000000	100.004445
1337.000000	100.002122
1336.000000	99.993734
1335.000000	99.984846
1334.000000	99.992322
1333.000000	99.973837
1332.000000	99.971920
1331.000000	100.000808
1330.000000	99.995858
1329.000000	99.996364
1328.000000	99.974648
1327.000000	99.998182
1326.000000	100.005354
1325.000000	99.984345
1324.000000	99.994949
1323.000000	100.004242
1322.000000	100.000909
1321.000000	99.985958
1320.000000	99.989192
1319.000000	99.999091
1318.000000	99.992120
1317.000000	99.955763
1316.000000	99.991313
1315.000000	99.980005
1314.000000	100.015151
1313.000000	100.000404
1312.000000	99.991918
1311.000000	99.986260
1310.000000	99.989697
1309.000000	100.000909
1308.000000	100.004849
1307.000000	99.977778
1306.000000	99.989393
1305.000000	100.006265
1304.000000	99.978886
1303.000000	99.979394
1302.000000	99.994242
1301.000000	99.997070
1300.000000	100.002122
1299.000000	99.994242
1298.000000	99.991009
1297.000000	99.977071
1296.000000	99.998787
1295.000000	99.991412
1294.000000	99.999192
1293.000000	99.979089
1292.000000	99.986261
1291.000000	100.000202
1290.000000	99.987374
1289.000000	99.994949
1288.000000	99.994243
1287.000000	99.991920
1286.000000	100.000909
1285.000000	99.968396
1284.000000	99.982229
1283.000000	99.977785
1282.000000	99.988793
1281.000000	100.016459
1280.000000	100.020194
1279.000000	99.987783
1278.000000	99.978806
1277.000000	99.985971
1276.000000	99.970935
1275.000000	99.999294
1274.000000	99.984964
1273.000000	99.998284
1272.000000	99.998487
1271.000000	99.998184
1270.000000	99.977000
1269.000000	99.990517
1268.000000	99.996569
1267.000000	99.990919
1266.000000	99.986684
1265.000000	99.973170
1264.000000	99.992636
1263.000000	100.007162
1262.000000	99.954817
1261.000000	100.011704
1260.000000	99.981238
1259.000000	99.985073
1258.000000	99.992636
1257.000000	99.990318
1256.000000	100.018661
1255.000000	99.954214
1254.000000	100.004036
1253.000000	99.994351
1252.000000	99.992939
1251.000000	100.002320
1250.000000	99.997781
1249.000000	99.973380
1248.000000	99.989310
1247.000000	99.982151
1246.000000	99.989815
1245.000000	99.992739
1244.000000	99.999496
1243.000000	99.972671
1242.000000	100.022089
1241.000000	99.989313
1240.000000	99.973683
1239.000000	99.975803
1238.000000	99.980140
1237.000000	99.984477
1236.000000	99.979037
1235.000000	99.991836
1234.000000	100.006451
1233.000000	100.008364
1232.000000	99.996977
1231.000000	99.979850
1230.000000	100.012091
1229.000000	100.000302
1228.000000	99.991640
1227.000000	99.990935
1226.000000	99.997684
1225.000000	100.002215
1224.000000	99.988623
1223.000000	99.996577
1222.000000	99.996577
1221.000000	100.016510
1220.000000	99.991243
1219.000000	99.962464
1218.000000	99.988729
1217.000000	100.014593
1216.000000	99.981185
1215.000000	99.983299
1214.000000	99.982998
1213.000000	99.980183
1212.000000	99.991852
1211.000000	99.995070
1210.000000	99.979581
1209.000000	99.989637
1208.000000	100.001308
1207.000000	99.974858
1206.000000	99.986019
1205.000000	99.981992
1204.000000	99.975863
1203.000000	100.003621
1202.000000	99.994468
1201.000000	99.975660
1200.000000	99.992156
1199.000000	99.986927
1198.000000	99.992658
1197.000000	99.985115
1196.000000	99.990243
1195.000000	99.994368
1194.000000	99.987129
1193.000000	99.995072
1192.000000	100.006135
1191.000000	99.997185
1190.000000	99.991453
1189.000000	99.992055
1188.000000	99.981396
1187.000000	99.986726
1186.000000	99.994268
1185.000000	99.985823
1184.000000	99.973863
1183.000000	99.969746
1182.000000	99.988340
1181.000000	99.995979
1180.000000	99.991859
1179.000000	99.991256
1178.000000	100.005829
1177.000000	100.001407
1176.000000	99.976192
1175.000000	99.961829
1174.000000	99.969565
1173.000000	99.975694
1172.000000	99.984633
1171.000000	99.987948
1170.000000	99.989857
1169.000000	99.980822
1168.000000	99.984639
1167.000000	99.979621
1166.000000	99.977414
1165.000000	99.978519
1164.000000	99.978522
1163.000000	99.989864
1162.000000	99.995886
1161.000000	99.996187
1160.000000	99.983951
1159.000000	99.981847
1158.000000	99.992077
1157.000000	100.009428
1156.000000	100.012035
1155.000000	100.009425
1154.000000	100.009826
1153.000000	100.004010
1152.000000	99.996592
1151.000000	99.987975
1150.000000	99.988176
1149.000000	99.994289
1148.000000	99.981468
1147.000000	99.984575
1146.000000	99.997997
1145.000000	99.994592
1144.000000	99.998898
1143.000000	100.001702
1142.000000	99.994193
1141.000000	99.996897
1140.000000	99.990091
1139.000000	99.975783
1138.000000	99.982490
1137.000000	99.997198
1136.000000	99.998399
1135.000000	99.989998
1134.000000	99.982398
1133.000000	99.994800
1132.000000	99.989002
1131.000000	99.990004
1130.000000	99.990905
1129.000000	99.987908
1128.000000	99.981414
1127.000000	99.983014
1126.000000	99.987211
1125.000000	99.981219
1124.000000	99.979024
1123.000000	99.985116
1122.000000	99.986615
1121.000000	99.986018
1120.000000	99.979232
1119.000000	99.965261
1118.000000	99.988919
1117.000000	100.001997
1116.000000	99.984031
1115.000000	99.981638
1114.000000	99.985431
1113.000000	99.983336
1112.000000	100.004789
1111.000000	100.009678
1110.000000	99.984837
1109.000000	99.997805
1108.000000	99.988330
1107.000000	99.987933
1106.000000	99.990028
1105.000000	99.997507
1104.000000	100.003091
1103.000000	99.979665
1102.000000	99.990333
1101.000000	99.994420
1100.000000	99.976787
1099.000000	99.978283
1098.000000	99.987948
1097.000000	100.002689
1096.000000	99.990240
1095.000000	99.969935
1094.000000	99.978699
1093.000000	100.004679
1092.000000	99.990645
1091.000000	99.989353
1090.000000	99.988459
1089.000000	99.981699
1088.000000	99.986774
1087.000000	99.993039
1086.000000	99.990556
1085.000000	99.998410
1084.000000	99.996820
1083.000000	100.018284
1082.000000	99.980828
1081.000000	99.966925
1080.000000	99.990267
1079.000000	99.988780
1078.000000	100.014298
1077.000000	99.997220
1076.000000	99.994145
1075.000000	99.992261
1074.000000	99.959825
1073.000000	99.982641
1072.000000	99.980464
1071.000000	100.009222
1070.000000	99.986814
1069.000000	99.991279
1068.000000	99.982560
1067.000000	100.018727
1066.000000	99.994056
1065.000000	100.007132
1064.000000	99.993267
1063.000000	99.977232
1062.000000	99.966556
1061.000000	100.002375
1060.000000	100.002177
1059.000000	99.996242
1058.000000	100.005835
1057.000000	100.014138
1056.000000	100.000494
1055.000000	100.010178
1054.000000	99.981032
1053.000000	99.990121
1052.000000	99.994272
1051.000000	99.994866
1050.000000	99.992894
1049.000000	100.008685
1048.000000	99.980958
1047.000000	99.996449
1046.000000	99.988265
1045.000000	99.986592
1044.000000	99.998226
1043.000000	99.975459
1042.000000	99.999310
1041.000000	99.994878
1040.000000	99.991236
1039.000000	100.000689
1038.000000	100.003445
1037.000000	99.989374
1036.000000	99.968624
1035.000000	100.006786
1034.000000	99.985253
1033.000000	99.975329
1032.000000	100.007665
1031.000000	99.994597
1030.000000	99.990572
1029.000000	100.005499
1028.000000	100.008148
1027.000000	99.996075
1026.000000	99.989210
1025.000000	99.991370
1024.000000	99.989806
1023.000000	99.970801
1022.000000	99.996179
1021.000000	99.980115
1020.000000	99.978946
1019.000000	99.981497
1018.000000	99.993932
1017.000000	99.994619
1016.000000	99.982884
1015.000000	99.997164
1014.000000	100.017794
1013.000000	100.006548
1012.000000	100.001465
1011.000000	100.003320
1010.000000	99.996095
1009.000000	99.976187
1008.000000	99.984195
1007.000000	99.981857
1006.000000	99.986055
1005.000000	99.984987
1004.000000	100.020467
1003.000000	100.010814
1002.000000	99.991430
1001.000000	100.004673
1000.000000	100.013625
999.000000	100.006421
998.000000	100.010698
997.000000	100.015750
996.000000	99.982218
995.000000	99.977759
994.000000	99.996504
993.000000	99.985829
992.000000	100.006988
991.000000	99.997672
990.000000	100.008049
989.000000	100.011147
988.000000	99.986534
987.000000	99.993705
986.000000	99.977735
985.000000	99.975518
984.000000	100.013835
983.000000	100.019342
982.000000	100.015369
981.000000	99.991982
980.000000	99.983392
979.000000	99.994208
978.000000	99.974725
977.000000	99.990549
976.000000	99.987082
975.000000	99.999229
974.000000	100.002697
973.000000	99.995668
972.000000	99.991244
971.000000	99.989902
970.000000	99.995385
969.000000	100.005285
968.000000	100.012295
967.000000	100.010272
966.000000	100.008060
965.000000	100.018032
964.000000	100.011408
963.000000	100.019354
962.000000	100.000670
961.000000	99.987079
960.000000	99.992730
959.000000	100.014723
958.000000	100.018444
957.000000	100.018818
956.000000	99.980911
955.000000	99.975201
954.000000	99.978929
953.000000	100.012771
952.000000	100.043628
951.000000	99.999905
950.000000	99.973178
949.000000	100.018825
948.000000	100.032118
947.000000	99.995442
946.000000	100.009776
945.000000	100.004552
944.000000	99.967495
943.000000	99.982003
942.000000	99.987599
941.000000	100.001892
940.000000	100.000000
939.000000	99.975909
938.000000	100.008121
937.000000	100.002170
936.000000	99.970489
935.000000	99.986809
934.000000	99.985687
933.000000	99.993037
932.000000	100.011285
931.000000	99.999718
930.000000	100.000094
929.000000	100.028439
928.000000	100.019696
927.000000	100.004311
926.000000	99.986796
925.000000	99.982690
924.000000	100.005144
923.000000	99.999626
922.000000	99.999533
921.000000	99.955224
920.000000	99.989279
919.000000	100.018449
918.000000	100.005586
917.000000	99.993581
916.000000	99.963564
915.000000	99.951891
914.000000	100.004548
913.000000	100.034960
912.000000	100.027056
911.000000	99.994538
910.000000	99.943861
909.000000	99.962111
908.000000	99.993812
907.000000	99.962082
906.000000	99.958249
905.000000	99.946766
904.000000	99.992453
903.000000	100.011312
902.000000	100.014611
901.000000	100.072549
900.000000	100.030913
899.000000	99.995418
898.000000	100.043504
897.000000	99.962222
896.000000	99.952764
895.000000	100.044380
894.000000	99.973634
893.000000	99.995900
892.000000	99.961044
891.000000	99.918352
890.000000	99.930072
889.000000	99.963221
888.000000	99.936873
887.000000	99.864571
886.000000	100.018476
885.000000	99.960094
884.000000	100.018897
883.000000	100.046052
882.000000	99.946068
881.000000	99.998378
880.000000	100.024772
879.000000	99.997391
878.000000	100.049825
877.000000	99.992096
876.000000	99.990583
875.000000	99.900910
874.000000	99.965359
873.000000	100.139988
872.000000	99.967460
871.000000	99.959254
870.000000	99.935458
869.000000	99.923519
868.000000	99.853834
867.000000	99.886452
866.000000	99.864826
865.000000	99.942792
864.000000	99.967237
863.000000	99.929658
862.000000	100.051489
861.000000	100.013630
860.000000	99.972247
859.000000	100.225120
858.000000	99.532917
857.000000	99.947063
856.000000	99.669685
855.000000	100.028939
854.000000	100.395807
853.000000	100.157973
852.000000	99.789865
851.000000	99.993077
850.000000	100.037878
849.000000	100.130320
848.000000	100.011216
847.000000	100.046767
846.000000	100.220404
845.000000	100.276307
844.000000	100.383115
843.000000	99.991685
842.000000	99.916663
841.000000	100.136338
840.000000	100.100923
839.000000	100.053598
838.000000	100.406865
837.000000	100.033962
836.000000	99.865756
835.000000	99.995956
834.000000	99.958882
833.000000	100.054375
832.000000	99.867267
831.000000	100.166268
830.000000	100.038762
829.000000	99.954486
828.000000	100.130900
827.000000	100.038395
826.000000	99.899822
825.000000	99.702278
824.000000	99.934752
823.000000	99.977615
822.000000	100.033174
821.000000	100.043196
820.000000	99.913168
819.000000	99.881063
818.000000	100.331239
817.000000	100.132453
816.000000	99.964347
815.000000	99.742329
814.000000	99.960464
813.000000	99.992349
812.000000	99.826588
811.000000	99.961077
810.000000	100.008713
809.000000	99.853524
808.000000	99.890494
807.000000	100.028969
806.000000	99.926401
805.000000	99.929288
804.000000	100.057360
803.000000	99.950002
802.000000	99.682508
801.000000	99.779029
800.000000	100.001233
799.000000	99.895771
798.000000	100.052370
797.000000	100.035137
796.000000	99.861631
795.000000	100.046919
794.000000	100.035687
793.000000	99.891445
792.000000	100.157058
791.000000	100.106578
790.000000	100.064116
789.000000	100.034262
788.000000	100.077099
787.000000	99.887524
786.000000	100.060139
785.000000	100.148233
784.000000	100.222403
783.000000	100.054693
782.000000	100.104013
781.000000	100.055859
780.000000	99.923866
779.000000	100.060104
778.000000	100.051703
777.000000	100.026345
776.000000	100.015933
775.000000	99.918741
774.000000	99.983452
773.000000	99.986904
772.000000	100.118809
771.000000	99.916749
770.000000	99.844127
769.000000	99.727956
768.000000	99.857809
767.000000	99.933058
766.000000	100.035598
765.000000	100.174657
764.000000	100.100212
763.000000	99.962146
762.000000	100.037265
761.000000	99.992738
760.000000	99.949982
759.000000	100.152123
758.000000	100.031326
757.000000	100.114125
756.000000	99.985805
755.000000	99.955985
754.000000	100.015191
753.000000	100.016905
752.000000	100.016829
751.000000	99.951498
750.000000	99.994870
749.000000	100.152274
748.000000	100.011992
747.000000	100.133931
746.000000	100.046366
745.000000	99.895062
744.000000	99.906682
743.000000	99.936785
742.000000	99.993042
741.000000	100.017269
740.000000	99.989242
739.000000	99.962646
738.000000	100.053841
737.000000	100.075865
736.000000	100.054455
735.000000	100.097104
734.000000	99.965745
733.000000	99.993745
732.000000	100.033653
731.000000	99.955557
730.000000	100.056933
729.000000	100.060012
728.000000	99.889605
727.000000	99.888999
726.000000	100.010176
725.000000	99.951661
724.000000	99.999363
723.000000	100.057253
722.000000	100.071277
721.000000	100.018835
720.000000	100.032052
719.000000	100.030779
718.000000	100.044082
717.000000	100.061249
716.000000	100.007657
715.000000	100.017050
714.000000	100.058489
713.000000	99.968061
712.000000	99.940417
711.000000	99.994888
710.000000	100.035811
709.000000	100.026877
708.000000	99.969576
707.000000	99.929097
706.000000	99.935719
705.000000	100.041639
704.000000	100.002471
703.000000	99.911354
702.000000	99.887823
701.000000	99.914499
700.000000	99.991203
699.000000	99.970301
698.000000	100.015041
697.000000	100.030173
696.000000	100.054404
695.000000	100.066613
694.000000	100.118626
693.000000	100.082750
692.000000	99.980993
691.000000	99.932411
690.000000	99.927081
689.000000	99.958225
688.000000	99.987420
687.000000	100.032900
686.000000	100.013596
685.000000	99.959770
684.000000	99.978223
683.000000	100.049304
682.000000	99.994019
681.000000	99.983340
680.000000	99.988586
679.000000	99.909634
678.000000	99.957840
677.000000	100.042665
676.000000	100.045899
675.000000	99.982952
674.000000	99.995021
673.000000	99.894602
672.000000	99.976019
671.000000	100.030814
670.000000	99.923154
669.000000	100.013755
668.000000	100.069198
667.000000	100.036960
666.000000	99.997506
665.000000	100.091432
664.000000	99.953688
663.000000	100.009434
662.000000	100.076621
661.000000	100.063197
660.000000	99.982509
659.000000	99.973816
658.000000	99.988156
657.000000	99.894566
656.000000	99.978141
655.000000	99.928005
654.000000	99.947747
653.000000	100.066099
652.000000	100.017152
651.000000	100.008069
650.000000	100.008442
649.000000	99.995548
648.000000	99.983957
647.000000	99.991926
646.000000	100.013745
645.000000	100.074335
644.000000	99.996284
643.000000	99.990061
642.000000	99.979190
641.000000	100.034746
640.000000	99.981596
639.000000	99.992005
638.000000	100.017482
637.000000	99.946629
636.000000	99.959996
635.000000	99.955546
634.000000	99.940641
633.000000	99.937845
632.000000	99.925546
631.000000	100.028303
630.000000	100.056412
629.000000	100.016387
628.000000	99.943496
627.000000	99.923830
626.000000	99.945512
625.000000	99.953419
624.000000	99.998975
623.000000	100.060867
622.000000	99.983689
621.000000	100.078706
620.000000	99.952081
619.000000	100.023971
618.000000	100.038798
617.000000	100.034613
616.000000	100.029386
615.000000	99.982183
614.000000	100.012224
613.000000	99.989643
612.000000	100.011389
611.000000	99.999254
610.000000	100.037068
609.000000	99.954456
608.000000	99.954647
607.000000	100.051656
606.000000	99.948757
605.000000	100.059225
604.000000	100.009058
603.000000	99.985897
602.000000	99.967225
601.000000	100.021112
600.000000	100.015697
599.000000	100.009434
598.000000	99.948743
597.000000	99.985614
596.000000	99.961344
595.000000	100.001402
594.000000	99.931184
593.000000	100.068232
592.000000	100.029906
591.000000	99.994485
590.000000	99.956453
589.000000	99.934598
588.000000	99.950956
587.000000	100.063396
586.000000	99.946145
585.000000	100.013374
584.000000	99.959153
583.000000	99.982789
582.000000	100.023663
581.000000	100.026668
580.000000	100.106777
579.000000	99.913193
578.000000	100.020119
577.000000	100.063450
576.000000	100.040706
575.000000	99.968856
574.000000	100.035009
573.000000	99.970333
572.000000	99.957345
571.000000	99.985867
570.000000	99.965386
569.000000	100.028550
568.000000	100.063503
567.000000	100.017976
566.000000	99.941881
565.000000	100.043917
564.000000	100.037833
563.000000	100.005616
562.000000	100.055284
561.000000	100.097158
560.000000	100.001311
559.000000	99.992604
558.000000	100.016112
557.000000	100.007488
556.000000	100.023682
555.000000	100.044563
554.000000	100.017511
553.000000	99.993164
552.000000	99.987917
551.000000	100.094261
550.000000	100.063695
549.000000	100.081120
548.000000	100.031663
547.000000	100.032888
546.000000	99.976953
545.000000	100.035510
544.000000	99.959732
543.000000	100.003653
542.000000	99.972738
541.000000	99.987911
540.000000	99.942851
539.000000	100.018093
538.000000	100.054092
537.000000	99.995970
536.000000	100.057844
535.000000	99.987438
534.000000	99.998594
533.000000	100.021091
532.000000	99.977600
531.000000	100.001313
530.000000	100.016221
529.000000	99.994373
528.000000	100.016036
527.000000	100.013505
526.000000	100.008252
525.000000	99.999156
524.000000	99.994279
523.000000	100.016786
522.000000	99.965486
521.000000	100.037717
520.000000	100.045602
519.000000	99.996811
518.000000	100.032092
517.000000	100.078033
516.000000	99.993525
515.000000	99.937802
514.000000	100.034805
513.000000	100.076427
512.000000	99.964331
511.000000	99.975224
510.000000	99.978139
509.000000	99.954766
508.000000	99.960671
507.000000	99.973996
506.000000	99.950063
505.000000	99.953527
504.000000	99.933374
503.000000	99.986481
502.000000	100.054184
501.000000	99.955716
500.000000	99.955514
499.000000	100.000751
498.000000	99.996527
497.000000	100.005538
496.000000	100.016238
495.000000	99.983480
494.000000	99.964530
493.000000	99.971101
492.000000	99.956089
491.000000	99.898415
490.000000	99.975326
489.000000	99.989023
488.000000	99.929733
487.000000	100.015764
486.000000	99.965120
485.000000	99.938104
484.000000	99.989778
483.000000	100.055668
482.000000	100.046518
481.000000	100.087477
480.000000	99.987785
479.000000	100.000094
478.000000	99.973679
477.000000	99.936993
476.000000	100.022964
475.000000	100.016092
474.000000	99.988989
473.000000	100.015626
472.000000	100.043214
471.000000	99.995952
470.000000	99.981548
469.000000	99.984089
468.000000	99.981172
467.000000	99.989172
466.000000	99.944059
465.000000	99.961001
464.000000	99.968163
463.000000	99.934739
462.000000	99.952818
461.000000	99.997740
460.000000	99.993782
459.000000	100.030354
458.000000	100.039782
457.000000	99.968722
456.000000	99.996703
455.000000	100.005654
454.000000	99.907768
453.000000	99.951844
452.000000	100.027054
451.000000	99.925471
450.000000	99.994628
449.000000	100.039979
448.000000	99.951167
447.000000	99.968239
446.000000	100.023304
445.000000	100.060109
444.000000	100.025276
443.000000	99.989246
442.000000	99.965653
441.000000	99.961489
440.000000	100.041454
439.000000	99.947618
438.000000	99.976866
437.000000	100.039468
436.000000	99.948629
435.000000	99.903146
434.000000	99.986783
433.000000	100.016812
432.000000	100.036567
431.000000	100.014362
430.000000	99.906087
429.000000	99.962952
428.000000	100.018910
427.000000	99.902271
426.000000	99.956350
425.000000	100.029783
424.000000	99.940908
423.000000	99.944672
422.000000	99.962552
421.000000	100.014188
420.000000	100.006529
419.000000	99.953933
418.000000	99.962715
417.000000	100.010129
416.000000	100.071093
415.000000	99.997161
414.000000	99.975766
413.000000	99.974913
412.000000	100.001420
411.000000	99.992897
410.000000	100.038162
409.000000	99.947566
408.000000	99.901810
407.000000	100.008620
406.000000	99.973584
405.000000	99.978030
404.000000	99.987878
403.000000	99.977267
402.000000	100.028529
401.000000	99.974886
400.000000	100.083161
399.000000	99.926731
398.000000	99.975531
397.000000	99.887047
396.000000	99.933479
395.000000	99.989376
394.000000	99.941667
393.000000	100.138437
392.000000	100.185452
391.000000	99.939760
390.000000	99.945171
389.000000	100.001139
388.000000	99.867227
387.000000	100.020226
386.000000	99.986135
385.000000	100.028864
384.000000	99.945505
383.000000	100.040272
382.000000	99.905775
381.000000	99.922489
380.000000	100.183567
379.000000	100.119406
378.000000	100.214681
377.000000	100.083980
376.000000	100.078437
375.000000	99.733775
374.000000	99.994787
373.000000	100.060302
372.000000	99.821587
371.000000	100.010437
370.000000	99.682579
369.000000	99.920621
368.000000	99.958742
367.000000	99.788810
366.000000	99.996964
365.000000	99.686140
364.000000	99.902266
363.000000	100.230265
362.000000	99.905045
361.000000	99.859197
360.000000	99.989282
359.000000	99.898829
358.000000	99.947617
357.000000	99.880975
356.000000	99.884689
355.000000	100.027018
354.000000	100.325526
353.000000	99.924358
352.000000	100.389371
351.000000	100.028683
350.000000	99.813516
349.000000	99.714939
348.000000	100.083605
347.000000	99.770934
346.000000	100.349527
345.000000	100.125560
344.000000	100.237123
343.000000	99.650490
342.000000	100.263096
341.000000	99.970548
340.000000	99.707341
339.000000	100.206991
338.000000	99.843253
337.000000	99.814391
336.000000	100.312809
335.000000	99.688615
334.000000	99.749849
333.000000	100.245552
332.000000	100.177860
331.000000	100.262997
330.000000	100.460601
329.000000	99.755299
328.000000	99.919993
327.000000	100.322126
326.000000	99.782881
325.000000	99.928489
324.000000	100.075846
323.000000	99.894237
322.000000	100.144467
321.000000	100.090809
320.000000	99.873297
319.000000	99.678255
318.000000	100.169788
317.000000	99.752692
316.000000	100.080663
315.000000	99.852130
314.000000	99.819342
313.000000	99.943658
312.000000	100.182330
311.000000	100.032215
310.000000	99.870790
309.000000	100.011551
308.000000	100.075214
307.000000	100.131746
306.000000	99.925215
305.000000	99.861032
304.000000	99.951896
303.000000	99.756621
302.000000	99.850263
301.000000	99.945437
300.000000	100.127763
299.000000	100.078115
298.000000	99.667069
297.000000	99.800654
296.000000	99.601372
295.000000	99.790554
294.000000	100.170962
293.000000	100.126259
292.000000	99.945331
291.000000	100.088943
290.000000	99.738936
289.000000	99.988051
288.000000	100.105497
287.000000	99.904429
286.000000	99.690317
285.000000	100.058557
284.000000	99.820629
283.000000	100.049396
282.000000	100.367489
281.000000	100.306929
280.000000	99.858191
279.000000	100.097086
278.000000	100.227865
277.000000	100.074875
276.000000	99.845559
275.000000	99.938344
274.000000	99.808556
273.000000	99.960229
272.000000	99.940400
271.000000	99.807876
270.000000	99.778319
269.000000	99.874828
268.000000	99.923521
267.000000	100.109993
266.000000	100.115318
265.000000	99.993444
264.000000	99.928343
263.000000	100.204373
262.000000	99.810660
261.000000	99.763605
260.000000	99.770386
259.000000	99.959622
258.000000	100.261698
257.000000	100.135825
256.000000	100.174404
255.000000	100.451551
254.000000	99.970129
253.000000	99.696771
252.000000	100.136942
251.000000	100.041152
250.000000	99.733254
249.000000	100.026299
248.000000	100.165852
247.000000	99.991501
246.000000	100.076289
245.000000	100.276996
244.000000	99.890478
243.000000	99.926140
242.000000	99.686699
241.000000	99.461065
240.000000	99.904728
239.000000	100.094961
238.000000	99.945003
237.000000	99.959533
236.000000	99.956214
235.000000	99.826416
234.000000	99.798490
233.000000	100.064059
232.000000	100.075474
231.000000	100.021183
230.000000	99.891344
229.000000	99.922550
228.000000	99.956004
227.000000	99.612814
226.000000	99.689426
225.000000	99.734662
224.000000	99.812330
223.000000	99.895679
222.000000	99.970628
221.000000	100.281497
220.000000	100.230706
219.000000	100.049039
218.000000	100.119889
217.000000	100.517026
216.000000	100.420537
215.000000	99.911111
214.000000	99.837191
213.000000	99.638552
212.000000	99.918585
211.000000	100.080975
210.000000	99.945823
209.000000	99.678255
208.000000	99.548262
207.000000	99.629151
206.000000	99.081052
205.000000	99.109476
204.000000	99.851473
203.000000	100.681004
202.000000	100.568937
201.000000	100.461480
200.000000	100.119402
