PE UV       SUBTECH     SPECTRUM    ASCII       PEDS        4.00        
   -1
Empty Chamber.Sample.asc
18/03/06
08:54:46.00
18/03/06
08:54:46.00
Administrator

200.000000
1
Lambda 750
750N8071901
PerkinElmer UV WinLab 6.0.4.0738 / 1.61.00 Lambda 900

0
0
3350/servo 860.8/2
0
0
UV/VIS
1
1
1
CommonBeamDepol,150mm sphere / downward view
0
0
0
0
Program
Program
3350/servo 860.8/2
3350/0.2 860.8/0.2
3350/0.2 860.8/0.2
0
1
 
 
 
0
 
860.8
319.2
860.8
Front
100
on
 
 
0
0
0
 
0
 
 
 
0
 
 
0
0
0
0
0
 
 
 
 
0
0


0
0
#HDR
-1
-1
#GR
nm
%T
1.0
0.0
2350.000000
-1.000000
2151
8
100.794063
99.274594
#DATA
2350.000000	100.049263
2349.000000	99.924186
2348.000000	99.274594
2347.000000	100.029846
2346.000000	100.058484
2345.000000	100.377124
2344.000000	100.400642
2343.000000	100.087800
2342.000000	99.818402
2341.000000	99.892603
2340.000000	100.246520
2339.000000	99.759699
2338.000000	99.499624
2337.000000	99.894640
2336.000000	99.899677
2335.000000	99.451327
2334.000000	99.727955
2333.000000	100.158345
2332.000000	100.490574
2331.000000	99.971468
2330.000000	100.393948
2329.000000	100.255825
2328.000000	99.834120
2327.000000	100.087089
2326.000000	100.040815
2325.000000	100.204327
2324.000000	100.284653
2323.000000	99.977094
2322.000000	99.726038
2321.000000	100.069206
2320.000000	99.943752
2319.000000	99.571505
2318.000000	99.788605
2317.000000	99.917893
2316.000000	99.515141
2315.000000	99.702800
2314.000000	99.955139
2313.000000	100.043007
2312.000000	99.968047
2311.000000	100.156084
2310.000000	99.911621
2309.000000	99.788546
2308.000000	100.047239
2307.000000	99.703376
2306.000000	100.018671
2305.000000	99.679053
2304.000000	99.643150
2303.000000	99.890127
2302.000000	99.777003
2301.000000	99.832043
2300.000000	100.101647
2299.000000	99.954936
2298.000000	99.887818
2297.000000	99.920842
2296.000000	99.719538
2295.000000	99.825134
2294.000000	99.814534
2293.000000	99.822758
2292.000000	99.796090
2291.000000	99.804386
2290.000000	99.866680
2289.000000	99.861700
2288.000000	100.119110
2287.000000	100.242098
2286.000000	100.308340
2285.000000	99.872772
2284.000000	100.115297
2283.000000	100.168383
2282.000000	100.121422
2281.000000	100.194074
2280.000000	100.296726
2279.000000	100.086114
2278.000000	100.022201
2277.000000	99.935103
2276.000000	99.945178
2275.000000	100.037275
2274.000000	100.099414
2273.000000	100.116694
2272.000000	100.209225
2271.000000	99.819633
2270.000000	99.832427
2269.000000	99.950727
2268.000000	99.932539
2267.000000	99.982670
2266.000000	100.126141
2265.000000	99.969960
2264.000000	99.899464
2263.000000	99.910035
2262.000000	99.822486
2261.000000	99.963868
2260.000000	99.893203
2259.000000	99.816647
2258.000000	99.846432
2257.000000	99.972351
2256.000000	99.922983
2255.000000	99.837486
2254.000000	99.874259
2253.000000	99.752490
2252.000000	99.848457
2251.000000	99.716530
2250.000000	99.665587
2249.000000	99.890786
2248.000000	99.950188
2247.000000	99.935544
2246.000000	99.893637
2245.000000	99.906341
2244.000000	99.890802
2243.000000	99.950309
2242.000000	99.971550
2241.000000	100.067743
2240.000000	100.029191
2239.000000	99.918917
2238.000000	99.829504
2237.000000	100.052257
2236.000000	100.229599
2235.000000	99.915858
2234.000000	99.864646
2233.000000	99.868841
2232.000000	99.970798
2231.000000	99.991592
2230.000000	100.029994
2229.000000	100.088300
2228.000000	100.109987
2227.000000	100.032261
2226.000000	99.913102
2225.000000	99.942201
2224.000000	100.234587
2223.000000	100.165473
2222.000000	100.048897
2221.000000	100.108863
2220.000000	99.954357
2219.000000	100.071560
2218.000000	99.967252
2217.000000	99.968158
2216.000000	99.911339
2215.000000	99.879091
2214.000000	99.944893
2213.000000	100.106912
2212.000000	99.895865
2211.000000	99.815174
2210.000000	99.844085
2209.000000	99.973840
2208.000000	99.945185
2207.000000	100.084616
2206.000000	100.173253
2205.000000	99.917031
2204.000000	99.946910
2203.000000	99.860301
2202.000000	100.051587
2201.000000	100.062047
2200.000000	100.017534
2199.000000	100.108181
2198.000000	100.000506
2197.000000	99.978121
2196.000000	100.162150
2195.000000	100.320269
2194.000000	99.917330
2193.000000	100.032170
2192.000000	99.928747
2191.000000	100.112230
2190.000000	100.114755
2189.000000	100.054806
2188.000000	99.940553
2187.000000	99.914578
2186.000000	99.973084
2185.000000	99.804981
2184.000000	99.855771
2183.000000	100.021715
2182.000000	100.025669
2181.000000	99.803222
2180.000000	100.026913
2179.000000	100.244939
2178.000000	99.898499
2177.000000	99.965309
2176.000000	100.006472
2175.000000	99.892803
2174.000000	99.914113
2173.000000	99.889108
2172.000000	100.009701
2171.000000	99.955665
2170.000000	99.993938
2169.000000	100.127681
2168.000000	100.231911
2167.000000	99.931993
2166.000000	99.986657
2165.000000	99.945899
2164.000000	100.002727
2163.000000	99.948951
2162.000000	100.116188
2161.000000	99.982730
2160.000000	99.779212
2159.000000	100.161118
2158.000000	100.066016
2157.000000	100.028260
2156.000000	100.051169
2155.000000	100.135237
2154.000000	100.044712
2153.000000	100.185906
2152.000000	99.948417
2151.000000	99.973544
2150.000000	100.353865
2149.000000	100.071209
2148.000000	99.893359
2147.000000	99.882761
2146.000000	100.185587
2145.000000	99.702736
2144.000000	100.063209
2143.000000	99.708615
2142.000000	100.043046
2141.000000	100.031448
2140.000000	99.988399
2139.000000	100.018039
2138.000000	100.015208
2137.000000	99.624895
2136.000000	100.014027
2135.000000	100.021407
2134.000000	99.741493
2133.000000	100.068865
2132.000000	100.146957
2131.000000	99.955095
2130.000000	100.372180
2129.000000	99.700123
2128.000000	99.958992
2127.000000	100.211801
2126.000000	99.838917
2125.000000	99.965466
2124.000000	99.951960
2123.000000	99.956391
2122.000000	99.903599
2121.000000	100.041731
2120.000000	99.944854
2119.000000	99.945163
2118.000000	99.862458
2117.000000	100.159483
2116.000000	99.980527
2115.000000	100.365729
2114.000000	99.919238
2113.000000	99.906875
2112.000000	99.960175
2111.000000	99.725856
2110.000000	100.071760
2109.000000	100.093232
2108.000000	99.938153
2107.000000	99.873932
2106.000000	99.960602
2105.000000	99.786358
2104.000000	99.841716
2103.000000	99.908855
2102.000000	100.068535
2101.000000	100.077504
2100.000000	99.899225
2099.000000	99.935483
2098.000000	99.951448
2097.000000	99.996153
2096.000000	99.829839
2095.000000	100.184573
2094.000000	100.084161
2093.000000	100.047571
2092.000000	100.033128
2091.000000	100.102369
2090.000000	100.058220
2089.000000	99.895277
2088.000000	99.999899
2087.000000	100.068261
2086.000000	100.049705
2085.000000	100.112766
2084.000000	99.961053
2083.000000	99.919049
2082.000000	99.941911
2081.000000	99.873725
2080.000000	99.972254
2079.000000	100.084520
2078.000000	100.065051
2077.000000	100.023406
2076.000000	100.098561
2075.000000	99.996761
2074.000000	99.836094
2073.000000	99.947386
2072.000000	100.141163
2071.000000	100.176357
2070.000000	100.168818
2069.000000	100.063185
2068.000000	100.034136
2067.000000	100.016912
2066.000000	99.924093
2065.000000	100.051157
2064.000000	100.075384
2063.000000	100.061734
2062.000000	99.980952
2061.000000	99.987234
2060.000000	99.953725
2059.000000	99.831120
2058.000000	99.960505
2057.000000	99.908217
2056.000000	99.965774
2055.000000	100.024615
2054.000000	100.005065
2053.000000	100.014797
2052.000000	100.003750
2051.000000	100.005880
2050.000000	100.096632
2049.000000	100.088330
2048.000000	100.030923
2047.000000	100.027876
2046.000000	99.985510
2045.000000	99.971535
2044.000000	99.936687
2043.000000	99.960890
2042.000000	99.981157
2041.000000	99.993821
2040.000000	100.138153
2039.000000	100.063912
2038.000000	100.028392
2037.000000	100.053562
2036.000000	99.960561
2035.000000	99.980633
2034.000000	99.963917
2033.000000	99.973651
2032.000000	100.001623
2031.000000	100.010043
2030.000000	99.972013
2029.000000	99.977589
2028.000000	100.027984
2027.000000	99.982760
2026.000000	100.018059
2025.000000	100.036523
2024.000000	99.996043
2023.000000	100.019084
2022.000000	100.043759
2021.000000	100.058060
2020.000000	100.059461
2019.000000	99.982853
2018.000000	100.041723
2017.000000	100.048832
2016.000000	99.950174
2015.000000	99.927737
2014.000000	99.945891
2013.000000	100.016554
2012.000000	100.039709
2011.000000	100.004264
2010.000000	100.008021
2009.000000	100.049458
2008.000000	100.103640
2007.000000	100.038600
2006.000000	100.013613
2005.000000	100.044298
2004.000000	100.019811
2003.000000	100.041472
2002.000000	100.006200
2001.000000	100.013620
2000.000000	99.982014
1999.000000	99.965153
1998.000000	100.043502
1997.000000	99.977750
1996.000000	100.014533
1995.000000	99.995224
1994.000000	99.950524
1993.000000	99.996138
1992.000000	99.937510
1991.000000	99.976929
1990.000000	100.049122
1989.000000	100.001627
1988.000000	99.965647
1987.000000	99.988206
1986.000000	100.000610
1985.000000	99.897742
1984.000000	99.960149
1983.000000	100.012303
1982.000000	100.017189
1981.000000	100.072932
1980.000000	99.990138
1979.000000	99.931982
1978.000000	100.030719
1977.000000	99.982505
1976.000000	99.967872
1975.000000	99.990648
1974.000000	100.000814
1973.000000	99.950061
1972.000000	100.020145
1971.000000	100.025433
1970.000000	99.888186
1969.000000	99.970302
1968.000000	100.043321
1967.000000	100.013218
1966.000000	100.047386
1965.000000	100.020546
1964.000000	99.990948
1963.000000	99.996949
1962.000000	99.988201
1961.000000	100.000000
1960.000000	100.014438
1959.000000	100.039868
1958.000000	99.990241
1957.000000	100.021657
1956.000000	100.004677
1955.000000	99.938791
1954.000000	100.044022
1953.000000	100.008943
1952.000000	99.960077
1951.000000	100.019514
1950.000000	100.052051
1949.000000	99.992580
1948.000000	100.057435
1947.000000	100.013617
1946.000000	99.997358
1945.000000	100.105865
1944.000000	100.000407
1943.000000	99.891251
1942.000000	100.009044
1941.000000	100.057992
1940.000000	100.041347
1939.000000	100.017475
1938.000000	100.053426
1937.000000	100.001624
1936.000000	99.926001
1935.000000	100.103865
1934.000000	100.045269
1933.000000	100.045690
1932.000000	99.965403
1931.000000	100.017149
1930.000000	100.038044
1929.000000	100.139563
1928.000000	100.056460
1927.000000	99.892166
1926.000000	99.965110
1925.000000	99.886239
1924.000000	99.854731
1923.000000	99.930804
1922.000000	99.990158
1921.000000	100.032241
1920.000000	100.082907
1919.000000	99.982861
1918.000000	100.039024
1917.000000	99.990969
1916.000000	99.995741
1915.000000	99.948601
1914.000000	99.927861
1913.000000	100.054696
1912.000000	99.967248
1911.000000	99.980930
1910.000000	99.944736
1909.000000	99.918147
1908.000000	99.962064
1907.000000	100.143466
1906.000000	100.016941
1905.000000	99.996549
1904.000000	99.980424
1903.000000	99.983057
1902.000000	99.901816
1901.000000	99.937407
1900.000000	100.046872
1899.000000	100.048808
1898.000000	99.980924
1897.000000	99.984574
1896.000000	99.964987
1895.000000	100.040319
1894.000000	99.907442
1893.000000	99.969137
1892.000000	100.077284
1891.000000	99.973718
1890.000000	99.960417
1889.000000	99.965611
1888.000000	99.951321
1887.000000	99.936630
1886.000000	99.986212
1885.000000	99.931686
1884.000000	100.011049
1883.000000	100.016728
1882.000000	99.961183
1881.000000	100.054431
1880.000000	100.042265
1879.000000	99.955431
1878.000000	99.984507
1877.000000	100.009416
1876.000000	99.974588
1875.000000	99.998684
1874.000000	100.032311
1873.000000	100.026132
1872.000000	99.966082
1871.000000	100.005365
1870.000000	99.978645
1869.000000	99.959804
1868.000000	100.002633
1867.000000	99.929987
1866.000000	99.956475
1865.000000	99.996456
1864.000000	99.997974
1863.000000	100.023704
1862.000000	100.017830
1861.000000	99.994227
1860.000000	99.973160
1859.000000	100.017227
1858.000000	99.932537
1857.000000	99.944680
1856.000000	99.984497
1855.000000	99.981466
1854.000000	99.952101
1853.000000	99.991999
1852.000000	99.970839
1851.000000	99.969014
1850.000000	99.993314
1849.000000	99.954645
1848.000000	100.000911
1847.000000	100.065346
1846.000000	100.017930
1845.000000	99.996962
1844.000000	100.010431
1843.000000	99.977522
1842.000000	100.018029
1841.000000	100.018228
1840.000000	100.005266
1839.000000	100.004659
1838.000000	99.963134
1837.000000	99.936313
1836.000000	99.974678
1835.000000	100.037896
1834.000000	100.019153
1833.000000	99.985914
1832.000000	100.035384
1831.000000	100.041985
1830.000000	99.996553
1829.000000	99.996553
1828.000000	99.988849
1827.000000	99.972829
1826.000000	99.955087
1825.000000	99.975462
1824.000000	100.001116
1823.000000	100.010448
1822.000000	100.010957
1821.000000	100.015221
1820.000000	100.047300
1819.000000	100.022634
1818.000000	100.020400
1817.000000	100.021622
1816.000000	100.024876
1815.000000	100.023150
1814.000000	100.025483
1813.000000	99.977063
1812.000000	99.962041
1811.000000	99.987310
1810.000000	99.985278
1809.000000	100.005687
1808.000000	100.009953
1807.000000	99.975529
1806.000000	99.955221
1805.000000	99.961408
1804.000000	99.982025
1803.000000	99.995734
1802.000000	100.022959
1801.000000	100.032002
1800.000000	100.026211
1799.000000	100.002133
1798.000000	99.969425
1797.000000	99.981716
1796.000000	99.982530
1795.000000	99.972171
1794.000000	99.991772
1793.000000	99.997562
1792.000000	99.989535
1791.000000	100.028653
1790.000000	100.009348
1789.000000	99.996952
1788.000000	99.987501
1787.000000	100.010974
1786.000000	100.022154
1785.000000	100.021035
1784.000000	100.022049
1783.000000	99.967901
1782.000000	99.993294
1781.000000	100.015143
1780.000000	99.998882
1779.000000	99.968914
1778.000000	99.972569
1777.000000	99.971147
1776.000000	100.009044
1775.000000	99.996444
1774.000000	99.990552
1773.000000	99.995123
1772.000000	99.976631
1771.000000	100.013007
1770.000000	99.996342
1769.000000	100.032012
1768.000000	100.011484
1767.000000	99.987502
1766.000000	100.007011
1765.000000	99.987095
1764.000000	100.031202
1763.000000	100.041675
1762.000000	100.027137
1761.000000	100.025612
1760.000000	100.007824
1759.000000	100.018389
1758.000000	100.025510
1757.000000	99.989331
1756.000000	99.964849
1755.000000	100.027236
1754.000000	99.994412
1753.000000	99.976838
1752.000000	99.995631
1751.000000	100.017676
1750.000000	100.013310
1749.000000	99.975417
1748.000000	99.967184
1747.000000	99.995631
1746.000000	99.972673
1745.000000	99.957437
1744.000000	100.028860
1743.000000	100.031506
1742.000000	99.991464
1741.000000	99.952766
1740.000000	100.013311
1739.000000	99.958353
1738.000000	99.957952
1737.000000	99.970546
1736.000000	100.011888
1735.000000	99.995835
1734.000000	99.981206
1733.000000	99.982017
1732.000000	99.961198
1731.000000	99.980292
1730.000000	99.968103
1729.000000	100.014529
1728.000000	100.012800
1727.000000	100.040238
1726.000000	99.994209
1725.000000	99.979885
1724.000000	100.024898
1723.000000	99.964049
1722.000000	99.923230
1721.000000	99.965871
1720.000000	99.983546
1719.000000	100.018795
1718.000000	99.986389
1717.000000	99.985882
1716.000000	99.994007
1715.000000	99.995023
1714.000000	100.002234
1713.000000	100.035360
1712.000000	100.035047
1711.000000	100.012087
1710.000000	100.006602
1709.000000	100.013408
1708.000000	99.968612
1707.000000	99.964860
1706.000000	100.013102
1705.000000	99.977248
1704.000000	99.962520
1703.000000	100.003453
1702.000000	99.977857
1701.000000	100.002031
1700.000000	99.994110
1699.000000	100.026614
1698.000000	100.014118
1697.000000	100.031281
1696.000000	99.994416
1695.000000	100.013509
1694.000000	100.035246
1693.000000	99.994719
1692.000000	99.967708
1691.000000	99.999594
1690.000000	99.967111
1689.000000	100.006601
1688.000000	100.030374
1687.000000	100.006398
1686.000000	99.972278
1685.000000	99.981828
1684.000000	99.967416
1683.000000	100.000812
1682.000000	99.980204
1681.000000	100.021630
1680.000000	99.974212
1679.000000	99.984868
1678.000000	99.988424
1677.000000	99.967000
1676.000000	100.009851
1675.000000	99.999188
1674.000000	99.974310
1673.000000	100.004469
1672.000000	100.006397
1671.000000	99.983855
1670.000000	100.008425
1669.000000	100.017559
1668.000000	100.027711
1667.000000	99.992287
1666.000000	99.982950
1665.000000	100.021622
1664.000000	99.967429
1663.000000	99.998173
1662.000000	100.017657
1661.000000	99.983760
1660.000000	99.993302
1659.000000	99.989244
1658.000000	100.007815
1657.000000	99.991678
1656.000000	99.966623
1655.000000	99.973316
1654.000000	99.986402
1653.000000	99.985693
1652.000000	100.002943
1651.000000	99.996650
1650.000000	100.008120
1649.000000	99.995128
1648.000000	100.004465
1647.000000	100.009236
1646.000000	100.027914
1645.000000	99.997057
1644.000000	100.023551
1643.000000	100.014718
1642.000000	99.990866
1641.000000	99.988533
1640.000000	99.985793
1639.000000	99.971585
1638.000000	99.958498
1637.000000	99.970068
1636.000000	99.978892
1635.000000	99.986198
1634.000000	99.990664
1633.000000	100.002639
1632.000000	99.987821
1631.000000	99.970469
1630.000000	100.002740
1629.000000	100.005176
1628.000000	100.004161
1627.000000	99.992998
1626.000000	99.968243
1625.000000	99.979910
1624.000000	100.015019
1623.000000	99.995941
1622.000000	100.017658
1621.000000	100.019281
1620.000000	99.990158
1619.000000	100.002233
1618.000000	99.995941
1617.000000	100.006799
1616.000000	100.001319
1615.000000	100.001624
1614.000000	99.999797
1613.000000	99.993709
1612.000000	99.997463
1611.000000	100.007610
1610.000000	99.959015
1609.000000	99.947964
1608.000000	99.980824
1607.000000	100.000304
1606.000000	100.002029
1605.000000	99.987114
1604.000000	99.992795
1603.000000	100.015629
1602.000000	100.005176
1601.000000	99.984678
1600.000000	100.002232
1599.000000	99.992593
1598.000000	100.014918
1597.000000	100.033594
1596.000000	99.999290
1595.000000	100.001522
1594.000000	100.008017
1593.000000	99.998579
1592.000000	99.998478
1591.000000	100.004566
1590.000000	100.008930
1589.000000	99.994216
1588.000000	99.988941
1587.000000	99.997768
1586.000000	100.000406
1585.000000	100.000913
1584.000000	100.019788
1583.000000	100.008625
1582.000000	99.980826
1581.000000	99.987319
1580.000000	99.998174
1579.000000	100.017454
1578.000000	100.025268
1577.000000	99.991782
1576.000000	99.990361
1575.000000	100.019586
1574.000000	100.015726
1573.000000	100.011160
1572.000000	100.014815
1571.000000	100.003754
1570.000000	100.008725
1569.000000	99.991681
1568.000000	99.977682
1567.000000	99.982855
1566.000000	99.973930
1565.000000	99.982248
1564.000000	99.996044
1563.000000	99.993305
1562.000000	100.005478
1561.000000	99.998783
1560.000000	99.991985
1559.000000	99.968457
1558.000000	99.992696
1557.000000	99.991784
1556.000000	100.024756
1555.000000	100.020696
1554.000000	99.994522
1553.000000	99.994218
1552.000000	99.971297
1551.000000	99.983367
1550.000000	99.989555
1549.000000	99.989756
1548.000000	99.999290
1547.000000	99.982452
1546.000000	99.977988
1545.000000	99.979814
1544.000000	99.961667
1543.000000	99.989248
1542.000000	100.001724
1541.000000	99.979513
1540.000000	99.987627
1539.000000	100.015621
1538.000000	99.997160
1537.000000	99.996348
1536.000000	99.998681
1535.000000	99.990771
1534.000000	100.010752
1533.000000	100.015520
1532.000000	100.003043
1531.000000	99.993510
1530.000000	100.001826
1529.000000	99.964611
1528.000000	99.984282
1527.000000	99.991987
1526.000000	100.012478
1525.000000	99.998986
1524.000000	99.996348
1523.000000	99.997059
1522.000000	100.003448
1521.000000	99.976573
1520.000000	99.982962
1519.000000	99.983369
1518.000000	99.982455
1517.000000	100.013085
1516.000000	100.024445
1515.000000	100.004970
1514.000000	99.979005
1513.000000	99.998377
1512.000000	99.997464
1511.000000	99.994726
1510.000000	100.012983
1509.000000	99.993206
1508.000000	100.016736
1507.000000	99.995234
1506.000000	99.975562
1505.000000	100.003043
1504.000000	100.014302
1503.000000	100.009027
1502.000000	100.004767
1501.000000	100.012677
1500.000000	99.991989
1499.000000	100.016227
1498.000000	99.995842
1497.000000	99.977284
1496.000000	99.998377
1495.000000	99.999696
1494.000000	100.006187
1493.000000	99.986514
1492.000000	100.010548
1491.000000	100.013082
1490.000000	100.008721
1489.000000	99.993410
1488.000000	99.992699
1487.000000	99.995031
1486.000000	100.015717
1485.000000	99.999594
1484.000000	99.987834
1483.000000	100.005678
1482.000000	100.006286
1481.000000	100.026159
1480.000000	99.970602
1479.000000	99.962697
1478.000000	99.998581
1477.000000	99.995843
1476.000000	99.983577
1475.000000	100.001216
1474.000000	99.998682
1473.000000	99.987734
1472.000000	99.990978
1471.000000	100.011253
1470.000000	100.018754
1469.000000	99.998074
1468.000000	100.010644
1467.000000	99.977701
1466.000000	100.013584
1465.000000	100.010848
1464.000000	100.011861
1463.000000	100.020684
1462.000000	100.004156
1461.000000	99.988142
1460.000000	99.989257
1459.000000	99.998581
1458.000000	99.999899
1457.000000	100.021589
1456.000000	99.993311
1455.000000	99.978316
1454.000000	99.972843
1453.000000	99.987231
1452.000000	100.005067
1451.000000	100.009728
1450.000000	99.987131
1449.000000	99.991488
1448.000000	100.003648
1447.000000	99.990172
1446.000000	99.986525
1445.000000	99.997568
1444.000000	100.010233
1443.000000	99.985920
1442.000000	99.995239
1441.000000	100.007699
1440.000000	99.989973
1439.000000	100.016413
1438.000000	100.006990
1437.000000	99.991695
1436.000000	99.994734
1435.000000	99.983190
1434.000000	100.024512
1433.000000	100.013978
1432.000000	99.995443
1431.000000	100.000810
1430.000000	100.006177
1429.000000	99.989672
1428.000000	100.002025
1427.000000	99.999798
1426.000000	100.000202
1425.000000	99.990383
1424.000000	99.975813
1423.000000	99.987249
1422.000000	99.993625
1421.000000	99.994334
1420.000000	100.004452
1419.000000	100.006172
1418.000000	100.005159
1417.000000	100.006272
1416.000000	99.998786
1415.000000	99.998888
1414.000000	99.988878
1413.000000	99.979678
1412.000000	100.008997
1411.000000	100.005964
1410.000000	99.988174
1409.000000	99.979083
1408.000000	99.965143
1407.000000	99.992928
1406.000000	100.000606
1405.000000	99.986868
1404.000000	99.990202
1403.000000	100.010203
1402.000000	100.003233
1401.000000	99.986770
1400.000000	99.972332
1399.000000	99.973444
1398.000000	99.987379
1397.000000	100.010402
1396.000000	99.994951
1395.000000	99.977085
1394.000000	99.982235
1393.000000	99.985668
1392.000000	99.989705
1391.000000	99.994752
1390.000000	99.982541
1389.000000	99.985366
1388.000000	99.996064
1387.000000	99.994147
1386.000000	99.990616
1385.000000	99.998385
1384.000000	99.994854
1383.000000	99.987790
1382.000000	99.998486
1381.000000	99.999798
1380.000000	100.000605
1379.000000	99.997982
1378.000000	99.994855
1377.000000	99.995965
1376.000000	100.013217
1375.000000	100.011099
1374.000000	99.993644
1373.000000	99.987792
1372.000000	99.991626
1371.000000	99.999092
1370.000000	99.998890
1369.000000	99.981135
1368.000000	99.968130
1367.000000	99.978414
1366.000000	99.981842
1365.000000	99.982047
1364.000000	99.981946
1363.000000	99.985778
1362.000000	99.993847
1361.000000	100.014326
1360.000000	100.024824
1359.000000	100.023416
1358.000000	99.996871
1357.000000	99.966995
1356.000000	99.995457
1355.000000	100.015754
1354.000000	100.008887
1353.000000	100.013637
1352.000000	99.984748
1351.000000	99.959497
1350.000000	99.985248
1349.000000	99.995150
1348.000000	99.981913
1347.000000	100.006872
1346.000000	99.995553
1345.000000	99.983324
1344.000000	100.000809
1343.000000	100.012938
1342.000000	100.006369
1341.000000	99.986758
1340.000000	99.983222
1339.000000	100.004144
1338.000000	100.006974
1337.000000	99.976245
1336.000000	99.995957
1335.000000	99.982416
1334.000000	99.983123
1333.000000	100.007176
1332.000000	100.001415
1331.000000	99.995552
1330.000000	99.992521
1329.000000	99.986964
1328.000000	99.995655
1327.000000	100.010817
1326.000000	100.013948
1325.000000	99.998686
1324.000000	99.987365
1323.000000	99.998686
1322.000000	99.990097
1321.000000	99.998989
1320.000000	100.004851
1319.000000	99.992118
1318.000000	99.989184
1317.000000	99.989692
1316.000000	99.975743
1315.000000	99.973319
1314.000000	99.999899
1313.000000	100.014152
1312.000000	99.974934
1311.000000	99.959879
1310.000000	99.976553
1309.000000	99.992420
1308.000000	99.977667
1307.000000	100.014151
1306.000000	99.997170
1305.000000	99.987769
1304.000000	99.992015
1303.000000	100.018297
1302.000000	100.016174
1301.000000	100.011827
1300.000000	100.011522
1299.000000	99.994644
1298.000000	100.003639
1297.000000	100.000606
1296.000000	100.006772
1295.000000	99.997373
1294.000000	99.987168
1293.000000	100.012733
1292.000000	100.005154
1291.000000	99.982218
1290.000000	100.011925
1289.000000	100.004951
1288.000000	99.988987
1287.000000	99.989393
1286.000000	100.009497
1285.000000	99.967977
1284.000000	99.973838
1283.000000	99.984546
1282.000000	100.000404
1281.000000	100.024043
1280.000000	99.995354
1279.000000	99.991820
1278.000000	99.971023
1277.000000	99.979401
1276.000000	99.984047
1275.000000	99.999495
1274.000000	99.989905
1273.000000	99.993337
1272.000000	99.983344
1271.000000	99.993237
1270.000000	99.987784
1269.000000	99.983950
1268.000000	100.019482
1267.000000	100.001918
1266.000000	100.015647
1265.000000	99.985972
1264.000000	100.005450
1263.000000	99.990109
1262.000000	99.993541
1261.000000	99.983948
1260.000000	99.995357
1259.000000	99.983852
1258.000000	99.990312
1257.000000	99.995762
1256.000000	99.995055
1255.000000	100.021700
1254.000000	100.020185
1253.000000	100.000606
1252.000000	100.011607
1251.000000	100.009083
1250.000000	100.019579
1249.000000	99.989002
1248.000000	99.983855
1247.000000	100.007165
1246.000000	100.002926
1245.000000	100.012412
1244.000000	100.012916
1243.000000	100.003027
1242.000000	99.995259
1241.000000	99.990921
1240.000000	99.988400
1239.000000	99.984467
1238.000000	100.000908
1237.000000	99.983159
1236.000000	99.993748
1235.000000	99.995160
1234.000000	99.998689
1233.000000	100.022081
1232.000000	100.001109
1231.000000	99.999294
1230.000000	100.000302
1229.000000	100.012196
1228.000000	100.005946
1227.000000	100.004837
1226.000000	99.992041
1225.000000	99.997683
1224.000000	100.010982
1223.000000	100.019646
1222.000000	99.981972
1221.000000	99.989627
1220.000000	100.006848
1219.000000	99.992347
1218.000000	99.996677
1217.000000	99.984193
1216.000000	99.998187
1215.000000	99.997080
1214.000000	99.990034
1213.000000	99.994563
1212.000000	100.003625
1211.000000	100.002617
1210.000000	100.005436
1209.000000	100.013492
1208.000000	99.990435
1207.000000	99.985908
1206.000000	99.987317
1205.000000	100.001007
1204.000000	100.004227
1203.000000	100.012080
1202.000000	99.991746
1201.000000	99.970508
1200.000000	99.987621
1199.000000	99.993559
1198.000000	99.995069
1197.000000	99.990138
1196.000000	99.992049
1195.000000	99.995371
1194.000000	99.997988
1193.000000	99.996478
1192.000000	99.992353
1191.000000	99.980785
1190.000000	99.987927
1189.000000	99.997283
1188.000000	99.993962
1187.000000	99.984406
1186.000000	99.993863
1185.000000	99.994165
1184.000000	99.978778
1183.000000	100.002917
1182.000000	100.011165
1181.000000	99.990044
1180.000000	99.989240
1179.000000	99.989341
1178.000000	99.985824
1177.000000	99.989846
1176.000000	99.990652
1175.000000	99.989647
1174.000000	99.997688
1173.000000	100.008140
1172.000000	100.019196
1171.000000	100.015777
1170.000000	100.002311
1169.000000	99.991962
1168.000000	100.006129
1167.000000	100.001607
1166.000000	99.990358
1165.000000	100.000301
1164.000000	99.994477
1163.000000	99.988353
1162.000000	99.989860
1161.000000	99.975608
1160.000000	99.975408
1159.000000	99.990666
1158.000000	100.000803
1157.000000	100.004917
1156.000000	100.010937
1155.000000	100.000401
1154.000000	99.973918
1153.000000	99.980642
1152.000000	99.987164
1151.000000	99.976437
1150.000000	99.984157
1149.000000	99.996090
1148.000000	99.991078
1147.000000	99.997193
1146.000000	99.997795
1145.000000	99.989879
1144.000000	99.989880
1143.000000	99.993287
1142.000000	100.000501
1141.000000	100.008515
1140.000000	100.004908
1139.000000	99.997496
1138.000000	100.003004
1137.000000	99.998198
1136.000000	100.000400
1135.000000	100.004805
1134.000000	100.001602
1133.000000	100.010009
1132.000000	100.006104
1131.000000	100.000000
1130.000000	99.996199
1129.000000	100.011804
1128.000000	100.015603
1127.000000	100.014700
1126.000000	100.021299
1125.000000	100.009599
1124.000000	99.996701
1123.000000	99.992703
1122.000000	99.990605
1121.000000	100.003598
1120.000000	100.011492
1119.000000	100.002598
1118.000000	99.996703
1117.000000	99.983518
1116.000000	99.994706
1115.000000	100.014884
1114.000000	100.008888
1113.000000	99.995606
1112.000000	100.005093
1111.000000	100.000100
1110.000000	99.968957
1109.000000	99.988821
1108.000000	100.008784
1107.000000	100.007585
1106.000000	100.007584
1105.000000	99.991620
1104.000000	100.007182
1103.000000	100.006682
1102.000000	99.995114
1101.000000	100.000000
1100.000000	100.021038
1099.000000	100.025024
1098.000000	100.007177
1097.000000	99.983461
1096.000000	100.009665
1095.000000	99.984859
1094.000000	99.985757
1093.000000	99.997809
1092.000000	99.985663
1091.000000	99.981882
1090.000000	100.018219
1089.000000	100.018215
1088.000000	100.004876
1087.000000	100.007462
1086.000000	100.010246
1085.000000	100.003780
1084.000000	99.997116
1083.000000	99.984491
1082.000000	100.002783
1081.000000	99.998112
1080.000000	99.998311
1079.000000	99.998609
1078.000000	99.994934
1077.000000	100.014004
1076.000000	99.990269
1075.000000	99.992256
1074.000000	99.998213
1073.000000	99.986007
1072.000000	100.004664
1071.000000	99.990674
1070.000000	99.994446
1069.000000	99.980467
1068.000000	99.997224
1067.000000	100.002577
1066.000000	99.985830
1065.000000	99.997622
1064.000000	99.998910
1063.000000	99.999802
1062.000000	99.989406
1061.000000	99.988617
1060.000000	99.996239
1059.000000	99.998615
1058.000000	99.996834
1057.000000	99.995055
1056.000000	100.018000
1055.000000	99.995551
1054.000000	100.004646
1053.000000	100.002965
1052.000000	100.014823
1051.000000	99.993284
1050.000000	100.024986
1049.000000	99.997630
1048.000000	100.015596
1047.000000	100.007995
1046.000000	100.000789
1045.000000	99.995462
1044.000000	100.006608
1043.000000	99.986494
1042.000000	100.029476
1041.000000	100.001281
1040.000000	100.010739
1039.000000	99.998030
1038.000000	100.005809
1037.000000	100.013093
1036.000000	99.980124
1035.000000	99.988293
1034.000000	99.981216
1033.000000	99.984070
1032.000000	100.012682
1031.000000	99.968751
1030.000000	99.988800
1029.000000	99.983696
1028.000000	99.985959
1027.000000	99.980466
1026.000000	100.017567
1025.000000	100.015305
1024.000000	99.994998
1023.000000	99.980882
1022.000000	99.993433
1021.000000	100.005096
1020.000000	100.007348
1019.000000	100.000783
1018.000000	100.018406
1017.000000	99.979253
1016.000000	99.987182
1015.000000	99.991980
1014.000000	99.990417
1013.000000	99.991105
1012.000000	99.988177
1011.000000	100.010259
1010.000000	100.009962
1009.000000	99.987212
1008.000000	99.973164
1007.000000	99.994536
1006.000000	99.989174
1005.000000	100.014532
1004.000000	99.989473
1003.000000	99.989768
1002.000000	99.991232
1001.000000	99.995033
1000.000000	99.995425
999.000000	100.009245
998.000000	100.002432
997.000000	99.986096
996.000000	100.003986
995.000000	99.999028
994.000000	99.997960
993.000000	100.003107
992.000000	100.003397
991.000000	99.995343
990.000000	100.014939
989.000000	100.020266
988.000000	100.006784
987.000000	99.992928
986.000000	99.992641
985.000000	99.994676
984.000000	99.998355
983.000000	99.994294
982.000000	100.001934
981.000000	99.992366
980.000000	99.995364
979.000000	100.013617
978.000000	99.992857
977.000000	99.998746
976.000000	100.010993
975.000000	100.003085
974.000000	99.991234
973.000000	100.004045
972.000000	100.004910
971.000000	99.995285
970.000000	99.990191
969.000000	99.985486
968.000000	100.012684
967.000000	100.030831
966.000000	100.016126
965.000000	100.000576
964.000000	99.987536
963.000000	99.986871
962.000000	100.007376
961.000000	100.001915
960.000000	99.994833
959.000000	99.975139
958.000000	99.968460
957.000000	99.999618
956.000000	99.990548
955.000000	99.971088
954.000000	99.985504
953.000000	99.992089
952.000000	99.971425
951.000000	99.974584
950.000000	99.995909
949.000000	100.021208
948.000000	100.015683
947.000000	100.008074
946.000000	100.003323
945.000000	99.988236
944.000000	99.987486
943.000000	100.013267
942.000000	100.021975
941.000000	99.979181
940.000000	99.956506
939.000000	99.986770
938.000000	99.994522
937.000000	99.961020
936.000000	99.993209
935.000000	100.019604
934.000000	100.003296
933.000000	99.965274
932.000000	99.969341
931.000000	100.038643
930.000000	100.032419
929.000000	99.978313
928.000000	99.993995
927.000000	100.023438
926.000000	99.961976
925.000000	99.972017
924.000000	100.028251
923.000000	99.999065
922.000000	99.983001
921.000000	99.969020
920.000000	99.954969
919.000000	99.999441
918.000000	100.000279
917.000000	100.014232
916.000000	100.016547
915.000000	99.968241
914.000000	99.936919
913.000000	99.953652
912.000000	100.008710
911.000000	99.999722
910.000000	99.995189
909.000000	100.005454
908.000000	99.986335
907.000000	100.007843
906.000000	100.031715
905.000000	100.024225
904.000000	99.972490
903.000000	99.992274
902.000000	100.042646
901.000000	100.044535
900.000000	99.995596
899.000000	99.960591
898.000000	100.023538
897.000000	100.058922
896.000000	99.927112
895.000000	99.985029
894.000000	100.029473
893.000000	100.022063
892.000000	99.929740
891.000000	99.919987
890.000000	99.932253
889.000000	99.981942
888.000000	99.949585
887.000000	99.966564
886.000000	100.010867
885.000000	100.031033
884.000000	99.988794
883.000000	100.014267
882.000000	99.959794
881.000000	99.990812
880.000000	100.051234
879.000000	100.039231
878.000000	99.993527
877.000000	99.983943
876.000000	99.956227
875.000000	99.854968
874.000000	99.880290
873.000000	99.889538
872.000000	100.006612
871.000000	100.019900
870.000000	100.022842
869.000000	99.980478
868.000000	100.101648
867.000000	100.207229
866.000000	100.045601
865.000000	99.909255
864.000000	99.972759
863.000000	100.107691
862.000000	99.971137
861.000000	99.893494
860.000000	99.899630
859.000000	100.231699
858.000000	100.040355
857.000000	100.398973
856.000000	100.465639
855.000000	100.213295
854.000000	99.912720
853.000000	99.302520
852.000000	99.989295
851.000000	99.993704
850.000000	100.145205
849.000000	100.092691
848.000000	100.061832
847.000000	100.091704
846.000000	99.941104
845.000000	100.186875
844.000000	99.804085
843.000000	100.139467
842.000000	99.772248
841.000000	99.824100
840.000000	99.713411
839.000000	99.818458
838.000000	100.202236
837.000000	100.016893
836.000000	100.042560
835.000000	100.121837
834.000000	100.135000
833.000000	100.187989
832.000000	99.949080
831.000000	99.616522
830.000000	100.090917
829.000000	99.884762
828.000000	100.237892
827.000000	99.910643
826.000000	100.135646
825.000000	100.174550
824.000000	100.113036
823.000000	99.773818
822.000000	100.138720
821.000000	99.956695
820.000000	100.268901
819.000000	100.099992
818.000000	99.895289
817.000000	99.925279
816.000000	100.099851
815.000000	100.500673
814.000000	100.117968
813.000000	99.805233
812.000000	99.991310
811.000000	100.047217
810.000000	99.848184
809.000000	99.867182
808.000000	99.928571
807.000000	100.050793
806.000000	99.880642
805.000000	99.895163
804.000000	100.080246
803.000000	100.049453
802.000000	99.792128
801.000000	100.065555
800.000000	100.039024
799.000000	99.950365
798.000000	99.983770
797.000000	100.162533
796.000000	99.991707
795.000000	100.028060
794.000000	99.893495
793.000000	99.850290
792.000000	99.959029
791.000000	99.956820
790.000000	100.009819
789.000000	100.160266
788.000000	100.082863
787.000000	99.958565
786.000000	99.919665
785.000000	100.133349
784.000000	99.984761
783.000000	100.085845
782.000000	100.069616
781.000000	99.929204
780.000000	99.882787
779.000000	99.955936
778.000000	99.731986
777.000000	100.017412
776.000000	99.920214
775.000000	99.891358
774.000000	100.010592
773.000000	99.970333
772.000000	99.854662
771.000000	99.949452
770.000000	99.949216
769.000000	99.960175
768.000000	99.885367
767.000000	99.790198
766.000000	99.898502
765.000000	99.952697
764.000000	100.001432
763.000000	100.071334
762.000000	99.942315
761.000000	100.000269
760.000000	99.926726
759.000000	99.888359
758.000000	99.959453
757.000000	100.140583
756.000000	100.026398
755.000000	100.001078
754.000000	99.987060
753.000000	100.063010
752.000000	100.070918
751.000000	99.948704
750.000000	100.020529
749.000000	99.890915
748.000000	99.985223
747.000000	100.038792
746.000000	99.901902
745.000000	99.960122
744.000000	100.105587
743.000000	99.977241
742.000000	99.976680
741.000000	99.956073
740.000000	99.962400
739.000000	99.965367
738.000000	100.039833
737.000000	100.000091
736.000000	100.080074
735.000000	99.986224
734.000000	99.863862
733.000000	99.909514
732.000000	99.933257
731.000000	99.949930
730.000000	100.008437
729.000000	99.995826
728.000000	99.876833
727.000000	100.021265
726.000000	100.089428
725.000000	100.067261
724.000000	100.032650
723.000000	99.921609
722.000000	99.944522
721.000000	100.030394
720.000000	100.028030
719.000000	99.947305
718.000000	99.985428
717.000000	99.974127
716.000000	99.978223
715.000000	100.044508
714.000000	99.986042
713.000000	99.898863
712.000000	99.917424
711.000000	99.921603
710.000000	99.902814
709.000000	100.000913
708.000000	100.034545
707.000000	99.918775
706.000000	99.900501
705.000000	99.965082
704.000000	99.962509
703.000000	100.002287
702.000000	99.967339
701.000000	99.886657
700.000000	99.915242
699.000000	99.895894
698.000000	99.906810
697.000000	99.943699
696.000000	99.939291
695.000000	99.965451
694.000000	99.985871
693.000000	100.025977
692.000000	100.015879
691.000000	100.046817
690.000000	99.903894
689.000000	99.913206
688.000000	99.992940
687.000000	99.969738
686.000000	100.000183
685.000000	100.041207
684.000000	99.944763
683.000000	99.911584
682.000000	99.952385
681.000000	99.924025
680.000000	99.935262
679.000000	99.974642
678.000000	99.885803
677.000000	99.915455
676.000000	99.913116
675.000000	99.945876
674.000000	99.949828
673.000000	99.933112
672.000000	99.937790
671.000000	99.916912
670.000000	99.997241
669.000000	100.039854
668.000000	99.994938
667.000000	100.006165
666.000000	100.038116
665.000000	100.045866
664.000000	99.999171
663.000000	99.962225
662.000000	99.943347
661.000000	100.027089
660.000000	99.983969
659.000000	99.935773
658.000000	99.955751
657.000000	100.008762
656.000000	99.939597
655.000000	99.994373
654.000000	100.019651
653.000000	100.101778
652.000000	99.954409
651.000000	99.957454
650.000000	99.928075
649.000000	99.979310
648.000000	100.037121
647.000000	99.946081
646.000000	99.963604
645.000000	99.970065
644.000000	100.033554
643.000000	100.039671
642.000000	100.022465
641.000000	99.893001
640.000000	99.894950
639.000000	99.986954
638.000000	100.023599
637.000000	99.962900
636.000000	99.995467
635.000000	99.939132
634.000000	99.955310
633.000000	100.016025
632.000000	99.907055
631.000000	99.981663
630.000000	99.933894
629.000000	99.947575
628.000000	99.918870
627.000000	99.886893
626.000000	99.944972
625.000000	99.981280
624.000000	99.895711
623.000000	99.964122
622.000000	99.988408
621.000000	99.973847
620.000000	100.057701
619.000000	99.998052
618.000000	100.032746
617.000000	100.000835
616.000000	99.948339
615.000000	99.945344
614.000000	99.863977
613.000000	100.007150
612.000000	100.009561
611.000000	99.961755
610.000000	99.920729
609.000000	99.936126
608.000000	99.907704
607.000000	99.923683
606.000000	100.022947
605.000000	100.015970
604.000000	99.987829
603.000000	100.036889
602.000000	99.920373
601.000000	99.982622
600.000000	99.990521
599.000000	100.044144
598.000000	99.872244
597.000000	100.043244
596.000000	99.967749
595.000000	99.986617
594.000000	99.998978
593.000000	99.893559
592.000000	100.031530
591.000000	99.984003
590.000000	99.988098
589.000000	99.982702
588.000000	100.082917
587.000000	99.945151
586.000000	99.987814
585.000000	100.014335
584.000000	100.008751
583.000000	99.957943
582.000000	99.990137
581.000000	99.948164
580.000000	99.949661
579.000000	99.927691
578.000000	99.936246
577.000000	99.862282
576.000000	100.005863
575.000000	99.972441
574.000000	99.951765
573.000000	99.968708
572.000000	100.062137
571.000000	99.872456
570.000000	100.056470
569.000000	100.029987
568.000000	99.870334
567.000000	99.927202
566.000000	99.916716
565.000000	100.014541
564.000000	100.065916
563.000000	99.986020
562.000000	99.851860
561.000000	99.977346
560.000000	99.973810
559.000000	99.949475
558.000000	99.982939
557.000000	99.934187
556.000000	100.054660
555.000000	99.990775
554.000000	99.964290
553.000000	100.045911
552.000000	99.992631
551.000000	99.993751
550.000000	99.976781
549.000000	100.009426
548.000000	99.950746
547.000000	99.956149
546.000000	100.005411
545.000000	99.946641
544.000000	100.018575
543.000000	99.982088
542.000000	99.986465
541.000000	99.948590
540.000000	99.984878
539.000000	99.976468
538.000000	99.978437
537.000000	99.958932
536.000000	99.954068
535.000000	99.944796
534.000000	99.882071
533.000000	99.896656
532.000000	99.931010
531.000000	99.921179
530.000000	99.965424
529.000000	100.011967
528.000000	100.054967
527.000000	99.984676
526.000000	99.989161
525.000000	99.995327
524.000000	100.006733
523.000000	100.018601
522.000000	99.992336
521.000000	99.951861
520.000000	100.003365
519.000000	99.992898
518.000000	99.977474
517.000000	99.954654
516.000000	99.973915
515.000000	99.983078
514.000000	100.025993
513.000000	100.027491
512.000000	99.979336
511.000000	100.004583
510.000000	99.993079
509.000000	99.971009
508.000000	99.917929
507.000000	99.943437
506.000000	99.976238
505.000000	99.940217
504.000000	99.960338
503.000000	99.954443
502.000000	99.984840
501.000000	99.970536
500.000000	99.983721
499.000000	100.000936
498.000000	99.921471
497.000000	99.937715
496.000000	99.965102
495.000000	99.936860
494.000000	99.881876
493.000000	99.979133
492.000000	99.994571
491.000000	100.014597
490.000000	99.982140
489.000000	99.947168
488.000000	100.018619
487.000000	100.012541
486.000000	99.981851
485.000000	99.908607
484.000000	99.914177
483.000000	100.040565
482.000000	100.078889
481.000000	100.037022
480.000000	100.048275
479.000000	100.061979
478.000000	99.975722
477.000000	99.974778
476.000000	99.981521
475.000000	99.969030
474.000000	100.003850
473.000000	99.984696
472.000000	99.988924
471.000000	99.979255
470.000000	99.951740
469.000000	99.987976
468.000000	99.996336
467.000000	100.005260
466.000000	100.011743
465.000000	99.977076
464.000000	99.913835
463.000000	99.947944
462.000000	99.910281
461.000000	99.976491
460.000000	100.055601
459.000000	99.973761
458.000000	99.969251
457.000000	100.005736
456.000000	100.015989
455.000000	99.993417
454.000000	100.033763
453.000000	99.976485
452.000000	99.954276
451.000000	99.991155
450.000000	99.945624
449.000000	99.967070
448.000000	99.997930
447.000000	99.970735
446.000000	99.948790
445.000000	100.014219
444.000000	99.968370
443.000000	99.954615
442.000000	100.067950
441.000000	100.086158
440.000000	100.021490
439.000000	99.921439
438.000000	99.912307
437.000000	99.997267
436.000000	99.992837
435.000000	99.924379
434.000000	99.921061
433.000000	99.943241
432.000000	100.033104
431.000000	100.101650
430.000000	100.053509
429.000000	100.043705
428.000000	99.997923
427.000000	100.052586
426.000000	100.068380
425.000000	99.966966
424.000000	99.966956
423.000000	99.940827
422.000000	99.981306
421.000000	99.981673
420.000000	99.900009
419.000000	99.977984
418.000000	100.078340
417.000000	100.052237
416.000000	100.040497
415.000000	99.984394
414.000000	99.955928
413.000000	100.054569
412.000000	100.043611
411.000000	99.890768
410.000000	99.946544
409.000000	99.985992
408.000000	100.005871
407.000000	100.011644
406.000000	100.102144
405.000000	100.045390
404.000000	99.990518
403.000000	99.988825
402.000000	100.021780
401.000000	100.115372
400.000000	99.996780
399.000000	99.928795
398.000000	99.928517
397.000000	100.056329
396.000000	100.019908
395.000000	99.836103
394.000000	99.904667
393.000000	99.969560
392.000000	99.984829
391.000000	99.957431
390.000000	100.022855
389.000000	100.091187
388.000000	99.981034
387.000000	99.907378
386.000000	100.088054
385.000000	99.893555
384.000000	99.837846
383.000000	99.988526
382.000000	100.258353
381.000000	99.907699
380.000000	99.902763
379.000000	100.143338
378.000000	99.928507
377.000000	100.045909
376.000000	99.994325
375.000000	99.881042
374.000000	99.822076
373.000000	100.142661
372.000000	100.392218
371.000000	99.794159
370.000000	100.058447
369.000000	99.850101
368.000000	100.371922
367.000000	100.026903
366.000000	99.781829
365.000000	99.962634
364.000000	100.048590
363.000000	99.884418
362.000000	99.591854
361.000000	99.906192
360.000000	99.794719
359.000000	100.166966
358.000000	99.868532
357.000000	99.890211
356.000000	99.937677
355.000000	99.975391
354.000000	99.946044
353.000000	99.837546
352.000000	99.926332
351.000000	100.233033
350.000000	100.361085
349.000000	99.856468
348.000000	100.002559
347.000000	99.802134
346.000000	99.906217
345.000000	100.278338
344.000000	100.226806
343.000000	100.087444
342.000000	100.188309
341.000000	99.915811
340.000000	100.317417
339.000000	100.017137
338.000000	100.423757
337.000000	99.824887
336.000000	100.331341
335.000000	100.016561
334.000000	99.951221
333.000000	99.991496
332.000000	99.731133
331.000000	100.227925
330.000000	99.933271
329.000000	99.510104
328.000000	99.856974
327.000000	99.794728
326.000000	100.123526
325.000000	100.341873
324.000000	99.876024
323.000000	99.712865
322.000000	100.088259
321.000000	100.228277
320.000000	100.134850
319.000000	99.821832
318.000000	99.952176
317.000000	99.862863
316.000000	100.324184
315.000000	100.140431
314.000000	100.105147
313.000000	99.951373
312.000000	100.322091
311.000000	99.885395
310.000000	100.147126
309.000000	100.032964
308.000000	100.143297
307.000000	100.166403
306.000000	99.998583
305.000000	99.945597
304.000000	100.151488
303.000000	99.592411
302.000000	99.921418
301.000000	100.069741
300.000000	100.058681
299.000000	100.336559
298.000000	100.080415
297.000000	100.049486
296.000000	99.980770
295.000000	99.859031
294.000000	99.821053
293.000000	99.919807
292.000000	100.156363
291.000000	100.276474
290.000000	100.085000
289.000000	100.012985
288.000000	99.702723
287.000000	100.022767
286.000000	100.086669
285.000000	100.122131
284.000000	100.246870
283.000000	99.925711
282.000000	100.154937
281.000000	99.854869
280.000000	99.777473
279.000000	100.140200
278.000000	99.901607
277.000000	99.374652
276.000000	99.901285
275.000000	100.018574
274.000000	100.111016
273.000000	100.069611
272.000000	99.831918
271.000000	99.680987
270.000000	100.066275
269.000000	99.936394
268.000000	99.711492
267.000000	99.870085
266.000000	100.244939
265.000000	100.057409
264.000000	99.852005
263.000000	99.726905
262.000000	100.001605
261.000000	100.200767
260.000000	100.115477
259.000000	99.877583
258.000000	99.740438
257.000000	99.980272
256.000000	99.888287
255.000000	99.887026
254.000000	99.812920
253.000000	99.736417
252.000000	100.038903
251.000000	99.926657
250.000000	100.035494
249.000000	100.086246
248.000000	99.886244
247.000000	100.129393
246.000000	100.161125
245.000000	100.344902
244.000000	100.278861
243.000000	100.162895
242.000000	100.107994
241.000000	100.540733
240.000000	100.177201
239.000000	99.897851
238.000000	100.000861
237.000000	100.111708
236.000000	99.992382
235.000000	99.917580
234.000000	99.902993
233.000000	99.916547
232.000000	100.023502
231.000000	100.008018
230.000000	99.931593
229.000000	99.951557
228.000000	99.791087
227.000000	99.885406
226.000000	100.108986
225.000000	99.856222
224.000000	99.595685
223.000000	99.752829
222.000000	100.384178
221.000000	100.185412
220.000000	99.772302
219.000000	99.936490
218.000000	99.848171
217.000000	99.515775
216.000000	99.346355
215.000000	99.623800
214.000000	100.006158
213.000000	100.128472
212.000000	99.841693
211.000000	99.665415
210.000000	99.927441
209.000000	100.202943
208.000000	100.248814
207.000000	100.348339
206.000000	100.312246
205.000000	100.570849
204.000000	100.636782
203.000000	100.349569
202.000000	100.335155
201.000000	100.635310
200.000000	100.794063
