PE UV       SUBTECH     SPECTRUM    ASCII       PEDS        4.00        
   -1
Empty Chamber.Sample.asc
18/03/02
09:33:46.00
18/03/02
09:33:46.00
Administrator

200.000000
1
Lambda 750
750N8071901
PerkinElmer UV WinLab 6.0.4.0738 / 1.61.00 Lambda 900

0
0
3350/servo 860.8/2
0
0
UV/VIS
1
1
1
CommonBeamDepol,150mm sphere / downward view
0
0
0
0
Program
Program
3350/servo 860.8/2
3350/0.2 860.8/0.2
3350/0.2 860.8/0.2
0
1
 
 
 
0
 
860.8
319.2
860.8
Front
100
on
 
 
0
0
0
 
0
 
 
 
0
 
 
0
0
0
0
0
 
 
 
 
0
0


0
0
#HDR
-1
-1
#GR
nm
%T
1.0
0.0
2350.000000
-1.000000
2151
8
100.849963
99.477400
#DATA
2350.000000	99.736162
2349.000000	99.953457
2348.000000	99.933150
2347.000000	100.318077
2346.000000	99.988281
2345.000000	100.098449
2344.000000	100.107990
2343.000000	99.986278
2342.000000	99.913393
2341.000000	100.246997
2340.000000	99.775035
2339.000000	99.869527
2338.000000	100.166404
2337.000000	100.006955
2336.000000	99.543179
2335.000000	99.898385
2334.000000	99.892481
2333.000000	100.052560
2332.000000	100.487360
2331.000000	99.814039
2330.000000	100.069788
2329.000000	100.097835
2328.000000	99.951430
2327.000000	100.189522
2326.000000	100.091281
2325.000000	99.797326
2324.000000	100.144126
2323.000000	100.026490
2322.000000	99.873696
2321.000000	100.128924
2320.000000	100.068500
2319.000000	100.106598
2318.000000	100.095541
2317.000000	100.231812
2316.000000	99.903680
2315.000000	100.166866
2314.000000	99.949648
2313.000000	100.071520
2312.000000	99.880248
2311.000000	100.331706
2310.000000	100.267926
2309.000000	99.960063
2308.000000	99.906064
2307.000000	99.806966
2306.000000	100.010209
2305.000000	99.977165
2304.000000	100.211092
2303.000000	100.025452
2302.000000	100.119602
2301.000000	100.124853
2300.000000	100.111539
2299.000000	100.218419
2298.000000	100.209878
2297.000000	100.294147
2296.000000	100.049960
2295.000000	99.767697
2294.000000	99.979181
2293.000000	100.234835
2292.000000	100.154049
2291.000000	99.957383
2290.000000	100.056205
2289.000000	99.936935
2288.000000	100.027569
2287.000000	100.029602
2286.000000	99.904919
2285.000000	100.346166
2284.000000	100.332744
2283.000000	100.030523
2282.000000	100.036414
2281.000000	100.094557
2280.000000	100.157744
2279.000000	100.219183
2278.000000	99.968051
2277.000000	99.794281
2276.000000	99.843321
2275.000000	99.932362
2274.000000	100.194507
2273.000000	99.869443
2272.000000	100.067897
2271.000000	99.895445
2270.000000	99.774282
2269.000000	99.997878
2268.000000	99.941071
2267.000000	99.970854
2266.000000	100.027233
2265.000000	100.116600
2264.000000	100.172428
2263.000000	99.966740
2262.000000	99.874934
2261.000000	99.977874
2260.000000	99.900559
2259.000000	99.981802
2258.000000	100.075106
2257.000000	99.979786
2256.000000	99.912365
2255.000000	99.843470
2254.000000	99.813688
2253.000000	99.807732
2252.000000	99.924744
2251.000000	100.126606
2250.000000	100.094573
2249.000000	99.923125
2248.000000	100.015172
2247.000000	99.965441
2246.000000	99.828756
2245.000000	99.978166
2244.000000	100.032670
2243.000000	100.050640
2242.000000	99.904316
2241.000000	99.724636
2240.000000	99.810585
2239.000000	99.839291
2238.000000	99.992314
2237.000000	100.092694
2236.000000	100.074365
2235.000000	100.118621
2234.000000	99.983615
2233.000000	99.861973
2232.000000	99.913580
2231.000000	99.933938
2230.000000	99.894027
2229.000000	99.837843
2228.000000	99.985240
2227.000000	100.017200
2226.000000	100.137679
2225.000000	100.188849
2224.000000	100.136391
2223.000000	100.206430
2222.000000	100.079690
2221.000000	100.008609
2220.000000	99.959707
2219.000000	99.875458
2218.000000	99.800495
2217.000000	99.908651
2216.000000	99.951385
2215.000000	99.995555
2214.000000	100.005458
2213.000000	100.160329
2212.000000	100.025988
2211.000000	99.925878
2210.000000	100.039659
2209.000000	99.983715
2208.000000	99.854366
2207.000000	100.083261
2206.000000	100.102476
2205.000000	100.031451
2204.000000	100.090151
2203.000000	100.004144
2202.000000	99.900626
2201.000000	99.863032
2200.000000	100.009190
2199.000000	99.953370
2198.000000	100.074806
2197.000000	100.067513
2196.000000	99.928427
2195.000000	99.980986
2194.000000	99.890234
2193.000000	99.946501
2192.000000	99.847942
2191.000000	99.984640
2190.000000	99.976346
2189.000000	100.036171
2188.000000	100.001817
2187.000000	99.952336
2186.000000	100.103517
2185.000000	100.018171
2184.000000	100.018364
2183.000000	100.024425
2182.000000	100.128739
2181.000000	100.073223
2180.000000	100.024526
2179.000000	99.920080
2178.000000	99.785676
2177.000000	100.045030
2176.000000	99.931432
2175.000000	100.023785
2174.000000	100.053538
2173.000000	99.947374
2172.000000	99.892637
2171.000000	99.776430
2170.000000	99.950570
2169.000000	99.940064
2168.000000	99.979047
2167.000000	99.985875
2166.000000	100.084923
2165.000000	100.075451
2164.000000	99.816063
2163.000000	99.926421
2162.000000	99.968779
2161.000000	100.100871
2160.000000	100.097339
2159.000000	99.987811
2158.000000	100.073981
2157.000000	100.030800
2156.000000	99.914479
2155.000000	100.121003
2154.000000	99.991353
2153.000000	100.117271
2152.000000	100.002917
2151.000000	100.063784
2150.000000	100.145457
2149.000000	99.857398
2148.000000	100.031072
2147.000000	100.267584
2146.000000	99.790184
2145.000000	99.810486
2144.000000	100.046865
2143.000000	100.094460
2142.000000	100.021549
2141.000000	99.961514
2140.000000	99.936665
2139.000000	100.063852
2138.000000	100.079798
2137.000000	100.032664
2136.000000	99.875241
2135.000000	99.985315
2134.000000	100.035871
2133.000000	99.848328
2132.000000	100.010865
2131.000000	99.925920
2130.000000	100.107303
2129.000000	99.753075
2128.000000	100.023540
2127.000000	100.060196
2126.000000	99.899099
2125.000000	99.966213
2124.000000	99.943801
2123.000000	99.950780
2122.000000	100.136489
2121.000000	100.112732
2120.000000	100.048188
2119.000000	99.805241
2118.000000	99.956607
2117.000000	99.940175
2116.000000	100.064504
2115.000000	100.214864
2114.000000	99.875740
2113.000000	100.053891
2112.000000	99.884695
2111.000000	99.989118
2110.000000	100.026309
2109.000000	100.061975
2108.000000	100.071941
2107.000000	100.055543
2106.000000	100.080111
2105.000000	99.978124
2104.000000	100.007558
2103.000000	99.945993
2102.000000	99.869708
2101.000000	100.084644
2100.000000	100.130489
2099.000000	100.066741
2098.000000	99.995964
2097.000000	99.970552
2096.000000	99.891406
2095.000000	100.052671
2094.000000	100.090629
2093.000000	100.093623
2092.000000	99.934936
2091.000000	99.956319
2090.000000	100.094636
2089.000000	100.119141
2088.000000	99.959450
2087.000000	99.872900
2086.000000	100.005247
2085.000000	100.131751
2084.000000	99.946514
2083.000000	99.999192
2082.000000	100.052810
2081.000000	99.989094
2080.000000	100.055719
2079.000000	100.187829
2078.000000	100.068072
2077.000000	100.068352
2076.000000	100.094868
2075.000000	99.959641
2074.000000	99.968996
2073.000000	100.102633
2072.000000	100.057955
2071.000000	99.992125
2070.000000	100.026970
2069.000000	99.904063
2068.000000	100.109164
2067.000000	100.143155
2066.000000	99.941108
2065.000000	99.921130
2064.000000	99.996060
2063.000000	100.045667
2062.000000	99.949732
2061.000000	99.995961
2060.000000	100.068811
2059.000000	99.982525
2058.000000	100.027876
2057.000000	100.003030
2056.000000	100.023639
2055.000000	100.066113
2054.000000	99.984338
2053.000000	100.000707
2052.000000	99.973123
2051.000000	99.947439
2050.000000	100.041156
2049.000000	100.035588
2048.000000	100.027891
2047.000000	99.969183
2046.000000	99.933391
2045.000000	99.979477
2044.000000	99.980296
2043.000000	99.961612
2042.000000	100.031337
2041.000000	100.049463
2040.000000	100.013049
2039.000000	99.988875
2038.000000	100.017096
2037.000000	99.961160
2036.000000	99.942249
2035.000000	100.003945
2034.000000	100.017299
2033.000000	100.026919
2032.000000	100.035122
2031.000000	100.004249
2030.000000	99.946691
2029.000000	99.964183
2028.000000	99.956097
2027.000000	99.935867
2026.000000	100.005566
2025.000000	99.991296
2024.000000	99.935130
2023.000000	99.985317
2022.000000	99.966385
2021.000000	99.982387
2020.000000	99.993521
2019.000000	100.043662
2018.000000	100.031719
2017.000000	99.954117
2016.000000	100.002735
2015.000000	99.993212
2014.000000	100.023714
2013.000000	100.020571
2012.000000	100.024121
2011.000000	100.032541
2010.000000	100.012668
2009.000000	99.986523
2008.000000	100.007197
2007.000000	99.967765
2006.000000	99.960061
2005.000000	100.000406
2004.000000	99.991990
2003.000000	99.960458
2002.000000	99.951542
2001.000000	100.022106
2000.000000	100.033157
1999.000000	100.031238
1998.000000	100.015312
1997.000000	99.953677
1996.000000	99.928736
1995.000000	99.985802
1994.000000	100.012478
1993.000000	100.008726
1992.000000	99.955973
1991.000000	99.947770
1990.000000	100.046075
1989.000000	100.071472
1988.000000	100.006089
1987.000000	100.001725
1986.000000	100.004260
1985.000000	99.949800
1984.000000	99.965207
1983.000000	99.957795
1982.000000	99.942583
1981.000000	100.009031
1980.000000	99.985998
1979.000000	100.001928
1978.000000	100.024360
1977.000000	99.983156
1976.000000	99.977168
1975.000000	100.034809
1974.000000	100.013598
1973.000000	100.011569
1972.000000	100.021317
1971.000000	100.023947
1970.000000	99.998580
1969.000000	99.997869
1968.000000	99.992391
1967.000000	99.959125
1966.000000	100.012889
1965.000000	100.027809
1964.000000	99.997869
1963.000000	100.029327
1962.000000	99.994826
1961.000000	99.960338
1960.000000	100.016032
1959.000000	99.967948
1958.000000	99.971497
1957.000000	99.993609
1956.000000	100.033583
1955.000000	99.905995
1954.000000	99.932046
1953.000000	100.023120
1952.000000	99.986311
1951.000000	99.982458
1950.000000	99.966029
1949.000000	100.035195
1948.000000	100.029623
1947.000000	100.019577
1946.000000	100.039033
1945.000000	100.026057
1944.000000	100.004259
1943.000000	99.981136
1942.000000	100.036802
1941.000000	99.952565
1940.000000	99.942827
1939.000000	99.974466
1938.000000	100.016108
1937.000000	99.950771
1936.000000	100.004557
1935.000000	99.978932
1934.000000	100.032410
1933.000000	99.980254
1932.000000	100.010834
1931.000000	99.994836
1930.000000	100.001013
1929.000000	100.047717
1928.000000	100.020955
1927.000000	99.987246
1926.000000	100.056696
1925.000000	99.952726
1924.000000	99.968502
1923.000000	99.878606
1922.000000	99.944246
1921.000000	100.064528
1920.000000	100.035649
1919.000000	100.081340
1918.000000	99.921436
1917.000000	99.948468
1916.000000	100.011235
1915.000000	100.031492
1914.000000	99.942906
1913.000000	100.006787
1912.000000	99.966164
1911.000000	100.032013
1910.000000	100.031810
1909.000000	99.961120
1908.000000	100.013672
1907.000000	100.002026
1906.000000	100.049540
1905.000000	100.021282
1904.000000	100.003850
1903.000000	100.026557
1902.000000	99.961087
1901.000000	99.949326
1900.000000	100.024435
1899.000000	99.986418
1898.000000	100.058931
1897.000000	99.921645
1896.000000	100.044523
1895.000000	100.058934
1894.000000	99.979617
1893.000000	99.973441
1892.000000	100.015420
1891.000000	100.057959
1890.000000	100.023531
1889.000000	99.981244
1888.000000	99.992700
1887.000000	100.019664
1886.000000	100.010034
1885.000000	100.003445
1884.000000	100.000608
1883.000000	99.938096
1882.000000	99.920204
1881.000000	99.967989
1880.000000	100.012661
1879.000000	99.980759
1878.000000	99.956565
1877.000000	100.038689
1876.000000	100.017517
1875.000000	99.981981
1874.000000	100.041712
1873.000000	99.996963
1872.000000	100.004050
1871.000000	99.966906
1870.000000	99.975506
1869.000000	99.995039
1868.000000	100.014175
1867.000000	99.963051
1866.000000	99.969325
1865.000000	100.002633
1864.000000	100.021774
1863.000000	100.033926
1862.000000	100.033418
1861.000000	99.986430
1860.000000	99.999899
1859.000000	100.024509
1858.000000	99.976302
1857.000000	99.965976
1856.000000	99.969423
1855.000000	100.050449
1854.000000	100.022085
1853.000000	100.003444
1852.000000	100.011242
1851.000000	100.034540
1850.000000	100.034529
1849.000000	100.020760
1848.000000	100.015699
1847.000000	99.999291
1846.000000	99.970334
1845.000000	99.996051
1844.000000	100.025016
1843.000000	100.000405
1842.000000	99.939985
1841.000000	99.982486
1840.000000	100.014177
1839.000000	100.009723
1838.000000	99.983692
1837.000000	99.979543
1836.000000	100.018437
1835.000000	100.043983
1834.000000	100.025739
1833.000000	99.997771
1832.000000	100.005674
1831.000000	100.014998
1830.000000	99.979429
1829.000000	99.977301
1828.000000	99.958051
1827.000000	99.960171
1826.000000	99.993410
1825.000000	99.985505
1824.000000	99.987635
1823.000000	99.968377
1822.000000	99.960267
1821.000000	100.006794
1820.000000	100.020487
1819.000000	100.013791
1818.000000	100.022514
1817.000000	100.015112
1816.000000	100.002940
1815.000000	99.990266
1814.000000	99.992495
1813.000000	100.011057
1812.000000	99.992596
1811.000000	99.965823
1810.000000	99.984176
1809.000000	99.986406
1808.000000	99.986913
1807.000000	99.997362
1806.000000	99.972101
1805.000000	99.976868
1804.000000	100.000000
1803.000000	100.012075
1802.000000	100.011162
1801.000000	99.987013
1800.000000	99.991782
1799.000000	99.988130
1798.000000	99.967538
1797.000000	99.985187
1796.000000	99.998377
1795.000000	100.004465
1794.000000	100.023952
1793.000000	99.972909
1792.000000	99.989243
1791.000000	100.007713
1790.000000	99.991071
1789.000000	99.990157
1788.000000	99.992388
1787.000000	99.980208
1786.000000	99.992083
1785.000000	100.001624
1784.000000	99.990155
1783.000000	99.989243
1782.000000	99.991679
1781.000000	99.964388
1780.000000	99.980314
1779.000000	100.010250
1778.000000	100.005074
1777.000000	99.988939
1776.000000	100.002842
1775.000000	99.993607
1774.000000	99.983563
1773.000000	99.996245
1772.000000	100.007715
1771.000000	100.015530
1770.000000	100.048424
1769.000000	99.983560
1768.000000	99.986505
1767.000000	99.998681
1766.000000	99.996448
1765.000000	100.004770
1764.000000	100.041516
1763.000000	99.999391
1762.000000	99.999290
1761.000000	99.991476
1760.000000	99.987924
1759.000000	100.007915
1758.000000	99.998579
1757.000000	99.989446
1756.000000	99.980417
1755.000000	99.985693
1754.000000	99.960438
1753.000000	99.974029
1752.000000	99.992998
1751.000000	99.984987
1750.000000	100.022221
1749.000000	100.048816
1748.000000	100.000101
1747.000000	99.985389
1746.000000	100.003044
1745.000000	100.007306
1744.000000	99.991985
1743.000000	99.982445
1742.000000	99.981127
1741.000000	99.996450
1740.000000	100.028002
1739.000000	99.993101
1738.000000	100.006391
1737.000000	100.005276
1736.000000	99.981840
1735.000000	100.038261
1734.000000	100.019890
1733.000000	99.992391
1732.000000	99.953337
1731.000000	99.956786
1730.000000	99.984883
1729.000000	99.946436
1728.000000	100.002334
1727.000000	100.023945
1726.000000	100.022927
1725.000000	99.986101
1724.000000	99.968347
1723.000000	100.004159
1722.000000	99.961664
1721.000000	99.993000
1720.000000	100.019784
1719.000000	100.018768
1718.000000	99.992291
1717.000000	99.983869
1716.000000	100.016639
1715.000000	99.989044
1714.000000	100.003550
1713.000000	100.035110
1712.000000	100.006188
1711.000000	99.991378
1710.000000	100.011363
1709.000000	99.994826
1708.000000	99.987931
1707.000000	99.998072
1706.000000	99.997261
1705.000000	100.045050
1704.000000	100.005174
1703.000000	100.001217
1702.000000	99.987930
1701.000000	99.988437
1700.000000	100.027995
1699.000000	99.997870
1698.000000	99.961976
1697.000000	99.976066
1696.000000	100.034596
1695.000000	99.931960
1694.000000	100.023635
1693.000000	100.024349
1692.000000	99.962476
1691.000000	99.973833
1690.000000	100.010447
1689.000000	99.959127
1688.000000	99.963591
1687.000000	99.975860
1686.000000	99.983267
1685.000000	100.002840
1684.000000	99.992698
1683.000000	100.002333
1682.000000	99.957812
1681.000000	99.988031
1680.000000	99.993204
1679.000000	100.016637
1678.000000	100.025568
1677.000000	99.999391
1676.000000	99.961567
1675.000000	99.964713
1674.000000	100.009029
1673.000000	100.018867
1672.000000	99.985294
1671.000000	100.002333
1670.000000	100.025866
1669.000000	99.999290
1668.000000	99.997263
1667.000000	100.006489
1666.000000	99.992701
1665.000000	100.023219
1664.000000	99.987733
1663.000000	100.002738
1662.000000	100.030417
1661.000000	99.993815
1660.000000	100.016932
1659.000000	100.018352
1658.000000	99.982058
1657.000000	99.982974
1656.000000	100.000101
1655.000000	99.980841
1654.000000	100.003143
1653.000000	100.035181
1652.000000	100.028186
1651.000000	99.992600
1650.000000	99.978208
1649.000000	99.979928
1648.000000	99.974150
1647.000000	99.969287
1646.000000	99.993106
1645.000000	100.007300
1644.000000	100.029406
1643.000000	99.991890
1642.000000	99.983782
1641.000000	99.976887
1640.000000	100.000304
1639.000000	99.991284
1638.000000	99.974766
1637.000000	99.978715
1636.000000	99.994324
1635.000000	100.016929
1634.000000	100.010036
1633.000000	100.000405
1632.000000	99.999493
1631.000000	99.973850
1630.000000	99.981854
1629.000000	100.007908
1628.000000	100.006082
1627.000000	99.982566
1626.000000	99.986519
1625.000000	99.970811
1624.000000	99.975168
1623.000000	99.987330
1622.000000	99.999088
1621.000000	99.994526
1620.000000	99.998581
1619.000000	99.988849
1618.000000	99.998378
1617.000000	99.994830
1616.000000	99.996350
1615.000000	99.986620
1614.000000	99.979223
1613.000000	99.994324
1612.000000	100.005170
1611.000000	100.010644
1610.000000	100.006386
1609.000000	100.004763
1608.000000	99.992905
1607.000000	99.979325
1606.000000	99.982264
1605.000000	99.973650
1604.000000	99.981553
1603.000000	99.991587
1602.000000	99.984899
1601.000000	99.978513
1600.000000	99.996959
1599.000000	100.019870
1598.000000	100.003649
1597.000000	99.988751
1596.000000	99.993919
1595.000000	99.980846
1594.000000	99.993108
1593.000000	99.988851
1592.000000	99.981150
1591.000000	99.989055
1590.000000	99.995439
1589.000000	100.009123
1588.000000	100.006285
1587.000000	100.008413
1586.000000	100.008211
1585.000000	99.981857
1584.000000	100.001115
1583.000000	100.000811
1582.000000	99.980746
1581.000000	99.973450
1580.000000	99.961497
1579.000000	99.974264
1578.000000	99.984901
1577.000000	99.990373
1576.000000	100.009831
1575.000000	99.996554
1574.000000	100.003344
1573.000000	100.019154
1572.000000	100.004865
1571.000000	99.992805
1570.000000	99.978516
1569.000000	99.981455
1568.000000	100.005574
1567.000000	99.991995
1566.000000	99.975683
1565.000000	99.971835
1564.000000	100.006789
1563.000000	100.010640
1562.000000	99.997771
1561.000000	100.000405
1560.000000	99.987942
1559.000000	100.001216
1558.000000	99.995947
1557.000000	99.993110
1556.000000	100.012971
1555.000000	100.003141
1554.000000	99.992401
1553.000000	99.982068
1552.000000	99.995036
1551.000000	100.022898
1550.000000	100.006686
1549.000000	100.000912
1548.000000	100.010334
1547.000000	99.997974
1546.000000	99.987235
1545.000000	100.002735
1544.000000	99.993922
1543.000000	99.987944
1542.000000	100.002026
1541.000000	100.001013
1540.000000	99.998480
1539.000000	99.998480
1538.000000	100.002938
1537.000000	100.003039
1536.000000	100.010839
1535.000000	99.996050
1534.000000	100.000000
1533.000000	99.995036
1532.000000	99.990984
1531.000000	99.987136
1530.000000	99.989567
1529.000000	99.993720
1528.000000	99.996454
1527.000000	100.000304
1526.000000	99.994833
1525.000000	100.010437
1524.000000	99.997467
1523.000000	100.006890
1522.000000	99.996150
1521.000000	100.001115
1520.000000	100.016213
1519.000000	99.983688
1518.000000	99.995744
1517.000000	100.002736
1516.000000	99.986221
1515.000000	100.007498
1514.000000	99.973860
1513.000000	99.996757
1512.000000	99.995744
1511.000000	100.015808
1510.000000	99.997771
1509.000000	100.006485
1508.000000	100.015303
1507.000000	99.985608
1506.000000	99.997973
1505.000000	99.987334
1504.000000	100.004358
1503.000000	99.994932
1502.000000	99.988953
1501.000000	99.975374
1500.000000	99.994325
1499.000000	99.994224
1498.000000	99.985915
1497.000000	100.009932
1496.000000	100.002736
1495.000000	99.987029
1494.000000	100.004965
1493.000000	99.989056
1492.000000	99.996555
1491.000000	100.008309
1490.000000	100.010539
1489.000000	99.991184
1488.000000	100.012262
1487.000000	100.026349
1486.000000	99.986423
1485.000000	100.001621
1484.000000	99.999595
1483.000000	99.987539
1482.000000	99.991590
1481.000000	99.996961
1480.000000	99.966369
1479.000000	100.007801
1478.000000	100.016512
1477.000000	99.993112
1476.000000	99.979641
1475.000000	99.973264
1474.000000	100.007699
1473.000000	100.000405
1472.000000	99.972652
1471.000000	99.987136
1470.000000	100.002634
1469.000000	99.988147
1468.000000	99.992098
1467.000000	99.953114
1466.000000	99.997265
1465.000000	100.015399
1464.000000	100.011446
1463.000000	99.986323
1462.000000	99.990782
1461.000000	99.999088
1460.000000	100.006990
1459.000000	100.010740
1458.000000	100.011752
1457.000000	100.003748
1456.000000	100.008307
1455.000000	99.995341
1454.000000	99.999291
1453.000000	99.991593
1452.000000	99.991492
1451.000000	100.019246
1450.000000	100.003241
1449.000000	99.994934
1448.000000	99.988251
1447.000000	99.986327
1446.000000	99.973770
1445.000000	99.966781
1444.000000	99.982071
1443.000000	99.991692
1442.000000	99.998582
1441.000000	99.993314
1440.000000	99.994125
1439.000000	100.003748
1438.000000	100.002735
1437.000000	99.996860
1436.000000	99.995949
1435.000000	99.999595
1434.000000	99.983691
1433.000000	100.022289
1432.000000	100.003849
1431.000000	99.995644
1430.000000	99.972047
1429.000000	99.982274
1428.000000	99.993416
1427.000000	99.997670
1426.000000	99.991694
1425.000000	99.987543
1424.000000	99.984305
1423.000000	99.979041
1422.000000	99.995848
1421.000000	99.996760
1420.000000	99.991699
1419.000000	99.987346
1418.000000	99.996457
1417.000000	99.998583
1416.000000	100.005769
1415.000000	99.998077
1414.000000	99.990994
1413.000000	99.992210
1412.000000	99.987962
1411.000000	100.008802
1410.000000	99.998179
1409.000000	99.979471
1408.000000	99.996865
1407.000000	100.000809
1406.000000	99.996563
1405.000000	99.980996
1404.000000	99.988174
1403.000000	99.996361
1402.000000	100.002527
1401.000000	99.994542
1400.000000	99.996564
1399.000000	99.996160
1398.000000	99.978579
1397.000000	99.965143
1396.000000	99.990805
1395.000000	100.002829
1394.000000	99.987575
1393.000000	99.988283
1392.000000	99.989798
1391.000000	99.981821
1390.000000	100.001111
1389.000000	100.002222
1388.000000	100.003940
1387.000000	100.003232
1386.000000	99.999899
1385.000000	100.003535
1384.000000	99.999697
1383.000000	99.992121
1382.000000	99.996970
1381.000000	100.002424
1380.000000	99.996263
1379.000000	99.987577
1378.000000	99.991312
1377.000000	99.994443
1376.000000	99.980507
1375.000000	99.964853
1374.000000	99.995959
1373.000000	100.007274
1372.000000	99.988686
1371.000000	99.992726
1370.000000	99.996363
1369.000000	99.986971
1368.000000	99.994748
1367.000000	100.012524
1366.000000	100.009797
1365.000000	100.011919
1364.000000	99.994243
1363.000000	99.997071
1362.000000	100.004949
1361.000000	99.999091
1360.000000	99.988385
1359.000000	99.983132
1358.000000	99.993939
1357.000000	99.991716
1356.000000	99.982419
1355.000000	100.004548
1354.000000	99.985546
1353.000000	99.972609
1352.000000	99.987264
1351.000000	99.976144
1350.000000	99.976951
1349.000000	99.980084
1348.000000	99.991505
1347.000000	99.995651
1346.000000	99.992315
1345.000000	100.001820
1344.000000	99.985743
1343.000000	99.993427
1342.000000	100.006169
1341.000000	99.988069
1340.000000	99.991102
1339.000000	99.986854
1338.000000	99.996562
1337.000000	99.995653
1336.000000	100.008290
1335.000000	99.988476
1334.000000	99.987162
1333.000000	99.986859
1332.000000	99.997069
1331.000000	99.958458
1330.000000	99.974221
1329.000000	99.993732
1328.000000	99.984839
1327.000000	99.987568
1326.000000	99.973922
1325.000000	99.966752
1324.000000	99.997271
1323.000000	100.003842
1322.000000	99.988780
1321.000000	99.988882
1320.000000	99.996563
1319.000000	100.004549
1318.000000	100.009602
1317.000000	99.998079
1316.000000	100.002325
1315.000000	99.989185
1314.000000	99.991102
1313.000000	99.983117
1312.000000	99.997877
1311.000000	100.000607
1310.000000	100.003539
1309.000000	100.012234
1308.000000	100.025792
1307.000000	99.989079
1306.000000	100.009707
1305.000000	100.002831
1304.000000	99.978163
1303.000000	99.996966
1302.000000	99.969863
1301.000000	99.977249
1300.000000	100.000000
1299.000000	99.986651
1298.000000	100.007687
1297.000000	100.006574
1296.000000	99.986348
1295.000000	99.985135
1294.000000	99.997775
1293.000000	99.974924
1292.000000	100.005259
1291.000000	99.993326
1290.000000	99.983721
1289.000000	100.010011
1288.000000	99.976545
1287.000000	99.984226
1286.000000	99.968465
1285.000000	99.978168
1284.000000	99.984738
1283.000000	99.992621
1282.000000	99.993330
1281.000000	99.993431
1280.000000	100.014353
1279.000000	99.998282
1278.000000	100.008691
1277.000000	100.006265
1276.000000	100.017582
1275.000000	99.992928
1274.000000	100.018689
1273.000000	99.994546
1272.000000	100.001616
1271.000000	100.015859
1270.000000	99.996364
1269.000000	99.974648
1268.000000	99.982429
1267.000000	100.008484
1266.000000	100.022115
1265.000000	99.993538
1264.000000	99.962448
1263.000000	99.957492
1262.000000	100.011311
1261.000000	99.995457
1260.000000	99.989702
1259.000000	99.989903
1258.000000	99.991621
1257.000000	99.987077
1256.000000	99.980610
1255.000000	100.002020
1254.000000	99.979505
1253.000000	99.986066
1252.000000	99.999596
1251.000000	99.978396
1250.000000	99.970921
1249.000000	99.993538
1248.000000	99.995961
1247.000000	99.985866
1246.000000	99.995760
1245.000000	99.981725
1244.000000	99.973650
1243.000000	99.980615
1242.000000	99.969518
1241.000000	100.003230
1240.000000	99.988797
1239.000000	99.977091
1238.000000	99.996367
1237.000000	99.995660
1236.000000	99.996973
1235.000000	99.976090
1234.000000	99.987995
1233.000000	99.996772
1232.000000	99.978518
1231.000000	100.006253
1230.000000	100.000403
1229.000000	99.995159
1228.000000	99.986893
1227.000000	99.993649
1226.000000	99.987400
1225.000000	99.988207
1224.000000	99.984983
1223.000000	99.991333
1222.000000	99.991032
1221.000000	99.998489
1220.000000	100.006347
1219.000000	99.999194
1218.000000	99.994762
1217.000000	99.990835
1216.000000	99.988822
1215.000000	99.976338
1214.000000	99.991139
1213.000000	99.992246
1212.000000	99.979757
1211.000000	99.967987
1210.000000	99.988320
1209.000000	99.993454
1208.000000	100.019132
1207.000000	100.007149
1206.000000	99.982178
1205.000000	99.983490
1204.000000	99.976140
1203.000000	99.983388
1202.000000	99.976540
1201.000000	99.974430
1200.000000	99.977150
1199.000000	99.986711
1198.000000	99.991240
1197.000000	99.974026
1196.000000	99.980873
1195.000000	99.980773
1194.000000	99.988624
1193.000000	99.981277
1192.000000	99.982183
1191.000000	99.996175
1190.000000	99.995268
1189.000000	99.987516
1188.000000	100.004027
1187.000000	99.993557
1186.000000	99.984197
1185.000000	99.996880
1184.000000	99.988727
1183.000000	99.974038
1182.000000	99.991246
1181.000000	99.981385
1180.000000	99.977361
1179.000000	99.985814
1178.000000	99.980081
1177.000000	99.978374
1176.000000	99.981895
1175.000000	99.976264
1174.000000	99.986424
1173.000000	99.998190
1172.000000	99.988437
1171.000000	99.979491
1170.000000	99.999397
1169.000000	100.000704
1168.000000	99.996683
1167.000000	100.009449
1166.000000	100.002211
1165.000000	99.988543
1164.000000	99.987237
1163.000000	99.988344
1162.000000	99.990255
1161.000000	99.991461
1160.000000	99.990357
1159.000000	99.979312
1158.000000	99.980417
1157.000000	99.986444
1156.000000	99.988755
1155.000000	100.002811
1154.000000	100.004518
1153.000000	99.992070
1152.000000	99.981334
1151.000000	99.984947
1150.000000	99.995183
1149.000000	100.001906
1148.000000	99.999498
1147.000000	100.003611
1146.000000	99.995186
1145.000000	99.993883
1144.000000	99.992680
1143.000000	99.985764
1142.000000	99.995088
1141.000000	99.995890
1140.000000	99.972839
1139.000000	99.970138
1138.000000	99.982364
1137.000000	99.983268
1136.000000	99.979163
1135.000000	99.985074
1134.000000	99.994691
1133.000000	99.990285
1132.000000	99.993291
1131.000000	99.992892
1130.000000	100.016418
1129.000000	100.010209
1128.000000	99.997898
1127.000000	99.992795
1126.000000	99.991295
1125.000000	99.990595
1124.000000	100.005803
1123.000000	100.010103
1122.000000	100.016105
1121.000000	99.986199
1120.000000	99.992900
1119.000000	99.991701
1118.000000	100.001100
1117.000000	99.999800
1116.000000	99.983307
1115.000000	99.998401
1114.000000	100.003598
1113.000000	99.989309
1112.000000	100.011289
1111.000000	99.997603
1110.000000	99.995305
1109.000000	100.000999
1108.000000	99.980129
1107.000000	99.961664
1106.000000	99.966960
1105.000000	99.991116
1104.000000	100.010481
1103.000000	100.005289
1102.000000	99.986730
1101.000000	100.012770
1100.000000	100.000798
1099.000000	99.989730
1098.000000	99.989831
1097.000000	99.982456
1096.000000	99.993022
1095.000000	99.986644
1094.000000	99.971202
1093.000000	99.962145
1092.000000	99.987947
1091.000000	100.002888
1090.000000	100.001494
1089.000000	99.979192
1088.000000	99.982679
1087.000000	100.003683
1086.000000	100.033643
1085.000000	100.018508
1084.000000	100.026665
1083.000000	100.003382
1082.000000	100.008950
1081.000000	100.000398
1080.000000	99.995824
1079.000000	100.003479
1078.000000	99.996025
1077.000000	99.987780
1076.000000	100.011424
1075.000000	100.009437
1074.000000	100.005363
1073.000000	100.004866
1072.000000	100.040807
1071.000000	100.001290
1070.000000	100.009724
1069.000000	99.998512
1068.000000	99.994942
1067.000000	100.013288
1066.000000	99.985427
1065.000000	99.994548
1064.000000	100.016055
1063.000000	100.002576
1062.000000	99.990095
1061.000000	100.007031
1060.000000	99.982673
1059.000000	100.001089
1058.000000	100.005543
1057.000000	99.994162
1056.000000	100.009596
1055.000000	100.013254
1054.000000	100.005538
1053.000000	99.966583
1052.000000	99.995354
1051.000000	100.007708
1050.000000	99.981724
1049.000000	100.002370
1048.000000	100.029729
1047.000000	100.007700
1046.000000	99.994474
1045.000000	100.000099
1044.000000	99.982638
1043.000000	100.007989
1042.000000	100.013608
1041.000000	99.990045
1040.000000	99.980291
1039.000000	100.012317
1038.000000	99.993499
1037.000000	100.002856
1036.000000	99.999902
1035.000000	100.009942
1034.000000	99.994096
1033.000000	100.002164
1032.000000	100.025868
1031.000000	100.002556
1030.000000	99.983490
1029.000000	100.016311
1028.000000	100.003340
1027.000000	99.988511
1026.000000	99.997448
1025.000000	99.998724
1024.000000	100.006279
1023.000000	99.992449
1022.000000	99.983334
1021.000000	99.999902
1020.000000	100.029696
1019.000000	99.987951
1018.000000	99.990697
1017.000000	99.968290
1016.000000	99.986593
1015.000000	100.006457
1014.000000	100.005770
1013.000000	100.003520
1012.000000	99.997459
1011.000000	100.015731
1010.000000	100.015431
1009.000000	100.000879
1008.000000	100.001074
1007.000000	100.005658
1006.000000	100.020384
1005.000000	100.026615
1004.000000	100.027582
1003.000000	100.014029
1002.000000	99.988998
1001.000000	100.002531
1000.000000	99.997664
999.000000	100.020526
998.000000	100.022463
997.000000	100.021481
996.000000	100.009521
995.000000	100.005438
994.000000	100.010873
993.000000	100.008152
992.000000	100.020758
991.000000	100.002133
990.000000	99.983430
989.000000	100.012401
988.000000	99.995351
987.000000	100.000194
986.000000	100.007839
985.000000	99.990037
984.000000	99.999903
983.000000	99.994008
982.000000	99.996522
981.000000	100.013425
980.000000	100.019502
979.000000	99.993728
978.000000	99.986014
977.000000	100.003375
976.000000	100.003662
975.000000	100.014449
974.000000	100.000578
973.000000	100.013089
972.000000	100.015103
971.000000	100.009039
970.000000	100.014513
969.000000	100.009029
968.000000	99.998272
967.000000	99.999232
966.000000	99.994916
965.000000	100.007478
964.000000	100.011595
963.000000	100.004885
962.000000	99.999904
961.000000	99.999617
960.000000	100.007746
959.000000	100.004874
958.000000	100.012991
957.000000	100.008879
956.000000	100.010783
955.000000	100.009727
954.000000	100.010294
953.000000	100.017625
952.000000	100.007902
951.000000	99.999905
950.000000	100.011032
949.000000	100.003041
948.000000	99.986893
947.000000	100.005791
946.000000	100.013282
945.000000	99.998957
944.000000	99.998863
943.000000	99.995455
942.000000	99.996877
941.000000	100.015891
940.000000	100.022026
939.000000	100.026732
938.000000	100.024353
937.000000	99.996887
936.000000	99.995664
935.000000	100.020255
934.000000	100.040583
933.000000	100.024370
932.000000	100.009590
931.000000	99.993142
930.000000	99.961325
929.000000	99.964825
928.000000	99.991470
927.000000	100.015460
926.000000	100.019385
925.000000	100.002620
924.000000	99.999439
923.000000	100.019061
922.000000	100.007189
921.000000	99.978451
920.000000	99.986856
919.000000	100.003167
918.000000	100.026717
917.000000	100.013766
916.000000	99.973236
915.000000	100.021733
914.000000	100.033316
913.000000	99.992398
912.000000	99.975733
911.000000	100.000185
910.000000	100.008601
909.000000	99.974320
908.000000	99.963825
907.000000	99.977494
906.000000	99.967281
905.000000	100.024595
904.000000	100.019604
903.000000	100.026209
902.000000	99.995131
901.000000	100.042966
900.000000	100.012196
899.000000	99.943130
898.000000	100.020414
897.000000	100.039810
896.000000	100.014164
895.000000	99.974070
894.000000	99.929892
893.000000	99.968492
892.000000	99.980436
891.000000	99.994453
890.000000	100.040722
889.000000	100.090094
888.000000	100.013510
887.000000	99.934642
886.000000	100.066708
885.000000	100.048389
884.000000	99.969120
883.000000	100.001083
882.000000	100.043376
881.000000	100.045045
880.000000	100.057235
879.000000	99.935510
878.000000	99.986081
877.000000	99.971658
876.000000	100.022234
875.000000	99.988361
874.000000	99.941241
873.000000	99.974532
872.000000	99.887983
871.000000	99.981178
870.000000	99.920131
869.000000	99.968292
868.000000	100.081557
867.000000	99.955914
866.000000	100.009153
865.000000	99.973742
864.000000	100.011349
863.000000	99.979741
862.000000	99.910369
861.000000	99.899187
860.000000	99.910950
859.000000	100.131233
858.000000	99.849562
857.000000	99.981804
856.000000	100.088841
855.000000	100.332695
854.000000	100.458013
853.000000	100.016502
852.000000	99.932567
851.000000	99.678232
850.000000	100.176788
849.000000	99.678475
848.000000	100.228936
847.000000	99.806341
846.000000	99.605456
845.000000	99.993553
844.000000	100.281589
843.000000	100.094973
842.000000	100.239527
841.000000	99.796373
840.000000	99.477400
839.000000	100.147153
838.000000	100.028486
837.000000	100.137366
836.000000	100.266191
835.000000	99.936665
834.000000	99.844012
833.000000	100.078806
832.000000	99.823066
831.000000	99.693853
830.000000	99.721382
829.000000	99.786378
828.000000	100.126564
827.000000	100.134897
826.000000	100.231085
825.000000	100.069685
824.000000	99.808042
823.000000	99.876930
822.000000	99.972391
821.000000	99.790323
820.000000	99.870482
819.000000	99.860925
818.000000	100.060381
817.000000	100.067326
816.000000	100.008251
815.000000	100.339472
814.000000	99.952099
813.000000	99.794229
812.000000	99.795887
811.000000	99.807329
810.000000	99.967317
809.000000	99.910548
808.000000	100.034893
807.000000	100.091318
806.000000	100.060749
805.000000	99.891131
804.000000	99.936810
803.000000	99.854628
802.000000	99.994982
801.000000	100.101915
800.000000	99.936961
799.000000	99.976749
798.000000	100.085380
797.000000	99.752306
796.000000	99.981915
795.000000	99.862560
794.000000	100.114247
793.000000	100.055976
792.000000	99.925833
791.000000	99.892738
790.000000	99.966764
789.000000	100.011760
788.000000	100.038482
787.000000	100.045599
786.000000	100.168789
785.000000	99.960926
784.000000	99.868159
783.000000	99.946639
782.000000	100.047409
781.000000	99.928498
780.000000	99.879155
779.000000	99.910953
778.000000	99.927402
777.000000	99.979367
776.000000	99.822651
775.000000	99.938880
774.000000	100.007841
773.000000	99.943836
772.000000	99.806874
771.000000	100.052270
770.000000	100.042731
769.000000	100.063196
768.000000	100.005713
767.000000	100.027248
766.000000	99.944049
765.000000	99.991951
764.000000	99.946349
763.000000	99.825971
762.000000	99.880799
761.000000	99.919319
760.000000	99.984763
759.000000	99.893717
758.000000	99.880261
757.000000	99.844446
756.000000	99.934553
755.000000	99.951883
754.000000	99.990387
753.000000	99.952287
752.000000	100.030946
751.000000	99.962648
750.000000	99.913471
749.000000	99.957598
748.000000	99.924012
747.000000	99.987566
746.000000	99.965280
745.000000	99.985839
744.000000	99.940652
743.000000	100.023012
742.000000	100.020495
741.000000	99.981576
740.000000	99.951309
739.000000	99.921643
738.000000	100.009403
737.000000	100.078918
736.000000	99.908673
735.000000	99.938462
734.000000	100.020189
733.000000	99.935087
732.000000	99.922755
731.000000	99.907658
730.000000	99.933996
729.000000	99.967344
728.000000	99.962240
727.000000	99.961685
726.000000	99.873338
725.000000	99.892310
724.000000	99.977744
723.000000	99.921693
722.000000	99.902089
721.000000	99.980259
720.000000	100.066151
719.000000	100.018747
718.000000	99.930445
717.000000	99.985517
716.000000	99.935089
715.000000	100.003462
714.000000	100.039748
713.000000	99.961533
712.000000	99.956777
711.000000	100.012682
710.000000	99.986222
709.000000	99.904723
708.000000	99.954916
707.000000	100.000822
706.000000	99.936254
705.000000	99.914527
704.000000	99.928718
703.000000	99.953737
702.000000	99.966806
701.000000	99.920727
700.000000	99.928018
699.000000	99.978863
698.000000	99.985628
697.000000	99.952951
696.000000	99.971532
695.000000	100.022896
694.000000	99.996336
693.000000	99.897565
692.000000	99.864607
691.000000	99.954551
690.000000	100.064921
689.000000	99.945656
688.000000	99.861503
687.000000	99.921603
686.000000	99.967934
685.000000	99.975899
684.000000	99.975349
683.000000	99.981122
682.000000	99.971946
681.000000	99.963762
680.000000	99.975769
679.000000	99.952461
678.000000	99.921365
677.000000	99.982746
676.000000	99.975121
675.000000	99.923735
674.000000	99.959520
673.000000	100.021310
672.000000	100.009370
671.000000	99.996508
670.000000	99.855315
669.000000	99.854706
668.000000	99.957893
667.000000	99.923619
666.000000	100.012414
665.000000	99.976545
664.000000	99.905649
663.000000	99.971454
662.000000	99.989781
661.000000	99.936885
660.000000	99.916093
659.000000	99.942547
658.000000	99.904635
657.000000	99.983045
656.000000	99.949696
655.000000	99.902665
654.000000	99.959377
653.000000	99.972892
652.000000	99.936408
651.000000	99.986906
650.000000	99.921901
649.000000	100.045594
648.000000	100.038763
647.000000	99.993447
646.000000	99.993723
645.000000	100.044608
644.000000	99.986988
643.000000	100.025482
642.000000	100.001015
641.000000	99.996122
640.000000	99.952814
639.000000	99.904076
638.000000	99.903320
637.000000	99.853951
636.000000	99.940377
635.000000	99.983365
634.000000	100.028761
633.000000	99.957086
632.000000	99.936934
631.000000	99.990752
630.000000	99.863035
629.000000	99.919395
628.000000	99.989542
627.000000	100.010644
626.000000	99.978258
625.000000	99.956864
624.000000	99.964256
623.000000	99.944282
622.000000	99.906617
621.000000	100.009632
620.000000	99.932777
619.000000	99.916667
618.000000	99.987774
617.000000	99.975637
616.000000	100.033922
615.000000	100.006212
614.000000	100.027069
613.000000	99.908457
612.000000	99.927609
611.000000	99.999815
610.000000	99.993417
609.000000	99.989611
608.000000	99.996939
607.000000	99.936007
606.000000	99.979122
605.000000	99.980052
604.000000	99.935880
603.000000	99.929557
602.000000	99.982091
601.000000	99.983938
600.000000	100.000000
599.000000	99.954066
598.000000	99.900625
597.000000	99.946242
596.000000	99.931112
595.000000	99.984585
594.000000	99.909572
593.000000	100.014962
592.000000	99.933509
591.000000	100.009013
590.000000	99.893681
589.000000	99.930153
588.000000	99.908345
587.000000	100.037073
586.000000	99.932827
585.000000	100.022121
584.000000	99.961890
583.000000	99.883315
582.000000	99.991077
581.000000	99.951967
580.000000	99.949343
579.000000	99.964845
578.000000	99.910126
577.000000	99.968102
576.000000	99.993861
575.000000	99.983816
574.000000	99.951757
573.000000	100.046060
572.000000	99.945156
571.000000	100.038050
570.000000	99.918616
569.000000	99.955642
568.000000	99.987159
567.000000	99.947324
566.000000	99.977206
565.000000	100.004465
564.000000	99.993393
563.000000	99.991531
562.000000	99.927215
561.000000	100.007728
560.000000	99.971887
559.000000	100.014522
558.000000	99.970597
557.000000	99.904044
556.000000	99.951132
555.000000	100.042482
554.000000	99.961164
553.000000	99.998043
552.000000	99.989380
551.000000	99.946351
550.000000	100.070442
549.000000	100.062542
548.000000	99.951373
547.000000	100.002610
546.000000	100.028430
545.000000	100.043345
544.000000	100.039246
543.000000	100.049137
542.000000	100.032178
541.000000	99.997855
540.000000	100.013985
539.000000	100.008578
538.000000	100.024522
537.000000	100.023125
536.000000	99.987408
535.000000	100.016140
534.000000	100.030692
533.000000	99.973229
532.000000	99.974915
531.000000	100.019965
530.000000	100.008771
529.000000	100.017731
528.000000	99.993748
527.000000	99.986471
526.000000	100.019592
525.000000	100.047127
524.000000	100.049758
523.000000	99.983011
522.000000	99.985908
521.000000	100.011947
520.000000	100.011479
519.000000	99.988708
518.000000	99.980956
517.000000	100.023812
516.000000	100.021654
515.000000	100.030338
514.000000	100.061436
513.000000	100.046316
512.000000	100.015873
511.000000	100.037733
510.000000	100.010922
509.000000	99.989078
508.000000	99.981804
507.000000	99.923242
506.000000	99.938615
505.000000	100.015870
504.000000	99.984698
503.000000	100.023712
502.000000	100.015961
501.000000	99.988150
500.000000	99.985718
499.000000	100.059981
498.000000	100.040821
497.000000	100.000934
496.000000	100.019605
495.000000	99.988518
494.000000	99.980018
493.000000	100.041002
492.000000	100.117460
491.000000	100.064081
490.000000	100.037169
489.000000	100.043809
488.000000	100.036342
487.000000	100.010368
486.000000	100.011484
485.000000	100.019148
484.000000	100.000935
483.000000	100.040401
482.000000	100.040185
481.000000	100.097524
480.000000	100.056289
479.000000	100.022172
478.000000	99.995883
477.000000	100.009827
476.000000	99.961252
475.000000	99.954784
474.000000	99.996723
473.000000	100.000656
472.000000	100.002155
471.000000	100.016490
470.000000	100.032336
469.000000	100.052119
468.000000	100.011433
467.000000	99.990909
466.000000	100.064701
465.000000	100.050270
464.000000	100.000281
463.000000	99.981062
462.000000	100.029829
461.000000	100.036871
460.000000	100.015102
459.000000	99.941759
458.000000	99.906033
457.000000	99.992025
456.000000	99.931890
455.000000	99.960314
454.000000	100.042222
453.000000	100.033036
452.000000	100.062341
451.000000	100.055388
450.000000	99.961522
449.000000	99.924066
448.000000	99.961788
447.000000	99.991268
446.000000	99.948831
445.000000	99.981495
444.000000	99.971536
443.000000	99.978401
442.000000	100.080718
441.000000	100.009679
440.000000	100.027450
439.000000	100.137071
438.000000	100.048906
437.000000	100.058686
436.000000	100.100172
435.000000	99.973961
434.000000	99.906611
433.000000	99.969901
432.000000	99.969249
431.000000	100.003293
430.000000	100.024283
429.000000	99.984847
428.000000	99.995481
427.000000	100.037760
426.000000	99.966483
425.000000	99.928003
424.000000	99.994070
423.000000	100.029476
422.000000	99.967039
421.000000	99.977482
420.000000	99.982099
419.000000	99.987944
418.000000	100.006783
417.000000	99.967477
416.000000	99.989626
415.000000	100.025934
414.000000	100.000472
413.000000	100.058770
412.000000	100.119762
411.000000	100.066719
410.000000	99.957916
409.000000	99.874171
408.000000	99.982835
407.000000	100.067415
406.000000	100.040387
405.000000	99.940777
404.000000	99.884702
403.000000	100.016617
402.000000	99.942902
401.000000	100.061375
400.000000	99.951885
399.000000	100.096084
398.000000	100.065755
397.000000	99.990459
396.000000	99.909213
395.000000	99.984791
394.000000	100.000000
393.000000	100.013885
392.000000	100.013130
391.000000	99.996505
390.000000	99.962946
389.000000	99.931964
388.000000	100.039217
387.000000	99.962034
386.000000	100.003307
385.000000	99.954939
384.000000	99.914416
383.000000	99.916315
382.000000	100.020223
381.000000	100.251169
380.000000	99.999716
379.000000	99.815997
378.000000	99.896539
377.000000	99.947186
376.000000	100.283428
375.000000	100.222093
374.000000	100.115416
373.000000	100.070332
372.000000	100.031293
371.000000	99.997641
370.000000	99.997735
369.000000	100.135598
368.000000	100.002832
367.000000	99.869715
366.000000	100.112319
365.000000	99.967823
364.000000	100.343607
363.000000	100.167729
362.000000	99.980756
361.000000	99.949759
360.000000	99.946231
359.000000	99.797786
358.000000	100.104924
357.000000	100.100417
356.000000	100.073066
355.000000	100.075058
354.000000	99.719726
353.000000	99.928650
352.000000	100.100629
351.000000	100.053133
350.000000	100.178569
349.000000	99.819699
348.000000	99.778799
347.000000	100.040302
346.000000	99.791258
345.000000	99.966846
344.000000	99.634965
343.000000	99.650945
342.000000	100.310900
341.000000	100.523052
340.000000	99.856691
339.000000	99.923450
338.000000	100.336596
337.000000	100.098237
336.000000	100.047407
335.000000	100.103606
334.000000	99.817650
333.000000	99.763592
332.000000	99.787648
331.000000	99.832995
330.000000	99.866831
329.000000	100.140397
328.000000	99.805320
327.000000	99.866197
326.000000	99.923676
325.000000	100.290610
324.000000	99.905559
323.000000	99.952663
322.000000	100.152137
321.000000	100.257960
320.000000	100.070899
319.000000	100.146068
318.000000	99.972173
317.000000	99.936039
316.000000	99.995327
315.000000	100.316839
314.000000	99.558441
313.000000	99.828578
312.000000	100.281200
311.000000	100.024291
310.000000	100.372125
309.000000	100.130434
308.000000	100.045910
307.000000	99.719742
306.000000	99.733754
305.000000	99.759843
304.000000	99.942577
303.000000	100.079718
302.000000	100.123755
301.000000	100.080961
300.000000	99.930608
299.000000	99.762898
298.000000	100.057908
297.000000	100.351033
296.000000	100.006300
295.000000	100.218689
294.000000	100.004036
293.000000	99.974168
292.000000	100.018341
291.000000	100.001128
290.000000	100.232075
289.000000	100.302477
288.000000	100.018688
287.000000	99.901647
286.000000	100.066908
285.000000	99.852470
284.000000	100.100824
283.000000	100.012619
282.000000	99.922145
281.000000	99.675885
280.000000	99.933939
279.000000	100.045507
278.000000	100.193710
277.000000	99.990869
276.000000	99.875251
275.000000	100.105074
274.000000	99.979325
273.000000	99.976021
272.000000	100.042089
271.000000	100.023671
270.000000	99.963805
269.000000	99.807303
268.000000	99.963172
267.000000	99.817684
266.000000	99.747385
265.000000	100.121330
264.000000	100.010352
263.000000	99.958772
262.000000	100.076769
261.000000	100.046660
260.000000	99.989510
259.000000	100.115679
258.000000	99.992056
257.000000	99.836473
256.000000	99.953447
255.000000	100.016495
254.000000	99.933247
253.000000	99.954004
252.000000	99.741534
251.000000	100.016162
250.000000	100.064274
249.000000	99.952405
248.000000	99.815308
247.000000	99.698257
246.000000	99.857132
245.000000	100.319111
244.000000	100.135076
243.000000	99.951026
242.000000	99.973800
241.000000	100.246453
240.000000	100.071278
239.000000	99.850732
238.000000	99.724957
237.000000	99.806285
236.000000	99.582753
235.000000	99.798270
234.000000	100.203075
233.000000	100.247161
232.000000	100.067939
231.000000	99.957265
230.000000	99.810403
229.000000	99.834909
228.000000	99.907871
227.000000	100.141143
226.000000	100.289711
225.000000	100.074573
224.000000	99.844299
223.000000	99.997869
222.000000	100.221681
221.000000	100.108053
220.000000	100.115302
219.000000	99.776523
218.000000	99.693357
217.000000	100.087774
216.000000	100.054606
215.000000	99.677533
214.000000	100.083467
213.000000	100.149568
212.000000	99.932337
211.000000	100.015031
210.000000	99.916494
209.000000	99.605360
208.000000	99.683726
207.000000	99.825460
206.000000	99.898731
205.000000	100.316526
204.000000	99.688459
203.000000	99.557069
202.000000	99.623629
201.000000	100.179397
200.000000	100.849963
