PE UV       SUBTECH     SPECTRUM    ASCII       PEDS        4.00        
   -1
Empty chamber.Sample2D.asc
18/03/02
13:59:37.00
18/03/02
13:59:37.00
Administrator

200.000000
1
Lambda 750
750N8071901
PerkinElmer UV WinLab 6.0.4.0738 / 1.61.00 Lambda 900

0
0
3350/servo 860.8/2
0
0
UV/VIS
1
1
1
CommonBeamDepol,150mm sphere / downward view
0
0
0
0
Program
Program
3350/servo 860.8/2
3350/0.2 860.8/0.2
3350/0.2 860.8/0.2
0
1
 
 
 
0
 
860.8
319.2
860.8
Front
100
on
 
 
0
0
0
 
0
 
 
 
0
 
 
0
0
0
0
0
 
 
 
 
0
0


0
0
#HDR
-1
-1
#GR
nm
%T
1.0
0.0
2350.000000
-1.000000
2151
8
100.796071
99.132396
#DATA
2350.000000	100.150983
2349.000000	99.714743
2348.000000	99.694120
2347.000000	100.796071
2346.000000	99.925928
2345.000000	100.016431
2344.000000	99.938579
2343.000000	99.496161
2342.000000	99.827234
2341.000000	99.955118
2340.000000	100.036575
2339.000000	100.151325
2338.000000	100.064967
2337.000000	99.663202
2336.000000	99.846094
2335.000000	100.231986
2334.000000	100.296399
2333.000000	100.071310
2332.000000	100.284056
2331.000000	100.197575
2330.000000	99.847522
2329.000000	100.087099
2328.000000	99.893474
2327.000000	100.050306
2326.000000	100.077508
2325.000000	100.120234
2324.000000	100.057771
2323.000000	100.101190
2322.000000	99.955375
2321.000000	99.607475
2320.000000	99.941356
2319.000000	99.879118
2318.000000	99.873564
2317.000000	100.159078
2316.000000	100.100653
2315.000000	100.059210
2314.000000	100.027079
2313.000000	100.259685
2312.000000	99.932930
2311.000000	100.122458
2310.000000	100.074477
2309.000000	100.096773
2308.000000	99.973652
2307.000000	100.053553
2306.000000	99.872487
2305.000000	99.748767
2304.000000	99.726268
2303.000000	100.007162
2302.000000	99.987172
2301.000000	99.884320
2300.000000	99.994941
2299.000000	100.053734
2298.000000	99.959682
2297.000000	99.968663
2296.000000	99.958593
2295.000000	100.088146
2294.000000	100.006060
2293.000000	100.026477
2292.000000	100.049692
2291.000000	99.904107
2290.000000	99.938681
2289.000000	100.177632
2288.000000	100.242740
2287.000000	100.181003
2286.000000	99.856721
2285.000000	99.815359
2284.000000	100.027075
2283.000000	99.906570
2282.000000	99.673680
2281.000000	100.075935
2280.000000	100.047637
2279.000000	100.047870
2278.000000	99.954543
2277.000000	99.875163
2276.000000	99.780333
2275.000000	100.009081
2274.000000	99.929880
2273.000000	99.959613
2272.000000	100.104178
2271.000000	99.966969
2270.000000	100.085369
2269.000000	100.091076
2268.000000	100.164255
2267.000000	100.034888
2266.000000	99.829382
2265.000000	99.949239
2264.000000	100.064058
2263.000000	99.971009
2262.000000	99.887343
2261.000000	99.989088
2260.000000	99.998384
2259.000000	99.868613
2258.000000	99.919254
2257.000000	99.866901
2256.000000	99.960484
2255.000000	100.062958
2254.000000	99.855980
2253.000000	99.808570
2252.000000	100.094760
2251.000000	100.159266
2250.000000	99.982012
2249.000000	99.939568
2248.000000	100.000506
2247.000000	100.027022
2246.000000	100.072017
2245.000000	100.123409
2244.000000	100.068514
2243.000000	100.070321
2242.000000	100.063066
2241.000000	99.992119
2240.000000	99.961904
2239.000000	99.971395
2238.000000	100.018097
2237.000000	99.963297
2236.000000	99.958037
2235.000000	99.935912
2234.000000	99.875569
2233.000000	99.878754
2232.000000	99.845894
2231.000000	99.973418
2230.000000	99.898105
2229.000000	99.802188
2228.000000	99.959393
2227.000000	100.008289
2226.000000	99.989177
2225.000000	99.890387
2224.000000	99.848361
2223.000000	99.900356
2222.000000	100.153886
2221.000000	100.164687
2220.000000	100.029327
2219.000000	99.992821
2218.000000	100.083729
2217.000000	100.074762
2216.000000	100.018478
2215.000000	99.962430
2214.000000	99.955766
2213.000000	100.088042
2212.000000	100.079092
2211.000000	99.888974
2210.000000	99.946249
2209.000000	99.840296
2208.000000	99.764974
2207.000000	99.804125
2206.000000	100.082110
2205.000000	99.984252
2204.000000	100.158582
2203.000000	100.072153
2202.000000	100.061281
2201.000000	99.992330
2200.000000	99.926281
2199.000000	99.984869
2198.000000	100.056754
2197.000000	100.158715
2196.000000	100.070355
2195.000000	99.969704
2194.000000	99.995763
2193.000000	99.993039
2192.000000	100.026959
2191.000000	100.116844
2190.000000	100.186544
2189.000000	100.116533
2188.000000	99.986480
2187.000000	99.921125
2186.000000	100.008170
2185.000000	100.134021
2184.000000	100.188543
2183.000000	100.304092
2182.000000	99.899350
2181.000000	99.925613
2180.000000	100.056465
2179.000000	100.011995
2178.000000	99.948230
2177.000000	99.963736
2176.000000	99.989004
2175.000000	99.986299
2174.000000	100.144380
2173.000000	100.059271
2172.000000	99.968694
2171.000000	100.073006
2170.000000	99.805616
2169.000000	99.948945
2168.000000	99.998388
2167.000000	99.928335
2166.000000	100.067910
2165.000000	100.062311
2164.000000	100.010672
2163.000000	100.029801
2162.000000	99.897655
2161.000000	100.072446
2160.000000	100.054874
2159.000000	100.012074
2158.000000	99.987718
2157.000000	99.831556
2156.000000	99.817130
2155.000000	100.031290
2154.000000	100.087060
2153.000000	100.279190
2152.000000	99.877342
2151.000000	99.764830
2150.000000	100.010672
2149.000000	99.805632
2148.000000	100.014985
2147.000000	100.086358
2146.000000	100.105596
2145.000000	99.830033
2144.000000	99.912679
2143.000000	99.756084
2142.000000	99.926374
2141.000000	100.056505
2140.000000	99.966048
2139.000000	99.921627
2138.000000	100.222351
2137.000000	99.921645
2136.000000	99.974665
2135.000000	100.070969
2134.000000	99.924667
2133.000000	100.211893
2132.000000	99.804741
2131.000000	100.079256
2130.000000	99.999899
2129.000000	99.769753
2128.000000	99.929375
2127.000000	100.177853
2126.000000	99.806318
2125.000000	99.985528
2124.000000	100.012079
2123.000000	100.197919
2122.000000	100.099606
2121.000000	99.976860
2120.000000	99.877985
2119.000000	99.877690
2118.000000	99.922139
2117.000000	99.987925
2116.000000	99.967723
2115.000000	100.067944
2114.000000	99.806730
2113.000000	99.810640
2112.000000	100.226668
2111.000000	99.837279
2110.000000	100.041000
2109.000000	100.064909
2108.000000	100.239504
2107.000000	100.045043
2106.000000	100.130361
2105.000000	99.943772
2104.000000	100.013703
2103.000000	100.067659
2102.000000	100.062116
2101.000000	99.981664
2100.000000	100.116328
2099.000000	99.965525
2098.000000	99.876573
2097.000000	100.178511
2096.000000	100.066134
2095.000000	99.957262
2094.000000	100.149990
2093.000000	100.011901
2092.000000	100.057222
2091.000000	100.025614
2090.000000	99.962105
2089.000000	99.988807
2088.000000	99.983869
2087.000000	100.020767
2086.000000	100.136124
2085.000000	100.077446
2084.000000	99.825199
2083.000000	99.988504
2082.000000	100.056622
2081.000000	99.891097
2080.000000	99.922334
2079.000000	100.000807
2078.000000	100.011801
2077.000000	99.962386
2076.000000	99.940593
2075.000000	100.035202
2074.000000	99.889220
2073.000000	100.009684
2072.000000	100.037328
2071.000000	100.046411
2070.000000	100.121477
2069.000000	100.087706
2068.000000	100.068371
2067.000000	100.007064
2066.000000	99.900292
2065.000000	100.012821
2064.000000	100.061805
2063.000000	99.958306
2062.000000	99.895684
2061.000000	99.908398
2060.000000	99.867668
2059.000000	99.921479
2058.000000	99.987888
2057.000000	100.003734
2056.000000	100.090167
2055.000000	100.002221
2054.000000	99.976268
2053.000000	100.001818
2052.000000	100.053848
2051.000000	99.995657
2050.000000	99.984655
2049.000000	100.045554
2048.000000	100.025658
2047.000000	100.035167
2046.000000	99.975144
2045.000000	99.969293
2044.000000	100.018184
2043.000000	100.038088
2042.000000	100.050014
2041.000000	100.022329
2040.000000	100.033043
2039.000000	100.018699
2038.000000	100.007278
2037.000000	99.978075
2036.000000	99.930815
2035.000000	99.906963
2034.000000	99.971099
2033.000000	100.025675
2032.000000	100.010516
2031.000000	99.973512
2030.000000	99.948046
2029.000000	99.949465
2028.000000	99.983630
2027.000000	99.999899
2026.000000	100.060488
2025.000000	100.060792
2024.000000	100.017598
2023.000000	100.054635
2022.000000	100.001315
2021.000000	99.985738
2020.000000	100.012948
2019.000000	100.012848
2018.000000	99.985939
2017.000000	99.994941
2016.000000	99.955688
2015.000000	99.936902
2014.000000	99.961776
2013.000000	99.956913
2012.000000	99.957525
2011.000000	100.010925
2010.000000	100.018620
2009.000000	100.028543
2008.000000	100.007288
2007.000000	99.957590
2006.000000	99.945752
2005.000000	99.998785
2004.000000	100.010834
2003.000000	100.008100
2002.000000	100.007696
2001.000000	100.021064
2000.000000	100.013371
1999.000000	99.970631
1998.000000	99.968612
1997.000000	99.989366
1996.000000	100.001519
1995.000000	99.971748
1994.000000	99.941071
1993.000000	99.992909
1992.000000	99.986425
1991.000000	99.975587
1990.000000	100.011454
1989.000000	100.011859
1988.000000	99.990070
1987.000000	100.016929
1986.000000	100.006487
1985.000000	99.982056
1984.000000	99.982973
1983.000000	100.005471
1982.000000	100.028373
1981.000000	100.012667
1980.000000	100.010541
1979.000000	100.017334
1978.000000	100.023723
1977.000000	99.983276
1976.000000	99.940228
1975.000000	99.968280
1974.000000	99.974364
1973.000000	99.935966
1972.000000	99.962191
1971.000000	99.975886
1970.000000	99.960079
1969.000000	99.954214
1968.000000	100.005067
1967.000000	99.920794
1966.000000	99.963938
1965.000000	99.955120
1964.000000	99.922411
1963.000000	99.984900
1962.000000	99.990777
1961.000000	100.000203
1960.000000	100.010337
1959.000000	100.069824
1958.000000	99.967491
1957.000000	100.042971
1956.000000	100.034961
1955.000000	99.954226
1954.000000	100.025119
1953.000000	100.008710
1952.000000	100.002734
1951.000000	99.954853
1950.000000	99.946658
1949.000000	99.958089
1948.000000	99.965275
1947.000000	99.991089
1946.000000	100.039488
1945.000000	99.969123
1944.000000	99.945154
1943.000000	99.885868
1942.000000	100.050638
1941.000000	99.979456
1940.000000	99.939768
1939.000000	99.930704
1938.000000	99.934463
1937.000000	100.028941
1936.000000	99.985638
1935.000000	99.900502
1934.000000	99.999798
1933.000000	100.014665
1932.000000	99.976534
1931.000000	99.979776
1930.000000	99.966115
1929.000000	100.023677
1928.000000	99.927090
1927.000000	100.033069
1926.000000	99.885771
1925.000000	99.949955
1924.000000	100.034362
1923.000000	99.966854
1922.000000	99.960285
1921.000000	100.004348
1920.000000	99.909746
1919.000000	100.023671
1918.000000	100.003338
1917.000000	99.925309
1916.000000	99.942985
1915.000000	99.979374
1914.000000	99.948022
1913.000000	100.019828
1912.000000	100.012651
1911.000000	99.965817
1910.000000	100.058396
1909.000000	100.026817
1908.000000	99.926608
1907.000000	99.967736
1906.000000	100.003643
1905.000000	99.976624
1904.000000	99.906523
1903.000000	99.923628
1902.000000	99.977433
1901.000000	99.952344
1900.000000	100.026009
1899.000000	99.936444
1898.000000	100.010630
1897.000000	99.971447
1896.000000	100.021159
1895.000000	99.991291
1894.000000	99.918611
1893.000000	99.951822
1892.000000	99.929452
1891.000000	99.980454
1890.000000	99.979546
1889.000000	99.996457
1888.000000	100.008097
1887.000000	99.918835
1886.000000	99.992613
1885.000000	100.049270
1884.000000	100.020233
1883.000000	100.026803
1882.000000	99.940257
1881.000000	99.963705
1880.000000	99.979078
1879.000000	99.975546
1878.000000	99.968572
1877.000000	100.045697
1876.000000	99.966857
1875.000000	99.972420
1874.000000	100.022842
1873.000000	100.029407
1872.000000	99.961102
1871.000000	99.946669
1870.000000	99.937191
1869.000000	100.027277
1868.000000	100.011621
1867.000000	99.917982
1866.000000	99.954238
1865.000000	100.027589
1864.000000	99.983525
1863.000000	99.984235
1862.000000	99.983323
1861.000000	100.000404
1860.000000	99.987769
1859.000000	99.998180
1858.000000	99.974728
1857.000000	99.945016
1856.000000	99.940169
1855.000000	99.952395
1854.000000	99.983926
1853.000000	99.994845
1852.000000	99.957142
1851.000000	99.972607
1850.000000	99.960384
1849.000000	99.952811
1848.000000	99.958366
1847.000000	99.994945
1846.000000	99.992822
1845.000000	99.936726
1844.000000	99.951585
1843.000000	99.904042
1842.000000	99.932516
1841.000000	99.977162
1840.000000	99.959177
1839.000000	99.970594
1838.000000	100.004043
1837.000000	100.011021
1836.000000	99.972905
1835.000000	99.979370
1834.000000	99.992009
1833.000000	99.977743
1832.000000	99.974806
1831.000000	99.983813
1830.000000	99.976933
1829.000000	99.970051
1828.000000	99.942234
1827.000000	99.931302
1826.000000	99.988463
1825.000000	100.012147
1824.000000	100.012758
1823.000000	99.994936
1822.000000	99.955839
1821.000000	99.977411
1820.000000	99.970227
1819.000000	99.947752
1818.000000	99.964142
1817.000000	100.002736
1816.000000	100.001114
1815.000000	99.997973
1814.000000	99.992601
1813.000000	99.950654
1812.000000	99.937592
1811.000000	99.969702
1810.000000	99.983279
1809.000000	99.996351
1808.000000	100.015208
1807.000000	99.998378
1806.000000	100.001926
1805.000000	99.981044
1804.000000	99.960474
1803.000000	99.998276
1802.000000	100.006896
1801.000000	99.985094
1800.000000	99.955491
1799.000000	99.970194
1798.000000	99.989962
1797.000000	99.974348
1796.000000	99.965831
1795.000000	99.972417
1794.000000	100.001521
1793.000000	99.987830
1792.000000	99.991480
1791.000000	100.010143
1790.000000	99.975152
1789.000000	99.979716
1788.000000	100.015826
1787.000000	100.009941
1786.000000	99.977488
1785.000000	100.000913
1784.000000	99.985089
1783.000000	99.967035
1782.000000	99.977688
1781.000000	99.979108
1780.000000	99.982151
1779.000000	99.984178
1778.000000	99.984279
1777.000000	99.965316
1776.000000	99.988234
1775.000000	99.996551
1774.000000	99.996653
1773.000000	99.974443
1772.000000	99.989349
1771.000000	99.965009
1770.000000	99.977382
1769.000000	99.986104
1768.000000	99.963289
1767.000000	99.972618
1766.000000	99.970389
1765.000000	99.989453
1764.000000	100.013087
1763.000000	99.994320
1762.000000	100.022322
1761.000000	100.015016
1760.000000	99.998580
1759.000000	99.993408
1758.000000	99.989755
1757.000000	100.019374
1756.000000	100.021609
1755.000000	100.004463
1754.000000	99.994220
1753.000000	99.983977
1752.000000	99.975661
1751.000000	99.987425
1750.000000	99.991584
1749.000000	100.032762
1748.000000	100.012071
1747.000000	99.994119
1746.000000	100.015622
1745.000000	99.988842
1744.000000	99.986712
1743.000000	99.985193
1742.000000	99.996552
1741.000000	99.999493
1740.000000	100.002738
1739.000000	99.997262
1738.000000	99.967657
1737.000000	99.956212
1736.000000	99.973849
1735.000000	99.999797
1734.000000	99.985096
1733.000000	99.965528
1732.000000	99.978710
1731.000000	100.016431
1730.000000	99.957313
1729.000000	99.973742
1728.000000	99.997059
1727.000000	99.960752
1726.000000	99.975762
1725.000000	99.998580
1724.000000	99.970502
1723.000000	99.984183
1722.000000	99.989253
1721.000000	100.016630
1720.000000	100.052032
1719.000000	99.994728
1718.000000	99.993105
1717.000000	99.997262
1716.000000	100.003549
1715.000000	99.973746
1714.000000	99.968671
1713.000000	99.987831
1712.000000	99.989252
1711.000000	100.003143
1710.000000	99.974248
1709.000000	99.948715
1708.000000	99.965031
1707.000000	99.979518
1706.000000	99.990166
1705.000000	99.987227
1704.000000	99.973031
1703.000000	99.989658
1702.000000	99.973236
1701.000000	100.023929
1700.000000	99.978209
1699.000000	100.007907
1698.000000	99.984793
1697.000000	99.998378
1696.000000	100.006387
1695.000000	99.966250
1694.000000	100.016425
1693.000000	99.992498
1692.000000	99.953476
1691.000000	100.040963
1690.000000	100.011457
1689.000000	99.974656
1688.000000	99.964727
1687.000000	99.993918
1686.000000	99.991383
1685.000000	99.985505
1684.000000	99.991789
1683.000000	99.987734
1682.000000	99.981552
1681.000000	100.008617
1680.000000	99.995539
1679.000000	100.003954
1678.000000	99.982464
1677.000000	100.005880
1676.000000	99.995540
1675.000000	99.982767
1674.000000	100.009124
1673.000000	100.023015
1672.000000	99.974254
1671.000000	99.978209
1670.000000	100.000304
1669.000000	99.992501
1668.000000	99.981156
1667.000000	100.001419
1666.000000	99.992806
1665.000000	100.012059
1664.000000	99.994630
1663.000000	99.978517
1662.000000	99.974468
1661.000000	99.977204
1660.000000	99.968594
1659.000000	99.991085
1658.000000	100.013883
1657.000000	99.972037
1656.000000	99.977204
1655.000000	99.998987
1654.000000	100.011349
1653.000000	100.007294
1652.000000	100.003242
1651.000000	100.012056
1650.000000	100.008105
1649.000000	99.995035
1648.000000	99.999595
1647.000000	100.009120
1646.000000	99.989969
1645.000000	99.969704
1644.000000	99.987134
1643.000000	99.992706
1642.000000	99.985005
1641.000000	99.988147
1640.000000	100.005876
1639.000000	99.996758
1638.000000	99.975993
1637.000000	99.978726
1636.000000	99.970620
1635.000000	99.970924
1634.000000	99.976294
1633.000000	99.979842
1632.000000	99.989363
1631.000000	100.004762
1630.000000	99.991287
1629.000000	99.988653
1628.000000	99.999392
1627.000000	100.002026
1626.000000	100.005978
1625.000000	99.990073
1624.000000	99.993922
1623.000000	99.998177
1622.000000	99.985717
1621.000000	99.987338
1620.000000	99.995441
1619.000000	99.984501
1618.000000	99.978729
1617.000000	99.999595
1616.000000	100.000507
1615.000000	99.975284
1614.000000	99.994023
1613.000000	99.998582
1612.000000	99.989060
1611.000000	99.999291
1610.000000	99.997670
1609.000000	100.000101
1608.000000	99.995847
1607.000000	99.966476
1606.000000	99.963235
1605.000000	99.965869
1604.000000	99.976399
1603.000000	99.985110
1602.000000	99.991593
1601.000000	100.009522
1600.000000	100.012966
1599.000000	100.005267
1598.000000	99.985921
1597.000000	99.984604
1596.000000	99.985921
1595.000000	99.984402
1594.000000	99.992505
1593.000000	99.986731
1592.000000	99.983085
1591.000000	100.002533
1590.000000	100.000507
1589.000000	99.980250
1588.000000	100.005166
1587.000000	100.018034
1586.000000	99.991086
1585.000000	99.984402
1584.000000	99.970831
1583.000000	99.972047
1582.000000	99.983593
1581.000000	99.980557
1580.000000	99.976710
1579.000000	99.976709
1578.000000	99.997569
1577.000000	99.989062
1576.000000	99.985619
1575.000000	100.000709
1574.000000	99.995138
1573.000000	99.988555
1572.000000	99.998278
1571.000000	99.981063
1570.000000	99.990481
1569.000000	100.002937
1568.000000	99.995949
1567.000000	99.994937
1566.000000	99.999494
1565.000000	99.996456
1564.000000	99.984610
1563.000000	99.957478
1562.000000	99.989063
1561.000000	100.003545
1560.000000	99.990582
1559.000000	99.995443
1558.000000	99.988152
1557.000000	99.991494
1556.000000	99.982382
1555.000000	99.975599
1554.000000	99.992609
1553.000000	99.994533
1552.000000	100.002734
1551.000000	99.990382
1550.000000	99.985928
1549.000000	99.982891
1548.000000	99.988763
1547.000000	99.987345
1546.000000	99.993419
1545.000000	99.985522
1544.000000	99.975097
1543.000000	100.001316
1542.000000	100.011745
1541.000000	99.999190
1540.000000	100.007087
1539.000000	100.005062
1538.000000	99.980869
1537.000000	99.985121
1536.000000	99.982490
1535.000000	99.978745
1534.000000	99.978340
1533.000000	99.995849
1532.000000	99.991092
1531.000000	99.982489
1530.000000	100.000101
1529.000000	99.995647
1528.000000	99.984004
1527.000000	99.990988
1526.000000	99.991394
1525.000000	99.992609
1524.000000	99.966592
1523.000000	99.979650
1522.000000	99.989369
1521.000000	99.977017
1520.000000	99.987645
1519.000000	99.980359
1518.000000	99.973476
1517.000000	99.979345
1516.000000	99.992508
1515.000000	99.975499
1514.000000	99.989368
1513.000000	99.973575
1512.000000	99.995039
1511.000000	99.977624
1510.000000	99.975093
1509.000000	100.011953
1508.000000	99.998582
1507.000000	99.976509
1506.000000	99.974080
1505.000000	99.973981
1504.000000	99.995645
1503.000000	100.005165
1502.000000	99.993418
1501.000000	99.988761
1500.000000	99.990178
1499.000000	99.986634
1498.000000	99.993519
1497.000000	99.980965
1496.000000	100.008202
1495.000000	99.989369
1494.000000	99.974487
1493.000000	99.977729
1492.000000	99.990989
1491.000000	99.985824
1490.000000	99.991900
1489.000000	99.992002
1488.000000	100.001822
1487.000000	99.986838
1486.000000	99.972468
1485.000000	99.996153
1484.000000	100.032094
1483.000000	99.986031
1482.000000	99.998482
1481.000000	99.986135
1480.000000	99.970346
1479.000000	99.982187
1478.000000	99.976419
1477.000000	99.990081
1476.000000	99.985528
1475.000000	99.970248
1474.000000	100.010627
1473.000000	99.976826
1472.000000	99.976017
1471.000000	99.937058
1470.000000	100.027841
1469.000000	99.978747
1468.000000	100.000000
1467.000000	99.987956
1466.000000	100.000304
1465.000000	99.994130
1464.000000	99.990687
1463.000000	99.991903
1462.000000	99.986236
1461.000000	99.996660
1460.000000	99.977433
1459.000000	100.005163
1458.000000	100.002935
1457.000000	99.999798
1456.000000	100.003036
1455.000000	99.999393
1454.000000	99.990386
1453.000000	100.015484
1452.000000	99.986543
1451.000000	99.967315
1450.000000	99.965289
1449.000000	100.017408
1448.000000	99.983203
1447.000000	99.998381
1446.000000	100.006578
1445.000000	99.998583
1444.000000	99.974299
1443.000000	99.998887
1442.000000	100.008400
1441.000000	99.979965
1440.000000	99.979054
1439.000000	99.993928
1438.000000	99.991601
1437.000000	99.997166
1436.000000	99.987049
1435.000000	99.986846
1434.000000	100.001821
1433.000000	99.968532
1432.000000	99.977535
1431.000000	99.970758
1430.000000	99.974908
1429.000000	99.962766
1428.000000	99.965397
1427.000000	99.985430
1426.000000	99.992918
1425.000000	99.983205
1424.000000	99.979971
1423.000000	100.014568
1422.000000	100.002933
1421.000000	99.988472
1420.000000	99.988171
1419.000000	99.991203
1418.000000	99.998685
1417.000000	99.987970
1416.000000	99.971195
1415.000000	99.988478
1414.000000	99.993330
1413.000000	99.993331
1412.000000	99.982621
1411.000000	99.979896
1410.000000	99.995050
1409.000000	99.969497
1408.000000	99.971018
1407.000000	99.981016
1406.000000	99.979504
1405.000000	99.996668
1404.000000	99.994245
1403.000000	99.974059
1402.000000	100.000404
1401.000000	99.994751
1400.000000	99.980421
1399.000000	99.989100
1398.000000	99.980525
1397.000000	99.982040
1396.000000	99.984160
1395.000000	99.978916
1394.000000	99.993140
1393.000000	99.993645
1392.000000	99.988905
1391.000000	99.981240
1390.000000	99.976101
1389.000000	99.960476
1388.000000	99.962492
1387.000000	99.958961
1386.000000	99.984266
1385.000000	100.002824
1384.000000	99.973582
1383.000000	99.968940
1382.000000	99.980435
1381.000000	99.979934
1380.000000	99.953717
1379.000000	99.956133
1378.000000	99.974790
1377.000000	99.979026
1376.000000	99.975996
1375.000000	99.970954
1374.000000	99.983361
1373.000000	99.987093
1372.000000	99.973379
1371.000000	99.979729
1370.000000	99.994756
1369.000000	99.990118
1368.000000	99.968543
1367.000000	99.952215
1366.000000	99.964817
1365.000000	99.982056
1364.000000	99.985886
1363.000000	99.989112
1362.000000	99.972580
1361.000000	99.967033
1360.000000	99.969653
1359.000000	99.958461
1358.000000	99.940609
1357.000000	99.968427
1356.000000	99.990819
1355.000000	99.981133
1354.000000	99.976382
1353.000000	99.962048
1352.000000	99.980213
1351.000000	99.962541
1350.000000	99.974350
1349.000000	99.995253
1348.000000	99.986163
1347.000000	99.993637
1346.000000	99.994646
1345.000000	99.987069
1344.000000	99.982523
1343.000000	99.981211
1342.000000	99.997979
1341.000000	99.980403
1340.000000	99.985450
1339.000000	100.005254
1338.000000	100.000909
1337.000000	99.981414
1336.000000	99.990707
1335.000000	99.998586
1334.000000	99.978083
1333.000000	99.978488
1332.000000	99.985151
1331.000000	99.980610
1330.000000	99.986973
1329.000000	99.987680
1328.000000	100.002727
1327.000000	100.007375
1326.000000	100.001010
1325.000000	99.991821
1324.000000	99.949722
1323.000000	99.998586
1322.000000	100.024849
1321.000000	100.017372
1320.000000	99.978894
1319.000000	99.956883
1318.000000	99.970010
1317.000000	100.014747
1316.000000	100.029701
1315.000000	99.960512
1314.000000	99.970409
1313.000000	99.995758
1312.000000	99.930628
1311.000000	100.015759
1310.000000	100.025867
1309.000000	100.005860
1308.000000	99.975048
1307.000000	99.972020
1306.000000	99.987574
1305.000000	99.995555
1304.000000	99.986864
1303.000000	100.001314
1302.000000	99.972521
1301.000000	99.991615
1300.000000	99.985956
1299.000000	99.979087
1298.000000	99.990504
1297.000000	99.973434
1296.000000	99.969896
1295.000000	99.999293
1294.000000	100.002122
1293.000000	100.000404
1292.000000	100.002526
1291.000000	99.984443
1290.000000	99.994949
1289.000000	100.001414
1288.000000	100.000404
1287.000000	100.000101
1286.000000	99.985153
1285.000000	99.983336
1284.000000	99.994647
1283.000000	100.008584
1282.000000	100.003938
1281.000000	99.984855
1280.000000	99.981525
1279.000000	99.975771
1278.000000	99.994448
1277.000000	99.995761
1276.000000	99.980421
1275.000000	99.993541
1274.000000	99.999596
1273.000000	99.990514
1272.000000	99.978407
1271.000000	99.984159
1270.000000	99.990111
1269.000000	99.994047
1268.000000	99.992131
1267.000000	99.990011
1266.000000	99.974377
1265.000000	100.003632
1264.000000	99.978002
1263.000000	99.983860
1262.000000	99.983762
1261.000000	99.979626
1260.000000	99.963996
1259.000000	100.011601
1258.000000	99.996166
1257.000000	99.988702
1256.000000	99.998688
1255.000000	99.974178
1254.000000	100.010088
1253.000000	99.982753
1252.000000	99.996570
1251.000000	100.006456
1250.000000	99.990922
1249.000000	99.999697
1248.000000	99.980231
1247.000000	100.005345
1246.000000	99.981644
1245.000000	99.984166
1244.000000	99.990520
1243.000000	99.983158
1242.000000	99.996773
1241.000000	100.004236
1240.000000	99.992437
1239.000000	99.978728
1238.000000	99.988606
1237.000000	99.974593
1236.000000	99.994455
1235.000000	99.975305
1234.000000	99.978937
1233.000000	99.996271
1232.000000	99.977327
1231.000000	99.979848
1230.000000	100.000504
1229.000000	99.990530
1228.000000	99.981061
1227.000000	100.005339
1226.000000	100.001309
1225.000000	99.994764
1224.000000	99.980769
1223.000000	99.977853
1222.000000	99.988926
1221.000000	100.000201
1220.000000	99.997685
1219.000000	99.992252
1218.000000	100.002717
1217.000000	99.988932
1216.000000	99.991146
1215.000000	100.002918
1214.000000	99.977669
1213.000000	99.989134
1212.000000	99.980788
1211.000000	99.971233
1210.000000	99.954835
1209.000000	100.025253
1208.000000	99.999899
1207.000000	99.986624
1206.000000	99.996077
1205.000000	99.987429
1204.000000	99.964802
1203.000000	99.961779
1202.000000	99.987529
1201.000000	100.007745
1200.000000	99.998491
1199.000000	99.986018
1198.000000	99.989339
1197.000000	99.970433
1196.000000	99.976970
1195.000000	99.996882
1194.000000	100.000704
1193.000000	99.984916
1192.000000	99.991352
1191.000000	99.995977
1190.000000	100.004929
1189.000000	99.998189
1188.000000	99.974955
1187.000000	99.976565
1186.000000	99.972245
1185.000000	99.983608
1184.000000	99.982100
1183.000000	99.990448
1182.000000	99.994772
1181.000000	99.979492
1180.000000	99.975675
1179.000000	99.983917
1178.000000	99.976178
1177.000000	99.980703
1176.000000	99.976988
1175.000000	99.990253
1174.000000	100.002813
1173.000000	100.000502
1172.000000	99.994977
1171.000000	99.983326
1170.000000	99.973585
1169.000000	99.986141
1168.000000	99.981324
1167.000000	99.986042
1166.000000	99.995180
1165.000000	99.978716
1164.000000	99.993274
1163.000000	99.996286
1162.000000	100.000502
1161.000000	99.996488
1160.000000	99.979834
1159.000000	99.972915
1158.000000	99.983146
1157.000000	99.995887
1156.000000	99.994183
1155.000000	99.993782
1154.000000	99.998596
1153.000000	99.994485
1152.000000	99.974334
1151.000000	99.970928
1150.000000	99.980353
1149.000000	99.983463
1148.000000	99.985168
1147.000000	99.990381
1146.000000	99.998698
1145.000000	99.977065
1144.000000	99.972061
1143.000000	99.992088
1142.000000	99.999299
1141.000000	99.991890
1140.000000	99.984883
1139.000000	100.001802
1138.000000	100.006907
1137.000000	99.983886
1136.000000	99.982787
1135.000000	99.981388
1134.000000	99.984491
1133.000000	99.988695
1132.000000	99.986497
1131.000000	99.985899
1130.000000	99.989801
1129.000000	99.988102
1128.000000	99.962914
1127.000000	99.975812
1126.000000	99.997801
1125.000000	99.991405
1124.000000	99.989907
1123.000000	99.989308
1122.000000	99.985213
1121.000000	99.977124
1120.000000	99.980623
1119.000000	99.976928
1118.000000	99.976530
1117.000000	99.983323
1116.000000	99.967451
1115.000000	99.965161
1114.000000	99.975046
1113.000000	99.993712
1112.000000	100.015769
1111.000000	99.999102
1110.000000	99.974262
1109.000000	99.971171
1108.000000	100.010276
1107.000000	100.006284
1106.000000	99.992620
1105.000000	99.981054
1104.000000	99.988535
1103.000000	100.001097
1102.000000	99.984053
1101.000000	99.969804
1100.000000	99.971107
1099.000000	99.982966
1098.000000	99.992330
1097.000000	100.015936
1096.000000	100.020516
1095.000000	99.999403
1094.000000	100.000398
1093.000000	100.001891
1092.000000	99.985868
1091.000000	99.980498
1090.000000	99.993235
1089.000000	99.999204
1088.000000	99.985083
1087.000000	99.990256
1086.000000	99.993737
1085.000000	99.975746
1084.000000	99.988969
1083.000000	99.995529
1082.000000	100.002881
1081.000000	99.992054
1080.000000	99.981528
1079.000000	99.995730
1078.000000	99.987889
1077.000000	99.977471
1076.000000	99.995435
1075.000000	99.989482
1074.000000	99.988195
1073.000000	99.991767
1072.000000	100.006347
1071.000000	100.018742
1070.000000	100.000000
1069.000000	99.976022
1068.000000	99.986526
1067.000000	100.000693
1066.000000	99.966331
1065.000000	100.006932
1064.000000	99.983369
1063.000000	99.961898
1062.000000	99.985059
1061.000000	99.999505
1060.000000	99.994461
1059.000000	99.992187
1058.000000	100.001780
1057.000000	100.017895
1056.000000	100.000791
1055.000000	100.000000
1054.000000	99.998617
1053.000000	99.994173
1052.000000	99.984202
1051.000000	99.978381
1050.000000	99.977894
1049.000000	99.991909
1048.000000	100.003749
1047.000000	99.986981
1046.000000	99.982844
1045.000000	100.000394
1044.000000	100.002563
1043.000000	100.013795
1042.000000	99.979120
1041.000000	99.991729
1040.000000	99.973423
1039.000000	99.993209
1038.000000	99.997638
1037.000000	99.984066
1036.000000	99.978958
1035.000000	100.005703
1034.000000	99.968254
1033.000000	99.982410
1032.000000	99.983987
1031.000000	99.992830
1030.000000	100.012470
1029.000000	100.001374
1028.000000	99.991365
1027.000000	100.015208
1026.000000	100.012260
1025.000000	99.993922
1024.000000	100.001078
1023.000000	99.987850
1022.000000	99.983154
1021.000000	100.000881
1020.000000	99.992854
1019.000000	99.995792
1018.000000	99.987089
1017.000000	99.996969
1016.000000	99.988854
1015.000000	99.986904
1014.000000	99.986128
1013.000000	99.990722
1012.000000	100.004393
1011.000000	99.990533
1010.000000	99.995121
1009.000000	99.999317
1008.000000	99.992493
1007.000000	99.985089
1006.000000	99.984023
1005.000000	99.992306
1004.000000	99.999805
1003.000000	99.989587
1002.000000	100.002043
1001.000000	99.995430
1000.000000	99.992516
999.000000	100.006996
998.000000	100.013502
997.000000	100.008545
996.000000	99.997088
995.000000	99.984768
994.000000	99.979150
993.000000	99.992729
992.000000	99.999516
991.000000	100.009494
990.000000	100.012202
989.000000	100.008518
988.000000	100.001064
987.000000	100.005803
986.000000	100.017983
985.000000	99.998840
984.000000	99.996716
983.000000	100.013327
982.000000	100.007722
981.000000	99.997684
980.000000	99.989101
979.000000	99.997686
978.000000	100.000482
977.000000	99.997977
976.000000	99.990276
975.000000	99.978928
974.000000	99.995287
973.000000	100.004615
972.000000	99.984335
971.000000	99.988186
970.000000	99.999136
969.000000	100.012958
968.000000	100.037134
967.000000	100.006138
966.000000	99.991278
965.000000	100.005652
964.000000	100.001149
963.000000	100.002679
962.000000	99.986994
961.000000	99.994170
960.000000	100.023315
959.000000	100.009454
958.000000	99.989216
957.000000	99.997901
956.000000	100.024887
955.000000	100.025637
954.000000	100.020955
953.000000	100.003712
952.000000	99.992580
951.000000	99.996007
950.000000	99.993919
949.000000	99.992593
948.000000	99.981875
947.000000	99.985393
946.000000	99.989951
945.000000	99.999147
944.000000	100.013728
943.000000	100.012300
942.000000	100.000756
941.000000	99.973923
940.000000	99.977902
939.000000	100.025867
938.000000	100.018019
937.000000	99.983787
936.000000	100.000471
935.000000	100.034274
934.000000	100.020419
933.000000	99.999530
932.000000	100.006669
931.000000	100.033798
930.000000	100.021580
929.000000	100.000375
928.000000	100.017709
927.000000	100.017600
926.000000	100.010569
925.000000	100.007756
924.000000	99.989729
923.000000	100.014185
922.000000	100.031336
921.000000	100.009971
920.000000	100.000372
919.000000	99.987350
918.000000	99.994330
917.000000	99.993590
916.000000	100.020794
915.000000	99.978858
914.000000	99.981657
913.000000	99.995650
912.000000	99.979930
911.000000	99.994639
910.000000	100.007296
909.000000	100.009690
908.000000	100.014386
907.000000	100.022026
906.000000	100.035364
905.000000	100.016466
904.000000	99.981441
903.000000	99.997246
902.000000	100.010459
901.000000	100.022736
900.000000	99.990474
899.000000	100.009790
898.000000	99.969384
897.000000	99.979181
896.000000	99.999544
895.000000	100.014588
894.000000	99.999271
893.000000	99.983345
892.000000	99.991091
891.000000	99.995550
890.000000	100.006082
889.000000	100.066946
888.000000	100.031808
887.000000	99.947348
886.000000	99.966920
885.000000	99.990247
884.000000	99.994765
883.000000	99.895913
882.000000	99.996397
881.000000	99.916081
880.000000	100.001438
879.000000	100.030019
878.000000	100.011939
877.000000	99.990587
876.000000	99.981275
875.000000	99.910968
874.000000	99.994187
873.000000	99.920126
872.000000	99.993664
871.000000	100.151600
870.000000	100.062484
869.000000	100.048610
868.000000	99.967281
867.000000	99.936794
866.000000	99.956760
865.000000	100.101153
864.000000	100.002659
863.000000	99.980691
862.000000	99.985402
861.000000	99.969337
860.000000	99.952400
859.000000	100.006132
858.000000	99.958822
857.000000	99.132396
856.000000	99.946643
855.000000	99.585998
854.000000	100.190408
853.000000	99.907388
852.000000	100.216486
851.000000	100.114267
850.000000	100.219239
849.000000	100.143050
848.000000	100.141784
847.000000	99.835180
846.000000	99.835141
845.000000	99.993555
844.000000	100.014842
843.000000	99.870650
842.000000	99.854496
841.000000	99.999472
840.000000	100.184803
839.000000	100.035230
838.000000	100.107486
837.000000	100.078838
836.000000	100.178097
835.000000	100.044968
834.000000	100.135738
833.000000	100.011509
832.000000	99.957102
831.000000	99.609363
830.000000	100.189106
829.000000	99.953981
828.000000	99.869806
827.000000	99.829277
826.000000	100.057040
825.000000	99.871034
824.000000	100.163147
823.000000	100.207268
822.000000	100.005514
821.000000	99.744938
820.000000	99.986406
819.000000	100.200465
818.000000	99.905760
817.000000	99.971184
816.000000	100.093867
815.000000	99.819702
814.000000	99.988073
813.000000	99.886624
812.000000	99.955254
811.000000	100.124908
810.000000	100.085466
809.000000	100.036429
808.000000	100.037237
807.000000	99.900542
806.000000	100.028360
805.000000	99.832592
804.000000	99.914418
803.000000	99.931520
802.000000	99.779216
801.000000	99.988396
800.000000	99.967282
799.000000	100.010826
798.000000	99.865954
797.000000	99.629173
796.000000	99.910326
795.000000	99.991191
794.000000	99.987136
793.000000	100.067664
792.000000	100.079075
791.000000	99.985001
790.000000	99.889715
789.000000	100.057386
788.000000	99.961517
787.000000	99.976555
786.000000	100.064215
785.000000	100.120418
784.000000	99.952045
783.000000	100.037826
782.000000	100.021000
781.000000	100.071838
780.000000	99.948831
779.000000	100.035318
778.000000	100.085191
777.000000	100.222973
776.000000	99.995557
775.000000	99.941514
774.000000	99.896265
773.000000	99.954452
772.000000	99.973205
771.000000	100.004540
770.000000	99.968029
769.000000	100.081141
768.000000	100.019625
767.000000	100.097236
766.000000	100.072954
765.000000	100.069494
764.000000	100.000179
763.000000	99.984006
762.000000	100.002145
761.000000	99.910735
760.000000	99.946619
759.000000	100.095688
758.000000	100.001611
757.000000	99.963926
756.000000	100.052037
755.000000	99.965584
754.000000	99.910567
753.000000	99.992641
752.000000	99.992549
751.000000	100.082207
750.000000	100.060005
749.000000	100.119554
748.000000	100.106557
747.000000	100.062291
746.000000	99.960215
745.000000	99.994868
744.000000	99.947594
743.000000	99.976939
742.000000	100.009464
741.000000	100.051773
740.000000	100.028143
739.000000	100.073304
738.000000	100.050739
737.000000	99.942675
736.000000	100.049983
735.000000	100.067186
734.000000	99.980381
733.000000	100.056541
732.000000	99.948358
731.000000	99.977101
730.000000	99.979177
729.000000	99.908673
728.000000	99.900057
727.000000	99.912175
726.000000	100.001721
725.000000	100.008699
724.000000	99.958373
723.000000	99.917984
722.000000	99.996098
721.000000	100.027323
720.000000	100.011625
719.000000	100.012807
718.000000	100.051349
717.000000	100.054108
716.000000	100.006092
715.000000	100.021733
714.000000	100.082983
713.000000	100.057254
712.000000	100.045333
711.000000	100.128166
710.000000	100.093502
709.000000	99.998451
708.000000	99.956006
707.000000	99.977225
706.000000	100.003281
705.000000	100.017866
704.000000	99.956343
703.000000	99.999179
702.000000	100.065236
701.000000	100.035044
700.000000	100.066034
699.000000	100.040086
698.000000	99.988679
697.000000	100.022469
696.000000	100.091275
695.000000	100.048627
694.000000	100.003565
693.000000	100.022126
692.000000	100.032381
691.000000	100.014825
690.000000	99.965420
689.000000	99.987660
688.000000	100.010147
687.000000	100.002926
686.000000	100.006309
685.000000	99.952915
684.000000	99.961506
683.000000	100.098205
682.000000	100.063895
681.000000	99.987460
680.000000	99.896693
679.000000	99.916359
678.000000	100.005403
677.000000	100.042425
676.000000	100.021442
675.000000	100.073421
674.000000	100.033545
673.000000	100.005775
672.000000	99.976714
671.000000	100.004952
670.000000	99.905349
669.000000	99.928769
668.000000	99.949373
667.000000	99.957350
666.000000	100.005781
665.000000	100.011474
664.000000	99.970995
663.000000	99.917953
662.000000	99.933000
661.000000	99.929758
660.000000	99.981354
659.000000	100.009000
658.000000	99.973729
657.000000	99.984469
656.000000	99.983451
655.000000	99.965336
654.000000	99.978123
653.000000	99.956543
652.000000	99.989977
651.000000	100.010212
650.000000	100.062580
649.000000	99.955748
648.000000	100.022641
647.000000	100.010033
646.000000	100.032590
645.000000	100.133928
644.000000	99.987567
643.000000	99.936835
642.000000	99.991252
641.000000	100.023114
640.000000	99.924583
639.000000	100.037515
638.000000	99.998710
637.000000	99.972635
636.000000	99.971625
635.000000	99.962685
634.000000	100.019637
633.000000	99.956213
632.000000	100.007932
631.000000	100.025833
630.000000	99.982659
629.000000	99.982750
628.000000	99.976932
627.000000	100.000092
626.000000	100.008772
625.000000	100.018562
624.000000	100.032042
623.000000	99.949878
622.000000	99.954488
621.000000	99.983382
620.000000	99.926769
619.000000	99.908051
618.000000	100.047140
617.000000	100.017273
616.000000	99.948547
615.000000	100.027263
614.000000	99.935697
613.000000	99.986500
612.000000	99.985852
611.000000	100.103148
610.000000	99.991310
609.000000	100.046250
608.000000	99.910708
607.000000	100.015169
606.000000	100.030154
605.000000	99.972349
604.000000	99.941178
603.000000	100.040437
602.000000	99.953557
601.000000	99.980287
600.000000	100.026375
599.000000	99.960221
598.000000	99.941784
597.000000	100.025829
596.000000	99.946503
595.000000	99.984999
594.000000	100.013979
593.000000	100.048992
592.000000	99.960114
591.000000	100.035658
590.000000	99.972494
589.000000	99.922990
588.000000	100.082167
587.000000	100.003427
586.000000	100.073315
585.000000	100.094950
584.000000	99.953337
583.000000	99.933728
582.000000	99.955164
581.000000	100.061067
580.000000	99.948854
579.000000	99.987490
578.000000	99.989897
577.000000	99.911323
576.000000	100.136766
575.000000	100.042161
574.000000	99.982114
573.000000	100.068170
572.000000	100.020774
571.000000	100.000371
570.000000	99.932161
569.000000	100.024291
568.000000	99.897750
567.000000	100.026061
566.000000	99.947629
565.000000	99.957527
564.000000	99.987106
563.000000	100.033859
562.000000	99.928009
561.000000	99.980801
560.000000	99.941865
559.000000	100.027829
558.000000	99.972269
557.000000	99.955390
556.000000	100.068094
555.000000	100.040539
554.000000	99.978757
553.000000	100.039263
552.000000	99.970770
551.000000	99.948574
550.000000	99.969746
549.000000	99.917927
548.000000	99.969282
547.000000	100.062131
546.000000	100.010677
545.000000	100.004829
544.000000	99.974009
543.000000	100.024041
542.000000	100.016895
541.000000	100.036690
540.000000	99.932707
539.000000	99.926745
538.000000	100.049511
537.000000	99.969823
536.000000	99.983931
535.000000	99.947991
534.000000	99.952624
533.000000	99.945391
532.000000	100.035586
531.000000	99.978546
530.000000	99.966735
529.000000	100.040630
528.000000	99.848758
527.000000	99.923080
526.000000	99.972683
525.000000	100.053910
524.000000	99.974812
523.000000	99.958360
522.000000	99.961700
521.000000	100.026585
520.000000	99.995633
519.000000	100.012365
518.000000	99.991726
517.000000	99.992559
516.000000	99.910663
515.000000	99.953796
514.000000	99.973409
513.000000	99.995165
512.000000	99.996187
511.000000	100.035989
510.000000	99.996559
509.000000	100.021498
508.000000	99.986973
507.000000	99.949680
506.000000	99.982226
505.000000	100.045895
504.000000	99.931349
503.000000	99.958971
502.000000	99.998697
501.000000	100.005771
500.000000	100.011166
499.000000	100.067691
498.000000	99.992553
497.000000	99.982132
496.000000	99.923171
495.000000	99.967530
494.000000	100.055113
493.000000	100.031264
492.000000	100.013770
491.000000	100.018510
490.000000	99.923500
489.000000	100.000651
488.000000	100.102100
487.000000	99.983537
486.000000	99.857551
485.000000	99.873350
484.000000	99.981015
483.000000	100.030376
482.000000	100.000000
481.000000	99.980609
480.000000	99.963097
479.000000	99.949393
478.000000	99.977439
477.000000	100.015109
476.000000	100.021830
475.000000	99.986381
474.000000	99.926516
473.000000	99.954202
472.000000	100.028084
471.000000	100.033221
470.000000	100.009427
469.000000	100.054072
468.000000	99.998040
467.000000	99.954739
466.000000	100.011949
465.000000	99.940282
464.000000	99.909762
463.000000	99.980015
462.000000	99.963870
461.000000	99.987398
460.000000	99.995612
459.000000	99.965737
458.000000	100.040727
457.000000	99.987112
456.000000	99.881827
455.000000	99.942592
454.000000	99.985336
453.000000	100.019345
452.000000	100.055614
451.000000	99.952819
450.000000	99.895664
449.000000	99.889630
448.000000	99.981031
447.000000	100.084355
446.000000	100.057396
445.000000	99.961139
444.000000	99.920207
443.000000	100.004206
442.000000	100.108951
441.000000	100.067917
440.000000	99.993826
439.000000	99.987931
438.000000	100.005520
437.000000	100.001403
436.000000	100.028342
435.000000	99.957262
434.000000	99.933499
433.000000	99.988957
432.000000	99.927373
431.000000	99.961904
430.000000	99.999251
429.000000	100.024436
428.000000	100.043559
427.000000	99.993353
426.000000	99.969765
425.000000	100.069695
424.000000	100.083592
423.000000	100.009465
422.000000	99.998969
421.000000	99.952327
420.000000	100.001593
419.000000	99.971802
418.000000	99.950635
417.000000	99.963450
416.000000	99.981625
415.000000	99.954463
414.000000	99.958092
413.000000	100.009566
412.000000	100.019974
411.000000	99.960435
410.000000	99.983301
409.000000	100.056278
408.000000	99.928111
407.000000	99.924340
406.000000	100.055728
405.000000	100.050653
404.000000	100.049236
403.000000	99.998593
402.000000	100.064102
401.000000	100.054121
400.000000	100.047594
399.000000	100.063668
398.000000	100.050026
397.000000	100.046118
396.000000	100.063937
395.000000	99.982643
394.000000	100.005254
393.000000	99.984420
392.000000	100.051383
391.000000	100.061595
390.000000	100.080216
389.000000	100.094303
388.000000	100.008726
387.000000	100.034728
386.000000	99.995967
385.000000	99.894681
384.000000	99.930958
383.000000	99.872307
382.000000	99.984332
381.000000	99.946848
380.000000	99.973910
379.000000	100.003002
378.000000	99.898721
377.000000	99.861198
376.000000	100.241701
375.000000	100.266313
374.000000	100.094044
373.000000	99.922304
372.000000	99.887785
371.000000	99.955456
370.000000	100.209513
369.000000	99.719615
368.000000	99.653056
367.000000	100.159003
366.000000	100.062994
365.000000	100.099819
364.000000	99.585656
363.000000	99.916412
362.000000	99.835378
361.000000	99.756260
360.000000	99.980257
359.000000	99.822981
358.000000	99.795266
357.000000	99.870004
356.000000	99.801053
355.000000	99.827071
354.000000	100.302530
353.000000	99.813423
352.000000	100.013190
351.000000	99.687411
350.000000	100.017014
349.000000	100.025914
348.000000	100.309721
347.000000	99.953035
346.000000	100.149402
345.000000	99.743974
344.000000	100.234579
343.000000	100.037856
342.000000	99.961594
341.000000	100.309230
340.000000	100.219503
339.000000	99.721098
338.000000	100.087800
337.000000	99.698763
336.000000	99.799777
335.000000	100.329709
334.000000	100.119835
333.000000	99.860119
332.000000	99.936525
331.000000	100.009407
330.000000	100.020947
329.000000	99.970172
328.000000	99.655617
327.000000	100.006061
326.000000	99.939145
325.000000	99.914702
324.000000	99.841405
323.000000	99.522367
322.000000	100.000932
321.000000	100.099232
320.000000	99.762141
319.000000	100.421199
318.000000	99.766111
317.000000	100.063981
316.000000	99.797161
315.000000	100.048862
314.000000	100.153827
313.000000	99.969330
312.000000	99.986219
311.000000	100.247034
310.000000	100.226047
309.000000	99.955525
308.000000	99.669590
307.000000	100.256951
306.000000	100.021222
305.000000	99.823925
304.000000	100.240908
303.000000	100.031998
302.000000	100.119959
301.000000	99.978713
300.000000	99.789921
299.000000	99.996377
298.000000	100.021835
297.000000	99.765950
296.000000	100.203888
295.000000	100.105943
294.000000	100.222817
293.000000	100.134808
292.000000	100.099472
291.000000	99.806421
290.000000	99.619037
289.000000	99.765691
288.000000	99.893745
287.000000	100.309858
286.000000	99.899526
285.000000	100.143776
284.000000	99.938202
283.000000	100.078089
282.000000	99.983621
281.000000	99.740427
280.000000	99.907877
279.000000	100.018519
278.000000	99.992881
277.000000	100.160963
276.000000	100.221017
275.000000	100.330773
274.000000	99.989508
273.000000	99.979539
272.000000	99.685291
271.000000	99.816879
270.000000	99.886502
269.000000	100.045142
268.000000	100.002112
267.000000	100.068806
266.000000	100.025402
265.000000	99.952540
264.000000	99.956720
263.000000	99.972291
262.000000	100.119198
261.000000	99.743055
260.000000	99.814144
259.000000	99.923978
258.000000	100.101275
257.000000	100.003383
256.000000	99.738400
255.000000	99.724502
254.000000	99.937448
253.000000	99.990027
252.000000	99.946651
251.000000	99.956121
250.000000	100.061013
249.000000	100.088337
248.000000	100.056609
247.000000	100.095663
246.000000	99.920861
245.000000	100.012639
244.000000	99.998131
243.000000	99.919953
242.000000	100.065273
241.000000	99.940563
240.000000	100.072951
239.000000	100.062197
238.000000	100.083942
237.000000	99.980984
236.000000	99.882718
235.000000	100.097542
234.000000	100.176180
233.000000	100.367925
232.000000	100.261403
231.000000	100.075189
230.000000	100.156889
229.000000	99.964355
228.000000	99.829841
227.000000	100.045638
226.000000	100.003610
225.000000	99.896454
224.000000	99.774738
223.000000	99.710554
222.000000	99.675730
221.000000	99.699886
220.000000	100.136709
219.000000	100.065241
218.000000	99.651787
217.000000	99.660606
216.000000	99.836733
215.000000	99.833433
214.000000	99.767117
213.000000	100.101737
212.000000	100.154030
211.000000	99.817341
210.000000	99.775880
209.000000	99.657925
208.000000	99.760483
207.000000	99.690071
206.000000	99.871258
205.000000	100.445430
204.000000	100.740037
203.000000	100.327095
202.000000	99.956922
201.000000	99.658503
200.000000	99.908472
