PE UV       SUBTECH     SPECTRUM    ASCII       PEDS        4.00        
   -1
RTAgneauUK 22.Sample.asc
18/03/02
15:29:43.00
18/03/02
15:29:43.00
Administrator

200.000000
1
Lambda 750
750N8071901
PerkinElmer UV WinLab 6.0.4.0738 / 1.61.00 Lambda 900

0
0
3350/servo 860.8/2
0
0
UV/VIS
1
1
1
CommonBeamDepol,150mm sphere / downward view
0
0
0
0
Program
Program
3350/servo 860.8/2
3350/0.2 860.8/0.2
3350/0.2 860.8/0.2
0
1
 
 
 
0
 
860.8
319.2
860.8
Front
100
on
 
 
0
0
0
 
0
 
 
 
0
 
 
0
0
0
0
0
 
 
 
 
0
0


0
0
#HDR
-1
-1
#GR
nm
%R
1.0
0.0
2350.000000
-1.000000
2151
8
70.337238
17.984245
#DATA
2350.000000	41.547596
2349.000000	41.406291
2348.000000	40.917118
2347.000000	41.970660
2346.000000	41.991903
2345.000000	41.304558
2344.000000	41.583585
2343.000000	41.465632
2342.000000	41.507786
2341.000000	41.781865
2340.000000	42.090549
2339.000000	42.052447
2338.000000	42.263429
2337.000000	41.976913
2336.000000	42.168598
2335.000000	42.432088
2334.000000	42.395601
2333.000000	42.486247
2332.000000	42.474296
2331.000000	42.116443
2330.000000	41.609806
2329.000000	41.797391
2328.000000	41.785812
2327.000000	41.997489
2326.000000	42.104689
2325.000000	42.067380
2324.000000	41.977150
2323.000000	41.936002
2322.000000	41.755984
2321.000000	41.566207
2320.000000	41.699087
2319.000000	41.598559
2318.000000	41.708972
2317.000000	41.654772
2316.000000	41.642623
2315.000000	41.468339
2314.000000	41.530092
2313.000000	41.369980
2312.000000	41.043227
2311.000000	40.970954
2310.000000	40.883478
2309.000000	40.838541
2308.000000	40.953812
2307.000000	41.143864
2306.000000	40.706789
2305.000000	40.567701
2304.000000	40.527282
2303.000000	40.640950
2302.000000	40.719859
2301.000000	40.400642
2300.000000	40.357071
2299.000000	40.202124
2298.000000	40.182187
2297.000000	39.986555
2296.000000	39.925911
2295.000000	39.791442
2294.000000	39.652752
2293.000000	39.637653
2292.000000	39.417999
2291.000000	39.286598
2290.000000	39.372569
2289.000000	39.440367
2288.000000	39.277886
2287.000000	39.171690
2286.000000	39.068280
2285.000000	38.991153
2284.000000	39.076756
2283.000000	39.234666
2282.000000	38.974878
2281.000000	38.996062
2280.000000	39.086808
2279.000000	39.070990
2278.000000	39.062890
2277.000000	38.983487
2276.000000	38.999680
2275.000000	39.016116
2274.000000	39.118157
2273.000000	39.295948
2272.000000	39.304162
2271.000000	39.256002
2270.000000	39.310235
2269.000000	39.436661
2268.000000	39.614106
2267.000000	39.569854
2266.000000	39.632707
2265.000000	39.724477
2264.000000	39.786304
2263.000000	39.997050
2262.000000	40.089095
2261.000000	40.147942
2260.000000	40.254278
2259.000000	40.482884
2258.000000	40.767574
2257.000000	40.827960
2256.000000	40.964469
2255.000000	41.347196
2254.000000	41.541993
2253.000000	41.613548
2252.000000	41.811090
2251.000000	41.995648
2250.000000	42.187003
2249.000000	42.419275
2248.000000	42.574933
2247.000000	42.787585
2246.000000	43.069595
2245.000000	43.278758
2244.000000	43.405947
2243.000000	43.668976
2242.000000	43.893523
2241.000000	43.873216
2240.000000	44.017728
2239.000000	44.248096
2238.000000	44.418575
2237.000000	44.627792
2236.000000	44.747680
2235.000000	44.857905
2234.000000	44.878751
2233.000000	44.925868
2232.000000	45.020898
2231.000000	45.076093
2230.000000	45.107843
2229.000000	45.133331
2228.000000	45.206534
2227.000000	45.185092
2226.000000	45.184843
2225.000000	45.173206
2224.000000	45.165494
2223.000000	45.157359
2222.000000	45.280614
2221.000000	45.292639
2220.000000	45.245107
2219.000000	45.239482
2218.000000	45.120593
2217.000000	45.035476
2216.000000	44.975988
2215.000000	45.042932
2214.000000	45.038341
2213.000000	45.033311
2212.000000	44.932605
2211.000000	44.811590
2210.000000	44.820862
2209.000000	44.587996
2208.000000	44.521609
2207.000000	44.470830
2206.000000	44.545216
2205.000000	44.450266
2204.000000	44.391808
2203.000000	44.177849
2202.000000	44.025316
2201.000000	44.110202
2200.000000	44.101823
2199.000000	44.006787
2198.000000	43.886873
2197.000000	43.888054
2196.000000	43.711436
2195.000000	43.654776
2194.000000	43.639722
2193.000000	43.487218
2192.000000	43.421185
2191.000000	43.366431
2190.000000	43.266196
2189.000000	43.274559
2188.000000	43.160967
2187.000000	43.123365
2186.000000	43.127164
2185.000000	43.147487
2184.000000	43.056356
2183.000000	42.967622
2182.000000	42.909903
2181.000000	42.883148
2180.000000	42.939061
2179.000000	42.963286
2178.000000	42.800941
2177.000000	42.887450
2176.000000	42.963790
2175.000000	42.993574
2174.000000	42.979341
2173.000000	42.921354
2172.000000	43.049837
2171.000000	43.094547
2170.000000	42.995040
2169.000000	43.239346
2168.000000	43.318140
2167.000000	43.466095
2166.000000	43.430218
2165.000000	43.449839
2164.000000	43.717820
2163.000000	43.773974
2162.000000	43.803336
2161.000000	43.947565
2160.000000	44.075365
2159.000000	44.312889
2158.000000	44.367115
2157.000000	44.532600
2156.000000	44.756406
2155.000000	44.895440
2154.000000	44.951247
2153.000000	45.210715
2152.000000	45.267020
2151.000000	45.472250
2150.000000	45.600272
2149.000000	45.706628
2148.000000	46.002558
2147.000000	46.138733
2146.000000	46.363690
2145.000000	46.389417
2144.000000	46.624871
2143.000000	46.594925
2142.000000	46.907158
2141.000000	47.137247
2140.000000	47.166824
2139.000000	47.360626
2138.000000	47.582528
2137.000000	47.531025
2136.000000	47.754592
2135.000000	47.904606
2134.000000	47.932353
2133.000000	47.861881
2132.000000	48.183030
2131.000000	48.316673
2130.000000	48.365699
2129.000000	48.453907
2128.000000	48.438811
2127.000000	48.550625
2126.000000	48.663914
2125.000000	48.620230
2124.000000	48.857964
2123.000000	48.875840
2122.000000	48.805077
2121.000000	48.830597
2120.000000	48.887284
2119.000000	48.985332
2118.000000	49.001637
2117.000000	49.036558
2116.000000	49.023435
2115.000000	49.177473
2114.000000	49.082244
2113.000000	49.198290
2112.000000	49.457076
2111.000000	49.210497
2110.000000	49.290509
2109.000000	49.359631
2108.000000	49.391959
2107.000000	49.298703
2106.000000	49.339172
2105.000000	49.350102
2104.000000	49.328853
2103.000000	49.399183
2102.000000	49.403796
2101.000000	49.415349
2100.000000	49.505403
2099.000000	49.455552
2098.000000	49.373443
2097.000000	49.434598
2096.000000	49.429342
2095.000000	49.430794
2094.000000	49.487955
2093.000000	49.456691
2092.000000	49.453417
2091.000000	49.465439
2090.000000	49.401750
2089.000000	49.373852
2088.000000	49.384819
2087.000000	49.393828
2086.000000	49.391830
2085.000000	49.260482
2084.000000	49.165366
2083.000000	49.195355
2082.000000	49.152948
2081.000000	49.032179
2080.000000	49.013590
2079.000000	48.998128
2078.000000	48.808585
2077.000000	48.728423
2076.000000	48.664454
2075.000000	48.634075
2074.000000	48.478156
2073.000000	48.423032
2072.000000	48.271287
2071.000000	48.167856
2070.000000	48.113064
2069.000000	48.027787
2068.000000	47.824440
2067.000000	47.679528
2066.000000	47.500997
2065.000000	47.327975
2064.000000	47.206159
2063.000000	47.080641
2062.000000	46.896082
2061.000000	46.709287
2060.000000	46.544099
2059.000000	46.456586
2058.000000	46.359907
2057.000000	46.195210
2056.000000	46.053489
2055.000000	45.898430
2054.000000	45.706218
2053.000000	45.585284
2052.000000	45.455767
2051.000000	45.309603
2050.000000	45.196755
2049.000000	45.146247
2048.000000	45.032446
2047.000000	44.969982
2046.000000	44.896489
2045.000000	44.808655
2044.000000	44.768911
2043.000000	44.768222
2042.000000	44.764263
2041.000000	44.738185
2040.000000	44.749875
2039.000000	44.805942
2038.000000	44.808392
2037.000000	44.849999
2036.000000	44.908958
2035.000000	45.011465
2034.000000	45.152212
2033.000000	45.236507
2032.000000	45.383698
2031.000000	45.496621
2030.000000	45.587491
2029.000000	45.708092
2028.000000	45.809435
2027.000000	45.981615
2026.000000	46.134441
2025.000000	46.257231
2024.000000	46.383243
2023.000000	46.496360
2022.000000	46.583941
2021.000000	46.657058
2020.000000	46.765484
2019.000000	46.796203
2018.000000	46.864654
2017.000000	46.967418
2016.000000	46.976561
2015.000000	46.979784
2014.000000	47.031949
2013.000000	47.038238
2012.000000	47.005730
2011.000000	47.034640
2010.000000	47.034465
2009.000000	46.984626
2008.000000	46.933896
2007.000000	46.919460
2006.000000	46.875993
2005.000000	46.809387
2004.000000	46.758612
2003.000000	46.690077
2002.000000	46.582207
2001.000000	46.518095
2000.000000	46.474990
1999.000000	46.380019
1998.000000	46.292702
1997.000000	46.210793
1996.000000	46.130405
1995.000000	46.034858
1994.000000	45.905721
1993.000000	45.816928
1992.000000	45.733406
1991.000000	45.616347
1990.000000	45.574187
1989.000000	45.485285
1988.000000	45.407143
1987.000000	45.305276
1986.000000	45.178433
1985.000000	45.115640
1984.000000	45.027242
1983.000000	44.934576
1982.000000	44.855103
1981.000000	44.770375
1980.000000	44.674425
1979.000000	44.585807
1978.000000	44.461262
1977.000000	44.379791
1976.000000	44.252769
1975.000000	44.166297
1974.000000	44.053200
1973.000000	43.937048
1972.000000	43.885004
1971.000000	43.765698
1970.000000	43.679485
1969.000000	43.578676
1968.000000	43.518185
1967.000000	43.393616
1966.000000	43.345837
1965.000000	43.242553
1964.000000	43.065396
1963.000000	43.027154
1962.000000	42.940654
1961.000000	42.811746
1960.000000	42.735199
1959.000000	42.627621
1958.000000	42.572951
1957.000000	42.524346
1956.000000	42.432368
1955.000000	42.356232
1954.000000	42.278289
1953.000000	42.198640
1952.000000	42.145711
1951.000000	42.072333
1950.000000	42.041000
1949.000000	41.964277
1948.000000	41.875495
1947.000000	41.867709
1946.000000	41.843460
1945.000000	41.874775
1944.000000	41.821683
1943.000000	41.833986
1942.000000	41.853882
1941.000000	41.893942
1940.000000	41.894655
1939.000000	41.989439
1938.000000	42.025460
1937.000000	42.098334
1936.000000	42.171700
1935.000000	42.293217
1934.000000	42.381468
1933.000000	42.505737
1932.000000	42.654145
1931.000000	42.682752
1930.000000	42.964680
1929.000000	43.081948
1928.000000	43.365935
1927.000000	43.572490
1926.000000	43.742368
1925.000000	43.936076
1924.000000	44.214525
1923.000000	44.399430
1922.000000	44.667477
1921.000000	44.938885
1920.000000	45.179163
1919.000000	45.608704
1918.000000	45.899394
1917.000000	46.103187
1916.000000	46.392753
1915.000000	46.737846
1914.000000	47.135660
1913.000000	47.489676
1912.000000	47.798841
1911.000000	48.078030
1910.000000	48.527005
1909.000000	48.862548
1908.000000	49.212042
1907.000000	49.659912
1906.000000	50.034150
1905.000000	50.506166
1904.000000	50.855403
1903.000000	51.204201
1902.000000	51.656382
1901.000000	52.154975
1900.000000	52.532033
1899.000000	52.896945
1898.000000	53.377036
1897.000000	53.807834
1896.000000	54.195503
1895.000000	54.551586
1894.000000	54.978342
1893.000000	55.356906
1892.000000	55.791121
1891.000000	56.150297
1890.000000	56.513163
1889.000000	56.810639
1888.000000	57.153773
1887.000000	57.506507
1886.000000	57.786089
1885.000000	58.107005
1884.000000	58.392397
1883.000000	58.713515
1882.000000	58.938669
1881.000000	59.172460
1880.000000	59.355007
1879.000000	59.610696
1878.000000	59.879745
1877.000000	60.126233
1876.000000	60.247219
1875.000000	60.444479
1874.000000	60.621457
1873.000000	60.737312
1872.000000	60.911072
1871.000000	61.060154
1870.000000	61.138802
1869.000000	61.249385
1868.000000	61.367237
1867.000000	61.401551
1866.000000	61.454367
1865.000000	61.551397
1864.000000	61.624924
1863.000000	61.652619
1862.000000	61.715198
1861.000000	61.758902
1860.000000	61.844612
1859.000000	61.843984
1858.000000	61.859745
1857.000000	61.889062
1856.000000	61.884558
1855.000000	61.925236
1854.000000	61.939312
1853.000000	61.970372
1852.000000	61.956548
1851.000000	61.979321
1850.000000	61.977704
1849.000000	61.954578
1848.000000	61.970885
1847.000000	61.985722
1846.000000	61.973430
1845.000000	61.956287
1844.000000	61.920809
1843.000000	61.837168
1842.000000	61.869678
1841.000000	61.907221
1840.000000	61.854970
1839.000000	61.801429
1838.000000	61.812585
1837.000000	61.785932
1836.000000	61.748113
1835.000000	61.734917
1834.000000	61.688539
1833.000000	61.653216
1832.000000	61.628962
1831.000000	61.597877
1830.000000	61.577739
1829.000000	61.550299
1828.000000	61.482641
1827.000000	61.452206
1826.000000	61.460597
1825.000000	61.444068
1824.000000	61.443391
1823.000000	61.416860
1822.000000	61.381553
1821.000000	61.353894
1820.000000	61.308456
1819.000000	61.267792
1818.000000	61.247949
1817.000000	61.245572
1816.000000	61.209687
1815.000000	61.207598
1814.000000	61.188145
1813.000000	61.136189
1812.000000	61.101306
1811.000000	61.085722
1810.000000	61.066234
1809.000000	61.034690
1808.000000	61.028797
1807.000000	60.991910
1806.000000	60.962585
1805.000000	60.947355
1804.000000	60.903121
1803.000000	60.892994
1802.000000	60.879340
1801.000000	60.847609
1800.000000	60.818440
1799.000000	60.792074
1798.000000	60.791767
1797.000000	60.781240
1796.000000	60.750377
1795.000000	60.734918
1794.000000	60.733679
1793.000000	60.703832
1792.000000	60.673331
1791.000000	60.655212
1790.000000	60.624540
1789.000000	60.590424
1788.000000	60.596789
1787.000000	60.564090
1786.000000	60.535277
1785.000000	60.550922
1784.000000	60.521084
1783.000000	60.473839
1782.000000	60.454505
1781.000000	60.430872
1780.000000	60.398964
1779.000000	60.381645
1778.000000	60.330943
1777.000000	60.286498
1776.000000	60.220879
1775.000000	60.174658
1774.000000	60.146674
1773.000000	60.094155
1772.000000	60.043799
1771.000000	60.011522
1770.000000	59.974380
1769.000000	59.912159
1768.000000	59.849931
1767.000000	59.821553
1766.000000	59.763453
1765.000000	59.725232
1764.000000	59.704176
1763.000000	59.628241
1762.000000	59.603086
1761.000000	59.556489
1760.000000	59.483822
1759.000000	59.423096
1758.000000	59.381844
1757.000000	59.322116
1756.000000	59.298848
1755.000000	59.252527
1754.000000	59.191281
1753.000000	59.172291
1752.000000	59.107836
1751.000000	59.055845
1750.000000	58.989478
1749.000000	58.976427
1748.000000	58.907995
1747.000000	58.849684
1746.000000	58.815241
1745.000000	58.734385
1744.000000	58.708305
1743.000000	58.660836
1742.000000	58.639132
1741.000000	58.587880
1740.000000	58.523715
1739.000000	58.472525
1738.000000	58.442089
1737.000000	58.393230
1736.000000	58.358580
1735.000000	58.347104
1734.000000	58.365600
1733.000000	58.340405
1732.000000	58.336594
1731.000000	58.394663
1730.000000	58.385273
1729.000000	58.395591
1728.000000	58.448309
1727.000000	58.477258
1726.000000	58.520235
1725.000000	58.557557
1724.000000	58.631382
1723.000000	58.718496
1722.000000	58.774006
1721.000000	58.853938
1720.000000	58.977261
1719.000000	59.046832
1718.000000	59.090356
1717.000000	59.174955
1716.000000	59.253352
1715.000000	59.277329
1714.000000	59.408499
1713.000000	59.463935
1712.000000	59.482274
1711.000000	59.561067
1710.000000	59.632351
1709.000000	59.644656
1708.000000	59.689050
1707.000000	59.763588
1706.000000	59.769486
1705.000000	59.794269
1704.000000	59.800271
1703.000000	59.827613
1702.000000	59.836740
1701.000000	59.859730
1700.000000	59.826764
1699.000000	59.851920
1698.000000	59.888625
1697.000000	59.890525
1696.000000	59.945008
1695.000000	59.931283
1694.000000	59.980573
1693.000000	60.026215
1692.000000	60.047274
1691.000000	60.115488
1690.000000	60.163421
1689.000000	60.242149
1688.000000	60.311194
1687.000000	60.408631
1686.000000	60.497661
1685.000000	60.588635
1684.000000	60.678162
1683.000000	60.821153
1682.000000	60.936594
1681.000000	61.080026
1680.000000	61.214733
1679.000000	61.340243
1678.000000	61.463349
1677.000000	61.613597
1676.000000	61.733830
1675.000000	61.893920
1674.000000	62.033653
1673.000000	62.153446
1672.000000	62.265891
1671.000000	62.400800
1670.000000	62.538534
1669.000000	62.688902
1668.000000	62.764713
1667.000000	62.890862
1666.000000	62.968679
1665.000000	63.052966
1664.000000	63.130022
1663.000000	63.202439
1662.000000	63.264450
1661.000000	63.305799
1660.000000	63.355996
1659.000000	63.426235
1658.000000	63.474180
1657.000000	63.493768
1656.000000	63.519429
1655.000000	63.556605
1654.000000	63.581093
1653.000000	63.601670
1652.000000	63.637534
1651.000000	63.620338
1650.000000	63.625413
1649.000000	63.630938
1648.000000	63.610564
1647.000000	63.620776
1646.000000	63.597574
1645.000000	63.597464
1644.000000	63.580019
1643.000000	63.567223
1642.000000	63.564052
1641.000000	63.545048
1640.000000	63.549702
1639.000000	63.530757
1638.000000	63.491345
1637.000000	63.481659
1636.000000	63.456512
1635.000000	63.424681
1634.000000	63.394432
1633.000000	63.368091
1632.000000	63.364416
1631.000000	63.353020
1630.000000	63.321955
1629.000000	63.282829
1628.000000	63.238387
1627.000000	63.201783
1626.000000	63.187788
1625.000000	63.151843
1624.000000	63.117228
1623.000000	63.097332
1622.000000	63.065964
1621.000000	63.017850
1620.000000	62.994897
1619.000000	62.946240
1618.000000	62.898018
1617.000000	62.881661
1616.000000	62.852462
1615.000000	62.808804
1614.000000	62.771936
1613.000000	62.741136
1612.000000	62.695369
1611.000000	62.647865
1610.000000	62.608464
1609.000000	62.572217
1608.000000	62.534161
1607.000000	62.483251
1606.000000	62.418126
1605.000000	62.382705
1604.000000	62.350837
1603.000000	62.301568
1602.000000	62.257450
1601.000000	62.210339
1600.000000	62.169431
1599.000000	62.129971
1598.000000	62.081186
1597.000000	62.036993
1596.000000	61.997684
1595.000000	61.959176
1594.000000	61.919965
1593.000000	61.872730
1592.000000	61.838260
1591.000000	61.813872
1590.000000	61.765874
1589.000000	61.720882
1588.000000	61.702638
1587.000000	61.667082
1586.000000	61.620102
1585.000000	61.580339
1584.000000	61.548777
1583.000000	61.519849
1582.000000	61.484170
1581.000000	61.455565
1580.000000	61.419925
1579.000000	61.389186
1578.000000	61.370017
1577.000000	61.327291
1576.000000	61.291848
1575.000000	61.269057
1574.000000	61.234796
1573.000000	61.210854
1572.000000	61.195439
1571.000000	61.142567
1570.000000	61.109918
1569.000000	61.085358
1568.000000	61.067730
1567.000000	61.034333
1566.000000	60.992822
1565.000000	60.975192
1564.000000	60.948353
1563.000000	60.938974
1562.000000	60.935524
1561.000000	60.902017
1560.000000	60.891976
1559.000000	60.881431
1558.000000	60.854649
1557.000000	60.845803
1556.000000	60.829094
1555.000000	60.815697
1554.000000	60.809429
1553.000000	60.794371
1552.000000	60.769485
1551.000000	60.744103
1550.000000	60.713306
1549.000000	60.679656
1548.000000	60.664441
1547.000000	60.629008
1546.000000	60.579651
1545.000000	60.540434
1544.000000	60.484228
1543.000000	60.442007
1542.000000	60.387573
1541.000000	60.318894
1540.000000	60.270634
1539.000000	60.215627
1538.000000	60.130094
1537.000000	60.056781
1536.000000	59.999170
1535.000000	59.924230
1534.000000	59.851741
1533.000000	59.798518
1532.000000	59.723564
1531.000000	59.647358
1530.000000	59.586245
1529.000000	59.519312
1528.000000	59.459947
1527.000000	59.396086
1526.000000	59.337220
1525.000000	59.292604
1524.000000	59.228517
1523.000000	59.184926
1522.000000	59.135855
1521.000000	59.088286
1520.000000	59.062378
1519.000000	58.985215
1518.000000	58.946125
1517.000000	58.912623
1516.000000	58.884229
1515.000000	58.854825
1514.000000	58.845180
1513.000000	58.841611
1512.000000	58.841975
1511.000000	58.810290
1510.000000	58.810349
1509.000000	58.785066
1508.000000	58.741073
1507.000000	58.688186
1506.000000	58.667595
1505.000000	58.637810
1504.000000	58.643972
1503.000000	58.643779
1502.000000	58.616217
1501.000000	58.619398
1500.000000	58.634500
1499.000000	58.638407
1498.000000	58.625306
1497.000000	58.642629
1496.000000	58.670427
1495.000000	58.673455
1494.000000	58.685438
1493.000000	58.702336
1492.000000	58.756048
1491.000000	58.798603
1490.000000	58.853475
1489.000000	58.891402
1488.000000	58.937583
1487.000000	58.981589
1486.000000	59.048732
1485.000000	59.119986
1484.000000	59.185963
1483.000000	59.249519
1482.000000	59.311536
1481.000000	59.363282
1480.000000	59.451951
1479.000000	59.518722
1478.000000	59.608583
1477.000000	59.672724
1476.000000	59.745554
1475.000000	59.798517
1474.000000	59.867233
1473.000000	59.943106
1472.000000	59.992512
1471.000000	60.055555
1470.000000	60.148316
1469.000000	60.212311
1468.000000	60.257468
1467.000000	60.300321
1466.000000	60.363321
1465.000000	60.386384
1464.000000	60.461220
1463.000000	60.503302
1462.000000	60.548930
1461.000000	60.585556
1460.000000	60.608551
1459.000000	60.681204
1458.000000	60.739462
1457.000000	60.777587
1456.000000	60.818099
1455.000000	60.869605
1454.000000	60.926717
1453.000000	60.976368
1452.000000	60.991735
1451.000000	61.035172
1450.000000	61.087650
1449.000000	61.158022
1448.000000	61.194395
1447.000000	61.255749
1446.000000	61.301124
1445.000000	61.345670
1444.000000	61.406244
1443.000000	61.497220
1442.000000	61.547219
1441.000000	61.583177
1440.000000	61.649318
1439.000000	61.709749
1438.000000	61.774611
1437.000000	61.855695
1436.000000	61.917294
1435.000000	61.988304
1434.000000	62.062437
1433.000000	62.118440
1432.000000	62.206551
1431.000000	62.267442
1430.000000	62.346185
1429.000000	62.419600
1428.000000	62.510662
1427.000000	62.608652
1426.000000	62.704974
1425.000000	62.794773
1424.000000	62.876001
1423.000000	62.977141
1422.000000	63.078688
1421.000000	63.174681
1420.000000	63.268721
1419.000000	63.373178
1418.000000	63.499121
1417.000000	63.601423
1416.000000	63.703594
1415.000000	63.832957
1414.000000	63.924718
1413.000000	64.045225
1412.000000	64.166013
1411.000000	64.284365
1410.000000	64.414070
1409.000000	64.511750
1408.000000	64.600671
1407.000000	64.710908
1406.000000	64.820981
1405.000000	64.955448
1404.000000	65.070604
1403.000000	65.166519
1402.000000	65.274347
1401.000000	65.376544
1400.000000	65.467929
1399.000000	65.565605
1398.000000	65.657101
1397.000000	65.744463
1396.000000	65.830183
1395.000000	65.921439
1394.000000	66.007848
1393.000000	66.091063
1392.000000	66.177276
1391.000000	66.244303
1390.000000	66.316313
1389.000000	66.391844
1388.000000	66.459702
1387.000000	66.527316
1386.000000	66.617816
1385.000000	66.699783
1384.000000	66.758154
1383.000000	66.813393
1382.000000	66.874455
1381.000000	66.916433
1380.000000	66.937977
1379.000000	67.004996
1378.000000	67.063849
1377.000000	67.090087
1376.000000	67.136493
1375.000000	67.179339
1374.000000	67.211146
1373.000000	67.227692
1372.000000	67.248422
1371.000000	67.292481
1370.000000	67.334429
1369.000000	67.355872
1368.000000	67.370313
1367.000000	67.402063
1366.000000	67.437905
1365.000000	67.459582
1364.000000	67.494347
1363.000000	67.531143
1362.000000	67.548681
1361.000000	67.580725
1360.000000	67.625632
1359.000000	67.648417
1358.000000	67.673658
1357.000000	67.746654
1356.000000	67.792448
1355.000000	67.814073
1354.000000	67.873494
1353.000000	67.887536
1352.000000	67.921875
1351.000000	67.976906
1350.000000	68.003652
1349.000000	68.050208
1348.000000	68.085306
1347.000000	68.111561
1346.000000	68.142530
1345.000000	68.169916
1344.000000	68.211312
1343.000000	68.248076
1342.000000	68.286353
1341.000000	68.302661
1340.000000	68.338343
1339.000000	68.368685
1338.000000	68.396073
1337.000000	68.417719
1336.000000	68.441812
1335.000000	68.460122
1334.000000	68.471628
1333.000000	68.495857
1332.000000	68.535373
1331.000000	68.526637
1330.000000	68.528858
1329.000000	68.576582
1328.000000	68.595441
1327.000000	68.631524
1326.000000	68.622326
1325.000000	68.639748
1324.000000	68.647229
1323.000000	68.663702
1322.000000	68.687322
1321.000000	68.679880
1320.000000	68.674514
1319.000000	68.665149
1318.000000	68.693263
1317.000000	68.735202
1316.000000	68.747878
1315.000000	68.713068
1314.000000	68.703524
1313.000000	68.738789
1312.000000	68.724882
1311.000000	68.754514
1310.000000	68.802183
1309.000000	68.783156
1308.000000	68.778576
1307.000000	68.764811
1306.000000	68.803972
1305.000000	68.806498
1304.000000	68.820652
1303.000000	68.804832
1302.000000	68.789419
1301.000000	68.828370
1300.000000	68.834011
1299.000000	68.835169
1298.000000	68.819449
1297.000000	68.813845
1296.000000	68.830190
1295.000000	68.843193
1294.000000	68.838734
1293.000000	68.828186
1292.000000	68.834129
1291.000000	68.830416
1290.000000	68.819202
1289.000000	68.827665
1288.000000	68.826090
1287.000000	68.799360
1286.000000	68.802685
1285.000000	68.790309
1284.000000	68.823408
1283.000000	68.813062
1282.000000	68.817458
1281.000000	68.804328
1280.000000	68.824771
1279.000000	68.811413
1278.000000	68.805099
1277.000000	68.806593
1276.000000	68.797206
1275.000000	68.771793
1274.000000	68.774034
1273.000000	68.786474
1272.000000	68.774053
1271.000000	68.794825
1270.000000	68.816106
1269.000000	68.805639
1268.000000	68.816550
1267.000000	68.835409
1266.000000	68.820678
1265.000000	68.833842
1264.000000	68.848586
1263.000000	68.838826
1262.000000	68.837502
1261.000000	68.868828
1260.000000	68.846892
1259.000000	68.863076
1258.000000	68.890743
1257.000000	68.862971
1256.000000	68.871899
1255.000000	68.878011
1254.000000	68.904100
1253.000000	68.884527
1252.000000	68.890124
1251.000000	68.902652
1250.000000	68.887356
1249.000000	68.889552
1248.000000	68.896917
1247.000000	68.880731
1246.000000	68.894270
1245.000000	68.886379
1244.000000	68.867581
1243.000000	68.874958
1242.000000	68.883371
1241.000000	68.855119
1240.000000	68.845761
1239.000000	68.833590
1238.000000	68.841911
1237.000000	68.814571
1236.000000	68.814199
1235.000000	68.779873
1234.000000	68.772449
1233.000000	68.776891
1232.000000	68.755970
1231.000000	68.752469
1230.000000	68.741323
1229.000000	68.721213
1228.000000	68.714836
1227.000000	68.712059
1226.000000	68.703333
1225.000000	68.693322
1224.000000	68.700505
1223.000000	68.666647
1222.000000	68.664954
1221.000000	68.651408
1220.000000	68.634267
1219.000000	68.617527
1218.000000	68.610402
1217.000000	68.584339
1216.000000	68.575180
1215.000000	68.558729
1214.000000	68.528989
1213.000000	68.532284
1212.000000	68.493251
1211.000000	68.510630
1210.000000	68.483482
1209.000000	68.477289
1208.000000	68.436463
1207.000000	68.430379
1206.000000	68.414858
1205.000000	68.365016
1204.000000	68.376846
1203.000000	68.359148
1202.000000	68.320127
1201.000000	68.327355
1200.000000	68.303747
1199.000000	68.277356
1198.000000	68.238062
1197.000000	68.220692
1196.000000	68.223307
1195.000000	68.199708
1194.000000	68.177727
1193.000000	68.158859
1192.000000	68.151204
1191.000000	68.138585
1190.000000	68.123604
1189.000000	68.106290
1188.000000	68.085192
1187.000000	68.090493
1186.000000	68.076905
1185.000000	68.086328
1184.000000	68.086780
1183.000000	68.095029
1182.000000	68.101508
1181.000000	68.106134
1180.000000	68.125217
1179.000000	68.154093
1178.000000	68.174823
1177.000000	68.188684
1176.000000	68.212815
1175.000000	68.255096
1174.000000	68.274646
1173.000000	68.296456
1172.000000	68.336776
1171.000000	68.364611
1170.000000	68.393305
1169.000000	68.420656
1168.000000	68.453606
1167.000000	68.514617
1166.000000	68.564640
1165.000000	68.594935
1164.000000	68.637271
1163.000000	68.679239
1162.000000	68.721145
1161.000000	68.769086
1160.000000	68.808530
1159.000000	68.842529
1158.000000	68.903342
1157.000000	68.941099
1156.000000	68.966046
1155.000000	69.008364
1154.000000	69.028965
1153.000000	69.046237
1152.000000	69.071820
1151.000000	69.099622
1150.000000	69.126191
1149.000000	69.160318
1148.000000	69.192401
1147.000000	69.213019
1146.000000	69.236841
1145.000000	69.257580
1144.000000	69.283590
1143.000000	69.318684
1142.000000	69.342596
1141.000000	69.355470
1140.000000	69.377249
1139.000000	69.402736
1138.000000	69.437232
1137.000000	69.453247
1136.000000	69.463197
1135.000000	69.482341
1134.000000	69.499652
1133.000000	69.527587
1132.000000	69.532372
1131.000000	69.549164
1130.000000	69.567791
1129.000000	69.587661
1128.000000	69.604502
1127.000000	69.619715
1126.000000	69.628233
1125.000000	69.655387
1124.000000	69.656325
1123.000000	69.665088
1122.000000	69.681649
1121.000000	69.687216
1120.000000	69.689394
1119.000000	69.702009
1118.000000	69.700268
1117.000000	69.703043
1116.000000	69.698864
1115.000000	69.700675
1114.000000	69.720088
1113.000000	69.731824
1112.000000	69.735488
1111.000000	69.724675
1110.000000	69.720269
1109.000000	69.727422
1108.000000	69.753189
1107.000000	69.748654
1106.000000	69.741964
1105.000000	69.746367
1104.000000	69.740955
1103.000000	69.746904
1102.000000	69.731916
1101.000000	69.745490
1100.000000	69.745387
1099.000000	69.754279
1098.000000	69.755752
1097.000000	69.758948
1096.000000	69.766671
1095.000000	69.758069
1094.000000	69.745864
1093.000000	69.758663
1092.000000	69.752139
1091.000000	69.762721
1090.000000	69.758118
1089.000000	69.770003
1088.000000	69.765178
1087.000000	69.752017
1086.000000	69.744139
1085.000000	69.750842
1084.000000	69.748475
1083.000000	69.756938
1082.000000	69.769683
1081.000000	69.767740
1080.000000	69.740182
1079.000000	69.746585
1078.000000	69.752668
1077.000000	69.746425
1076.000000	69.747851
1075.000000	69.739639
1074.000000	69.754536
1073.000000	69.734520
1072.000000	69.738947
1071.000000	69.736854
1070.000000	69.726814
1069.000000	69.727124
1068.000000	69.720570
1067.000000	69.721989
1066.000000	69.697003
1065.000000	69.703316
1064.000000	69.701814
1063.000000	69.706122
1062.000000	69.696949
1061.000000	69.700208
1060.000000	69.697728
1059.000000	69.684005
1058.000000	69.697281
1057.000000	69.697743
1056.000000	69.695781
1055.000000	69.696155
1054.000000	69.678658
1053.000000	69.672036
1052.000000	69.669341
1051.000000	69.671686
1050.000000	69.659851
1049.000000	69.663986
1048.000000	69.645859
1047.000000	69.646633
1046.000000	69.651069
1045.000000	69.658406
1044.000000	69.661242
1043.000000	69.643427
1042.000000	69.627164
1041.000000	69.622833
1040.000000	69.629136
1039.000000	69.625214
1038.000000	69.629115
1037.000000	69.625207
1036.000000	69.629618
1035.000000	69.625283
1034.000000	69.620064
1033.000000	69.617376
1032.000000	69.614650
1031.000000	69.633093
1030.000000	69.619231
1029.000000	69.622226
1028.000000	69.634043
1027.000000	69.636648
1026.000000	69.637112
1025.000000	69.625768
1024.000000	69.616058
1023.000000	69.645489
1022.000000	69.634555
1021.000000	69.643665
1020.000000	69.635792
1019.000000	69.653134
1018.000000	69.622975
1017.000000	69.639834
1016.000000	69.650899
1015.000000	69.649122
1014.000000	69.651501
1013.000000	69.651774
1012.000000	69.655947
1011.000000	69.657317
1010.000000	69.676174
1009.000000	69.670277
1008.000000	69.676930
1007.000000	69.675382
1006.000000	69.676063
1005.000000	69.672980
1004.000000	69.684340
1003.000000	69.692499
1002.000000	69.692362
1001.000000	69.687211
1000.000000	69.706192
999.000000	69.698421
998.000000	69.713598
997.000000	69.712333
996.000000	69.728517
995.000000	69.723418
994.000000	69.733726
993.000000	69.751833
992.000000	69.746259
991.000000	69.758957
990.000000	69.765606
989.000000	69.774429
988.000000	69.763545
987.000000	69.780887
986.000000	69.796224
985.000000	69.799505
984.000000	69.792700
983.000000	69.808941
982.000000	69.814619
981.000000	69.819260
980.000000	69.814585
979.000000	69.814427
978.000000	69.827107
977.000000	69.839840
976.000000	69.829679
975.000000	69.831691
974.000000	69.845695
973.000000	69.854787
972.000000	69.846285
971.000000	69.835923
970.000000	69.859418
969.000000	69.864526
968.000000	69.873081
967.000000	69.873212
966.000000	69.876097
965.000000	69.883148
964.000000	69.895557
963.000000	69.905818
962.000000	69.905430
961.000000	69.902182
960.000000	69.909981
959.000000	69.915765
958.000000	69.910516
957.000000	69.925021
956.000000	69.932013
955.000000	69.942531
954.000000	69.952994
953.000000	69.944030
952.000000	69.951393
951.000000	69.956552
950.000000	69.949052
949.000000	69.943621
948.000000	69.943671
947.000000	69.955165
946.000000	69.975957
945.000000	69.976542
944.000000	69.970574
943.000000	69.981011
942.000000	69.973290
941.000000	69.968424
940.000000	70.002134
939.000000	70.024829
938.000000	70.009745
937.000000	70.000886
936.000000	70.001347
935.000000	70.014642
934.000000	70.020202
933.000000	69.994359
932.000000	69.971979
931.000000	69.986293
930.000000	69.994295
929.000000	70.006638
928.000000	70.056304
927.000000	70.045340
926.000000	70.006453
925.000000	70.017100
924.000000	69.988553
923.000000	69.987243
922.000000	69.997501
921.000000	70.003662
920.000000	70.019069
919.000000	69.991871
918.000000	70.000381
917.000000	70.011054
916.000000	70.021361
915.000000	70.014771
914.000000	69.988494
913.000000	69.979564
912.000000	70.006613
911.000000	70.001275
910.000000	70.015728
909.000000	70.000332
908.000000	70.012560
907.000000	70.039988
906.000000	70.059023
905.000000	70.030604
904.000000	69.998282
903.000000	70.049825
902.000000	70.069835
901.000000	70.030336
900.000000	70.024556
899.000000	70.023678
898.000000	70.030506
897.000000	70.055601
896.000000	70.109328
895.000000	70.098827
894.000000	70.083635
893.000000	70.073957
892.000000	70.068891
891.000000	70.089635
890.000000	70.077028
889.000000	70.113990
888.000000	70.134538
887.000000	70.066159
886.000000	70.096502
885.000000	70.088223
884.000000	70.091690
883.000000	70.069347
882.000000	70.152998
881.000000	70.081184
880.000000	70.133476
879.000000	70.218336
878.000000	70.230677
877.000000	70.161860
876.000000	70.166996
875.000000	70.166396
874.000000	70.198342
873.000000	70.157916
872.000000	70.100925
871.000000	70.230023
870.000000	70.194742
869.000000	70.152588
868.000000	70.137271
867.000000	70.167362
866.000000	70.252836
865.000000	70.337238
864.000000	70.197001
863.000000	70.241958
862.000000	70.245895
861.000000	70.228743
860.000000	70.231191
859.000000	69.769932
858.000000	70.047195
857.000000	69.718373
856.000000	70.033152
855.000000	69.793096
854.000000	69.967693
853.000000	69.852620
852.000000	69.749553
851.000000	69.689348
850.000000	69.942923
849.000000	69.821888
848.000000	69.970344
847.000000	69.463157
846.000000	69.770238
845.000000	69.852912
844.000000	69.993745
843.000000	69.840115
842.000000	69.700621
841.000000	69.636344
840.000000	69.854371
839.000000	69.937793
838.000000	70.072192
837.000000	70.003973
836.000000	70.021780
835.000000	69.863233
834.000000	69.856786
833.000000	69.797645
832.000000	69.819943
831.000000	69.535768
830.000000	70.006084
829.000000	69.860717
828.000000	69.871548
827.000000	69.859916
826.000000	69.849349
825.000000	69.708264
824.000000	69.883885
823.000000	69.902503
822.000000	69.657286
821.000000	69.737002
820.000000	69.800311
819.000000	69.902919
818.000000	69.899361
817.000000	69.749460
816.000000	69.798559
815.000000	69.745645
814.000000	69.843219
813.000000	70.024473
812.000000	70.031041
811.000000	69.871549
810.000000	69.936181
809.000000	69.714459
808.000000	69.852666
807.000000	69.772844
806.000000	69.884285
805.000000	69.911501
804.000000	69.777067
803.000000	69.916101
802.000000	69.881466
801.000000	69.865873
800.000000	69.791852
799.000000	69.833961
798.000000	69.753337
797.000000	69.709453
796.000000	69.758003
795.000000	69.838552
794.000000	69.913150
793.000000	69.915787
792.000000	69.912973
791.000000	69.718760
790.000000	69.762534
789.000000	69.998276
788.000000	69.926023
787.000000	69.933090
786.000000	69.933830
785.000000	69.971622
784.000000	69.944188
783.000000	69.933179
782.000000	69.863377
781.000000	70.034766
780.000000	69.941337
779.000000	69.960777
778.000000	69.944577
777.000000	69.978210
776.000000	69.912868
775.000000	69.950091
774.000000	69.982696
773.000000	69.849025
772.000000	69.820135
771.000000	69.867945
770.000000	69.860754
769.000000	69.939697
768.000000	69.922025
767.000000	70.005804
766.000000	69.922929
765.000000	69.904638
764.000000	69.861768
763.000000	69.895575
762.000000	69.905128
761.000000	69.847668
760.000000	69.891762
759.000000	69.985387
758.000000	69.848212
757.000000	69.815639
756.000000	69.890122
755.000000	69.881542
754.000000	69.906306
753.000000	69.852536
752.000000	69.840891
751.000000	69.915880
750.000000	69.919757
749.000000	69.916492
748.000000	69.867761
747.000000	69.979386
746.000000	69.901725
745.000000	69.861529
744.000000	69.905400
743.000000	69.896866
742.000000	69.882598
741.000000	69.942798
740.000000	69.862758
739.000000	69.861155
738.000000	69.835459
737.000000	69.864398
736.000000	69.950198
735.000000	69.922768
734.000000	69.893644
733.000000	69.902189
732.000000	69.842045
731.000000	69.862182
730.000000	69.881961
729.000000	69.859344
728.000000	69.872564
727.000000	69.854128
726.000000	69.867442
725.000000	69.837194
724.000000	69.875800
723.000000	69.906226
722.000000	69.883497
721.000000	69.881406
720.000000	69.875926
719.000000	69.872711
718.000000	69.885397
717.000000	69.876578
716.000000	69.928383
715.000000	69.940112
714.000000	69.913350
713.000000	69.914601
712.000000	69.931209
711.000000	69.962999
710.000000	69.906689
709.000000	69.888233
708.000000	69.889577
707.000000	69.842370
706.000000	69.835970
705.000000	69.837013
704.000000	69.838078
703.000000	69.911108
702.000000	69.936215
701.000000	69.923917
700.000000	69.954552
699.000000	69.919654
698.000000	69.901705
697.000000	69.905548
696.000000	69.927300
695.000000	69.955358
694.000000	69.944242
693.000000	69.934693
692.000000	69.909780
691.000000	69.945203
690.000000	69.967287
689.000000	69.880929
688.000000	69.839548
687.000000	69.838614
686.000000	69.821862
685.000000	69.813417
684.000000	69.798013
683.000000	69.898921
682.000000	69.924571
681.000000	69.875720
680.000000	69.862269
679.000000	69.839819
678.000000	69.880164
677.000000	69.889466
676.000000	69.879872
675.000000	69.897751
674.000000	69.904643
673.000000	69.914673
672.000000	69.907710
671.000000	69.890195
670.000000	69.812604
669.000000	69.863259
668.000000	69.892233
667.000000	69.882351
666.000000	69.923046
665.000000	69.931071
664.000000	69.880851
663.000000	69.818377
662.000000	69.806344
661.000000	69.825681
660.000000	69.870982
659.000000	69.896058
658.000000	69.874599
657.000000	69.880926
656.000000	69.904662
655.000000	69.941936
654.000000	69.917705
653.000000	69.880792
652.000000	69.890105
651.000000	69.933159
650.000000	69.938119
649.000000	69.896435
648.000000	69.923480
647.000000	69.960393
646.000000	69.932149
645.000000	69.970497
644.000000	69.967950
643.000000	69.884103
642.000000	69.852890
641.000000	69.886366
640.000000	69.855216
639.000000	69.949571
638.000000	69.912075
637.000000	69.887206
636.000000	69.872692
635.000000	69.897905
634.000000	69.901854
633.000000	69.858426
632.000000	69.857976
631.000000	69.941720
630.000000	69.949961
629.000000	69.932799
628.000000	69.906066
627.000000	69.902949
626.000000	69.934222
625.000000	69.977311
624.000000	69.938493
623.000000	69.904981
622.000000	69.901304
621.000000	69.871244
620.000000	69.882369
619.000000	69.842469
618.000000	69.956696
617.000000	69.932052
616.000000	69.886444
615.000000	69.910735
614.000000	69.882398
613.000000	69.965946
612.000000	69.890913
611.000000	69.974181
610.000000	69.855870
609.000000	69.881221
608.000000	69.873770
607.000000	69.906702
606.000000	69.906199
605.000000	69.876014
604.000000	69.864487
603.000000	69.871721
602.000000	69.840669
601.000000	69.873746
600.000000	69.895823
599.000000	69.828782
598.000000	69.884567
597.000000	69.832584
596.000000	69.819184
595.000000	69.877825
594.000000	69.844144
593.000000	69.910351
592.000000	69.803392
591.000000	69.792608
590.000000	69.819759
589.000000	69.763195
588.000000	69.895693
587.000000	69.866914
586.000000	69.901965
585.000000	69.809582
584.000000	69.782238
583.000000	69.742688
582.000000	69.756827
581.000000	69.837816
580.000000	69.815632
579.000000	69.799538
578.000000	69.739674
577.000000	69.759785
576.000000	69.786349
575.000000	69.768976
574.000000	69.698475
573.000000	69.769513
572.000000	69.759634
571.000000	69.688923
570.000000	69.697939
569.000000	69.708494
568.000000	69.691127
567.000000	69.720850
566.000000	69.655730
565.000000	69.683714
564.000000	69.668683
563.000000	69.729367
562.000000	69.613773
561.000000	69.605909
560.000000	69.573671
559.000000	69.648519
558.000000	69.591005
557.000000	69.605521
556.000000	69.584215
555.000000	69.614235
554.000000	69.577857
553.000000	69.609036
552.000000	69.565201
551.000000	69.622644
550.000000	69.514253
549.000000	69.477544
548.000000	69.517880
547.000000	69.566469
546.000000	69.478743
545.000000	69.507155
544.000000	69.490300
543.000000	69.496645
542.000000	69.439102
541.000000	69.449086
540.000000	69.363306
539.000000	69.377472
538.000000	69.418525
537.000000	69.355740
536.000000	69.360223
535.000000	69.333559
534.000000	69.348624
533.000000	69.321020
532.000000	69.329616
531.000000	69.289037
530.000000	69.280524
529.000000	69.308359
528.000000	69.220843
527.000000	69.207309
526.000000	69.216575
525.000000	69.168129
524.000000	69.158400
523.000000	69.158978
522.000000	69.149508
521.000000	69.146366
520.000000	69.092445
519.000000	69.110652
518.000000	69.048465
517.000000	69.087341
516.000000	69.033675
515.000000	69.046577
514.000000	69.019337
513.000000	68.971060
512.000000	68.982941
511.000000	68.926315
510.000000	68.912128
509.000000	68.963024
508.000000	68.881755
507.000000	68.854104
506.000000	68.855969
505.000000	68.860647
504.000000	68.795448
503.000000	68.783976
502.000000	68.755618
501.000000	68.737369
500.000000	68.702998
499.000000	68.707047
498.000000	68.695457
497.000000	68.681390
496.000000	68.630779
495.000000	68.626336
494.000000	68.635545
493.000000	68.578840
492.000000	68.533398
491.000000	68.474056
490.000000	68.394869
489.000000	68.437655
488.000000	68.425643
487.000000	68.351310
486.000000	68.267213
485.000000	68.252716
484.000000	68.368559
483.000000	68.415124
482.000000	68.324757
481.000000	68.296341
480.000000	68.241302
479.000000	68.229994
478.000000	68.190429
477.000000	68.158188
476.000000	68.138272
475.000000	68.073698
474.000000	68.002686
473.000000	67.982983
472.000000	67.975532
471.000000	67.941105
470.000000	67.866220
469.000000	67.869790
468.000000	67.822721
467.000000	67.755320
466.000000	67.698137
465.000000	67.604765
464.000000	67.587550
463.000000	67.587921
462.000000	67.542810
461.000000	67.520656
460.000000	67.450445
459.000000	67.383740
458.000000	67.362725
457.000000	67.271700
456.000000	67.180896
455.000000	67.146930
454.000000	67.154459
453.000000	67.142951
452.000000	67.051476
451.000000	66.975724
450.000000	66.941597
449.000000	66.844361
448.000000	66.795803
447.000000	66.774744
446.000000	66.666978
445.000000	66.541117
444.000000	66.497738
443.000000	66.466716
442.000000	66.402752
441.000000	66.324990
440.000000	66.281618
439.000000	66.214827
438.000000	66.129133
437.000000	66.016006
436.000000	65.932654
435.000000	65.845167
434.000000	65.745940
433.000000	65.672198
432.000000	65.598075
431.000000	65.543595
430.000000	65.420472
429.000000	65.334066
428.000000	65.274504
427.000000	65.102187
426.000000	65.007475
425.000000	64.948328
424.000000	64.882174
423.000000	64.756227
422.000000	64.595358
421.000000	64.459857
420.000000	64.387951
419.000000	64.247398
418.000000	64.121623
417.000000	64.001522
416.000000	63.924962
415.000000	63.759925
414.000000	63.653401
413.000000	63.523734
412.000000	63.356517
411.000000	63.220485
410.000000	63.118854
409.000000	62.958937
408.000000	62.766150
407.000000	62.608005
406.000000	62.511786
405.000000	62.333327
404.000000	62.175685
403.000000	61.999820
402.000000	61.930393
401.000000	61.682995
400.000000	61.604260
399.000000	61.439579
398.000000	61.264923
397.000000	61.155517
396.000000	61.024046
395.000000	60.786542
394.000000	60.582573
393.000000	60.479583
392.000000	60.371855
391.000000	60.187807
390.000000	60.014785
389.000000	59.825727
388.000000	59.579709
387.000000	59.397139
386.000000	59.210537
385.000000	59.033036
384.000000	58.836155
383.000000	58.659775
382.000000	58.421851
381.000000	58.179524
380.000000	58.130864
379.000000	57.858559
378.000000	57.517579
377.000000	57.270949
376.000000	57.233205
375.000000	57.073672
374.000000	56.740079
373.000000	56.460869
372.000000	56.203037
371.000000	56.174059
370.000000	56.003933
369.000000	55.509973
368.000000	55.206638
367.000000	55.050699
366.000000	54.751252
365.000000	54.565732
364.000000	54.295686
363.000000	54.050087
362.000000	53.751273
361.000000	53.612381
360.000000	53.292095
359.000000	53.027285
358.000000	52.758158
357.000000	52.581489
356.000000	52.313332
355.000000	51.920746
354.000000	51.923597
353.000000	51.496352
352.000000	51.229460
351.000000	51.072621
350.000000	50.833332
349.000000	50.493205
348.000000	50.375147
347.000000	49.925857
346.000000	49.739366
345.000000	49.404925
344.000000	49.056447
343.000000	48.756933
342.000000	48.422495
341.000000	48.209365
340.000000	47.925815
339.000000	47.262241
338.000000	46.740530
337.000000	46.315642
336.000000	46.079532
335.000000	45.664437
334.000000	45.012240
333.000000	44.652952
332.000000	44.038115
331.000000	43.678217
330.000000	43.362113
329.000000	42.870033
328.000000	42.254507
327.000000	41.654933
326.000000	41.316969
325.000000	41.013825
324.000000	40.650353
323.000000	40.151523
322.000000	40.000205
321.000000	39.649845
320.000000	39.040751
319.000000	39.189243
318.000000	38.720535
317.000000	38.376277
316.000000	38.105157
315.000000	37.972595
314.000000	37.818089
313.000000	37.577265
312.000000	37.358007
311.000000	37.052899
310.000000	36.923954
309.000000	36.713337
308.000000	36.496956
307.000000	36.302045
306.000000	36.167795
305.000000	35.941475
304.000000	35.855530
303.000000	35.572330
302.000000	35.405839
301.000000	35.105332
300.000000	34.919697
299.000000	34.605708
298.000000	34.248577
297.000000	33.741157
296.000000	33.492657
295.000000	32.971670
294.000000	32.397602
293.000000	31.602603
292.000000	30.701396
291.000000	29.668359
290.000000	28.803636
289.000000	27.893811
288.000000	27.171230
287.000000	26.571484
286.000000	26.082020
285.000000	25.870702
284.000000	25.659343
283.000000	25.697550
282.000000	25.611039
281.000000	25.490840
280.000000	25.434761
279.000000	25.579403
278.000000	25.683267
277.000000	25.786936
276.000000	26.087059
275.000000	26.399408
274.000000	26.615150
273.000000	26.872228
272.000000	27.182269
271.000000	27.284324
270.000000	27.311882
269.000000	27.466567
268.000000	27.702867
267.000000	28.180947
266.000000	28.298269
265.000000	28.443923
264.000000	28.846199
263.000000	29.295504
262.000000	29.577229
261.000000	29.751150
260.000000	29.990063
259.000000	30.290724
258.000000	30.775373
257.000000	31.034112
256.000000	31.366382
255.000000	31.642961
254.000000	31.736454
253.000000	31.544247
252.000000	31.401713
251.000000	31.354665
250.000000	30.923967
249.000000	30.284485
248.000000	29.475082
247.000000	28.578711
246.000000	27.482023
245.000000	26.359546
244.000000	25.140462
243.000000	23.873315
242.000000	22.640929
241.000000	21.549190
240.000000	20.627650
239.000000	19.865550
238.000000	19.314352
237.000000	18.869824
236.000000	18.481936
235.000000	18.335097
234.000000	18.265363
233.000000	18.144163
232.000000	18.110844
231.000000	18.098907
230.000000	18.006292
229.000000	17.984245
228.000000	18.017592
227.000000	18.128144
226.000000	18.283337
225.000000	18.408901
224.000000	18.522726
223.000000	18.608568
222.000000	18.809426
221.000000	19.127124
220.000000	19.489346
219.000000	19.776251
218.000000	19.912685
217.000000	20.118783
216.000000	20.440284
215.000000	20.834480
214.000000	21.135859
213.000000	21.517854
212.000000	21.938129
211.000000	22.286493
210.000000	22.661188
209.000000	23.134872
208.000000	23.699538
207.000000	24.235315
206.000000	24.637611
205.000000	25.144773
204.000000	25.827719
203.000000	26.113658
202.000000	26.666321
201.000000	27.402650
200.000000	27.926134
