PE UV       SUBTECH     SPECTRUM    ASCII       PEDS        4.00        
   -1
RTAgneauUK 32.Sample.asc
18/03/02
15:39:59.00
18/03/02
15:39:59.00
Administrator

200.000000
1
Lambda 750
750N8071901
PerkinElmer UV WinLab 6.0.4.0738 / 1.61.00 Lambda 900

0
0
3350/servo 860.8/2
0
0
UV/VIS
1
1
1
CommonBeamDepol,150mm sphere / downward view
0
0
0
0
Program
Program
3350/servo 860.8/2
3350/0.2 860.8/0.2
3350/0.2 860.8/0.2
0
1
 
 
 
0
 
860.8
319.2
860.8
Front
100
on
 
 
0
0
0
 
0
 
 
 
0
 
 
0
0
0
0
0
 
 
 
 
0
0


0
0
#HDR
-1
-1
#GR
nm
%R
1.0
0.0
2350.000000
-1.000000
2151
8
72.910029
17.424090
#DATA
2350.000000	41.425017
2349.000000	41.284196
2348.000000	41.307986
2347.000000	41.822299
2346.000000	41.744795
2345.000000	41.421190
2344.000000	41.495091
2343.000000	40.981380
2342.000000	41.481695
2341.000000	41.497744
2340.000000	41.684382
2339.000000	41.607058
2338.000000	41.754685
2337.000000	41.541979
2336.000000	41.967181
2335.000000	41.919824
2334.000000	42.016768
2333.000000	42.030889
2332.000000	42.022739
2331.000000	41.845876
2330.000000	41.766716
2329.000000	41.867636
2328.000000	41.767789
2327.000000	41.931525
2326.000000	41.866911
2325.000000	41.846698
2324.000000	41.735059
2323.000000	41.672564
2322.000000	41.570013
2321.000000	41.519209
2320.000000	41.342084
2319.000000	41.219608
2318.000000	41.260947
2317.000000	41.274075
2316.000000	41.354408
2315.000000	41.212905
2314.000000	41.053277
2313.000000	41.019793
2312.000000	41.103328
2311.000000	41.047237
2310.000000	40.908237
2309.000000	40.806249
2308.000000	40.798450
2307.000000	40.894894
2306.000000	40.558999
2305.000000	40.420955
2304.000000	40.425262
2303.000000	40.397752
2302.000000	40.103833
2301.000000	40.041790
2300.000000	39.938559
2299.000000	39.796034
2298.000000	39.797603
2297.000000	39.623650
2296.000000	39.631817
2295.000000	39.688740
2294.000000	39.444383
2293.000000	39.168753
2292.000000	39.088739
2291.000000	39.143364
2290.000000	39.014052
2289.000000	38.999014
2288.000000	38.885822
2287.000000	38.877598
2286.000000	38.813505
2285.000000	38.708542
2284.000000	38.672253
2283.000000	38.578940
2282.000000	38.571925
2281.000000	38.659663
2280.000000	38.642198
2279.000000	38.704690
2278.000000	38.713575
2277.000000	38.729470
2276.000000	38.758834
2275.000000	38.671331
2274.000000	38.645676
2273.000000	38.774346
2272.000000	38.911400
2271.000000	38.981854
2270.000000	39.010887
2269.000000	39.068616
2268.000000	39.068308
2267.000000	39.071206
2266.000000	39.199896
2265.000000	39.245589
2264.000000	39.326682
2263.000000	39.521980
2262.000000	39.756985
2261.000000	39.909186
2260.000000	39.971904
2259.000000	40.103455
2258.000000	40.402298
2257.000000	40.649653
2256.000000	40.900092
2255.000000	41.049311
2254.000000	41.214335
2253.000000	41.388984
2252.000000	41.562308
2251.000000	41.817472
2250.000000	41.897473
2249.000000	42.124794
2248.000000	42.569269
2247.000000	42.777869
2246.000000	42.908266
2245.000000	43.116941
2244.000000	43.268313
2243.000000	43.529547
2242.000000	43.791848
2241.000000	43.883723
2240.000000	43.978925
2239.000000	44.176432
2238.000000	44.413317
2237.000000	44.527288
2236.000000	44.550605
2235.000000	44.635518
2234.000000	44.749270
2233.000000	44.884544
2232.000000	44.897815
2231.000000	44.967338
2230.000000	45.038869
2229.000000	45.052289
2228.000000	45.138048
2227.000000	45.187922
2226.000000	45.175334
2225.000000	45.023854
2224.000000	45.009916
2223.000000	45.121483
2222.000000	45.141914
2221.000000	45.135143
2220.000000	45.078547
2219.000000	45.057987
2218.000000	44.956067
2217.000000	44.893126
2216.000000	44.868248
2215.000000	44.852156
2214.000000	44.855143
2213.000000	44.885126
2212.000000	44.820036
2211.000000	44.682884
2210.000000	44.627478
2209.000000	44.524195
2208.000000	44.414898
2207.000000	44.378042
2206.000000	44.400716
2205.000000	44.265130
2204.000000	44.237269
2203.000000	44.213320
2202.000000	44.167261
2201.000000	44.014424
2200.000000	43.917072
2199.000000	43.744515
2198.000000	43.725700
2197.000000	43.737123
2196.000000	43.661905
2195.000000	43.500671
2194.000000	43.288346
2193.000000	43.339218
2192.000000	43.325767
2191.000000	43.351787
2190.000000	43.220569
2189.000000	43.219067
2188.000000	43.052303
2187.000000	42.907416
2186.000000	43.028819
2185.000000	42.947970
2184.000000	42.905461
2183.000000	42.962271
2182.000000	42.989173
2181.000000	42.745058
2180.000000	42.571734
2179.000000	42.651611
2178.000000	42.543098
2177.000000	42.627353
2176.000000	42.744370
2175.000000	42.706464
2174.000000	42.788145
2173.000000	42.755736
2172.000000	42.809458
2171.000000	42.816317
2170.000000	42.895836
2169.000000	43.033715
2168.000000	43.141667
2167.000000	43.113809
2166.000000	43.251072
2165.000000	43.288071
2164.000000	43.307646
2163.000000	43.504358
2162.000000	43.623100
2161.000000	43.672390
2160.000000	43.911751
2159.000000	44.046245
2158.000000	44.183384
2157.000000	44.262005
2156.000000	44.541283
2155.000000	44.839098
2154.000000	44.843276
2153.000000	45.167856
2152.000000	45.091421
2151.000000	45.280515
2150.000000	45.666317
2149.000000	45.544420
2148.000000	45.817309
2147.000000	46.005471
2146.000000	46.121797
2145.000000	46.386601
2144.000000	46.545799
2143.000000	46.684133
2142.000000	46.595277
2141.000000	47.035397
2140.000000	47.153063
2139.000000	47.218449
2138.000000	47.563303
2137.000000	47.447849
2136.000000	47.594435
2135.000000	47.877829
2134.000000	47.977151
2133.000000	47.904480
2132.000000	48.094596
2131.000000	48.421274
2130.000000	48.410263
2129.000000	48.323041
2128.000000	48.485794
2127.000000	48.617534
2126.000000	48.600461
2125.000000	48.507171
2124.000000	48.746936
2123.000000	48.821248
2122.000000	48.826507
2121.000000	48.734417
2120.000000	48.725034
2119.000000	49.017746
2118.000000	49.081912
2117.000000	49.015326
2116.000000	49.051087
2115.000000	49.264240
2114.000000	49.166265
2113.000000	49.210264
2112.000000	49.306132
2111.000000	49.322903
2110.000000	49.238731
2109.000000	49.285954
2108.000000	49.413649
2107.000000	49.377806
2106.000000	49.368712
2105.000000	49.415399
2104.000000	49.393439
2103.000000	49.579474
2102.000000	49.601438
2101.000000	49.477209
2100.000000	49.529797
2099.000000	49.495874
2098.000000	49.435307
2097.000000	49.510584
2096.000000	49.472087
2095.000000	49.438455
2094.000000	49.465548
2093.000000	49.419878
2092.000000	49.481069
2091.000000	49.518582
2090.000000	49.394897
2089.000000	49.385650
2088.000000	49.401958
2087.000000	49.384452
2086.000000	49.427450
2085.000000	49.299507
2084.000000	49.144825
2083.000000	49.147960
2082.000000	49.107933
2081.000000	49.073622
2080.000000	49.072999
2079.000000	49.114297
2078.000000	48.948585
2077.000000	48.828560
2076.000000	48.734249
2075.000000	48.567100
2074.000000	48.434207
2073.000000	48.406185
2072.000000	48.371267
2071.000000	48.223550
2070.000000	48.103673
2069.000000	47.956147
2068.000000	47.704664
2067.000000	47.556919
2066.000000	47.471629
2065.000000	47.350387
2064.000000	47.245949
2063.000000	47.015728
2062.000000	46.827984
2061.000000	46.670043
2060.000000	46.486708
2059.000000	46.356568
2058.000000	46.252012
2057.000000	46.056060
2056.000000	45.905869
2055.000000	45.756786
2054.000000	45.625831
2053.000000	45.479026
2052.000000	45.315438
2051.000000	45.152761
2050.000000	45.030685
2049.000000	44.947467
2048.000000	44.830213
2047.000000	44.767368
2046.000000	44.683798
2045.000000	44.611179
2044.000000	44.550000
2043.000000	44.511910
2042.000000	44.516114
2041.000000	44.556821
2040.000000	44.581626
2039.000000	44.574381
2038.000000	44.585718
2037.000000	44.637314
2036.000000	44.694836
2035.000000	44.787813
2034.000000	44.932522
2033.000000	45.071739
2032.000000	45.203506
2031.000000	45.336481
2030.000000	45.432942
2029.000000	45.540519
2028.000000	45.669480
2027.000000	45.838682
2026.000000	46.038753
2025.000000	46.141412
2024.000000	46.240335
2023.000000	46.389720
2022.000000	46.477911
2021.000000	46.577051
2020.000000	46.671913
2019.000000	46.712440
2018.000000	46.768759
2017.000000	46.849754
2016.000000	46.902000
2015.000000	46.907080
2014.000000	46.947412
2013.000000	46.949435
2012.000000	46.945861
2011.000000	46.953409
2010.000000	46.942780
2009.000000	46.895050
2008.000000	46.821747
2007.000000	46.785752
2006.000000	46.707582
2005.000000	46.662691
2004.000000	46.625159
2003.000000	46.569280
2002.000000	46.473047
2001.000000	46.379860
2000.000000	46.358703
1999.000000	46.267606
1998.000000	46.143456
1997.000000	46.071643
1996.000000	45.990036
1995.000000	45.883879
1994.000000	45.769940
1993.000000	45.687370
1992.000000	45.612754
1991.000000	45.490534
1990.000000	45.424681
1989.000000	45.332537
1988.000000	45.223031
1987.000000	45.152818
1986.000000	45.047679
1985.000000	44.929708
1984.000000	44.826978
1983.000000	44.712071
1982.000000	44.636629
1981.000000	44.543795
1980.000000	44.413632
1979.000000	44.315359
1978.000000	44.241978
1977.000000	44.131369
1976.000000	44.027357
1975.000000	43.937164
1974.000000	43.782760
1973.000000	43.700366
1972.000000	43.638892
1971.000000	43.495379
1970.000000	43.427696
1969.000000	43.307101
1968.000000	43.245401
1967.000000	43.139791
1966.000000	43.049741
1965.000000	42.922213
1964.000000	42.823109
1963.000000	42.753020
1962.000000	42.653332
1961.000000	42.548386
1960.000000	42.476268
1959.000000	42.332618
1958.000000	42.238237
1957.000000	42.209865
1956.000000	42.083060
1955.000000	42.011913
1954.000000	41.988818
1953.000000	41.866047
1952.000000	41.824031
1951.000000	41.777358
1950.000000	41.680761
1949.000000	41.593053
1948.000000	41.590713
1947.000000	41.617385
1946.000000	41.520873
1945.000000	41.527433
1944.000000	41.480973
1943.000000	41.498976
1942.000000	41.551272
1941.000000	41.522023
1940.000000	41.630949
1939.000000	41.613321
1938.000000	41.691808
1937.000000	41.788377
1936.000000	41.890233
1935.000000	41.971667
1934.000000	42.084467
1933.000000	42.251176
1932.000000	42.358802
1931.000000	42.527126
1930.000000	42.646157
1929.000000	42.788713
1928.000000	43.074803
1927.000000	43.283467
1926.000000	43.469330
1925.000000	43.636514
1924.000000	43.946101
1923.000000	44.172663
1922.000000	44.507403
1921.000000	44.781763
1920.000000	44.959340
1919.000000	45.327783
1918.000000	45.644102
1917.000000	45.976040
1916.000000	46.218575
1915.000000	46.660398
1914.000000	47.022907
1913.000000	47.412187
1912.000000	47.819891
1911.000000	48.102605
1910.000000	48.560605
1909.000000	48.925392
1908.000000	49.308686
1907.000000	49.737993
1906.000000	50.181579
1905.000000	50.654716
1904.000000	51.078271
1903.000000	51.464574
1902.000000	51.957744
1901.000000	52.432511
1900.000000	52.898487
1899.000000	53.380292
1898.000000	53.798710
1897.000000	54.231776
1896.000000	54.601467
1895.000000	55.087686
1894.000000	55.528021
1893.000000	55.934332
1892.000000	56.370587
1891.000000	56.811912
1890.000000	57.234322
1889.000000	57.516142
1888.000000	57.928018
1887.000000	58.309045
1886.000000	58.697159
1885.000000	59.012791
1884.000000	59.340420
1883.000000	59.628561
1882.000000	59.894969
1881.000000	60.148070
1880.000000	60.424538
1879.000000	60.690514
1878.000000	60.906767
1877.000000	61.168468
1876.000000	61.354985
1875.000000	61.585781
1874.000000	61.778098
1873.000000	61.950063
1872.000000	62.111441
1871.000000	62.224848
1870.000000	62.304202
1869.000000	62.448541
1868.000000	62.585286
1867.000000	62.653934
1866.000000	62.754479
1865.000000	62.852835
1864.000000	62.919244
1863.000000	62.946176
1862.000000	62.985678
1861.000000	63.035840
1860.000000	63.117557
1859.000000	63.164407
1858.000000	63.180740
1857.000000	63.218986
1856.000000	63.258046
1855.000000	63.275267
1854.000000	63.336552
1853.000000	63.331800
1852.000000	63.307268
1851.000000	63.296907
1850.000000	63.325555
1849.000000	63.321632
1848.000000	63.293471
1847.000000	63.299710
1846.000000	63.300716
1845.000000	63.287357
1844.000000	63.288570
1843.000000	63.216140
1842.000000	63.216217
1841.000000	63.211113
1840.000000	63.175950
1839.000000	63.161586
1838.000000	63.115188
1837.000000	63.072518
1836.000000	63.032195
1835.000000	63.012385
1834.000000	62.983174
1833.000000	62.948867
1832.000000	62.932755
1831.000000	62.904841
1830.000000	62.864430
1829.000000	62.826870
1828.000000	62.790728
1827.000000	62.750788
1826.000000	62.716539
1825.000000	62.681908
1824.000000	62.690246
1823.000000	62.699805
1822.000000	62.655539
1821.000000	62.608639
1820.000000	62.562369
1819.000000	62.521631
1818.000000	62.515245
1817.000000	62.498379
1816.000000	62.440489
1815.000000	62.417729
1814.000000	62.396277
1813.000000	62.344806
1812.000000	62.305506
1811.000000	62.281936
1810.000000	62.270880
1809.000000	62.259663
1808.000000	62.229707
1807.000000	62.185263
1806.000000	62.163206
1805.000000	62.128406
1804.000000	62.091032
1803.000000	62.093312
1802.000000	62.073942
1801.000000	62.046499
1800.000000	62.008626
1799.000000	61.962018
1798.000000	61.951991
1797.000000	61.939332
1796.000000	61.916784
1795.000000	61.907085
1794.000000	61.891838
1793.000000	61.864885
1792.000000	61.836289
1791.000000	61.820873
1790.000000	61.806482
1789.000000	61.768411
1788.000000	61.755916
1787.000000	61.721992
1786.000000	61.680850
1785.000000	61.658182
1784.000000	61.638416
1783.000000	61.613808
1782.000000	61.583820
1781.000000	61.555921
1780.000000	61.508435
1779.000000	61.472726
1778.000000	61.424790
1777.000000	61.367280
1776.000000	61.338156
1775.000000	61.279331
1774.000000	61.222132
1773.000000	61.171606
1772.000000	61.136650
1771.000000	61.078081
1770.000000	61.024341
1769.000000	60.967065
1768.000000	60.903803
1767.000000	60.861752
1766.000000	60.799346
1765.000000	60.729219
1764.000000	60.710851
1763.000000	60.634928
1762.000000	60.593596
1761.000000	60.568020
1760.000000	60.499359
1759.000000	60.420168
1758.000000	60.402197
1757.000000	60.326952
1756.000000	60.283435
1755.000000	60.216537
1754.000000	60.153404
1753.000000	60.121084
1752.000000	60.054845
1751.000000	59.999452
1750.000000	59.945670
1749.000000	59.930480
1748.000000	59.862292
1747.000000	59.764291
1746.000000	59.721608
1745.000000	59.674695
1744.000000	59.622641
1743.000000	59.562922
1742.000000	59.519202
1741.000000	59.465827
1740.000000	59.446330
1739.000000	59.361163
1738.000000	59.306829
1737.000000	59.267173
1736.000000	59.252675
1735.000000	59.258576
1734.000000	59.252951
1733.000000	59.224618
1732.000000	59.228954
1731.000000	59.272824
1730.000000	59.233742
1729.000000	59.258058
1728.000000	59.327681
1727.000000	59.381370
1726.000000	59.440284
1725.000000	59.475815
1724.000000	59.531028
1723.000000	59.639621
1722.000000	59.733620
1721.000000	59.792816
1720.000000	59.915756
1719.000000	59.984589
1718.000000	60.057674
1717.000000	60.134699
1716.000000	60.224710
1715.000000	60.256514
1714.000000	60.369561
1713.000000	60.477575
1712.000000	60.508843
1711.000000	60.596964
1710.000000	60.632025
1709.000000	60.662545
1708.000000	60.696461
1707.000000	60.788688
1706.000000	60.783067
1705.000000	60.788659
1704.000000	60.848799
1703.000000	60.861101
1702.000000	60.842008
1701.000000	60.875812
1700.000000	60.873760
1699.000000	60.880614
1698.000000	60.939010
1697.000000	60.928000
1696.000000	60.973174
1695.000000	60.985451
1694.000000	61.018107
1693.000000	61.070877
1692.000000	61.090980
1691.000000	61.195944
1690.000000	61.242214
1689.000000	61.314006
1688.000000	61.388036
1687.000000	61.496961
1686.000000	61.621326
1685.000000	61.729476
1684.000000	61.852528
1683.000000	62.011159
1682.000000	62.115471
1681.000000	62.298642
1680.000000	62.428451
1679.000000	62.570876
1678.000000	62.723640
1677.000000	62.863254
1676.000000	63.018167
1675.000000	63.191026
1674.000000	63.352437
1673.000000	63.494090
1672.000000	63.607420
1671.000000	63.755795
1670.000000	63.929660
1669.000000	64.078722
1668.000000	64.194513
1667.000000	64.317872
1666.000000	64.411219
1665.000000	64.505992
1664.000000	64.581911
1663.000000	64.666320
1662.000000	64.727088
1661.000000	64.780343
1660.000000	64.847870
1659.000000	64.899196
1658.000000	64.991077
1657.000000	65.017132
1656.000000	65.057065
1655.000000	65.067853
1654.000000	65.103259
1653.000000	65.109939
1652.000000	65.153907
1651.000000	65.136377
1650.000000	65.132177
1649.000000	65.153750
1648.000000	65.138751
1647.000000	65.148856
1646.000000	65.142793
1645.000000	65.136997
1644.000000	65.113584
1643.000000	65.074951
1642.000000	65.084897
1641.000000	65.067005
1640.000000	65.047851
1639.000000	65.047734
1638.000000	64.996298
1637.000000	64.983528
1636.000000	64.953965
1635.000000	64.924980
1634.000000	64.882640
1633.000000	64.860964
1632.000000	64.823255
1631.000000	64.797573
1630.000000	64.767055
1629.000000	64.738690
1628.000000	64.701484
1627.000000	64.663070
1626.000000	64.633578
1625.000000	64.601757
1624.000000	64.561260
1623.000000	64.538747
1622.000000	64.509662
1621.000000	64.456760
1620.000000	64.416943
1619.000000	64.382719
1618.000000	64.335419
1617.000000	64.293327
1616.000000	64.248585
1615.000000	64.194243
1614.000000	64.146660
1613.000000	64.108330
1612.000000	64.077919
1611.000000	64.018687
1610.000000	63.969088
1609.000000	63.939915
1608.000000	63.893205
1607.000000	63.837491
1606.000000	63.775000
1605.000000	63.715748
1604.000000	63.670858
1603.000000	63.625562
1602.000000	63.585624
1601.000000	63.532985
1600.000000	63.480158
1599.000000	63.432865
1598.000000	63.377838
1597.000000	63.320129
1596.000000	63.265546
1595.000000	63.228784
1594.000000	63.182338
1593.000000	63.132157
1592.000000	63.090662
1591.000000	63.065195
1590.000000	63.022712
1589.000000	62.959429
1588.000000	62.923512
1587.000000	62.889218
1586.000000	62.846933
1585.000000	62.815517
1584.000000	62.769507
1583.000000	62.725285
1582.000000	62.688942
1581.000000	62.647541
1580.000000	62.612057
1579.000000	62.584343
1578.000000	62.549526
1577.000000	62.507836
1576.000000	62.468631
1575.000000	62.437928
1574.000000	62.400172
1573.000000	62.361691
1572.000000	62.330595
1571.000000	62.293194
1570.000000	62.269560
1569.000000	62.237196
1568.000000	62.204168
1567.000000	62.161245
1566.000000	62.129677
1565.000000	62.110665
1564.000000	62.081168
1563.000000	62.053870
1562.000000	62.058448
1561.000000	62.037183
1560.000000	62.003174
1559.000000	61.990309
1558.000000	61.975743
1557.000000	61.961234
1556.000000	61.938542
1555.000000	61.914747
1554.000000	61.882343
1553.000000	61.881948
1552.000000	61.885022
1551.000000	61.844149
1550.000000	61.815894
1549.000000	61.781100
1548.000000	61.751628
1547.000000	61.703439
1546.000000	61.652651
1545.000000	61.607026
1544.000000	61.538851
1543.000000	61.488860
1542.000000	61.425859
1541.000000	61.367396
1540.000000	61.307128
1539.000000	61.240005
1538.000000	61.149121
1537.000000	61.063765
1536.000000	60.983996
1535.000000	60.919588
1534.000000	60.842330
1533.000000	60.775758
1532.000000	60.684329
1531.000000	60.605180
1530.000000	60.542177
1529.000000	60.459652
1528.000000	60.393514
1527.000000	60.350093
1526.000000	60.274820
1525.000000	60.205579
1524.000000	60.137216
1523.000000	60.091644
1522.000000	60.032420
1521.000000	59.981371
1520.000000	59.960140
1519.000000	59.868768
1518.000000	59.819984
1517.000000	59.779722
1516.000000	59.742795
1515.000000	59.709616
1514.000000	59.699372
1513.000000	59.718295
1512.000000	59.725995
1511.000000	59.703894
1510.000000	59.648370
1509.000000	59.629071
1508.000000	59.570866
1507.000000	59.545218
1506.000000	59.522939
1505.000000	59.505858
1504.000000	59.509959
1503.000000	59.496658
1502.000000	59.462741
1501.000000	59.470351
1500.000000	59.478406
1499.000000	59.473201
1498.000000	59.487908
1497.000000	59.493011
1496.000000	59.508676
1495.000000	59.519150
1494.000000	59.539904
1493.000000	59.581847
1492.000000	59.609830
1491.000000	59.652375
1490.000000	59.719747
1489.000000	59.765609
1488.000000	59.824736
1487.000000	59.882152
1486.000000	59.931069
1485.000000	60.019559
1484.000000	60.103228
1483.000000	60.161782
1482.000000	60.227511
1481.000000	60.308258
1480.000000	60.392389
1479.000000	60.473241
1478.000000	60.552008
1477.000000	60.620969
1476.000000	60.697779
1475.000000	60.762618
1474.000000	60.849574
1473.000000	60.921995
1472.000000	61.001123
1471.000000	61.055044
1470.000000	61.166889
1469.000000	61.212436
1468.000000	61.273655
1467.000000	61.314615
1466.000000	61.372984
1465.000000	61.431080
1464.000000	61.507018
1463.000000	61.542899
1462.000000	61.581451
1461.000000	61.642412
1460.000000	61.700554
1459.000000	61.770482
1458.000000	61.794204
1457.000000	61.839736
1456.000000	61.895350
1455.000000	61.969240
1454.000000	62.016753
1453.000000	62.078189
1452.000000	62.106748
1451.000000	62.146461
1450.000000	62.227356
1449.000000	62.306854
1448.000000	62.329838
1447.000000	62.400595
1446.000000	62.465796
1445.000000	62.527686
1444.000000	62.610949
1443.000000	62.679417
1442.000000	62.737661
1441.000000	62.785354
1440.000000	62.856805
1439.000000	62.927197
1438.000000	63.002364
1437.000000	63.067242
1436.000000	63.157075
1435.000000	63.230095
1434.000000	63.301688
1433.000000	63.389901
1432.000000	63.487664
1431.000000	63.576150
1430.000000	63.656535
1429.000000	63.731703
1428.000000	63.836999
1427.000000	63.932353
1426.000000	64.036600
1425.000000	64.159520
1424.000000	64.265801
1423.000000	64.384070
1422.000000	64.486430
1421.000000	64.584283
1420.000000	64.700762
1419.000000	64.838595
1418.000000	64.969862
1417.000000	65.090912
1416.000000	65.203189
1415.000000	65.348049
1414.000000	65.492879
1413.000000	65.604711
1412.000000	65.737253
1411.000000	65.864394
1410.000000	66.017800
1409.000000	66.147582
1408.000000	66.249408
1407.000000	66.383349
1406.000000	66.514245
1405.000000	66.643815
1404.000000	66.763653
1403.000000	66.872341
1402.000000	67.008884
1401.000000	67.131104
1400.000000	67.228493
1399.000000	67.347038
1398.000000	67.454945
1397.000000	67.554565
1396.000000	67.667804
1395.000000	67.768333
1394.000000	67.866279
1393.000000	67.958782
1392.000000	68.057678
1391.000000	68.148118
1390.000000	68.221394
1389.000000	68.298292
1388.000000	68.386809
1387.000000	68.471273
1386.000000	68.589246
1385.000000	68.677682
1384.000000	68.715894
1383.000000	68.784772
1382.000000	68.860830
1381.000000	68.918595
1380.000000	68.967965
1379.000000	69.029827
1378.000000	69.082299
1377.000000	69.106249
1376.000000	69.170581
1375.000000	69.222732
1374.000000	69.250976
1373.000000	69.275696
1372.000000	69.298112
1371.000000	69.351759
1370.000000	69.398732
1369.000000	69.419052
1368.000000	69.441932
1367.000000	69.475783
1366.000000	69.524595
1365.000000	69.566642
1364.000000	69.604579
1363.000000	69.638328
1362.000000	69.661240
1361.000000	69.702786
1360.000000	69.743151
1359.000000	69.769236
1358.000000	69.807700
1357.000000	69.888504
1356.000000	69.940190
1355.000000	69.964073
1354.000000	70.019844
1353.000000	70.061521
1352.000000	70.110321
1351.000000	70.145617
1350.000000	70.167374
1349.000000	70.227024
1348.000000	70.265128
1347.000000	70.296376
1346.000000	70.346727
1345.000000	70.398372
1344.000000	70.436350
1343.000000	70.466089
1342.000000	70.500232
1341.000000	70.528659
1340.000000	70.582446
1339.000000	70.606588
1338.000000	70.646699
1337.000000	70.668135
1336.000000	70.694749
1335.000000	70.729197
1334.000000	70.751026
1333.000000	70.759621
1332.000000	70.796043
1331.000000	70.801382
1330.000000	70.837411
1329.000000	70.861997
1328.000000	70.877007
1327.000000	70.911543
1326.000000	70.911666
1325.000000	70.917235
1324.000000	70.915090
1323.000000	70.936447
1322.000000	70.991115
1321.000000	70.998958
1320.000000	70.958285
1319.000000	70.981436
1318.000000	70.986374
1317.000000	70.995552
1316.000000	71.061346
1315.000000	71.029826
1314.000000	71.016867
1313.000000	71.044084
1312.000000	71.018612
1311.000000	71.079086
1310.000000	71.096976
1309.000000	71.092477
1308.000000	71.077509
1307.000000	71.071170
1306.000000	71.101469
1305.000000	71.101115
1304.000000	71.125368
1303.000000	71.119260
1302.000000	71.143520
1301.000000	71.131846
1300.000000	71.131758
1299.000000	71.128378
1298.000000	71.121411
1297.000000	71.116377
1296.000000	71.137262
1295.000000	71.157171
1294.000000	71.142796
1293.000000	71.141019
1292.000000	71.141320
1291.000000	71.137441
1290.000000	71.124876
1289.000000	71.134029
1288.000000	71.138756
1287.000000	71.133584
1286.000000	71.116938
1285.000000	71.109949
1284.000000	71.116714
1283.000000	71.102188
1282.000000	71.097916
1281.000000	71.095126
1280.000000	71.094767
1279.000000	71.114627
1278.000000	71.119755
1277.000000	71.098730
1276.000000	71.072970
1275.000000	71.101470
1274.000000	71.100287
1273.000000	71.091056
1272.000000	71.106418
1271.000000	71.113315
1270.000000	71.112936
1269.000000	71.115600
1268.000000	71.110896
1267.000000	71.130205
1266.000000	71.116960
1265.000000	71.133310
1264.000000	71.163199
1263.000000	71.127462
1262.000000	71.130848
1261.000000	71.159917
1260.000000	71.155367
1259.000000	71.178485
1258.000000	71.194998
1257.000000	71.169126
1256.000000	71.207480
1255.000000	71.193785
1254.000000	71.205964
1253.000000	71.189564
1252.000000	71.199087
1251.000000	71.201549
1250.000000	71.201847
1249.000000	71.205603
1248.000000	71.213304
1247.000000	71.200964
1246.000000	71.195735
1245.000000	71.194203
1244.000000	71.183326
1243.000000	71.187830
1242.000000	71.174340
1241.000000	71.151618
1240.000000	71.152888
1239.000000	71.125660
1238.000000	71.133384
1237.000000	71.115760
1236.000000	71.102166
1235.000000	71.076998
1234.000000	71.053724
1233.000000	71.051393
1232.000000	71.026554
1231.000000	71.021724
1230.000000	71.022692
1229.000000	71.008374
1228.000000	70.978618
1227.000000	70.991201
1226.000000	70.956261
1225.000000	70.938684
1224.000000	70.945454
1223.000000	70.938532
1222.000000	70.927952
1221.000000	70.907231
1220.000000	70.892103
1219.000000	70.853827
1218.000000	70.857562
1217.000000	70.837169
1216.000000	70.833099
1215.000000	70.811296
1214.000000	70.777234
1213.000000	70.767322
1212.000000	70.730054
1211.000000	70.735839
1210.000000	70.711138
1209.000000	70.694746
1208.000000	70.671524
1207.000000	70.634492
1206.000000	70.621507
1205.000000	70.571222
1204.000000	70.557805
1203.000000	70.541258
1202.000000	70.517108
1201.000000	70.512862
1200.000000	70.477927
1199.000000	70.457556
1198.000000	70.423022
1197.000000	70.408724
1196.000000	70.385292
1195.000000	70.361374
1194.000000	70.341480
1193.000000	70.320370
1192.000000	70.306212
1191.000000	70.296884
1190.000000	70.287585
1189.000000	70.266983
1188.000000	70.253916
1187.000000	70.245593
1186.000000	70.232639
1185.000000	70.239201
1184.000000	70.235854
1183.000000	70.233852
1182.000000	70.248088
1181.000000	70.269808
1180.000000	70.288567
1179.000000	70.318487
1178.000000	70.338805
1177.000000	70.364675
1176.000000	70.389542
1175.000000	70.421593
1174.000000	70.455114
1173.000000	70.489982
1172.000000	70.537691
1171.000000	70.565534
1170.000000	70.610686
1169.000000	70.653591
1168.000000	70.684787
1167.000000	70.740994
1166.000000	70.805877
1165.000000	70.850589
1164.000000	70.894883
1163.000000	70.948213
1162.000000	70.993051
1161.000000	71.034544
1160.000000	71.077175
1159.000000	71.122922
1158.000000	71.181851
1157.000000	71.232485
1156.000000	71.273049
1155.000000	71.311213
1154.000000	71.345532
1153.000000	71.388604
1152.000000	71.422298
1151.000000	71.440014
1150.000000	71.472246
1149.000000	71.509611
1148.000000	71.539613
1147.000000	71.569193
1146.000000	71.599817
1145.000000	71.622913
1144.000000	71.651228
1143.000000	71.690186
1142.000000	71.719337
1141.000000	71.740930
1140.000000	71.766137
1139.000000	71.798278
1138.000000	71.832751
1137.000000	71.844217
1136.000000	71.865799
1135.000000	71.898622
1134.000000	71.944707
1133.000000	71.946676
1132.000000	71.946826
1131.000000	71.973258
1130.000000	71.989517
1129.000000	72.017141
1128.000000	72.030668
1127.000000	72.050166
1126.000000	72.066334
1125.000000	72.089356
1124.000000	72.109349
1123.000000	72.110703
1122.000000	72.113392
1121.000000	72.112087
1120.000000	72.128238
1119.000000	72.129584
1118.000000	72.142803
1117.000000	72.158827
1116.000000	72.159892
1115.000000	72.136900
1114.000000	72.149795
1113.000000	72.161151
1112.000000	72.160737
1111.000000	72.163512
1110.000000	72.145672
1109.000000	72.163816
1108.000000	72.205938
1107.000000	72.197478
1106.000000	72.183199
1105.000000	72.186174
1104.000000	72.187444
1103.000000	72.201404
1102.000000	72.213717
1101.000000	72.198310
1100.000000	72.180931
1099.000000	72.198840
1098.000000	72.200224
1097.000000	72.198053
1096.000000	72.217281
1095.000000	72.203470
1094.000000	72.211465
1093.000000	72.218119
1092.000000	72.189746
1091.000000	72.207247
1090.000000	72.210765
1089.000000	72.219293
1088.000000	72.211852
1087.000000	72.208286
1086.000000	72.204327
1085.000000	72.191132
1084.000000	72.200922
1083.000000	72.206441
1082.000000	72.224264
1081.000000	72.223243
1080.000000	72.209852
1079.000000	72.191766
1078.000000	72.205136
1077.000000	72.200895
1076.000000	72.188565
1075.000000	72.183106
1074.000000	72.202530
1073.000000	72.195899
1072.000000	72.153826
1071.000000	72.186551
1070.000000	72.176875
1069.000000	72.156849
1068.000000	72.165728
1067.000000	72.170904
1066.000000	72.156194
1065.000000	72.174722
1064.000000	72.139588
1063.000000	72.132158
1062.000000	72.143483
1061.000000	72.139131
1060.000000	72.140989
1059.000000	72.162833
1058.000000	72.138136
1057.000000	72.131759
1056.000000	72.131510
1055.000000	72.120253
1054.000000	72.117374
1053.000000	72.125694
1052.000000	72.112259
1051.000000	72.098551
1050.000000	72.108605
1049.000000	72.086711
1048.000000	72.099766
1047.000000	72.088284
1046.000000	72.084221
1045.000000	72.103531
1044.000000	72.104101
1043.000000	72.065182
1042.000000	72.052889
1041.000000	72.064814
1040.000000	72.065503
1039.000000	72.051024
1038.000000	72.076525
1037.000000	72.054353
1036.000000	72.043964
1035.000000	72.080914
1034.000000	72.056718
1033.000000	72.060993
1032.000000	72.066057
1031.000000	72.058972
1030.000000	72.069708
1029.000000	72.045872
1028.000000	72.058382
1027.000000	72.068185
1026.000000	72.066728
1025.000000	72.053758
1024.000000	72.046778
1023.000000	72.047077
1022.000000	72.057111
1021.000000	72.061044
1020.000000	72.075755
1019.000000	72.066627
1018.000000	72.068724
1017.000000	72.065385
1016.000000	72.069656
1015.000000	72.086364
1014.000000	72.085415
1013.000000	72.080577
1012.000000	72.105130
1011.000000	72.100300
1010.000000	72.094403
1009.000000	72.105086
1008.000000	72.105732
1007.000000	72.111896
1006.000000	72.117378
1005.000000	72.131743
1004.000000	72.138512
1003.000000	72.129969
1002.000000	72.131208
1001.000000	72.140187
1000.000000	72.144662
999.000000	72.155240
998.000000	72.156913
997.000000	72.153695
996.000000	72.172523
995.000000	72.160054
994.000000	72.170222
993.000000	72.188711
992.000000	72.190838
991.000000	72.205711
990.000000	72.230109
989.000000	72.217920
988.000000	72.224759
987.000000	72.213604
986.000000	72.236279
985.000000	72.255296
984.000000	72.269209
983.000000	72.271732
982.000000	72.273433
981.000000	72.282321
980.000000	72.285332
979.000000	72.278638
978.000000	72.287565
977.000000	72.309241
976.000000	72.297997
975.000000	72.284937
974.000000	72.302443
973.000000	72.312416
972.000000	72.314272
971.000000	72.331946
970.000000	72.344311
969.000000	72.352859
968.000000	72.380947
967.000000	72.374355
966.000000	72.359339
965.000000	72.369733
964.000000	72.381304
963.000000	72.370325
962.000000	72.358290
961.000000	72.361006
960.000000	72.378370
959.000000	72.372905
958.000000	72.376803
957.000000	72.406849
956.000000	72.427889
955.000000	72.440459
954.000000	72.429526
953.000000	72.426587
952.000000	72.433415
951.000000	72.429742
950.000000	72.427279
949.000000	72.437684
948.000000	72.440331
947.000000	72.446460
946.000000	72.452379
945.000000	72.457315
944.000000	72.469405
943.000000	72.458821
942.000000	72.454487
941.000000	72.472213
940.000000	72.479064
939.000000	72.484281
938.000000	72.487314
937.000000	72.465708
936.000000	72.460789
935.000000	72.476095
934.000000	72.475815
933.000000	72.472454
932.000000	72.468952
931.000000	72.483007
930.000000	72.503997
929.000000	72.507069
928.000000	72.518161
927.000000	72.524179
926.000000	72.508885
925.000000	72.513923
924.000000	72.501349
923.000000	72.501286
922.000000	72.513765
921.000000	72.489682
920.000000	72.454762
919.000000	72.462288
918.000000	72.493301
917.000000	72.485788
916.000000	72.507118
915.000000	72.478791
914.000000	72.474121
913.000000	72.471548
912.000000	72.497283
911.000000	72.486636
910.000000	72.497024
909.000000	72.506788
908.000000	72.517508
907.000000	72.529567
906.000000	72.525931
905.000000	72.507150
904.000000	72.503425
903.000000	72.524373
902.000000	72.548289
901.000000	72.545617
900.000000	72.566810
899.000000	72.558569
898.000000	72.521719
897.000000	72.547718
896.000000	72.599442
895.000000	72.616144
894.000000	72.565910
893.000000	72.564965
892.000000	72.560604
891.000000	72.537449
890.000000	72.558688
889.000000	72.598609
888.000000	72.624293
887.000000	72.562177
886.000000	72.571378
885.000000	72.603524
884.000000	72.648250
883.000000	72.563387
882.000000	72.640090
881.000000	72.574007
880.000000	72.667713
879.000000	72.635558
878.000000	72.661500
877.000000	72.616832
876.000000	72.655947
875.000000	72.646326
874.000000	72.733419
873.000000	72.686629
872.000000	72.665197
871.000000	72.717190
870.000000	72.706294
869.000000	72.769966
868.000000	72.624483
867.000000	72.699939
866.000000	72.766372
865.000000	72.837395
864.000000	72.644583
863.000000	72.620702
862.000000	72.727233
861.000000	72.639887
860.000000	72.691555
859.000000	72.498876
858.000000	72.493126
857.000000	72.409607
856.000000	72.371779
855.000000	72.372758
854.000000	72.910029
853.000000	72.535171
852.000000	72.402302
851.000000	72.183411
850.000000	72.857005
849.000000	72.541962
848.000000	72.420368
847.000000	72.247789
846.000000	72.527772
845.000000	72.413732
844.000000	72.564236
843.000000	72.422008
842.000000	72.330076
841.000000	72.418965
840.000000	72.504477
839.000000	72.491697
838.000000	72.398390
837.000000	72.420032
836.000000	72.486702
835.000000	72.416773
834.000000	72.407340
833.000000	72.397636
832.000000	72.387064
831.000000	72.238116
830.000000	72.627851
829.000000	72.439431
828.000000	72.184919
827.000000	72.340302
826.000000	72.301877
825.000000	72.241965
824.000000	72.440561
823.000000	72.458025
822.000000	72.389251
821.000000	72.412131
820.000000	72.582606
819.000000	72.552405
818.000000	72.480122
817.000000	72.330182
816.000000	72.387032
815.000000	72.408310
814.000000	72.408268
813.000000	72.306803
812.000000	72.472069
811.000000	72.459787
810.000000	72.462617
809.000000	72.548887
808.000000	72.469038
807.000000	72.424596
806.000000	72.520825
805.000000	72.588794
804.000000	72.482234
803.000000	72.322915
802.000000	72.399770
801.000000	72.449958
800.000000	72.471411
799.000000	72.543970
798.000000	72.437956
797.000000	72.345304
796.000000	72.425610
795.000000	72.365190
794.000000	72.433171
793.000000	72.574165
792.000000	72.624599
791.000000	72.425376
790.000000	72.385557
789.000000	72.512655
788.000000	72.532282
787.000000	72.531891
786.000000	72.530301
785.000000	72.515019
784.000000	72.381050
783.000000	72.438319
782.000000	72.438566
781.000000	72.499889
780.000000	72.474803
779.000000	72.482585
778.000000	72.529619
777.000000	72.622760
776.000000	72.439650
775.000000	72.447480
774.000000	72.440225
773.000000	72.467581
772.000000	72.441236
771.000000	72.489099
770.000000	72.471832
769.000000	72.542530
768.000000	72.526032
767.000000	72.531340
766.000000	72.474446
765.000000	72.483873
764.000000	72.486605
763.000000	72.425908
762.000000	72.423783
761.000000	72.379536
760.000000	72.341856
759.000000	72.546126
758.000000	72.450604
757.000000	72.404172
756.000000	72.427842
755.000000	72.451560
754.000000	72.458434
753.000000	72.384785
752.000000	72.433495
751.000000	72.515496
750.000000	72.508239
749.000000	72.429549
748.000000	72.408950
747.000000	72.488928
746.000000	72.520982
745.000000	72.493570
744.000000	72.447973
743.000000	72.468870
742.000000	72.500056
741.000000	72.534401
740.000000	72.505942
739.000000	72.464183
738.000000	72.503961
737.000000	72.466041
736.000000	72.446085
735.000000	72.461622
734.000000	72.450574
733.000000	72.529573
732.000000	72.495580
731.000000	72.469116
730.000000	72.459653
729.000000	72.481128
728.000000	72.458586
727.000000	72.438823
726.000000	72.443777
725.000000	72.362337
724.000000	72.456571
723.000000	72.524469
722.000000	72.472816
721.000000	72.492840
720.000000	72.538316
719.000000	72.498778
718.000000	72.472553
717.000000	72.493512
716.000000	72.499389
715.000000	72.488856
714.000000	72.525862
713.000000	72.529915
712.000000	72.500526
711.000000	72.546630
710.000000	72.557475
709.000000	72.527281
708.000000	72.518488
707.000000	72.450553
706.000000	72.461726
705.000000	72.491872
704.000000	72.491109
703.000000	72.548952
702.000000	72.493278
701.000000	72.477370
700.000000	72.558015
699.000000	72.500610
698.000000	72.460964
697.000000	72.455594
696.000000	72.475516
695.000000	72.532682
694.000000	72.512751
693.000000	72.503266
692.000000	72.529200
691.000000	72.566744
690.000000	72.527005
689.000000	72.464185
688.000000	72.447208
687.000000	72.389593
686.000000	72.409537
685.000000	72.383509
684.000000	72.366307
683.000000	72.459116
682.000000	72.498398
681.000000	72.457242
680.000000	72.386938
679.000000	72.394263
678.000000	72.476360
677.000000	72.513307
676.000000	72.466234
675.000000	72.450720
674.000000	72.466276
673.000000	72.462287
672.000000	72.430993
671.000000	72.424854
670.000000	72.378997
669.000000	72.397779
668.000000	72.445429
667.000000	72.459577
666.000000	72.476595
665.000000	72.476929
664.000000	72.421437
663.000000	72.382023
662.000000	72.405742
661.000000	72.456948
660.000000	72.466033
659.000000	72.461001
658.000000	72.407699
657.000000	72.450698
656.000000	72.516112
655.000000	72.511574
654.000000	72.426922
653.000000	72.419759
652.000000	72.465662
651.000000	72.499137
650.000000	72.523150
649.000000	72.478336
648.000000	72.496024
647.000000	72.499261
646.000000	72.484879
645.000000	72.498363
644.000000	72.437189
643.000000	72.451202
642.000000	72.441777
641.000000	72.444794
640.000000	72.439383
639.000000	72.471202
638.000000	72.451764
637.000000	72.434965
636.000000	72.429356
635.000000	72.383525
634.000000	72.405846
633.000000	72.418151
632.000000	72.451642
631.000000	72.456064
630.000000	72.479858
629.000000	72.457671
628.000000	72.437393
627.000000	72.422796
626.000000	72.433479
625.000000	72.497255
624.000000	72.444303
623.000000	72.411530
622.000000	72.362662
621.000000	72.407671
620.000000	72.400944
619.000000	72.428574
618.000000	72.469717
617.000000	72.415822
616.000000	72.394691
615.000000	72.403395
614.000000	72.369978
613.000000	72.406495
612.000000	72.459454
611.000000	72.489785
610.000000	72.379491
609.000000	72.408409
608.000000	72.372204
607.000000	72.417152
606.000000	72.436994
605.000000	72.384959
604.000000	72.373676
603.000000	72.363649
602.000000	72.340077
601.000000	72.393375
600.000000	72.386196
599.000000	72.337932
598.000000	72.360004
597.000000	72.364842
596.000000	72.344549
595.000000	72.380690
594.000000	72.349634
593.000000	72.410328
592.000000	72.359623
591.000000	72.314800
590.000000	72.327686
589.000000	72.235191
588.000000	72.311326
587.000000	72.352733
586.000000	72.366510
585.000000	72.319683
584.000000	72.223817
583.000000	72.255368
582.000000	72.262756
581.000000	72.307362
580.000000	72.284930
579.000000	72.278413
578.000000	72.263222
577.000000	72.271549
576.000000	72.285964
575.000000	72.246376
574.000000	72.202905
573.000000	72.264706
572.000000	72.218657
571.000000	72.194881
570.000000	72.153688
569.000000	72.181484
568.000000	72.141886
567.000000	72.145270
566.000000	72.131090
565.000000	72.152536
564.000000	72.189019
563.000000	72.095526
562.000000	72.087250
561.000000	72.074554
560.000000	72.049441
559.000000	72.072059
558.000000	72.024218
557.000000	72.100160
556.000000	72.058624
555.000000	72.026379
554.000000	71.994965
553.000000	72.022150
552.000000	72.007743
551.000000	72.003071
550.000000	72.016489
549.000000	71.926374
548.000000	71.946345
547.000000	71.973870
546.000000	71.914241
545.000000	71.954663
544.000000	71.877379
543.000000	71.890011
542.000000	71.810740
541.000000	71.877488
540.000000	71.802840
539.000000	71.843723
538.000000	71.827303
537.000000	71.769788
536.000000	71.729176
535.000000	71.693845
534.000000	71.746231
533.000000	71.706817
532.000000	71.721038
531.000000	71.659378
530.000000	71.659357
529.000000	71.679282
528.000000	71.605228
527.000000	71.608449
526.000000	71.568514
525.000000	71.581817
524.000000	71.523788
523.000000	71.527082
522.000000	71.522129
521.000000	71.517370
520.000000	71.429620
519.000000	71.435823
518.000000	71.400669
517.000000	71.410076
516.000000	71.361824
515.000000	71.358715
514.000000	71.336367
513.000000	71.304864
512.000000	71.324606
511.000000	71.264699
510.000000	71.258056
509.000000	71.272007
508.000000	71.216689
507.000000	71.143422
506.000000	71.148069
505.000000	71.168603
504.000000	71.077315
503.000000	71.021487
502.000000	71.032419
501.000000	71.004019
500.000000	70.948600
499.000000	70.987962
498.000000	70.954202
497.000000	70.922967
496.000000	70.830651
495.000000	70.813078
494.000000	70.836696
493.000000	70.769813
492.000000	70.741172
491.000000	70.712163
490.000000	70.629911
489.000000	70.635383
488.000000	70.647095
487.000000	70.561952
486.000000	70.439167
485.000000	70.441258
484.000000	70.525821
483.000000	70.581384
482.000000	70.541933
481.000000	70.536550
480.000000	70.430857
479.000000	70.386162
478.000000	70.344343
477.000000	70.311486
476.000000	70.286208
475.000000	70.199730
474.000000	70.142772
473.000000	70.135845
472.000000	70.091848
471.000000	70.038605
470.000000	69.984907
469.000000	69.960385
468.000000	69.892417
467.000000	69.806611
466.000000	69.754979
465.000000	69.666616
464.000000	69.626807
463.000000	69.642509
462.000000	69.564779
461.000000	69.501618
460.000000	69.433027
459.000000	69.338903
458.000000	69.351512
457.000000	69.310933
456.000000	69.214944
455.000000	69.126136
454.000000	69.111542
453.000000	69.096746
452.000000	69.004029
451.000000	68.933491
450.000000	68.872895
449.000000	68.776303
448.000000	68.734898
447.000000	68.651968
446.000000	68.574885
445.000000	68.473223
444.000000	68.421638
443.000000	68.370021
442.000000	68.355460
441.000000	68.261200
440.000000	68.126688
439.000000	68.064445
438.000000	67.994173
437.000000	67.869309
436.000000	67.751847
435.000000	67.612858
434.000000	67.534829
433.000000	67.491907
432.000000	67.406910
431.000000	67.339355
430.000000	67.220919
429.000000	67.099050
428.000000	66.997744
427.000000	66.845678
426.000000	66.742395
425.000000	66.637970
424.000000	66.546901
423.000000	66.456881
422.000000	66.345783
421.000000	66.159336
420.000000	66.078617
419.000000	65.888047
418.000000	65.720869
417.000000	65.622276
416.000000	65.483941
415.000000	65.320923
414.000000	65.229131
413.000000	65.140906
412.000000	64.944575
411.000000	64.788002
410.000000	64.650522
409.000000	64.503772
408.000000	64.317334
407.000000	64.201268
406.000000	64.073396
405.000000	63.867541
404.000000	63.673408
403.000000	63.519568
402.000000	63.345419
401.000000	63.161795
400.000000	63.085883
399.000000	62.900286
398.000000	62.686965
397.000000	62.574554
396.000000	62.391232
395.000000	62.192735
394.000000	61.987266
393.000000	61.798160
392.000000	61.712135
391.000000	61.493125
390.000000	61.284438
389.000000	61.183451
388.000000	60.941489
387.000000	60.692497
386.000000	60.428479
385.000000	60.260474
384.000000	60.156958
383.000000	59.942899
382.000000	59.627411
381.000000	59.420310
380.000000	59.226823
379.000000	58.965318
378.000000	58.802499
377.000000	58.582687
376.000000	58.594215
375.000000	58.276960
374.000000	57.748336
373.000000	57.708590
372.000000	57.400032
371.000000	57.098876
370.000000	56.982097
369.000000	56.602042
368.000000	56.202701
367.000000	56.235489
366.000000	55.868582
365.000000	55.597256
364.000000	55.218610
363.000000	54.976482
362.000000	54.812055
361.000000	54.399655
360.000000	54.179587
359.000000	53.954089
358.000000	53.731790
357.000000	53.529273
356.000000	53.167111
355.000000	52.731357
354.000000	52.814704
353.000000	52.258923
352.000000	52.150315
351.000000	51.848302
350.000000	51.625997
349.000000	51.362208
348.000000	51.049625
347.000000	50.883497
346.000000	50.552515
345.000000	50.104678
344.000000	49.822663
343.000000	49.604432
342.000000	49.166790
341.000000	49.042166
340.000000	48.456593
339.000000	48.025816
338.000000	47.696800
337.000000	47.033376
336.000000	46.656470
335.000000	46.299276
334.000000	45.828033
333.000000	45.305792
332.000000	44.854906
331.000000	44.501712
330.000000	43.871739
329.000000	43.478160
328.000000	42.978398
327.000000	42.439830
326.000000	41.963608
325.000000	41.582167
324.000000	41.243738
323.000000	40.612615
322.000000	40.592946
321.000000	40.129328
320.000000	39.682823
319.000000	39.671054
318.000000	39.115628
317.000000	38.930382
316.000000	38.555747
315.000000	38.391343
314.000000	38.029577
313.000000	37.937517
312.000000	37.750991
311.000000	37.390604
310.000000	37.182570
309.000000	36.831598
308.000000	36.622430
307.000000	36.491719
306.000000	36.183364
305.000000	36.026036
304.000000	35.840299
303.000000	35.614808
302.000000	35.465726
301.000000	35.177837
300.000000	34.794690
299.000000	34.544762
298.000000	34.138752
297.000000	33.681808
296.000000	33.182780
295.000000	32.683486
294.000000	32.088341
293.000000	31.216135
292.000000	30.368677
291.000000	29.362708
290.000000	28.298215
289.000000	27.383609
288.000000	26.604132
287.000000	25.952046
286.000000	25.457764
285.000000	25.242030
284.000000	25.061033
283.000000	25.001534
282.000000	25.005863
281.000000	24.949272
280.000000	24.968554
279.000000	24.997264
278.000000	25.114022
277.000000	25.280489
276.000000	25.484550
275.000000	25.798251
274.000000	26.072662
273.000000	26.359383
272.000000	26.521370
271.000000	26.656482
270.000000	26.688647
269.000000	26.962812
268.000000	27.142354
267.000000	27.424270
266.000000	27.640518
265.000000	27.892322
264.000000	28.218198
263.000000	28.478280
262.000000	28.853234
261.000000	29.115885
260.000000	29.331756
259.000000	29.608203
258.000000	29.952973
257.000000	30.342953
256.000000	30.643093
255.000000	30.773406
254.000000	30.786412
253.000000	30.711370
252.000000	30.588121
251.000000	30.415793
250.000000	30.040869
249.000000	29.447179
248.000000	28.636242
247.000000	27.719294
246.000000	26.577300
245.000000	25.385204
244.000000	24.106253
243.000000	22.862601
242.000000	21.798619
241.000000	20.772143
240.000000	19.783263
239.000000	19.038842
238.000000	18.559085
237.000000	18.155700
236.000000	17.855336
235.000000	17.752523
234.000000	17.678955
233.000000	17.593560
232.000000	17.550415
231.000000	17.494415
230.000000	17.424090
229.000000	17.427346
228.000000	17.460196
227.000000	17.518918
226.000000	17.591775
225.000000	17.756344
224.000000	17.965624
223.000000	18.115795
222.000000	18.309064
221.000000	18.491240
220.000000	18.799006
219.000000	19.086713
218.000000	19.325482
217.000000	19.603547
216.000000	19.859428
215.000000	20.178754
214.000000	20.402495
213.000000	20.801040
212.000000	21.303218
211.000000	21.666982
210.000000	22.033864
209.000000	22.360540
208.000000	22.811446
207.000000	23.409158
206.000000	23.819418
205.000000	24.147156
204.000000	24.897145
203.000000	25.446156
202.000000	25.859167
201.000000	26.521971
200.000000	27.199314
