PE UV       SUBTECH     SPECTRUM    ASCII       PEDS        4.00        
   -1
RTAgneauUK 42.Sample.asc
18/03/02
15:50:19.00
18/03/02
15:50:19.00
Administrator

200.000000
1
Lambda 750
750N8071901
PerkinElmer UV WinLab 6.0.4.0738 / 1.61.00 Lambda 900

0
0
3350/servo 860.8/2
0
0
UV/VIS
1
1
1
CommonBeamDepol,150mm sphere / downward view
0
0
0
0
Program
Program
3350/servo 860.8/2
3350/0.2 860.8/0.2
3350/0.2 860.8/0.2
0
1
 
 
 
0
 
860.8
319.2
860.8
Front
100
on
 
 
0
0
0
 
0
 
 
 
0
 
 
0
0
0
0
0
 
 
 
 
0
0


0
0
#HDR
-1
-1
#GR
nm
%R
1.0
0.0
2350.000000
-1.000000
2151
8
69.297493
16.333417
#DATA
2350.000000	41.816625
2349.000000	41.463583
2348.000000	41.534891
2347.000000	42.494112
2346.000000	42.008431
2345.000000	41.728242
2344.000000	41.638339
2343.000000	41.384069
2342.000000	41.646200
2341.000000	41.917723
2340.000000	41.615980
2339.000000	42.045476
2338.000000	42.118463
2337.000000	41.945574
2336.000000	42.368908
2335.000000	42.479070
2334.000000	42.413684
2333.000000	42.430447
2332.000000	42.181951
2331.000000	42.381761
2330.000000	41.966026
2329.000000	42.003987
2328.000000	42.089885
2327.000000	42.086384
2326.000000	42.125708
2325.000000	41.971879
2324.000000	41.785558
2323.000000	41.971788
2322.000000	41.897027
2321.000000	41.635999
2320.000000	41.792192
2319.000000	41.710886
2318.000000	41.800191
2317.000000	41.688867
2316.000000	41.545204
2315.000000	41.660318
2314.000000	41.517967
2313.000000	41.348465
2312.000000	41.262923
2311.000000	41.211020
2310.000000	41.218979
2309.000000	41.197490
2308.000000	41.046382
2307.000000	40.893076
2306.000000	40.742198
2305.000000	40.763968
2304.000000	40.608657
2303.000000	40.667479
2302.000000	40.594007
2301.000000	40.489371
2300.000000	40.342196
2299.000000	40.082210
2298.000000	39.960491
2297.000000	39.923274
2296.000000	39.912883
2295.000000	39.881003
2294.000000	39.735978
2293.000000	39.693941
2292.000000	39.558691
2291.000000	39.494534
2290.000000	39.646433
2289.000000	39.420563
2288.000000	39.400419
2287.000000	39.354311
2286.000000	39.254947
2285.000000	39.122824
2284.000000	39.152625
2283.000000	39.114441
2282.000000	39.028490
2281.000000	39.088680
2280.000000	39.062838
2279.000000	39.052710
2278.000000	39.131480
2277.000000	39.157411
2276.000000	39.076432
2275.000000	39.131045
2274.000000	39.218141
2273.000000	39.321392
2272.000000	39.425619
2271.000000	39.318125
2270.000000	39.227089
2269.000000	39.391376
2268.000000	39.537393
2267.000000	39.596956
2266.000000	39.732874
2265.000000	39.943597
2264.000000	39.893001
2263.000000	39.935735
2262.000000	40.174067
2261.000000	40.375685
2260.000000	40.516756
2259.000000	40.677443
2258.000000	40.747589
2257.000000	40.839564
2256.000000	41.045623
2255.000000	41.213993
2254.000000	41.337434
2253.000000	41.606982
2252.000000	41.899478
2251.000000	42.139442
2250.000000	42.204182
2249.000000	42.363694
2248.000000	42.719369
2247.000000	43.020563
2246.000000	43.141309
2245.000000	43.262889
2244.000000	43.542772
2243.000000	43.702015
2242.000000	43.807110
2241.000000	43.924844
2240.000000	44.129895
2239.000000	44.338661
2238.000000	44.420394
2237.000000	44.521524
2236.000000	44.694089
2235.000000	44.712342
2234.000000	44.794316
2233.000000	44.962747
2232.000000	44.957638
2231.000000	44.984622
2230.000000	45.052705
2229.000000	45.108706
2228.000000	45.160270
2227.000000	45.113420
2226.000000	45.142055
2225.000000	45.189992
2224.000000	45.264499
2223.000000	45.274890
2222.000000	45.281120
2221.000000	45.291626
2220.000000	45.241365
2219.000000	45.174872
2218.000000	45.228390
2217.000000	45.058612
2216.000000	44.988610
2215.000000	45.001121
2214.000000	44.963406
2213.000000	44.946685
2212.000000	44.897914
2211.000000	44.860788
2210.000000	44.585245
2209.000000	44.560941
2208.000000	44.573500
2207.000000	44.506270
2206.000000	44.572317
2205.000000	44.406859
2204.000000	44.370886
2203.000000	44.399666
2202.000000	44.324754
2201.000000	44.103642
2200.000000	44.086293
2199.000000	44.001541
2198.000000	44.007752
2197.000000	43.932131
2196.000000	43.859424
2195.000000	43.812315
2194.000000	43.588675
2193.000000	43.461895
2192.000000	43.514382
2191.000000	43.425206
2190.000000	43.422457
2189.000000	43.409455
2188.000000	43.183770
2187.000000	43.253782
2186.000000	43.122827
2185.000000	43.125891
2184.000000	43.168190
2183.000000	43.078779
2182.000000	42.910306
2181.000000	42.924475
2180.000000	42.885116
2179.000000	42.901596
2178.000000	42.873157
2177.000000	42.861460
2176.000000	42.854030
2175.000000	42.961035
2174.000000	43.064597
2173.000000	43.030119
2172.000000	42.996990
2171.000000	43.279731
2170.000000	43.065569
2169.000000	43.250423
2168.000000	43.252567
2167.000000	43.383861
2166.000000	43.468908
2165.000000	43.557750
2164.000000	43.662747
2163.000000	43.572719
2162.000000	43.884951
2161.000000	43.957741
2160.000000	44.186522
2159.000000	44.322347
2158.000000	44.470911
2157.000000	44.300777
2156.000000	44.723048
2155.000000	44.948663
2154.000000	44.986232
2153.000000	45.266050
2152.000000	45.224426
2151.000000	45.260406
2150.000000	45.543490
2149.000000	45.805017
2148.000000	45.876846
2147.000000	46.177081
2146.000000	46.356141
2145.000000	46.364374
2144.000000	46.485238
2143.000000	46.555043
2142.000000	46.791245
2141.000000	46.906501
2140.000000	47.140808
2139.000000	47.221061
2138.000000	47.653491
2137.000000	47.528012
2136.000000	47.624898
2135.000000	47.744448
2134.000000	47.815636
2133.000000	47.804010
2132.000000	47.943052
2131.000000	48.117125
2130.000000	48.246496
2129.000000	48.467587
2128.000000	48.349071
2127.000000	48.424364
2126.000000	48.645986
2125.000000	48.306680
2124.000000	48.578230
2123.000000	48.821248
2122.000000	48.637557
2121.000000	48.716509
2120.000000	48.638527
2119.000000	48.849231
2118.000000	48.874886
2117.000000	48.941568
2116.000000	48.940378
2115.000000	48.988639
2114.000000	48.966161
2113.000000	48.941417
2112.000000	49.124636
2111.000000	49.091853
2110.000000	49.059822
2109.000000	49.093345
2108.000000	49.250315
2107.000000	49.126489
2106.000000	49.249240
2105.000000	49.344258
2104.000000	49.185777
2103.000000	49.284334
2102.000000	49.278051
2101.000000	49.255459
2100.000000	49.303894
2099.000000	49.243559
2098.000000	49.257371
2097.000000	49.283131
2096.000000	49.227714
2095.000000	49.214683
2094.000000	49.348968
2093.000000	49.322553
2092.000000	49.363296
2091.000000	49.309739
2090.000000	49.172972
2089.000000	49.282494
2088.000000	49.229260
2087.000000	49.248762
2086.000000	49.232093
2085.000000	49.150262
2084.000000	49.026009
2083.000000	49.070818
2082.000000	48.986414
2081.000000	48.947477
2080.000000	48.841009
2079.000000	48.905677
2078.000000	48.813225
2077.000000	48.734171
2076.000000	48.638331
2075.000000	48.504361
2074.000000	48.358303
2073.000000	48.356352
2072.000000	48.265335
2071.000000	48.166343
2070.000000	48.050558
2069.000000	47.906737
2068.000000	47.720823
2067.000000	47.514536
2066.000000	47.427427
2065.000000	47.323735
2064.000000	47.219086
2063.000000	47.005229
2062.000000	46.775019
2061.000000	46.707370
2060.000000	46.585553
2059.000000	46.411976
2058.000000	46.283704
2057.000000	46.108531
2056.000000	45.992805
2055.000000	45.864407
2054.000000	45.723386
2053.000000	45.532660
2052.000000	45.426267
2051.000000	45.339800
2050.000000	45.227848
2049.000000	45.108673
2048.000000	44.988706
2047.000000	44.976247
2046.000000	44.878605
2045.000000	44.790777
2044.000000	44.787398
2043.000000	44.766202
2042.000000	44.723242
2041.000000	44.742125
2040.000000	44.754018
2039.000000	44.769455
2038.000000	44.840029
2037.000000	44.884958
2036.000000	44.885627
2035.000000	45.015304
2034.000000	45.129879
2033.000000	45.209821
2032.000000	45.381474
2031.000000	45.501878
2030.000000	45.581628
2029.000000	45.705464
2028.000000	45.825603
2027.000000	45.960994
2026.000000	46.093981
2025.000000	46.203519
2024.000000	46.319122
2023.000000	46.418757
2022.000000	46.527689
2021.000000	46.621758
2020.000000	46.675656
2019.000000	46.732470
2018.000000	46.830666
2017.000000	46.879600
2016.000000	46.878225
2015.000000	46.907687
2014.000000	46.930525
2013.000000	46.983115
2012.000000	46.976604
2011.000000	46.947541
2010.000000	46.948852
2009.000000	46.926124
2008.000000	46.869623
2007.000000	46.826441
2006.000000	46.755858
2005.000000	46.689925
2004.000000	46.633867
2003.000000	46.592163
2002.000000	46.545348
2001.000000	46.438091
2000.000000	46.395169
1999.000000	46.346396
1998.000000	46.256859
1997.000000	46.185576
1996.000000	46.118454
1995.000000	46.009847
1994.000000	45.889419
1993.000000	45.811154
1992.000000	45.731177
1991.000000	45.606217
1990.000000	45.572463
1989.000000	45.459540
1988.000000	45.332161
1987.000000	45.291997
1986.000000	45.208841
1985.000000	45.106110
1984.000000	44.965116
1983.000000	44.862738
1982.000000	44.805957
1981.000000	44.727714
1980.000000	44.666620
1979.000000	44.555194
1978.000000	44.473631
1977.000000	44.393981
1976.000000	44.224504
1975.000000	44.175215
1974.000000	44.041548
1973.000000	43.966026
1972.000000	43.895039
1971.000000	43.764381
1970.000000	43.661753
1969.000000	43.583944
1968.000000	43.527508
1967.000000	43.417013
1966.000000	43.309977
1965.000000	43.236373
1964.000000	43.123942
1963.000000	43.028066
1962.000000	42.984233
1961.000000	42.873153
1960.000000	42.792863
1959.000000	42.726631
1958.000000	42.584395
1957.000000	42.547555
1956.000000	42.497527
1955.000000	42.395221
1954.000000	42.304623
1953.000000	42.236923
1952.000000	42.145509
1951.000000	42.087010
1950.000000	42.047781
1949.000000	42.013780
1948.000000	41.908398
1947.000000	41.919556
1946.000000	41.882239
1945.000000	41.887834
1944.000000	41.832713
1943.000000	41.893278
1942.000000	41.902494
1941.000000	41.898091
1940.000000	41.956001
1939.000000	42.019787
1938.000000	42.056813
1937.000000	42.130716
1936.000000	42.170284
1935.000000	42.279566
1934.000000	42.396035
1933.000000	42.524043
1932.000000	42.677004
1931.000000	42.775076
1930.000000	42.936257
1929.000000	43.133654
1928.000000	43.331554
1927.000000	43.505038
1926.000000	43.667563
1925.000000	43.897860
1924.000000	44.141962
1923.000000	44.399733
1922.000000	44.623214
1921.000000	44.909362
1920.000000	45.192201
1919.000000	45.431472
1918.000000	45.713994
1917.000000	46.061950
1916.000000	46.279431
1915.000000	46.704784
1914.000000	46.988423
1913.000000	47.347646
1912.000000	47.653510
1911.000000	47.944737
1910.000000	48.311640
1909.000000	48.690109
1908.000000	49.032807
1907.000000	49.454393
1906.000000	49.823176
1905.000000	50.213618
1904.000000	50.586911
1903.000000	50.930374
1902.000000	51.426362
1901.000000	51.784050
1900.000000	52.166490
1899.000000	52.540102
1898.000000	52.975914
1897.000000	53.384499
1896.000000	53.737502
1895.000000	54.131536
1894.000000	54.470471
1893.000000	54.851747
1892.000000	55.242323
1891.000000	55.571017
1890.000000	55.892351
1889.000000	56.188540
1888.000000	56.549153
1887.000000	56.818025
1886.000000	57.177495
1885.000000	57.455664
1884.000000	57.770836
1883.000000	58.025031
1882.000000	58.223669
1881.000000	58.455361
1880.000000	58.693196
1879.000000	58.922445
1878.000000	59.096366
1877.000000	59.354944
1876.000000	59.508169
1875.000000	59.625856
1874.000000	59.818762
1873.000000	59.969300
1872.000000	60.108166
1871.000000	60.244029
1870.000000	60.301079
1869.000000	60.465236
1868.000000	60.549445
1867.000000	60.588446
1866.000000	60.673896
1865.000000	60.749898
1864.000000	60.790681
1863.000000	60.834142
1862.000000	60.887921
1861.000000	60.936050
1860.000000	60.990457
1859.000000	61.059473
1858.000000	61.044686
1857.000000	61.068649
1856.000000	61.078759
1855.000000	61.117563
1854.000000	61.163911
1853.000000	61.153393
1852.000000	61.132854
1851.000000	61.151673
1850.000000	61.161131
1849.000000	61.143176
1848.000000	61.154575
1847.000000	61.189524
1846.000000	61.162541
1845.000000	61.144039
1844.000000	61.118872
1843.000000	61.047885
1842.000000	61.065836
1841.000000	61.067164
1840.000000	61.039222
1839.000000	61.015550
1838.000000	61.034117
1837.000000	60.969595
1836.000000	60.909786
1835.000000	60.912431
1834.000000	60.886814
1833.000000	60.835379
1832.000000	60.808501
1831.000000	60.779444
1830.000000	60.756131
1829.000000	60.726301
1828.000000	60.700014
1827.000000	60.693393
1826.000000	60.668979
1825.000000	60.653021
1824.000000	60.660689
1823.000000	60.643974
1822.000000	60.605695
1821.000000	60.569665
1820.000000	60.532634
1819.000000	60.506254
1818.000000	60.508904
1817.000000	60.506939
1816.000000	60.445755
1815.000000	60.409288
1814.000000	60.392319
1813.000000	60.358917
1812.000000	60.319175
1811.000000	60.305473
1810.000000	60.293910
1809.000000	60.270272
1808.000000	60.255126
1807.000000	60.212393
1806.000000	60.182314
1805.000000	60.163468
1804.000000	60.128105
1803.000000	60.114648
1802.000000	60.117148
1801.000000	60.099558
1800.000000	60.058034
1799.000000	60.033233
1798.000000	60.010849
1797.000000	60.002961
1796.000000	59.999371
1795.000000	59.980652
1794.000000	59.962554
1793.000000	59.947140
1792.000000	59.927034
1791.000000	59.905526
1790.000000	59.880934
1789.000000	59.875619
1788.000000	59.894577
1787.000000	59.847135
1786.000000	59.793093
1785.000000	59.770556
1784.000000	59.747928
1783.000000	59.742024
1782.000000	59.717585
1781.000000	59.692536
1780.000000	59.650831
1779.000000	59.622412
1778.000000	59.576255
1777.000000	59.517669
1776.000000	59.523025
1775.000000	59.492885
1774.000000	59.408640
1773.000000	59.370953
1772.000000	59.332848
1771.000000	59.293551
1770.000000	59.259124
1769.000000	59.199590
1768.000000	59.140656
1767.000000	59.107804
1766.000000	59.047303
1765.000000	59.006824
1764.000000	58.991701
1763.000000	58.935883
1762.000000	58.925091
1761.000000	58.863736
1760.000000	58.813188
1759.000000	58.756454
1758.000000	58.692479
1757.000000	58.649487
1756.000000	58.636572
1755.000000	58.579221
1754.000000	58.501833
1753.000000	58.475603
1752.000000	58.427547
1751.000000	58.362311
1750.000000	58.324909
1749.000000	58.317536
1748.000000	58.258204
1747.000000	58.204491
1746.000000	58.149997
1745.000000	58.096252
1744.000000	58.057599
1743.000000	58.017561
1742.000000	57.972258
1741.000000	57.942199
1740.000000	57.887915
1739.000000	57.838899
1738.000000	57.804053
1737.000000	57.764380
1736.000000	57.733900
1735.000000	57.756993
1734.000000	57.755851
1733.000000	57.715748
1732.000000	57.716444
1731.000000	57.744917
1730.000000	57.751152
1729.000000	57.782831
1728.000000	57.828286
1727.000000	57.845951
1726.000000	57.897133
1725.000000	57.948157
1724.000000	57.981407
1723.000000	58.059260
1722.000000	58.103137
1721.000000	58.206285
1720.000000	58.293042
1719.000000	58.364274
1718.000000	58.414450
1717.000000	58.495581
1716.000000	58.564783
1715.000000	58.582472
1714.000000	58.677691
1713.000000	58.770835
1712.000000	58.826422
1711.000000	58.871685
1710.000000	58.924976
1709.000000	58.934070
1708.000000	58.991595
1707.000000	59.057781
1706.000000	59.060648
1705.000000	59.109276
1704.000000	59.130519
1703.000000	59.111787
1702.000000	59.130336
1701.000000	59.137390
1700.000000	59.163903
1699.000000	59.164941
1698.000000	59.183233
1697.000000	59.221919
1696.000000	59.247059
1695.000000	59.249079
1694.000000	59.314739
1693.000000	59.319434
1692.000000	59.332685
1691.000000	59.401977
1690.000000	59.486742
1689.000000	59.524401
1688.000000	59.578466
1687.000000	59.667094
1686.000000	59.741083
1685.000000	59.846658
1684.000000	59.945767
1683.000000	60.063702
1682.000000	60.178281
1681.000000	60.322599
1680.000000	60.405519
1679.000000	60.563989
1678.000000	60.663870
1677.000000	60.810600
1676.000000	60.921224
1675.000000	61.072738
1674.000000	61.211846
1673.000000	61.354919
1672.000000	61.457730
1671.000000	61.570715
1670.000000	61.691876
1669.000000	61.836365
1668.000000	61.920489
1667.000000	62.034636
1666.000000	62.109700
1665.000000	62.181799
1664.000000	62.259091
1663.000000	62.326097
1662.000000	62.375175
1661.000000	62.442086
1660.000000	62.491224
1659.000000	62.562560
1658.000000	62.608163
1657.000000	62.618006
1656.000000	62.673765
1655.000000	62.684119
1654.000000	62.712905
1653.000000	62.727790
1652.000000	62.751927
1651.000000	62.746924
1650.000000	62.751929
1649.000000	62.778897
1648.000000	62.755031
1647.000000	62.765886
1646.000000	62.750693
1645.000000	62.731642
1644.000000	62.718618
1643.000000	62.711945
1642.000000	62.714219
1641.000000	62.692537
1640.000000	62.679100
1639.000000	62.663407
1638.000000	62.643701
1637.000000	62.624506
1636.000000	62.590824
1635.000000	62.571449
1634.000000	62.553174
1633.000000	62.510838
1632.000000	62.495454
1631.000000	62.491274
1630.000000	62.461461
1629.000000	62.420254
1628.000000	62.393011
1627.000000	62.368412
1626.000000	62.345847
1625.000000	62.318545
1624.000000	62.300605
1623.000000	62.284547
1622.000000	62.248692
1621.000000	62.190364
1620.000000	62.168030
1619.000000	62.130243
1618.000000	62.076255
1617.000000	62.064040
1616.000000	62.036732
1615.000000	61.988805
1614.000000	61.948074
1613.000000	61.914863
1612.000000	61.870843
1611.000000	61.833050
1610.000000	61.817738
1609.000000	61.794206
1608.000000	61.742964
1607.000000	61.690112
1606.000000	61.636128
1605.000000	61.586040
1604.000000	61.548006
1603.000000	61.504599
1602.000000	61.472114
1601.000000	61.436221
1600.000000	61.388708
1599.000000	61.346331
1598.000000	61.306861
1597.000000	61.277018
1596.000000	61.231214
1595.000000	61.194879
1594.000000	61.158368
1593.000000	61.120357
1592.000000	61.084490
1591.000000	61.046990
1590.000000	61.001560
1589.000000	60.961690
1588.000000	60.943189
1587.000000	60.925776
1586.000000	60.882403
1585.000000	60.841157
1584.000000	60.803557
1583.000000	60.778682
1582.000000	60.740809
1581.000000	60.694872
1580.000000	60.670400
1579.000000	60.653276
1578.000000	60.636546
1577.000000	60.607844
1576.000000	60.577272
1575.000000	60.541564
1574.000000	60.513045
1573.000000	60.485594
1572.000000	60.454468
1571.000000	60.406335
1570.000000	60.383003
1569.000000	60.369220
1568.000000	60.337518
1567.000000	60.304088
1566.000000	60.277718
1565.000000	60.267256
1564.000000	60.238572
1563.000000	60.228547
1562.000000	60.221709
1561.000000	60.202930
1560.000000	60.183313
1559.000000	60.172661
1558.000000	60.152281
1557.000000	60.147684
1556.000000	60.123855
1555.000000	60.106655
1554.000000	60.080046
1553.000000	60.075327
1552.000000	60.064844
1551.000000	60.030820
1550.000000	60.018101
1549.000000	59.983964
1548.000000	59.953147
1547.000000	59.931584
1546.000000	59.897054
1545.000000	59.845402
1544.000000	59.794846
1543.000000	59.761249
1542.000000	59.721166
1541.000000	59.657012
1540.000000	59.596681
1539.000000	59.531326
1538.000000	59.463733
1537.000000	59.393623
1536.000000	59.338942
1535.000000	59.282520
1534.000000	59.216618
1533.000000	59.166597
1532.000000	59.092400
1531.000000	59.000375
1530.000000	58.948789
1529.000000	58.896029
1528.000000	58.838210
1527.000000	58.777024
1526.000000	58.732944
1525.000000	58.664447
1524.000000	58.596700
1523.000000	58.563202
1522.000000	58.517928
1521.000000	58.467551
1520.000000	58.453035
1519.000000	58.371679
1518.000000	58.331022
1517.000000	58.310493
1516.000000	58.277867
1515.000000	58.240283
1514.000000	58.252329
1513.000000	58.250742
1512.000000	58.279628
1511.000000	58.250193
1510.000000	58.226155
1509.000000	58.209903
1508.000000	58.161616
1507.000000	58.124290
1506.000000	58.095240
1505.000000	58.061743
1504.000000	58.075627
1503.000000	58.048222
1502.000000	58.058483
1501.000000	58.037582
1500.000000	58.046276
1499.000000	58.054942
1498.000000	58.058104
1497.000000	58.066224
1496.000000	58.080271
1495.000000	58.079657
1494.000000	58.100574
1493.000000	58.149806
1492.000000	58.186556
1491.000000	58.223785
1490.000000	58.271505
1489.000000	58.295301
1488.000000	58.339163
1487.000000	58.396906
1486.000000	58.435642
1485.000000	58.536672
1484.000000	58.584678
1483.000000	58.635371
1482.000000	58.712290
1481.000000	58.767169
1480.000000	58.825667
1479.000000	58.898604
1478.000000	58.968061
1477.000000	59.051796
1476.000000	59.101089
1475.000000	59.157032
1474.000000	59.242770
1473.000000	59.276111
1472.000000	59.351542
1471.000000	59.399517
1470.000000	59.516074
1469.000000	59.554569
1468.000000	59.585408
1467.000000	59.627296
1466.000000	59.669228
1465.000000	59.736271
1464.000000	59.810621
1463.000000	59.843332
1462.000000	59.874786
1461.000000	59.911650
1460.000000	59.944909
1459.000000	60.004049
1458.000000	60.058805
1457.000000	60.090874
1456.000000	60.133735
1455.000000	60.204073
1454.000000	60.242295
1453.000000	60.278456
1452.000000	60.300163
1451.000000	60.347675
1450.000000	60.419532
1449.000000	60.476070
1448.000000	60.497304
1447.000000	60.550769
1446.000000	60.598618
1445.000000	60.641438
1444.000000	60.705540
1443.000000	60.781728
1442.000000	60.823421
1441.000000	60.858189
1440.000000	60.919341
1439.000000	60.986830
1438.000000	61.043504
1437.000000	61.122918
1436.000000	61.176744
1435.000000	61.253731
1434.000000	61.326900
1433.000000	61.377379
1432.000000	61.464901
1431.000000	61.523338
1430.000000	61.594740
1429.000000	61.672689
1428.000000	61.746366
1427.000000	61.836973
1426.000000	61.916035
1425.000000	62.010971
1424.000000	62.107510
1423.000000	62.201292
1422.000000	62.279898
1421.000000	62.363400
1420.000000	62.450181
1419.000000	62.568832
1418.000000	62.691098
1417.000000	62.800976
1416.000000	62.896439
1415.000000	63.002390
1414.000000	63.091168
1413.000000	63.192070
1412.000000	63.316790
1411.000000	63.430502
1410.000000	63.545278
1409.000000	63.631516
1408.000000	63.727679
1407.000000	63.855905
1406.000000	63.961375
1405.000000	64.064720
1404.000000	64.172895
1403.000000	64.269399
1402.000000	64.368016
1401.000000	64.465401
1400.000000	64.552174
1399.000000	64.655966
1398.000000	64.743295
1397.000000	64.831945
1396.000000	64.913794
1395.000000	64.992444
1394.000000	65.078078
1393.000000	65.156144
1392.000000	65.242875
1391.000000	65.311256
1390.000000	65.376176
1389.000000	65.437108
1388.000000	65.502048
1387.000000	65.571622
1386.000000	65.650962
1385.000000	65.727879
1384.000000	65.785939
1383.000000	65.843788
1382.000000	65.907590
1381.000000	65.958509
1380.000000	65.984290
1379.000000	66.014614
1378.000000	66.067935
1377.000000	66.117803
1376.000000	66.171391
1375.000000	66.210641
1374.000000	66.240845
1373.000000	66.262276
1372.000000	66.285037
1371.000000	66.332480
1370.000000	66.368539
1369.000000	66.400719
1368.000000	66.423682
1367.000000	66.448877
1366.000000	66.482821
1365.000000	66.510342
1364.000000	66.531375
1363.000000	66.557952
1362.000000	66.582827
1361.000000	66.619351
1360.000000	66.641831
1359.000000	66.666398
1358.000000	66.696581
1357.000000	66.761320
1356.000000	66.811955
1355.000000	66.823822
1354.000000	66.872537
1353.000000	66.894112
1352.000000	66.942738
1351.000000	66.983877
1350.000000	67.004498
1349.000000	67.047800
1348.000000	67.075739
1347.000000	67.105966
1346.000000	67.147161
1345.000000	67.175248
1344.000000	67.218961
1343.000000	67.248924
1342.000000	67.281706
1341.000000	67.299063
1340.000000	67.343804
1339.000000	67.364913
1338.000000	67.382392
1337.000000	67.406098
1336.000000	67.439631
1335.000000	67.469422
1334.000000	67.484441
1333.000000	67.496629
1332.000000	67.524233
1331.000000	67.525907
1330.000000	67.533939
1329.000000	67.568337
1328.000000	67.599175
1327.000000	67.631988
1326.000000	67.616131
1325.000000	67.615359
1324.000000	67.622184
1323.000000	67.638926
1322.000000	67.648610
1321.000000	67.673105
1320.000000	67.662848
1319.000000	67.670637
1318.000000	67.689743
1317.000000	67.704217
1316.000000	67.713587
1315.000000	67.706986
1314.000000	67.720460
1313.000000	67.727489
1312.000000	67.715499
1311.000000	67.746436
1310.000000	67.738702
1309.000000	67.762764
1308.000000	67.763922
1307.000000	67.748045
1306.000000	67.785646
1305.000000	67.787981
1304.000000	67.804204
1303.000000	67.802526
1302.000000	67.791689
1301.000000	67.790538
1300.000000	67.804763
1299.000000	67.818592
1298.000000	67.809701
1297.000000	67.802630
1296.000000	67.812222
1295.000000	67.828320
1294.000000	67.839125
1293.000000	67.822915
1292.000000	67.812584
1291.000000	67.809741
1290.000000	67.823595
1289.000000	67.828082
1288.000000	67.805018
1287.000000	67.809989
1286.000000	67.787517
1285.000000	67.788445
1284.000000	67.810996
1283.000000	67.794786
1282.000000	67.804169
1281.000000	67.792411
1280.000000	67.796735
1279.000000	67.787011
1278.000000	67.795409
1277.000000	67.771604
1276.000000	67.775988
1275.000000	67.787201
1274.000000	67.790766
1273.000000	67.800440
1272.000000	67.800140
1271.000000	67.781280
1270.000000	67.788274
1269.000000	67.808665
1268.000000	67.813083
1267.000000	67.819278
1266.000000	67.796868
1265.000000	67.815611
1264.000000	67.865244
1263.000000	67.818079
1262.000000	67.802077
1261.000000	67.830854
1260.000000	67.832737
1259.000000	67.855122
1258.000000	67.865442
1257.000000	67.853638
1256.000000	67.862303
1255.000000	67.865421
1254.000000	67.897078
1253.000000	67.870186
1252.000000	67.890885
1251.000000	67.878690
1250.000000	67.881757
1249.000000	67.888876
1248.000000	67.878720
1247.000000	67.885466
1246.000000	67.880956
1245.000000	67.886217
1244.000000	67.887955
1243.000000	67.871208
1242.000000	67.858259
1241.000000	67.855072
1240.000000	67.848550
1239.000000	67.820280
1238.000000	67.839410
1237.000000	67.806440
1236.000000	67.815438
1235.000000	67.810021
1234.000000	67.777742
1233.000000	67.762294
1232.000000	67.749207
1231.000000	67.748579
1230.000000	67.748897
1229.000000	67.737360
1228.000000	67.731533
1227.000000	67.720777
1226.000000	67.697521
1225.000000	67.685986
1224.000000	67.674893
1223.000000	67.662982
1222.000000	67.660709
1221.000000	67.627581
1220.000000	67.627687
1219.000000	67.607146
1218.000000	67.603512
1217.000000	67.572528
1216.000000	67.565903
1215.000000	67.561121
1214.000000	67.532362
1213.000000	67.537715
1212.000000	67.498770
1211.000000	67.499565
1210.000000	67.484627
1209.000000	67.474302
1208.000000	67.436565
1207.000000	67.420546
1206.000000	67.402719
1205.000000	67.361474
1204.000000	67.359628
1203.000000	67.337745
1202.000000	67.305462
1201.000000	67.301591
1200.000000	67.311058
1199.000000	67.277888
1198.000000	67.240875
1197.000000	67.232824
1196.000000	67.230109
1195.000000	67.216638
1194.000000	67.201151
1193.000000	67.175293
1192.000000	67.158920
1191.000000	67.156680
1190.000000	67.140946
1189.000000	67.127852
1188.000000	67.116095
1187.000000	67.124032
1186.000000	67.106690
1185.000000	67.113774
1184.000000	67.112048
1183.000000	67.119884
1182.000000	67.144545
1181.000000	67.149203
1180.000000	67.164767
1179.000000	67.189102
1178.000000	67.201841
1177.000000	67.209986
1176.000000	67.234840
1175.000000	67.276655
1174.000000	67.305437
1173.000000	67.329593
1172.000000	67.359283
1171.000000	67.378711
1170.000000	67.413829
1169.000000	67.451016
1168.000000	67.485064
1167.000000	67.521323
1166.000000	67.575720
1165.000000	67.612479
1164.000000	67.646950
1163.000000	67.690502
1162.000000	67.725304
1161.000000	67.765861
1160.000000	67.808447
1159.000000	67.851203
1158.000000	67.894807
1157.000000	67.917088
1156.000000	67.935262
1155.000000	67.981855
1154.000000	68.025076
1153.000000	68.042164
1152.000000	68.074340
1151.000000	68.112779
1150.000000	68.137149
1149.000000	68.164575
1148.000000	68.193726
1147.000000	68.203416
1146.000000	68.214836
1145.000000	68.238615
1144.000000	68.262650
1143.000000	68.298877
1142.000000	68.319257
1141.000000	68.343014
1140.000000	68.358503
1139.000000	68.383054
1138.000000	68.406390
1137.000000	68.421453
1136.000000	68.438729
1135.000000	68.460273
1134.000000	68.490952
1133.000000	68.509629
1132.000000	68.520582
1131.000000	68.534183
1130.000000	68.554964
1129.000000	68.572837
1128.000000	68.586194
1127.000000	68.606636
1126.000000	68.635004
1125.000000	68.638127
1124.000000	68.641218
1123.000000	68.653568
1122.000000	68.653819
1121.000000	68.654993
1120.000000	68.649112
1119.000000	68.666856
1118.000000	68.679192
1117.000000	68.687556
1116.000000	68.702331
1115.000000	68.692545
1114.000000	68.700273
1113.000000	68.707709
1112.000000	68.711195
1111.000000	68.709408
1110.000000	68.699408
1109.000000	68.715117
1108.000000	68.737329
1107.000000	68.741153
1106.000000	68.727592
1105.000000	68.733628
1104.000000	68.727624
1103.000000	68.712648
1102.000000	68.727974
1101.000000	68.731894
1100.000000	68.722888
1099.000000	68.734018
1098.000000	68.753617
1097.000000	68.752988
1096.000000	68.738902
1095.000000	68.718673
1094.000000	68.743236
1093.000000	68.758337
1092.000000	68.756257
1091.000000	68.742046
1090.000000	68.753003
1089.000000	68.761179
1088.000000	68.743368
1087.000000	68.725323
1086.000000	68.723915
1085.000000	68.733972
1084.000000	68.737901
1083.000000	68.740890
1082.000000	68.748944
1081.000000	68.733729
1080.000000	68.745581
1079.000000	68.749646
1078.000000	68.742058
1077.000000	68.739864
1076.000000	68.747153
1075.000000	68.740661
1074.000000	68.726370
1073.000000	68.720014
1072.000000	68.721013
1071.000000	68.737400
1070.000000	68.722624
1069.000000	68.717563
1068.000000	68.741120
1067.000000	68.723858
1066.000000	68.683282
1065.000000	68.714536
1064.000000	68.699184
1063.000000	68.696181
1062.000000	68.698684
1061.000000	68.712311
1060.000000	68.683527
1059.000000	68.702423
1058.000000	68.701438
1057.000000	68.703137
1056.000000	68.683166
1055.000000	68.701124
1054.000000	68.670610
1053.000000	68.668172
1052.000000	68.670984
1051.000000	68.661907
1050.000000	68.679678
1049.000000	68.681576
1048.000000	68.665697
1047.000000	68.684017
1046.000000	68.668658
1045.000000	68.668663
1044.000000	68.661331
1043.000000	68.644692
1042.000000	68.636545
1041.000000	68.643363
1040.000000	68.621653
1039.000000	68.633356
1038.000000	68.648892
1037.000000	68.635333
1036.000000	68.646141
1035.000000	68.640258
1034.000000	68.635358
1033.000000	68.640106
1032.000000	68.641376
1031.000000	68.653823
1030.000000	68.655773
1029.000000	68.627955
1028.000000	68.654730
1027.000000	68.644136
1026.000000	68.659518
1025.000000	68.646710
1024.000000	68.651181
1023.000000	68.640801
1022.000000	68.640949
1021.000000	68.661810
1020.000000	68.650586
1019.000000	68.646696
1018.000000	68.642777
1017.000000	68.661947
1016.000000	68.675535
1015.000000	68.673952
1014.000000	68.643997
1013.000000	68.667166
1012.000000	68.672896
1011.000000	68.666636
1010.000000	68.694656
1009.000000	68.697934
1008.000000	68.679066
1007.000000	68.689315
1006.000000	68.691354
1005.000000	68.694616
1004.000000	68.699965
1003.000000	68.712489
1002.000000	68.703806
1001.000000	68.699097
1000.000000	68.710275
999.000000	68.725934
998.000000	68.741051
997.000000	68.740526
996.000000	68.739383
995.000000	68.735374
994.000000	68.744485
993.000000	68.761028
992.000000	68.764571
991.000000	68.773068
990.000000	68.784027
989.000000	68.778313
988.000000	68.778459
987.000000	68.793738
986.000000	68.801368
985.000000	68.799058
984.000000	68.811602
983.000000	68.825351
982.000000	68.816190
981.000000	68.841987
980.000000	68.852116
979.000000	68.828242
978.000000	68.833557
977.000000	68.852195
976.000000	68.853539
975.000000	68.847351
974.000000	68.851587
973.000000	68.868523
972.000000	68.865184
971.000000	68.858587
970.000000	68.878672
969.000000	68.895646
968.000000	68.911042
967.000000	68.898398
966.000000	68.908006
965.000000	68.914860
964.000000	68.906849
963.000000	68.911460
962.000000	68.919944
961.000000	68.919895
960.000000	68.939557
959.000000	68.938104
958.000000	68.919286
957.000000	68.935896
956.000000	68.954354
955.000000	68.973667
954.000000	68.976382
953.000000	68.968465
952.000000	68.963644
951.000000	68.965052
950.000000	68.966769
949.000000	68.970933
948.000000	68.966738
947.000000	68.987139
946.000000	68.992347
945.000000	68.981012
944.000000	68.983464
943.000000	69.004192
942.000000	69.017137
941.000000	69.014244
940.000000	69.024262
939.000000	69.043106
938.000000	69.043228
937.000000	69.023874
936.000000	69.019530
935.000000	69.041398
934.000000	69.058169
933.000000	69.038903
932.000000	69.010557
931.000000	69.029535
930.000000	69.045265
929.000000	69.036842
928.000000	69.052877
927.000000	69.064120
926.000000	69.054059
925.000000	69.049955
924.000000	69.039158
923.000000	69.033476
922.000000	69.047455
921.000000	69.049214
920.000000	69.023991
919.000000	69.025004
918.000000	69.050432
917.000000	69.047301
916.000000	69.053125
915.000000	69.028718
914.000000	69.026890
913.000000	69.021514
912.000000	69.034448
911.000000	69.058926
910.000000	69.059856
909.000000	69.049118
908.000000	69.048778
907.000000	69.083010
906.000000	69.094896
905.000000	69.065484
904.000000	69.052675
903.000000	69.069481
902.000000	69.079188
901.000000	69.122815
900.000000	69.114763
899.000000	69.089632
898.000000	69.097684
897.000000	69.090695
896.000000	69.133325
895.000000	69.126055
894.000000	69.087337
893.000000	69.108316
892.000000	69.156350
891.000000	69.135159
890.000000	69.156980
889.000000	69.171757
888.000000	69.136425
887.000000	69.135694
886.000000	69.147206
885.000000	69.193798
884.000000	69.175242
883.000000	69.113275
882.000000	69.184534
881.000000	69.194328
880.000000	69.248098
879.000000	69.221609
878.000000	69.212927
877.000000	69.191292
876.000000	69.172222
875.000000	69.187310
874.000000	69.292389
873.000000	69.288864
872.000000	69.181978
871.000000	69.297046
870.000000	69.274336
869.000000	69.281523
868.000000	69.187162
867.000000	69.162374
866.000000	69.263901
865.000000	69.255791
864.000000	69.230871
863.000000	69.297493
862.000000	69.176550
861.000000	69.161905
860.000000	69.194412
859.000000	68.908689
858.000000	69.038500
857.000000	68.543291
856.000000	68.898165
855.000000	68.905822
854.000000	69.089681
853.000000	68.758324
852.000000	68.737898
851.000000	68.995786
850.000000	68.770690
849.000000	69.108854
848.000000	68.941081
847.000000	69.099177
846.000000	68.834624
845.000000	68.800227
844.000000	69.006665
843.000000	68.998236
842.000000	68.851629
841.000000	68.701561
840.000000	68.893677
839.000000	68.923172
838.000000	68.904203
837.000000	69.010260
836.000000	69.176106
835.000000	68.836687
834.000000	68.872444
833.000000	68.901402
832.000000	68.896453
831.000000	68.850995
830.000000	68.912972
829.000000	68.940693
828.000000	68.673450
827.000000	68.933825
826.000000	68.826754
825.000000	68.810056
824.000000	68.950261
823.000000	68.951208
822.000000	68.653683
821.000000	68.792355
820.000000	68.853526
819.000000	68.969231
818.000000	68.941186
817.000000	68.930093
816.000000	68.910991
815.000000	68.915239
814.000000	68.958414
813.000000	68.864587
812.000000	68.901687
811.000000	68.918601
810.000000	69.021848
809.000000	68.961479
808.000000	68.985226
807.000000	68.901245
806.000000	68.960425
805.000000	69.051362
804.000000	68.880260
803.000000	69.104277
802.000000	68.933091
801.000000	68.992906
800.000000	68.903972
799.000000	69.057372
798.000000	68.911877
797.000000	68.749835
796.000000	68.832925
795.000000	68.910893
794.000000	68.895926
793.000000	68.953851
792.000000	69.135383
791.000000	68.887814
790.000000	68.797053
789.000000	68.924651
788.000000	68.927754
787.000000	68.999291
786.000000	68.935044
785.000000	68.950456
784.000000	68.925629
783.000000	68.966877
782.000000	68.959849
781.000000	68.995770
780.000000	68.950227
779.000000	68.913914
778.000000	69.007388
777.000000	69.059723
776.000000	68.992851
775.000000	68.969339
774.000000	68.946767
773.000000	68.984862
772.000000	68.973468
771.000000	68.909271
770.000000	68.917311
769.000000	68.963245
768.000000	69.041920
767.000000	69.010054
766.000000	68.969169
765.000000	68.996479
764.000000	68.920300
763.000000	68.937464
762.000000	68.954979
761.000000	68.932585
760.000000	68.874205
759.000000	69.001983
758.000000	68.923218
757.000000	68.896790
756.000000	68.994746
755.000000	68.945132
754.000000	68.914195
753.000000	68.914284
752.000000	68.924207
751.000000	68.959498
750.000000	68.924642
749.000000	68.957275
748.000000	68.979424
747.000000	68.967792
746.000000	68.935537
745.000000	68.898776
744.000000	68.917347
743.000000	68.925428
742.000000	68.949060
741.000000	68.926108
740.000000	68.895163
739.000000	68.964350
738.000000	68.951315
737.000000	68.890056
736.000000	68.960213
735.000000	68.928007
734.000000	68.944084
733.000000	69.007396
732.000000	68.871976
731.000000	68.860336
730.000000	68.909623
729.000000	68.886425
728.000000	68.875579
727.000000	68.888410
726.000000	68.933319
725.000000	68.942379
724.000000	68.937338
723.000000	68.886564
722.000000	68.922449
721.000000	68.949172
720.000000	68.946142
719.000000	68.911098
718.000000	68.952941
717.000000	68.994113
716.000000	68.939185
715.000000	68.946948
714.000000	68.985614
713.000000	68.969676
712.000000	68.952638
711.000000	68.981487
710.000000	68.990437
709.000000	68.955931
708.000000	68.922704
707.000000	68.886553
706.000000	68.904370
705.000000	68.932159
704.000000	68.892397
703.000000	68.916843
702.000000	68.966345
701.000000	68.992609
700.000000	68.988061
699.000000	68.944616
698.000000	68.933914
697.000000	68.924220
696.000000	68.937159
695.000000	68.962069
694.000000	68.953584
693.000000	68.975615
692.000000	69.024413
691.000000	69.044543
690.000000	69.012595
689.000000	68.949457
688.000000	68.893086
687.000000	68.878088
686.000000	68.848969
685.000000	68.838718
684.000000	68.903238
683.000000	68.979656
682.000000	68.965691
681.000000	68.913828
680.000000	68.883275
679.000000	68.871630
678.000000	68.923853
677.000000	69.004132
676.000000	68.980978
675.000000	68.934200
674.000000	68.913591
673.000000	68.936183
672.000000	68.943648
671.000000	68.946576
670.000000	68.895321
669.000000	68.927080
668.000000	68.959480
667.000000	68.939934
666.000000	68.965751
665.000000	68.947206
664.000000	68.917266
663.000000	68.921184
662.000000	68.926447
661.000000	68.922454
660.000000	68.932330
659.000000	68.922575
658.000000	68.945113
657.000000	68.938594
656.000000	68.963694
655.000000	68.994148
654.000000	68.925066
653.000000	68.888082
652.000000	68.970191
651.000000	69.018461
650.000000	68.987449
649.000000	68.939354
648.000000	68.954508
647.000000	68.953793
646.000000	68.986108
645.000000	68.991368
644.000000	69.023853
643.000000	69.023094
642.000000	68.990541
641.000000	68.981251
640.000000	68.932068
639.000000	68.994085
638.000000	68.939291
637.000000	68.961511
636.000000	68.938172
635.000000	68.906808
634.000000	68.949524
633.000000	68.977069
632.000000	68.984014
631.000000	69.025584
630.000000	69.010981
629.000000	68.992533
628.000000	69.015539
627.000000	68.996122
626.000000	68.992800
625.000000	69.013216
624.000000	69.031537
623.000000	68.962729
622.000000	68.963824
621.000000	68.944954
620.000000	68.967304
619.000000	68.986403
618.000000	69.062054
617.000000	69.003166
616.000000	68.917527
615.000000	68.949325
614.000000	68.968668
613.000000	68.991391
612.000000	69.018920
611.000000	69.028829
610.000000	68.970194
609.000000	69.012648
608.000000	68.956073
607.000000	68.995367
606.000000	68.978090
605.000000	68.960198
604.000000	68.927033
603.000000	68.918625
602.000000	68.947614
601.000000	68.980839
600.000000	68.940208
599.000000	68.973342
598.000000	68.956996
597.000000	68.943474
596.000000	68.916032
595.000000	68.982019
594.000000	68.932577
593.000000	68.970892
592.000000	68.829929
591.000000	68.941165
590.000000	68.986160
589.000000	68.878971
588.000000	68.953044
587.000000	68.887110
586.000000	68.963695
585.000000	68.931597
584.000000	68.855825
583.000000	68.873658
582.000000	68.917442
581.000000	68.926447
580.000000	68.875075
579.000000	68.915331
578.000000	68.896576
577.000000	68.895814
576.000000	68.970761
575.000000	68.830036
574.000000	68.901476
573.000000	68.889893
572.000000	68.864964
571.000000	68.850454
570.000000	68.846517
569.000000	68.857648
568.000000	68.830204
567.000000	68.783208
566.000000	68.772275
565.000000	68.849552
564.000000	68.858038
563.000000	68.845687
562.000000	68.778087
561.000000	68.810141
560.000000	68.704156
559.000000	68.735448
558.000000	68.695534
557.000000	68.765627
556.000000	68.764391
555.000000	68.718471
554.000000	68.717672
553.000000	68.711381
552.000000	68.699520
551.000000	68.720748
550.000000	68.694898
549.000000	68.630386
548.000000	68.660381
547.000000	68.658748
546.000000	68.643699
545.000000	68.674168
544.000000	68.641511
543.000000	68.654641
542.000000	68.568384
541.000000	68.606242
540.000000	68.554212
539.000000	68.599428
538.000000	68.616404
537.000000	68.586929
536.000000	68.541437
535.000000	68.521102
534.000000	68.538677
533.000000	68.519439
532.000000	68.523121
531.000000	68.482887
530.000000	68.444992
529.000000	68.492329
528.000000	68.444009
527.000000	68.425478
526.000000	68.421507
525.000000	68.434672
524.000000	68.394847
523.000000	68.337513
522.000000	68.369015
521.000000	68.413973
520.000000	68.354947
519.000000	68.350998
518.000000	68.267279
517.000000	68.268017
516.000000	68.266735
515.000000	68.262229
514.000000	68.270051
513.000000	68.253775
512.000000	68.204215
511.000000	68.189228
510.000000	68.183966
509.000000	68.226215
508.000000	68.207812
507.000000	68.147767
506.000000	68.141287
505.000000	68.147090
504.000000	68.074423
503.000000	68.085556
502.000000	68.085429
501.000000	68.055420
500.000000	67.967894
499.000000	68.012261
498.000000	67.999077
497.000000	67.971143
496.000000	67.902108
495.000000	67.909672
494.000000	67.888639
493.000000	67.810832
492.000000	67.788262
491.000000	67.782775
490.000000	67.691126
489.000000	67.726661
488.000000	67.735138
487.000000	67.673367
486.000000	67.610535
485.000000	67.593914
484.000000	67.670752
483.000000	67.708939
482.000000	67.649997
481.000000	67.622135
480.000000	67.553478
479.000000	67.540970
478.000000	67.499338
477.000000	67.482951
476.000000	67.496802
475.000000	67.450562
474.000000	67.371822
473.000000	67.332302
472.000000	67.316714
471.000000	67.290962
470.000000	67.258494
469.000000	67.260991
468.000000	67.211988
467.000000	67.130721
466.000000	67.090998
465.000000	67.021490
464.000000	66.977350
463.000000	66.991744
462.000000	66.942325
461.000000	66.897550
460.000000	66.859974
459.000000	66.805837
458.000000	66.771441
457.000000	66.712583
456.000000	66.658079
455.000000	66.596938
454.000000	66.565204
453.000000	66.560812
452.000000	66.512818
451.000000	66.436275
450.000000	66.348738
449.000000	66.266739
448.000000	66.261318
447.000000	66.236351
446.000000	66.143496
445.000000	66.063485
444.000000	66.011694
443.000000	65.947802
442.000000	65.930941
441.000000	65.877726
440.000000	65.808540
439.000000	65.776959
438.000000	65.710428
437.000000	65.535890
436.000000	65.429052
435.000000	65.335489
434.000000	65.234321
433.000000	65.213738
432.000000	65.172142
431.000000	65.105911
430.000000	65.023597
429.000000	64.869976
428.000000	64.798075
427.000000	64.693045
426.000000	64.608988
425.000000	64.555262
424.000000	64.456059
423.000000	64.348775
422.000000	64.237457
421.000000	64.074161
420.000000	63.992513
419.000000	63.830140
418.000000	63.743660
417.000000	63.680726
416.000000	63.541335
415.000000	63.397410
414.000000	63.312792
413.000000	63.137800
412.000000	62.975515
411.000000	62.885867
410.000000	62.771937
409.000000	62.622206
408.000000	62.465754
407.000000	62.321304
406.000000	62.199745
405.000000	62.025940
404.000000	61.874452
403.000000	61.746904
402.000000	61.606411
401.000000	61.447190
400.000000	61.373423
399.000000	61.156640
398.000000	60.970960
397.000000	60.865755
396.000000	60.648216
395.000000	60.477400
394.000000	60.422806
393.000000	60.220260
392.000000	60.098971
391.000000	59.929786
390.000000	59.819598
389.000000	59.649143
388.000000	59.360142
387.000000	59.232979
386.000000	58.998183
385.000000	58.766691
384.000000	58.621806
383.000000	58.436007
382.000000	58.192559
381.000000	58.018473
380.000000	57.861144
379.000000	57.687091
378.000000	57.121068
377.000000	57.301367
376.000000	57.146354
375.000000	57.028817
374.000000	56.587023
373.000000	56.389921
372.000000	56.148709
371.000000	55.837216
370.000000	55.908708
369.000000	55.367115
368.000000	55.100088
367.000000	54.884763
366.000000	54.614312
365.000000	54.507956
364.000000	54.158070
363.000000	53.850431
362.000000	53.668775
361.000000	53.380412
360.000000	53.174199
359.000000	52.933305
358.000000	52.678378
357.000000	52.489396
356.000000	52.114946
355.000000	51.765548
354.000000	51.952446
353.000000	51.519440
352.000000	51.315615
351.000000	50.897736
350.000000	50.709744
349.000000	50.614729
348.000000	50.327224
347.000000	50.043925
346.000000	49.690719
345.000000	49.174380
344.000000	49.015480
343.000000	48.688045
342.000000	48.391751
341.000000	48.247339
340.000000	47.727007
339.000000	47.056749
338.000000	46.865131
337.000000	46.469382
336.000000	45.769901
335.000000	45.702566
334.000000	45.238097
333.000000	44.625199
332.000000	44.176717
331.000000	43.757847
330.000000	43.237081
329.000000	42.637092
328.000000	42.076833
327.000000	42.026073
326.000000	41.267635
325.000000	40.904157
324.000000	40.504493
323.000000	40.099764
322.000000	39.912972
321.000000	39.435355
320.000000	39.365088
319.000000	39.318125
318.000000	38.718590
317.000000	38.488060
316.000000	38.182596
315.000000	37.965469
314.000000	37.798004
313.000000	37.634990
312.000000	37.310838
311.000000	37.150232
310.000000	36.859554
309.000000	36.555592
308.000000	36.368248
307.000000	36.413029
306.000000	36.049546
305.000000	35.921726
304.000000	35.673966
303.000000	35.406592
302.000000	35.227295
301.000000	34.925185
300.000000	34.600028
299.000000	34.269111
298.000000	33.869205
297.000000	33.435591
296.000000	32.959181
295.000000	32.389354
294.000000	31.741074
293.000000	30.922982
292.000000	30.043860
291.000000	28.944244
290.000000	27.822497
289.000000	26.838956
288.000000	26.206301
287.000000	25.543482
286.000000	24.958360
285.000000	24.651115
284.000000	24.492322
283.000000	24.373009
282.000000	24.288828
281.000000	24.234003
280.000000	24.204068
279.000000	24.270620
278.000000	24.387877
277.000000	24.618992
276.000000	24.830618
275.000000	25.136420
274.000000	25.409181
273.000000	25.612661
272.000000	25.804622
271.000000	25.948542
270.000000	26.073049
269.000000	26.205549
268.000000	26.386621
267.000000	26.669616
266.000000	26.897095
265.000000	27.139161
264.000000	27.481754
263.000000	27.823309
262.000000	28.109666
261.000000	28.153787
260.000000	28.307928
259.000000	28.610817
258.000000	28.932289
257.000000	29.313029
256.000000	29.584830
255.000000	29.760344
254.000000	29.726150
253.000000	29.481799
252.000000	29.418601
251.000000	29.222606
250.000000	28.800894
249.000000	28.182551
248.000000	27.342885
247.000000	26.396836
246.000000	25.315832
245.000000	24.157047
244.000000	22.986500
243.000000	21.756889
242.000000	20.634310
241.000000	19.667775
240.000000	18.825351
239.000000	18.165487
238.000000	17.660909
237.000000	17.312909
236.000000	17.002005
235.000000	16.824323
234.000000	16.771283
233.000000	16.690667
232.000000	16.612837
231.000000	16.562768
230.000000	16.525340
229.000000	16.402352
228.000000	16.333417
227.000000	16.382594
226.000000	16.448764
225.000000	16.469296
224.000000	16.599460
223.000000	16.741628
222.000000	16.916208
221.000000	17.096185
220.000000	17.320600
219.000000	17.508661
218.000000	17.610834
217.000000	17.797542
216.000000	17.986541
215.000000	18.168247
214.000000	18.414499
213.000000	18.710307
212.000000	18.905185
211.000000	19.119311
210.000000	19.461429
209.000000	19.766570
208.000000	19.979873
207.000000	20.306217
206.000000	20.709208
205.000000	20.936167
204.000000	21.282688
203.000000	21.640516
202.000000	21.929526
201.000000	22.287002
200.000000	22.640215
