PE UV       SUBTECH     SPECTRUM    ASCII       PEDS        4.00        
   -1
RTAgneauUK 62.Sample.asc
18/03/02
16:35:36.00
18/03/02
16:35:36.00
Administrator

200.000000
1
Lambda 750
750N8071901
PerkinElmer UV WinLab 6.0.4.0738 / 1.61.00 Lambda 900

0
0
3350/servo 860.8/2
0
0
UV/VIS
1
1
1
CommonBeamDepol,150mm sphere / downward view
0
0
0
0
Program
Program
3350/servo 860.8/2
3350/0.2 860.8/0.2
3350/0.2 860.8/0.2
0
1
 
 
 
0
 
860.8
319.2
860.8
Front
100
on
 
 
0
0
0
 
0
 
 
 
0
 
 
0
0
0
0
0
 
 
 
 
0
0


0
0
#HDR
-1
-1
#GR
nm
%R
1.0
0.0
2350.000000
-1.000000
2151
8
70.634716
17.225087
#DATA
2350.000000	43.906510
2349.000000	43.597700
2348.000000	43.978921
2347.000000	44.397400
2346.000000	43.857209
2345.000000	43.625997
2344.000000	43.885854
2343.000000	43.633263
2342.000000	43.565259
2341.000000	43.791794
2340.000000	44.018126
2339.000000	43.918656
2338.000000	44.163020
2337.000000	43.920659
2336.000000	44.296611
2335.000000	44.548188
2334.000000	44.547577
2333.000000	44.394700
2332.000000	44.689222
2331.000000	44.456144
2330.000000	44.246757
2329.000000	44.223046
2328.000000	44.087098
2327.000000	44.144604
2326.000000	43.980028
2325.000000	43.970328
2324.000000	44.055581
2323.000000	44.127215
2322.000000	43.958561
2321.000000	44.052670
2320.000000	43.818639
2319.000000	43.643889
2318.000000	43.881286
2317.000000	43.804995
2316.000000	43.665990
2315.000000	43.380048
2314.000000	43.368846
2313.000000	43.365850
2312.000000	43.160085
2311.000000	43.154988
2310.000000	43.303832
2309.000000	43.247024
2308.000000	43.055884
2307.000000	42.969401
2306.000000	42.713806
2305.000000	42.764758
2304.000000	42.564966
2303.000000	42.577761
2302.000000	42.571473
2301.000000	42.515495
2300.000000	42.435161
2299.000000	42.356740
2298.000000	42.332060
2297.000000	42.087259
2296.000000	41.985378
2295.000000	42.072118
2294.000000	42.044603
2293.000000	41.979023
2292.000000	41.805735
2291.000000	41.615785
2290.000000	41.591256
2289.000000	41.584991
2288.000000	41.568196
2287.000000	41.512504
2286.000000	41.321602
2285.000000	41.200591
2284.000000	41.274144
2283.000000	41.511254
2282.000000	41.312530
2281.000000	41.297769
2280.000000	41.263540
2279.000000	41.299087
2278.000000	41.377381
2277.000000	41.401447
2276.000000	41.335125
2275.000000	41.363319
2274.000000	41.297643
2273.000000	41.468685
2272.000000	41.492498
2271.000000	41.539896
2270.000000	41.548025
2269.000000	41.632500
2268.000000	41.716434
2267.000000	41.700864
2266.000000	41.987088
2265.000000	42.118110
2264.000000	42.045922
2263.000000	42.098150
2262.000000	42.232905
2261.000000	42.316149
2260.000000	42.493875
2259.000000	42.715160
2258.000000	42.899477
2257.000000	42.991756
2256.000000	43.212121
2255.000000	43.490293
2254.000000	43.670758
2253.000000	43.847066
2252.000000	44.144682
2251.000000	44.372502
2250.000000	44.500812
2249.000000	44.606866
2248.000000	44.808219
2247.000000	45.029826
2246.000000	45.231819
2245.000000	45.368322
2244.000000	45.525025
2243.000000	45.751213
2242.000000	45.818868
2241.000000	45.903673
2240.000000	46.159404
2239.000000	46.311791
2238.000000	46.505139
2237.000000	46.693077
2236.000000	46.714184
2235.000000	46.828861
2234.000000	46.904788
2233.000000	46.971485
2232.000000	47.060862
2231.000000	47.172845
2230.000000	47.146040
2229.000000	47.155349
2228.000000	47.207174
2227.000000	47.227569
2226.000000	47.182927
2225.000000	47.125603
2224.000000	47.151850
2223.000000	47.193999
2222.000000	47.262603
2221.000000	47.323680
2220.000000	47.325638
2219.000000	47.228643
2218.000000	47.276320
2217.000000	47.186893
2216.000000	47.047390
2215.000000	47.019478
2214.000000	47.003837
2213.000000	46.949917
2212.000000	46.992535
2211.000000	46.907947
2210.000000	46.766929
2209.000000	46.697457
2208.000000	46.629373
2207.000000	46.560935
2206.000000	46.692203
2205.000000	46.541978
2204.000000	46.446909
2203.000000	46.330024
2202.000000	46.370647
2201.000000	46.295537
2200.000000	46.193487
2199.000000	46.136232
2198.000000	46.124195
2197.000000	46.127757
2196.000000	46.026977
2195.000000	45.874961
2194.000000	45.855519
2193.000000	45.644357
2192.000000	45.657912
2191.000000	45.625254
2190.000000	45.536723
2189.000000	45.439457
2188.000000	45.402860
2187.000000	45.302324
2186.000000	45.297825
2185.000000	45.211183
2184.000000	45.188366
2183.000000	45.251037
2182.000000	45.166870
2181.000000	45.136846
2180.000000	45.080508
2179.000000	45.072934
2178.000000	45.039039
2177.000000	44.917146
2176.000000	45.158189
2175.000000	45.030237
2174.000000	45.161089
2173.000000	45.304305
2172.000000	45.273346
2171.000000	45.292393
2170.000000	45.242024
2169.000000	45.390417
2168.000000	45.523552
2167.000000	45.392598
2166.000000	45.593260
2165.000000	45.777997
2164.000000	45.839466
2163.000000	45.938450
2162.000000	46.158483
2161.000000	46.190375
2160.000000	46.375021
2159.000000	46.426821
2158.000000	46.604906
2157.000000	46.555837
2156.000000	46.796009
2155.000000	47.039867
2154.000000	47.258450
2153.000000	47.421495
2152.000000	47.551210
2151.000000	47.727126
2150.000000	47.866030
2149.000000	47.906378
2148.000000	48.038389
2147.000000	48.408610
2146.000000	48.509731
2145.000000	48.479805
2144.000000	48.658097
2143.000000	48.789162
2142.000000	48.900784
2141.000000	49.167406
2140.000000	49.264007
2139.000000	49.336037
2138.000000	49.629382
2137.000000	49.592958
2136.000000	49.829388
2135.000000	49.903110
2134.000000	49.990458
2133.000000	50.023410
2132.000000	50.144761
2131.000000	50.450238
2130.000000	50.559353
2129.000000	50.499471
2128.000000	50.445882
2127.000000	50.625710
2126.000000	50.565184
2125.000000	50.494193
2124.000000	50.668734
2123.000000	50.769517
2122.000000	50.816923
2121.000000	50.820800
2120.000000	50.878142
2119.000000	51.000877
2118.000000	50.973919
2117.000000	51.096167
2116.000000	51.078324
2115.000000	51.046994
2114.000000	50.993637
2113.000000	51.101445
2112.000000	51.250253
2111.000000	51.181461
2110.000000	51.065797
2109.000000	51.213561
2108.000000	51.323021
2107.000000	51.204132
2106.000000	51.211510
2105.000000	51.208651
2104.000000	51.265617
2103.000000	51.323189
2102.000000	51.422066
2101.000000	51.431251
2100.000000	51.391254
2099.000000	51.400887
2098.000000	51.305659
2097.000000	51.369862
2096.000000	51.315271
2095.000000	51.352708
2094.000000	51.331437
2093.000000	51.394632
2092.000000	51.354851
2091.000000	51.350269
2090.000000	51.302120
2089.000000	51.355300
2088.000000	51.372109
2087.000000	51.282710
2086.000000	51.350446
2085.000000	51.197034
2084.000000	51.034306
2083.000000	51.110390
2082.000000	51.107451
2081.000000	51.030138
2080.000000	50.933255
2079.000000	50.929102
2078.000000	50.842927
2077.000000	50.821515
2076.000000	50.678540
2075.000000	50.577053
2074.000000	50.390755
2073.000000	50.378946
2072.000000	50.219330
2071.000000	50.056804
2070.000000	49.979047
2069.000000	49.944881
2068.000000	49.747622
2067.000000	49.574555
2066.000000	49.480621
2065.000000	49.311134
2064.000000	49.184419
2063.000000	49.089909
2062.000000	48.908562
2061.000000	48.743095
2060.000000	48.536132
2059.000000	48.486411
2058.000000	48.411916
2057.000000	48.194072
2056.000000	48.066451
2055.000000	47.958882
2054.000000	47.840006
2053.000000	47.664996
2052.000000	47.534539
2051.000000	47.363488
2050.000000	47.246325
2049.000000	47.212733
2048.000000	47.138020
2047.000000	47.022593
2046.000000	46.956505
2045.000000	46.846143
2044.000000	46.787096
2043.000000	46.799427
2042.000000	46.811191
2041.000000	46.820278
2040.000000	46.882645
2039.000000	46.862198
2038.000000	46.868357
2037.000000	46.950778
2036.000000	46.985735
2035.000000	47.076157
2034.000000	47.196322
2033.000000	47.275072
2032.000000	47.390289
2031.000000	47.524049
2030.000000	47.673033
2029.000000	47.756564
2028.000000	47.852474
2027.000000	48.001674
2026.000000	48.179700
2025.000000	48.310006
2024.000000	48.376578
2023.000000	48.466367
2022.000000	48.545586
2021.000000	48.623750
2020.000000	48.700225
2019.000000	48.778400
2018.000000	48.830397
2017.000000	48.882605
2016.000000	48.938736
2015.000000	48.945938
2014.000000	48.968415
2013.000000	48.944374
2012.000000	48.923669
2011.000000	48.935744
2010.000000	48.914508
2009.000000	48.887182
2008.000000	48.860586
2007.000000	48.807663
2006.000000	48.728415
2005.000000	48.672092
2004.000000	48.632213
2003.000000	48.587291
2002.000000	48.513677
2001.000000	48.446399
2000.000000	48.357251
1999.000000	48.277053
1998.000000	48.193307
1997.000000	48.120005
1996.000000	48.088572
1995.000000	47.986140
1994.000000	47.847152
1993.000000	47.790175
1992.000000	47.698185
1991.000000	47.612844
1990.000000	47.533365
1989.000000	47.441303
1988.000000	47.360022
1987.000000	47.253779
1986.000000	47.155043
1985.000000	47.111619
1984.000000	47.010325
1983.000000	46.915029
1982.000000	46.818640
1981.000000	46.722042
1980.000000	46.623630
1979.000000	46.518481
1978.000000	46.460778
1977.000000	46.365648
1976.000000	46.245710
1975.000000	46.150151
1974.000000	46.076285
1973.000000	45.971947
1972.000000	45.869715
1971.000000	45.740302
1970.000000	45.643440
1969.000000	45.575024
1968.000000	45.514313
1967.000000	45.417530
1966.000000	45.322682
1965.000000	45.223661
1964.000000	45.154311
1963.000000	45.044804
1962.000000	44.961736
1961.000000	44.840200
1960.000000	44.765194
1959.000000	44.645009
1958.000000	44.562193
1957.000000	44.500321
1956.000000	44.438533
1955.000000	44.334848
1954.000000	44.276729
1953.000000	44.259220
1952.000000	44.165200
1951.000000	44.066194
1950.000000	44.038455
1949.000000	43.974270
1948.000000	43.978817
1947.000000	43.917186
1946.000000	43.904326
1945.000000	43.935237
1944.000000	43.847327
1943.000000	43.800338
1942.000000	43.935593
1941.000000	43.938028
1940.000000	43.988917
1939.000000	44.021972
1938.000000	44.127300
1937.000000	44.172199
1936.000000	44.261418
1935.000000	44.268525
1934.000000	44.379242
1933.000000	44.553346
1932.000000	44.700611
1931.000000	44.797909
1930.000000	44.999727
1929.000000	45.146739
1928.000000	45.351483
1927.000000	45.517373
1926.000000	45.675165
1925.000000	45.884490
1924.000000	46.194862
1923.000000	46.389506
1922.000000	46.609590
1921.000000	46.895427
1920.000000	47.133614
1919.000000	47.490478
1918.000000	47.721841
1917.000000	48.004621
1916.000000	48.324382
1915.000000	48.618024
1914.000000	48.966208
1913.000000	49.301378
1912.000000	49.682672
1911.000000	49.927640
1910.000000	50.276645
1909.000000	50.666482
1908.000000	50.990141
1907.000000	51.334510
1906.000000	51.775572
1905.000000	52.134861
1904.000000	52.543751
1903.000000	52.899762
1902.000000	53.289691
1901.000000	53.711826
1900.000000	54.095306
1899.000000	54.543016
1898.000000	54.951454
1897.000000	55.303427
1896.000000	55.640168
1895.000000	56.053659
1894.000000	56.327030
1893.000000	56.695664
1892.000000	57.112405
1891.000000	57.414992
1890.000000	57.804607
1889.000000	58.133078
1888.000000	58.403699
1887.000000	58.725899
1886.000000	59.035661
1885.000000	59.259851
1884.000000	59.584938
1883.000000	59.846525
1882.000000	60.042356
1881.000000	60.308414
1880.000000	60.516209
1879.000000	60.688695
1878.000000	60.864930
1877.000000	61.145418
1876.000000	61.295065
1875.000000	61.460204
1874.000000	61.660958
1873.000000	61.768570
1872.000000	61.899576
1871.000000	61.991627
1870.000000	62.073262
1869.000000	62.230026
1868.000000	62.330945
1867.000000	62.341318
1866.000000	62.416975
1865.000000	62.498219
1864.000000	62.556600
1863.000000	62.595400
1862.000000	62.654868
1861.000000	62.671722
1860.000000	62.715447
1859.000000	62.749001
1858.000000	62.759615
1857.000000	62.781540
1856.000000	62.803451
1855.000000	62.826705
1854.000000	62.867166
1853.000000	62.880754
1852.000000	62.905378
1851.000000	62.894808
1850.000000	62.843797
1849.000000	62.839339
1848.000000	62.862276
1847.000000	62.857637
1846.000000	62.867521
1845.000000	62.875978
1844.000000	62.850405
1843.000000	62.775842
1842.000000	62.745954
1841.000000	62.762234
1840.000000	62.755799
1839.000000	62.730903
1838.000000	62.709224
1837.000000	62.688514
1836.000000	62.656706
1835.000000	62.632846
1834.000000	62.612556
1833.000000	62.588408
1832.000000	62.567499
1831.000000	62.507056
1830.000000	62.498293
1829.000000	62.456658
1828.000000	62.411454
1827.000000	62.397687
1826.000000	62.407968
1825.000000	62.369740
1824.000000	62.357420
1823.000000	62.369118
1822.000000	62.319773
1821.000000	62.275074
1820.000000	62.239321
1819.000000	62.223638
1818.000000	62.212273
1817.000000	62.208965
1816.000000	62.174936
1815.000000	62.155376
1814.000000	62.148266
1813.000000	62.116316
1812.000000	62.088494
1811.000000	62.048063
1810.000000	62.011446
1809.000000	62.008911
1808.000000	62.014162
1807.000000	61.978041
1806.000000	61.938432
1805.000000	61.904178
1804.000000	61.873334
1803.000000	61.870261
1802.000000	61.872543
1801.000000	61.856470
1800.000000	61.819336
1799.000000	61.781255
1798.000000	61.784796
1797.000000	61.765851
1796.000000	61.740566
1795.000000	61.723639
1794.000000	61.708159
1793.000000	61.704134
1792.000000	61.690539
1791.000000	61.668623
1790.000000	61.643501
1789.000000	61.603097
1788.000000	61.602833
1787.000000	61.591341
1786.000000	61.552877
1785.000000	61.532516
1784.000000	61.509794
1783.000000	61.497773
1782.000000	61.469113
1781.000000	61.433812
1780.000000	61.393127
1779.000000	61.373232
1778.000000	61.349331
1777.000000	61.311908
1776.000000	61.260155
1775.000000	61.216946
1774.000000	61.154992
1773.000000	61.125563
1772.000000	61.096583
1771.000000	61.033557
1770.000000	60.977381
1769.000000	60.925984
1768.000000	60.884027
1767.000000	60.847655
1766.000000	60.808980
1765.000000	60.777897
1764.000000	60.746561
1763.000000	60.686150
1762.000000	60.656302
1761.000000	60.607690
1760.000000	60.543892
1759.000000	60.492785
1758.000000	60.484767
1757.000000	60.411753
1756.000000	60.393003
1755.000000	60.343226
1754.000000	60.280565
1753.000000	60.236793
1752.000000	60.182120
1751.000000	60.159374
1750.000000	60.123321
1749.000000	60.086885
1748.000000	60.031688
1747.000000	59.964653
1746.000000	59.931183
1745.000000	59.897956
1744.000000	59.846001
1743.000000	59.787150
1742.000000	59.753191
1741.000000	59.712294
1740.000000	59.673814
1739.000000	59.597720
1738.000000	59.590006
1737.000000	59.561427
1736.000000	59.515399
1735.000000	59.511408
1734.000000	59.509463
1733.000000	59.495732
1732.000000	59.494573
1731.000000	59.539681
1730.000000	59.548876
1729.000000	59.525202
1728.000000	59.601635
1727.000000	59.623244
1726.000000	59.666543
1725.000000	59.715012
1724.000000	59.742281
1723.000000	59.810665
1722.000000	59.877891
1721.000000	59.984060
1720.000000	60.087470
1719.000000	60.172667
1718.000000	60.179248
1717.000000	60.253640
1716.000000	60.321136
1715.000000	60.387376
1714.000000	60.486563
1713.000000	60.569549
1712.000000	60.571711
1711.000000	60.640861
1710.000000	60.704922
1709.000000	60.727816
1708.000000	60.772278
1707.000000	60.826001
1706.000000	60.819564
1705.000000	60.855364
1704.000000	60.915308
1703.000000	60.907640
1702.000000	60.900807
1701.000000	60.936852
1700.000000	60.951804
1699.000000	60.955121
1698.000000	60.979156
1697.000000	61.018621
1696.000000	61.026504
1695.000000	61.025586
1694.000000	61.059678
1693.000000	61.091253
1692.000000	61.129598
1691.000000	61.195843
1690.000000	61.253976
1689.000000	61.296974
1688.000000	61.379117
1687.000000	61.444147
1686.000000	61.524105
1685.000000	61.617369
1684.000000	61.728857
1683.000000	61.852208
1682.000000	61.960585
1681.000000	62.111997
1680.000000	62.194669
1679.000000	62.330711
1678.000000	62.444781
1677.000000	62.576361
1676.000000	62.692293
1675.000000	62.839178
1674.000000	62.951064
1673.000000	63.091988
1672.000000	63.190011
1671.000000	63.289772
1670.000000	63.456963
1669.000000	63.553397
1668.000000	63.644294
1667.000000	63.741008
1666.000000	63.817423
1665.000000	63.904576
1664.000000	63.959209
1663.000000	64.039464
1662.000000	64.086044
1661.000000	64.139827
1660.000000	64.190679
1659.000000	64.237534
1658.000000	64.284665
1657.000000	64.305905
1656.000000	64.355975
1655.000000	64.361314
1654.000000	64.383417
1653.000000	64.386400
1652.000000	64.425359
1651.000000	64.414931
1650.000000	64.419876
1649.000000	64.435965
1648.000000	64.424962
1647.000000	64.427429
1646.000000	64.410613
1645.000000	64.400364
1644.000000	64.383778
1643.000000	64.373364
1642.000000	64.371637
1641.000000	64.370003
1640.000000	64.360832
1639.000000	64.351706
1638.000000	64.317007
1637.000000	64.292314
1636.000000	64.256754
1635.000000	64.228069
1634.000000	64.210971
1633.000000	64.177836
1632.000000	64.158820
1631.000000	64.149313
1630.000000	64.128751
1629.000000	64.097787
1628.000000	64.065932
1627.000000	64.049236
1626.000000	64.024867
1625.000000	63.986559
1624.000000	63.949653
1623.000000	63.927538
1622.000000	63.901064
1621.000000	63.864482
1620.000000	63.840101
1619.000000	63.800226
1618.000000	63.763639
1617.000000	63.737676
1616.000000	63.690480
1615.000000	63.645618
1614.000000	63.607042
1613.000000	63.561533
1612.000000	63.525770
1611.000000	63.501780
1610.000000	63.478607
1609.000000	63.445959
1608.000000	63.402543
1607.000000	63.353060
1606.000000	63.304849
1605.000000	63.266573
1604.000000	63.231864
1603.000000	63.189599
1602.000000	63.151071
1601.000000	63.114523
1600.000000	63.064826
1599.000000	63.020076
1598.000000	62.982522
1597.000000	62.955891
1596.000000	62.915281
1595.000000	62.871551
1594.000000	62.838763
1593.000000	62.809855
1592.000000	62.766040
1591.000000	62.738080
1590.000000	62.714859
1589.000000	62.669061
1588.000000	62.643923
1587.000000	62.610811
1586.000000	62.560382
1585.000000	62.530196
1584.000000	62.494835
1583.000000	62.461248
1582.000000	62.429069
1581.000000	62.402888
1580.000000	62.382804
1579.000000	62.354871
1578.000000	62.324887
1577.000000	62.289997
1576.000000	62.260922
1575.000000	62.229393
1574.000000	62.202668
1573.000000	62.178679
1572.000000	62.148492
1571.000000	62.116681
1570.000000	62.092237
1569.000000	62.062288
1568.000000	62.036756
1567.000000	62.016331
1566.000000	61.992266
1565.000000	61.977604
1564.000000	61.948223
1563.000000	61.918912
1562.000000	61.913842
1561.000000	61.899756
1560.000000	61.885502
1559.000000	61.878611
1558.000000	61.872859
1557.000000	61.856324
1556.000000	61.845489
1555.000000	61.837494
1554.000000	61.808028
1553.000000	61.795383
1552.000000	61.793588
1551.000000	61.760519
1550.000000	61.745027
1549.000000	61.715601
1548.000000	61.693012
1547.000000	61.647961
1546.000000	61.624201
1545.000000	61.587284
1544.000000	61.530651
1543.000000	61.486937
1542.000000	61.448134
1541.000000	61.368003
1540.000000	61.329401
1539.000000	61.269365
1538.000000	61.195988
1537.000000	61.136134
1536.000000	61.077721
1535.000000	61.001978
1534.000000	60.943140
1533.000000	60.908986
1532.000000	60.823317
1531.000000	60.728565
1530.000000	60.697973
1529.000000	60.632151
1528.000000	60.580612
1527.000000	60.528703
1526.000000	60.464365
1525.000000	60.419116
1524.000000	60.353153
1523.000000	60.321462
1522.000000	60.285240
1521.000000	60.246026
1520.000000	60.203088
1519.000000	60.128458
1518.000000	60.107592
1517.000000	60.077800
1516.000000	60.050177
1515.000000	60.037541
1514.000000	60.055994
1513.000000	60.056454
1512.000000	60.052529
1511.000000	60.014316
1510.000000	59.979143
1509.000000	59.965883
1508.000000	59.918520
1507.000000	59.894754
1506.000000	59.860804
1505.000000	59.843095
1504.000000	59.841224
1503.000000	59.829525
1502.000000	59.833146
1501.000000	59.816646
1500.000000	59.815199
1499.000000	59.823462
1498.000000	59.836574
1497.000000	59.841709
1496.000000	59.859651
1495.000000	59.864798
1494.000000	59.888778
1493.000000	59.901541
1492.000000	59.947475
1491.000000	59.990563
1490.000000	60.018022
1489.000000	60.073278
1488.000000	60.125718
1487.000000	60.174747
1486.000000	60.216004
1485.000000	60.279934
1484.000000	60.363727
1483.000000	60.403615
1482.000000	60.455163
1481.000000	60.527171
1480.000000	60.599868
1479.000000	60.650563
1478.000000	60.718995
1477.000000	60.771166
1476.000000	60.841994
1475.000000	60.909859
1474.000000	60.966471
1473.000000	61.027746
1472.000000	61.086532
1471.000000	61.178298
1470.000000	61.248488
1469.000000	61.274172
1468.000000	61.330031
1467.000000	61.371190
1466.000000	61.408205
1465.000000	61.448587
1464.000000	61.535362
1463.000000	61.552817
1462.000000	61.579022
1461.000000	61.613873
1460.000000	61.655522
1459.000000	61.739403
1458.000000	61.752403
1457.000000	61.770114
1456.000000	61.840495
1455.000000	61.910826
1454.000000	61.931137
1453.000000	61.971822
1452.000000	61.997473
1451.000000	62.039400
1450.000000	62.123425
1449.000000	62.164047
1448.000000	62.194953
1447.000000	62.240818
1446.000000	62.277975
1445.000000	62.339689
1444.000000	62.410907
1443.000000	62.465954
1442.000000	62.528273
1441.000000	62.556069
1440.000000	62.600291
1439.000000	62.667537
1438.000000	62.726112
1437.000000	62.807668
1436.000000	62.860915
1435.000000	62.921494
1434.000000	62.986791
1433.000000	63.048106
1432.000000	63.120128
1431.000000	63.183862
1430.000000	63.264674
1429.000000	63.333964
1428.000000	63.400519
1427.000000	63.486161
1426.000000	63.579809
1425.000000	63.665888
1424.000000	63.742919
1423.000000	63.836453
1422.000000	63.921776
1421.000000	64.012252
1420.000000	64.112032
1419.000000	64.198151
1418.000000	64.313514
1417.000000	64.408945
1416.000000	64.503371
1415.000000	64.615214
1414.000000	64.714407
1413.000000	64.803495
1412.000000	64.914401
1411.000000	65.018816
1410.000000	65.137087
1409.000000	65.239370
1408.000000	65.321886
1407.000000	65.420397
1406.000000	65.523184
1405.000000	65.629805
1404.000000	65.726926
1403.000000	65.821595
1402.000000	65.925000
1401.000000	66.010822
1400.000000	66.101409
1399.000000	66.192957
1398.000000	66.265968
1397.000000	66.360846
1396.000000	66.446725
1395.000000	66.523687
1394.000000	66.607554
1393.000000	66.673257
1392.000000	66.745845
1391.000000	66.826663
1390.000000	66.880213
1389.000000	66.935507
1388.000000	66.999429
1387.000000	67.077762
1386.000000	67.177192
1385.000000	67.239494
1384.000000	67.273906
1383.000000	67.329205
1382.000000	67.389101
1381.000000	67.429779
1380.000000	67.463322
1379.000000	67.520204
1378.000000	67.565537
1377.000000	67.593976
1376.000000	67.645015
1375.000000	67.682598
1374.000000	67.705574
1373.000000	67.731071
1372.000000	67.754013
1371.000000	67.787862
1370.000000	67.827812
1369.000000	67.852104
1368.000000	67.865760
1367.000000	67.881932
1366.000000	67.913532
1365.000000	67.946300
1364.000000	67.967264
1363.000000	68.003271
1362.000000	68.029743
1361.000000	68.058892
1360.000000	68.089907
1359.000000	68.113011
1358.000000	68.141324
1357.000000	68.207646
1356.000000	68.252426
1355.000000	68.257794
1354.000000	68.305893
1353.000000	68.345589
1352.000000	68.375858
1351.000000	68.410669
1350.000000	68.438295
1349.000000	68.482582
1348.000000	68.513534
1347.000000	68.539817
1346.000000	68.574399
1345.000000	68.613102
1344.000000	68.645308
1343.000000	68.660626
1342.000000	68.694616
1341.000000	68.717334
1340.000000	68.757054
1339.000000	68.780601
1338.000000	68.802697
1337.000000	68.833782
1336.000000	68.860987
1335.000000	68.880422
1334.000000	68.889975
1333.000000	68.900638
1332.000000	68.923970
1331.000000	68.928384
1330.000000	68.957041
1329.000000	68.986888
1328.000000	68.996169
1327.000000	69.018245
1326.000000	69.018258
1325.000000	69.025674
1324.000000	69.030271
1323.000000	69.050808
1322.000000	69.098645
1321.000000	69.091761
1320.000000	69.083502
1319.000000	69.095003
1318.000000	69.102527
1317.000000	69.116607
1316.000000	69.149351
1315.000000	69.139356
1314.000000	69.121332
1313.000000	69.148743
1312.000000	69.139904
1311.000000	69.159605
1310.000000	69.199384
1309.000000	69.184646
1308.000000	69.177609
1307.000000	69.198951
1306.000000	69.211909
1305.000000	69.199238
1304.000000	69.229899
1303.000000	69.219436
1302.000000	69.192310
1301.000000	69.241361
1300.000000	69.238254
1299.000000	69.237274
1298.000000	69.240118
1297.000000	69.221220
1296.000000	69.217194
1295.000000	69.256963
1294.000000	69.251592
1293.000000	69.236256
1292.000000	69.238665
1291.000000	69.241353
1290.000000	69.234476
1289.000000	69.236589
1288.000000	69.235307
1287.000000	69.250608
1286.000000	69.204571
1285.000000	69.197923
1284.000000	69.229464
1283.000000	69.208435
1282.000000	69.209283
1281.000000	69.216890
1280.000000	69.222941
1279.000000	69.205243
1278.000000	69.215153
1277.000000	69.191964
1276.000000	69.204017
1275.000000	69.201921
1274.000000	69.213588
1273.000000	69.205067
1272.000000	69.192193
1271.000000	69.215277
1270.000000	69.213778
1269.000000	69.219220
1268.000000	69.218563
1267.000000	69.210745
1266.000000	69.204013
1265.000000	69.220231
1264.000000	69.277645
1263.000000	69.233446
1262.000000	69.255464
1261.000000	69.268042
1260.000000	69.249791
1259.000000	69.285948
1258.000000	69.298866
1257.000000	69.292992
1256.000000	69.283022
1255.000000	69.294788
1254.000000	69.308139
1253.000000	69.299664
1252.000000	69.290082
1251.000000	69.310482
1250.000000	69.299076
1249.000000	69.304711
1248.000000	69.301574
1247.000000	69.307057
1246.000000	69.306878
1245.000000	69.289792
1244.000000	69.285389
1243.000000	69.299230
1242.000000	69.310601
1241.000000	69.275873
1240.000000	69.251643
1239.000000	69.245426
1238.000000	69.250897
1237.000000	69.223409
1236.000000	69.210095
1235.000000	69.208757
1234.000000	69.191697
1233.000000	69.173780
1232.000000	69.169216
1231.000000	69.163577
1230.000000	69.152600
1229.000000	69.145642
1228.000000	69.113557
1227.000000	69.116832
1226.000000	69.104066
1225.000000	69.089551
1224.000000	69.100138
1223.000000	69.075763
1222.000000	69.077827
1221.000000	69.063315
1220.000000	69.045112
1219.000000	69.021236
1218.000000	69.022618
1217.000000	69.002305
1216.000000	69.001791
1215.000000	68.971515
1214.000000	68.945927
1213.000000	68.955164
1212.000000	68.925061
1211.000000	68.916887
1210.000000	68.907668
1209.000000	68.903978
1208.000000	68.873699
1207.000000	68.854185
1206.000000	68.846189
1205.000000	68.815349
1204.000000	68.815311
1203.000000	68.799090
1202.000000	68.772396
1201.000000	68.776768
1200.000000	68.761417
1199.000000	68.753753
1198.000000	68.722022
1197.000000	68.709547
1196.000000	68.692149
1195.000000	68.665997
1194.000000	68.649721
1193.000000	68.644960
1192.000000	68.634776
1191.000000	68.634163
1190.000000	68.608948
1189.000000	68.584745
1188.000000	68.571802
1187.000000	68.580110
1186.000000	68.571566
1185.000000	68.589651
1184.000000	68.589380
1183.000000	68.592254
1182.000000	68.597383
1181.000000	68.612395
1180.000000	68.630622
1179.000000	68.646841
1178.000000	68.670863
1177.000000	68.683461
1176.000000	68.689040
1175.000000	68.720752
1174.000000	68.749002
1173.000000	68.785614
1172.000000	68.820097
1171.000000	68.832198
1170.000000	68.865567
1169.000000	68.913963
1168.000000	68.944002
1167.000000	68.983651
1166.000000	69.015017
1165.000000	69.034460
1164.000000	69.076667
1163.000000	69.116893
1162.000000	69.163161
1161.000000	69.195383
1160.000000	69.223592
1159.000000	69.269275
1158.000000	69.318373
1157.000000	69.350884
1156.000000	69.378180
1155.000000	69.416259
1154.000000	69.444160
1153.000000	69.466597
1152.000000	69.482482
1151.000000	69.506128
1150.000000	69.534458
1149.000000	69.558616
1148.000000	69.587562
1147.000000	69.601990
1146.000000	69.610902
1145.000000	69.622540
1144.000000	69.645400
1143.000000	69.680718
1142.000000	69.711314
1141.000000	69.734941
1140.000000	69.754374
1139.000000	69.771327
1138.000000	69.800398
1137.000000	69.817562
1136.000000	69.839780
1135.000000	69.863090
1134.000000	69.872674
1133.000000	69.871942
1132.000000	69.876237
1131.000000	69.891591
1130.000000	69.906567
1129.000000	69.931702
1128.000000	69.945171
1127.000000	69.945648
1126.000000	69.960543
1125.000000	69.970588
1124.000000	69.993494
1123.000000	70.014319
1122.000000	70.020563
1121.000000	70.036752
1120.000000	70.043779
1119.000000	70.036906
1118.000000	70.034336
1117.000000	70.042471
1116.000000	70.021456
1115.000000	70.024707
1114.000000	70.038499
1113.000000	70.037062
1112.000000	70.047577
1111.000000	70.042676
1110.000000	70.032921
1109.000000	70.057907
1108.000000	70.073850
1107.000000	70.068759
1106.000000	70.066292
1105.000000	70.072246
1104.000000	70.080825
1103.000000	70.092121
1102.000000	70.084338
1101.000000	70.059903
1100.000000	70.064998
1099.000000	70.074343
1098.000000	70.094446
1097.000000	70.090317
1096.000000	70.098504
1095.000000	70.074995
1094.000000	70.067728
1093.000000	70.071632
1092.000000	70.068310
1091.000000	70.072964
1090.000000	70.077570
1089.000000	70.092019
1088.000000	70.067096
1087.000000	70.060741
1086.000000	70.070328
1085.000000	70.077771
1084.000000	70.074037
1083.000000	70.065647
1082.000000	70.080256
1081.000000	70.065328
1080.000000	70.059865
1079.000000	70.062448
1078.000000	70.059128
1077.000000	70.066694
1076.000000	70.053101
1075.000000	70.062312
1074.000000	70.064950
1073.000000	70.054108
1072.000000	70.039220
1071.000000	70.050305
1070.000000	70.034385
1069.000000	70.019222
1068.000000	70.026215
1067.000000	70.031782
1066.000000	70.029034
1065.000000	70.019706
1064.000000	70.003059
1063.000000	70.010045
1062.000000	69.999030
1061.000000	70.020569
1060.000000	70.018320
1059.000000	70.022243
1058.000000	70.009583
1057.000000	70.007395
1056.000000	69.989970
1055.000000	69.998390
1054.000000	69.991524
1053.000000	69.979101
1052.000000	69.976520
1051.000000	69.972675
1050.000000	69.977233
1049.000000	69.972315
1048.000000	69.951007
1047.000000	69.963922
1046.000000	69.954153
1045.000000	69.971527
1044.000000	69.953774
1043.000000	69.933608
1042.000000	69.930022
1041.000000	69.948535
1040.000000	69.932218
1039.000000	69.914957
1038.000000	69.927748
1037.000000	69.940051
1036.000000	69.943874
1035.000000	69.923043
1034.000000	69.921501
1033.000000	69.929179
1032.000000	69.913695
1031.000000	69.917150
1030.000000	69.930107
1029.000000	69.922078
1028.000000	69.915473
1027.000000	69.929417
1026.000000	69.929792
1025.000000	69.919279
1024.000000	69.933437
1023.000000	69.920911
1022.000000	69.912020
1021.000000	69.940758
1020.000000	69.919852
1019.000000	69.935152
1018.000000	69.920721
1017.000000	69.925377
1016.000000	69.934728
1015.000000	69.929418
1014.000000	69.929144
1013.000000	69.921608
1012.000000	69.946498
1011.000000	69.935168
1010.000000	69.948899
1009.000000	69.957523
1008.000000	69.940947
1007.000000	69.944557
1006.000000	69.956045
1005.000000	69.962515
1004.000000	69.960152
1003.000000	69.973364
1002.000000	69.963507
1001.000000	69.965987
1000.000000	69.971549
999.000000	69.959396
998.000000	69.978882
997.000000	69.992475
996.000000	69.987692
995.000000	69.995654
994.000000	69.996625
993.000000	70.006030
992.000000	70.015058
991.000000	70.023715
990.000000	70.023590
989.000000	70.021740
988.000000	70.034562
987.000000	70.030697
986.000000	70.060068
985.000000	70.056961
984.000000	70.078065
983.000000	70.088035
982.000000	70.064130
981.000000	70.083456
980.000000	70.076446
979.000000	70.076061
978.000000	70.086625
977.000000	70.097830
976.000000	70.082691
975.000000	70.093507
974.000000	70.107519
973.000000	70.107963
972.000000	70.118445
971.000000	70.117165
970.000000	70.107340
969.000000	70.130694
968.000000	70.144152
967.000000	70.143264
966.000000	70.146081
965.000000	70.147375
964.000000	70.155995
963.000000	70.158642
962.000000	70.148239
961.000000	70.146965
960.000000	70.165964
959.000000	70.155645
958.000000	70.145273
957.000000	70.182391
956.000000	70.208729
955.000000	70.211194
954.000000	70.217506
953.000000	70.203223
952.000000	70.198139
951.000000	70.199175
950.000000	70.211203
949.000000	70.230974
948.000000	70.222280
947.000000	70.243220
946.000000	70.254402
945.000000	70.248731
944.000000	70.245708
943.000000	70.245558
942.000000	70.253150
941.000000	70.242896
940.000000	70.245587
939.000000	70.277080
938.000000	70.276351
937.000000	70.259632
936.000000	70.264183
935.000000	70.279798
934.000000	70.278401
933.000000	70.269536
932.000000	70.249087
931.000000	70.242029
930.000000	70.273704
929.000000	70.279932
928.000000	70.279121
927.000000	70.284536
926.000000	70.270296
925.000000	70.252205
924.000000	70.255220
923.000000	70.272066
922.000000	70.267304
921.000000	70.247074
920.000000	70.253988
919.000000	70.261515
918.000000	70.281555
917.000000	70.283413
916.000000	70.259289
915.000000	70.249369
914.000000	70.270861
913.000000	70.246959
912.000000	70.249770
911.000000	70.271337
910.000000	70.294455
909.000000	70.256986
908.000000	70.261921
907.000000	70.259049
906.000000	70.256563
905.000000	70.271516
904.000000	70.269414
903.000000	70.248501
902.000000	70.265983
901.000000	70.292444
900.000000	70.295488
899.000000	70.282236
898.000000	70.298554
897.000000	70.310547
896.000000	70.339046
895.000000	70.361327
894.000000	70.314447
893.000000	70.364377
892.000000	70.342798
891.000000	70.346033
890.000000	70.362863
889.000000	70.408352
888.000000	70.396798
887.000000	70.342540
886.000000	70.330053
885.000000	70.355810
884.000000	70.355776
883.000000	70.331412
882.000000	70.411957
881.000000	70.311533
880.000000	70.370620
879.000000	70.444016
878.000000	70.417028
877.000000	70.472295
876.000000	70.414010
875.000000	70.408976
874.000000	70.473231
873.000000	70.452484
872.000000	70.384070
871.000000	70.490304
870.000000	70.528017
869.000000	70.430538
868.000000	70.376887
867.000000	70.371715
866.000000	70.430060
865.000000	70.485861
864.000000	70.415005
863.000000	70.442666
862.000000	70.448670
861.000000	70.431189
860.000000	70.446142
859.000000	70.231436
858.000000	70.204065
857.000000	70.219580
856.000000	70.403093
855.000000	70.335665
854.000000	70.423515
853.000000	70.634716
852.000000	69.980300
851.000000	70.095208
850.000000	70.482371
849.000000	70.429540
848.000000	70.201318
847.000000	70.395841
846.000000	70.305920
845.000000	70.303772
844.000000	70.322124
843.000000	70.592146
842.000000	70.286950
841.000000	70.090012
840.000000	70.399169
839.000000	70.376053
838.000000	70.614910
837.000000	70.386096
836.000000	70.408435
835.000000	70.203834
834.000000	70.271379
833.000000	70.353349
832.000000	70.168390
831.000000	70.143201
830.000000	70.471388
829.000000	70.188282
828.000000	70.144369
827.000000	70.347545
826.000000	70.301460
825.000000	70.153647
824.000000	70.417096
823.000000	70.433212
822.000000	70.255228
821.000000	70.181588
820.000000	70.447581
819.000000	70.473944
818.000000	70.340928
817.000000	70.219096
816.000000	70.342740
815.000000	70.396104
814.000000	70.221644
813.000000	70.238334
812.000000	70.385061
811.000000	70.332497
810.000000	70.410897
809.000000	70.351394
808.000000	70.407715
807.000000	70.270223
806.000000	70.378263
805.000000	70.351890
804.000000	70.247019
803.000000	70.352737
802.000000	70.288126
801.000000	70.300070
800.000000	70.369260
799.000000	70.326338
798.000000	70.266141
797.000000	70.241578
796.000000	70.322888
795.000000	70.350962
794.000000	70.317661
793.000000	70.366231
792.000000	70.412960
791.000000	70.412596
790.000000	70.294373
789.000000	70.345776
788.000000	70.315635
787.000000	70.427194
786.000000	70.361135
785.000000	70.431337
784.000000	70.252446
783.000000	70.389932
782.000000	70.443488
781.000000	70.431829
780.000000	70.282851
779.000000	70.386284
778.000000	70.431560
777.000000	70.379508
776.000000	70.334354
775.000000	70.406869
774.000000	70.400929
773.000000	70.302724
772.000000	70.259626
771.000000	70.403767
770.000000	70.359103
769.000000	70.446960
768.000000	70.378759
767.000000	70.457963
766.000000	70.449949
765.000000	70.423164
764.000000	70.406067
763.000000	70.411935
762.000000	70.354192
761.000000	70.254500
760.000000	70.221886
759.000000	70.341978
758.000000	70.273425
757.000000	70.300889
756.000000	70.309911
755.000000	70.338991
754.000000	70.348539
753.000000	70.384885
752.000000	70.365570
751.000000	70.402471
750.000000	70.329462
749.000000	70.306076
748.000000	70.327801
747.000000	70.402369
746.000000	70.274464
745.000000	70.296811
744.000000	70.357601
743.000000	70.389071
742.000000	70.287489
741.000000	70.290413
740.000000	70.358237
739.000000	70.409584
738.000000	70.344115
737.000000	70.287879
736.000000	70.360003
735.000000	70.344599
734.000000	70.293249
733.000000	70.345288
732.000000	70.357829
731.000000	70.343962
730.000000	70.271983
729.000000	70.240039
728.000000	70.272697
727.000000	70.291264
726.000000	70.347594
725.000000	70.323882
724.000000	70.350200
723.000000	70.348875
722.000000	70.361343
721.000000	70.433847
720.000000	70.381141
719.000000	70.317050
718.000000	70.345172
717.000000	70.355187
716.000000	70.296423
715.000000	70.312389
714.000000	70.380676
713.000000	70.346148
712.000000	70.265925
711.000000	70.349591
710.000000	70.385502
709.000000	70.306334
708.000000	70.274322
707.000000	70.237105
706.000000	70.277211
705.000000	70.303158
704.000000	70.302625
703.000000	70.390865
702.000000	70.370056
701.000000	70.311680
700.000000	70.333130
699.000000	70.314034
698.000000	70.287087
697.000000	70.346433
696.000000	70.371524
695.000000	70.380753
694.000000	70.347251
693.000000	70.318507
692.000000	70.367877
691.000000	70.433693
690.000000	70.369435
689.000000	70.268692
688.000000	70.270821
687.000000	70.316134
686.000000	70.278865
685.000000	70.260035
684.000000	70.302181
683.000000	70.356632
682.000000	70.329452
681.000000	70.294654
680.000000	70.272479
679.000000	70.249698
678.000000	70.287708
677.000000	70.318755
676.000000	70.332802
675.000000	70.334245
674.000000	70.321852
673.000000	70.322057
672.000000	70.308333
671.000000	70.321839
670.000000	70.237388
669.000000	70.249482
668.000000	70.290649
667.000000	70.299675
666.000000	70.325069
665.000000	70.370221
664.000000	70.331619
663.000000	70.278721
662.000000	70.265520
661.000000	70.254018
660.000000	70.288917
659.000000	70.301798
658.000000	70.269669
657.000000	70.287947
656.000000	70.350829
655.000000	70.374913
654.000000	70.365536
653.000000	70.288258
652.000000	70.325602
651.000000	70.338711
650.000000	70.334676
649.000000	70.341625
648.000000	70.335809
647.000000	70.315225
646.000000	70.301139
645.000000	70.340963
644.000000	70.338276
643.000000	70.345868
642.000000	70.352435
641.000000	70.307844
640.000000	70.277791
639.000000	70.379844
638.000000	70.316910
637.000000	70.316194
636.000000	70.266620
635.000000	70.306801
634.000000	70.282970
633.000000	70.225866
632.000000	70.285550
631.000000	70.360024
630.000000	70.323155
629.000000	70.288592
628.000000	70.290845
627.000000	70.313541
626.000000	70.373448
625.000000	70.358701
624.000000	70.376089
623.000000	70.309832
622.000000	70.297252
621.000000	70.308031
620.000000	70.290819
619.000000	70.285595
618.000000	70.335202
617.000000	70.321951
616.000000	70.280514
615.000000	70.273840
614.000000	70.258607
613.000000	70.341991
612.000000	70.353448
611.000000	70.340147
610.000000	70.270325
609.000000	70.260285
608.000000	70.249150
607.000000	70.324956
606.000000	70.293944
605.000000	70.270158
604.000000	70.266253
603.000000	70.252589
602.000000	70.269665
601.000000	70.314276
600.000000	70.304684
599.000000	70.280786
598.000000	70.246544
597.000000	70.269825
596.000000	70.240958
595.000000	70.271742
594.000000	70.253224
593.000000	70.281634
592.000000	70.180506
591.000000	70.216802
590.000000	70.239383
589.000000	70.205446
588.000000	70.229826
587.000000	70.249554
586.000000	70.229428
585.000000	70.192438
584.000000	70.127398
583.000000	70.066735
582.000000	70.163968
581.000000	70.162425
580.000000	70.164484
579.000000	70.102181
578.000000	70.160018
577.000000	70.173702
576.000000	70.188579
575.000000	70.135082
574.000000	70.134600
573.000000	70.165638
572.000000	70.150722
571.000000	70.100931
570.000000	70.080694
569.000000	70.049779
568.000000	70.045526
567.000000	70.044712
566.000000	70.057460
565.000000	70.106220
564.000000	70.106611
563.000000	70.038646
562.000000	70.007681
561.000000	70.048312
560.000000	69.963645
559.000000	70.008441
558.000000	69.986570
557.000000	70.002560
556.000000	70.012728
555.000000	69.967309
554.000000	69.973674
553.000000	69.948847
552.000000	69.927750
551.000000	69.958210
550.000000	69.936968
549.000000	69.861107
548.000000	69.891040
547.000000	69.937210
546.000000	69.894872
545.000000	69.906885
544.000000	69.842384
543.000000	69.834709
542.000000	69.815887
541.000000	69.844686
540.000000	69.773654
539.000000	69.785342
538.000000	69.800868
537.000000	69.797342
536.000000	69.752757
535.000000	69.739137
534.000000	69.733300
533.000000	69.715541
532.000000	69.707404
531.000000	69.696942
530.000000	69.721148
529.000000	69.692806
528.000000	69.643634
527.000000	69.656565
526.000000	69.631623
525.000000	69.626923
524.000000	69.589856
523.000000	69.579749
522.000000	69.563459
521.000000	69.577120
520.000000	69.512850
519.000000	69.525111
518.000000	69.462252
517.000000	69.495375
516.000000	69.461488
515.000000	69.424759
514.000000	69.419873
513.000000	69.371773
512.000000	69.384441
511.000000	69.375671
510.000000	69.344654
509.000000	69.376519
508.000000	69.351645
507.000000	69.295170
506.000000	69.332610
505.000000	69.337002
504.000000	69.245310
503.000000	69.223477
502.000000	69.239137
501.000000	69.209316
500.000000	69.177000
499.000000	69.207513
498.000000	69.168058
497.000000	69.126411
496.000000	69.059201
495.000000	69.030396
494.000000	69.047493
493.000000	68.995318
492.000000	68.968161
491.000000	68.948893
490.000000	68.855635
489.000000	68.875340
488.000000	68.878812
487.000000	68.809567
486.000000	68.715840
485.000000	68.671599
484.000000	68.764088
483.000000	68.822771
482.000000	68.777828
481.000000	68.778970
480.000000	68.716097
479.000000	68.683223
478.000000	68.634935
477.000000	68.601383
476.000000	68.551366
475.000000	68.513158
474.000000	68.470728
473.000000	68.434523
472.000000	68.457633
471.000000	68.448753
470.000000	68.392462
469.000000	68.362975
468.000000	68.293327
467.000000	68.246282
466.000000	68.217061
465.000000	68.134387
464.000000	68.108352
463.000000	68.153000
462.000000	68.108285
461.000000	68.036037
460.000000	67.977714
459.000000	67.913189
458.000000	67.871435
457.000000	67.817276
456.000000	67.777268
455.000000	67.728473
454.000000	67.647419
453.000000	67.616680
452.000000	67.593405
451.000000	67.489667
450.000000	67.412839
449.000000	67.357273
448.000000	67.371869
447.000000	67.370653
446.000000	67.232246
445.000000	67.074891
444.000000	67.068153
443.000000	67.052456
442.000000	67.010168
441.000000	66.937838
440.000000	66.857600
439.000000	66.792008
438.000000	66.701379
437.000000	66.602845
436.000000	66.540642
435.000000	66.413574
434.000000	66.321067
433.000000	66.278986
432.000000	66.161212
431.000000	66.091730
430.000000	66.016253
429.000000	65.931663
428.000000	65.832806
427.000000	65.651206
426.000000	65.549181
425.000000	65.509918
424.000000	65.424588
423.000000	65.262543
422.000000	65.151187
421.000000	64.992882
420.000000	64.967847
419.000000	64.801151
418.000000	64.667819
417.000000	64.541336
416.000000	64.443028
415.000000	64.237407
414.000000	64.157144
413.000000	64.041064
412.000000	63.910720
411.000000	63.770461
410.000000	63.617652
409.000000	63.451933
408.000000	63.313516
407.000000	63.118779
406.000000	63.044019
405.000000	62.885254
404.000000	62.712689
403.000000	62.589895
402.000000	62.448087
401.000000	62.217824
400.000000	62.106302
399.000000	61.985360
398.000000	61.782925
397.000000	61.677277
396.000000	61.508035
395.000000	61.311753
394.000000	61.091895
393.000000	60.918264
392.000000	60.833551
391.000000	60.611270
390.000000	60.489132
389.000000	60.330024
388.000000	60.122056
387.000000	59.930544
386.000000	59.718631
385.000000	59.518272
384.000000	59.272639
383.000000	59.180212
382.000000	59.021441
381.000000	58.633335
380.000000	58.542951
379.000000	58.278319
378.000000	57.899127
377.000000	57.664236
376.000000	57.726736
375.000000	57.553091
374.000000	57.244582
373.000000	57.023201
372.000000	56.737793
371.000000	56.607022
370.000000	56.304069
369.000000	55.889807
368.000000	55.581061
367.000000	55.529112
366.000000	55.291524
365.000000	55.067448
364.000000	54.589054
363.000000	54.417013
362.000000	54.201645
361.000000	53.755598
360.000000	53.646624
359.000000	53.478297
358.000000	53.147985
357.000000	53.027819
356.000000	52.666236
355.000000	52.346769
354.000000	52.294595
353.000000	51.838658
352.000000	51.685959
351.000000	51.476110
350.000000	51.131832
349.000000	50.841780
348.000000	50.577509
347.000000	50.406455
346.000000	49.899993
345.000000	49.666831
344.000000	49.516158
343.000000	49.126049
342.000000	48.945230
341.000000	48.638423
340.000000	48.192047
339.000000	47.685537
338.000000	47.342705
337.000000	46.897898
336.000000	46.504364
335.000000	46.021715
334.000000	45.463301
333.000000	45.018300
332.000000	44.871591
331.000000	43.905465
330.000000	43.822303
329.000000	43.290054
328.000000	42.625094
327.000000	42.336880
326.000000	41.837346
325.000000	41.571191
324.000000	41.225889
323.000000	40.925306
322.000000	40.555666
321.000000	40.176382
320.000000	40.002883
319.000000	39.865963
318.000000	39.515258
317.000000	39.111139
316.000000	39.123882
315.000000	38.905222
314.000000	38.703100
313.000000	38.560176
312.000000	38.081175
311.000000	38.020586
310.000000	37.762167
309.000000	37.592580
308.000000	37.481163
307.000000	37.421251
306.000000	37.197936
305.000000	36.958239
304.000000	36.777276
303.000000	36.664144
302.000000	36.582742
301.000000	36.261318
300.000000	36.064450
299.000000	35.765636
298.000000	35.453500
297.000000	35.077473
296.000000	34.686795
295.000000	34.168271
294.000000	33.590771
293.000000	32.737816
292.000000	32.070943
291.000000	30.945889
290.000000	30.034432
289.000000	29.162507
288.000000	28.386996
287.000000	27.770339
286.000000	27.249151
285.000000	27.047137
284.000000	26.901153
283.000000	26.812644
282.000000	26.700411
281.000000	26.550718
280.000000	26.580791
279.000000	26.641544
278.000000	26.732300
277.000000	26.927661
276.000000	27.183213
275.000000	27.543790
274.000000	27.675831
273.000000	27.961572
272.000000	28.108664
271.000000	28.278218
270.000000	28.347488
269.000000	28.544045
268.000000	28.751717
267.000000	29.034860
266.000000	29.235830
265.000000	29.525429
264.000000	29.841740
263.000000	30.198491
262.000000	30.521320
261.000000	30.676347
260.000000	30.879045
259.000000	31.194590
258.000000	31.603824
257.000000	31.989816
256.000000	32.266629
255.000000	32.438709
254.000000	32.397974
253.000000	32.276590
252.000000	32.254786
251.000000	32.019368
250.000000	31.640379
249.000000	31.079930
248.000000	30.258239
247.000000	29.309546
246.000000	28.192413
245.000000	26.930787
244.000000	25.695356
243.000000	24.406134
242.000000	23.166125
241.000000	22.038611
240.000000	21.009113
239.000000	20.068417
238.000000	19.410730
237.000000	18.854218
236.000000	18.441537
235.000000	18.171460
234.000000	17.923609
233.000000	17.721825
232.000000	17.537669
231.000000	17.419123
230.000000	17.366834
229.000000	17.311090
228.000000	17.225087
227.000000	17.256397
226.000000	17.297307
225.000000	17.396255
224.000000	17.537657
223.000000	17.655045
222.000000	17.795213
221.000000	18.018564
220.000000	18.274953
219.000000	18.505314
218.000000	18.702326
217.000000	19.015306
216.000000	19.346047
215.000000	19.475482
214.000000	19.740147
213.000000	20.149122
212.000000	20.365554
211.000000	20.625901
210.000000	21.036555
209.000000	21.429401
208.000000	21.775072
207.000000	22.074392
206.000000	22.493235
205.000000	22.978751
204.000000	23.569564
203.000000	24.006594
202.000000	24.265696
201.000000	24.602226
200.000000	25.219202
