PE UV       SUBTECH     SPECTRUM    ASCII       PEDS        4.00        
   -1
RTAgneauUK 52.Sample.asc
18/03/02
16:02:30.00
18/03/02
16:02:30.00
Administrator

200.000000
1
Lambda 750
750N8071901
PerkinElmer UV WinLab 6.0.4.0738 / 1.61.00 Lambda 900

0
0
3350/servo 860.8/2
0
0
UV/VIS
1
1
1
CommonBeamDepol,150mm sphere / downward view
0
0
0
0
Program
Program
3350/servo 860.8/2
3350/0.2 860.8/0.2
3350/0.2 860.8/0.2
0
1
 
 
 
0
 
860.8
319.2
860.8
Front
100
on
 
 
0
0
0
 
0
 
 
 
0
 
 
0
0
0
0
0
 
 
 
 
0
0


0
0
#HDR
-1
-1
#GR
nm
%R
1.0
0.0
2350.000000
-1.000000
2151
8
72.535832
16.425501
#DATA
2350.000000	43.193397
2349.000000	42.849903
2348.000000	42.706895
2347.000000	43.581259
2346.000000	43.143900
2345.000000	43.088505
2344.000000	42.885140
2343.000000	42.887549
2342.000000	43.156867
2341.000000	42.815978
2340.000000	43.169216
2339.000000	43.611157
2338.000000	43.498617
2337.000000	43.143804
2336.000000	43.390588
2335.000000	43.775407
2334.000000	43.548164
2333.000000	43.423754
2332.000000	43.817141
2331.000000	43.647370
2330.000000	43.219995
2329.000000	43.458936
2328.000000	43.213443
2327.000000	43.275959
2326.000000	43.232237
2325.000000	43.127680
2324.000000	43.114586
2323.000000	43.298687
2322.000000	43.147941
2321.000000	43.107665
2320.000000	42.952278
2319.000000	42.907123
2318.000000	42.938012
2317.000000	42.985901
2316.000000	42.970919
2315.000000	42.794208
2314.000000	42.724706
2313.000000	42.622045
2312.000000	42.494735
2311.000000	42.517540
2310.000000	42.418495
2309.000000	42.552205
2308.000000	42.237082
2307.000000	42.203902
2306.000000	41.909789
2305.000000	41.807933
2304.000000	41.798757
2303.000000	41.959325
2302.000000	41.779598
2301.000000	41.655462
2300.000000	41.602387
2299.000000	41.655771
2298.000000	41.414353
2297.000000	41.120052
2296.000000	41.056638
2295.000000	40.975954
2294.000000	40.954781
2293.000000	40.846386
2292.000000	40.844823
2291.000000	40.816745
2290.000000	40.726531
2289.000000	40.574264
2288.000000	40.641012
2287.000000	40.585456
2286.000000	40.379287
2285.000000	40.254179
2284.000000	40.288850
2283.000000	40.269065
2282.000000	40.293789
2281.000000	40.428006
2280.000000	40.333863
2279.000000	40.176151
2278.000000	40.281149
2277.000000	40.419012
2276.000000	40.430034
2275.000000	40.378305
2274.000000	40.263391
2273.000000	40.415484
2272.000000	40.615931
2271.000000	40.661289
2270.000000	40.612700
2269.000000	40.741752
2268.000000	40.927138
2267.000000	40.921695
2266.000000	40.997345
2265.000000	41.090260
2264.000000	41.164768
2263.000000	41.291954
2262.000000	41.503213
2261.000000	41.699403
2260.000000	41.851566
2259.000000	42.024820
2258.000000	42.129460
2257.000000	42.206178
2256.000000	42.414326
2255.000000	42.655950
2254.000000	42.758329
2253.000000	42.868096
2252.000000	43.179389
2251.000000	43.458366
2250.000000	43.614034
2249.000000	43.811443
2248.000000	44.123668
2247.000000	44.384631
2246.000000	44.512157
2245.000000	44.696193
2244.000000	44.871415
2243.000000	45.032346
2242.000000	45.295639
2241.000000	45.433668
2240.000000	45.564820
2239.000000	45.687032
2238.000000	45.782287
2237.000000	45.987628
2236.000000	46.082108
2235.000000	46.102666
2234.000000	46.155579
2233.000000	46.263713
2232.000000	46.439788
2231.000000	46.519309
2230.000000	46.519928
2229.000000	46.607229
2228.000000	46.654438
2227.000000	46.651167
2226.000000	46.584908
2225.000000	46.619404
2224.000000	46.597525
2223.000000	46.625441
2222.000000	46.671357
2221.000000	46.621582
2220.000000	46.526717
2219.000000	46.576374
2218.000000	46.518307
2217.000000	46.435943
2216.000000	46.372675
2215.000000	46.380895
2214.000000	46.378094
2213.000000	46.352121
2212.000000	46.257546
2211.000000	46.208252
2210.000000	46.145958
2209.000000	46.051475
2208.000000	46.012026
2207.000000	45.923433
2206.000000	45.879903
2205.000000	45.748235
2204.000000	45.804999
2203.000000	45.583933
2202.000000	45.538560
2201.000000	45.576546
2200.000000	45.406377
2199.000000	45.388757
2198.000000	45.565647
2197.000000	45.385637
2196.000000	45.190099
2195.000000	45.041521
2194.000000	44.967748
2193.000000	44.820827
2192.000000	44.847311
2191.000000	44.702314
2190.000000	44.712416
2189.000000	44.725021
2188.000000	44.596404
2187.000000	44.549981
2186.000000	44.503396
2185.000000	44.537952
2184.000000	44.431671
2183.000000	44.466880
2182.000000	44.325663
2181.000000	44.226356
2180.000000	44.198742
2179.000000	44.266129
2178.000000	44.290287
2177.000000	44.365525
2176.000000	44.340838
2175.000000	44.258064
2174.000000	44.378145
2173.000000	44.289434
2172.000000	44.336591
2171.000000	44.533630
2170.000000	44.641467
2169.000000	44.578063
2168.000000	44.750475
2167.000000	44.829846
2166.000000	44.950332
2165.000000	45.035499
2164.000000	45.009857
2163.000000	45.159403
2162.000000	45.222181
2161.000000	45.374121
2160.000000	45.619075
2159.000000	45.705273
2158.000000	45.773235
2157.000000	45.822498
2156.000000	46.025343
2155.000000	46.318384
2154.000000	46.495716
2153.000000	46.640669
2152.000000	46.780404
2151.000000	46.995878
2150.000000	47.226926
2149.000000	47.295738
2148.000000	47.379860
2147.000000	47.656447
2146.000000	47.715699
2145.000000	47.888542
2144.000000	48.048763
2143.000000	48.068666
2142.000000	48.366217
2141.000000	48.397047
2140.000000	48.576331
2139.000000	48.843088
2138.000000	49.110598
2137.000000	49.069790
2136.000000	49.201228
2135.000000	49.409851
2134.000000	49.335159
2133.000000	49.390243
2132.000000	49.626014
2131.000000	49.868192
2130.000000	49.887284
2129.000000	50.013630
2128.000000	49.907846
2127.000000	50.083082
2126.000000	50.180539
2125.000000	50.110697
2124.000000	50.155972
2123.000000	50.324426
2122.000000	50.405518
2121.000000	50.366661
2120.000000	50.411510
2119.000000	50.487075
2118.000000	50.512888
2117.000000	50.587101
2116.000000	50.544190
2115.000000	50.637819
2114.000000	50.642877
2113.000000	50.652597
2112.000000	50.829788
2111.000000	50.678708
2110.000000	50.714326
2109.000000	50.723419
2108.000000	50.809309
2107.000000	50.772843
2106.000000	50.815286
2105.000000	50.780996
2104.000000	50.877700
2103.000000	50.956860
2102.000000	51.063184
2101.000000	51.003972
2100.000000	50.903259
2099.000000	50.908354
2098.000000	50.919156
2097.000000	50.970356
2096.000000	50.895078
2095.000000	50.858093
2094.000000	50.961408
2093.000000	50.873914
2092.000000	51.026962
2091.000000	50.902734
2090.000000	50.879536
2089.000000	50.949028
2088.000000	50.798162
2087.000000	50.818177
2086.000000	50.890106
2085.000000	50.779149
2084.000000	50.690745
2083.000000	50.710260
2082.000000	50.721193
2081.000000	50.533522
2080.000000	50.469578
2079.000000	50.452818
2078.000000	50.304007
2077.000000	50.249132
2076.000000	50.136313
2075.000000	50.013819
2074.000000	49.909531
2073.000000	49.901796
2072.000000	49.772498
2071.000000	49.687227
2070.000000	49.548979
2069.000000	49.465228
2068.000000	49.272659
2067.000000	49.076554
2066.000000	48.996917
2065.000000	48.796567
2064.000000	48.671600
2063.000000	48.502766
2062.000000	48.315653
2061.000000	48.144150
2060.000000	47.955064
2059.000000	47.869450
2058.000000	47.729528
2057.000000	47.605886
2056.000000	47.485665
2055.000000	47.321938
2054.000000	47.191962
2053.000000	47.074818
2052.000000	46.943621
2051.000000	46.794092
2050.000000	46.680275
2049.000000	46.603363
2048.000000	46.444243
2047.000000	46.340073
2046.000000	46.250635
2045.000000	46.207250
2044.000000	46.228555
2043.000000	46.196582
2042.000000	46.158385
2041.000000	46.187072
2040.000000	46.204597
2039.000000	46.186516
2038.000000	46.278063
2037.000000	46.336771
2036.000000	46.341653
2035.000000	46.426616
2034.000000	46.563525
2033.000000	46.681708
2032.000000	46.812904
2031.000000	46.919783
2030.000000	47.047865
2029.000000	47.187140
2028.000000	47.320140
2027.000000	47.446016
2026.000000	47.582508
2025.000000	47.728585
2024.000000	47.854502
2023.000000	47.992557
2022.000000	48.064002
2021.000000	48.122772
2020.000000	48.223874
2019.000000	48.289477
2018.000000	48.333625
2017.000000	48.389796
2016.000000	48.399505
2015.000000	48.416986
2014.000000	48.491630
2013.000000	48.523923
2012.000000	48.482538
2011.000000	48.471115
2010.000000	48.448595
2009.000000	48.417540
2008.000000	48.402270
2007.000000	48.352895
2006.000000	48.278138
2005.000000	48.244356
2004.000000	48.175355
2003.000000	48.109266
2002.000000	48.047771
2001.000000	47.965159
2000.000000	47.895042
1999.000000	47.815858
1998.000000	47.715093
1997.000000	47.663868
1996.000000	47.568014
1995.000000	47.445411
1994.000000	47.307674
1993.000000	47.236187
1992.000000	47.167760
1991.000000	47.058740
1990.000000	47.009438
1989.000000	46.923361
1988.000000	46.833323
1987.000000	46.755350
1986.000000	46.639529
1985.000000	46.549261
1984.000000	46.452808
1983.000000	46.350662
1982.000000	46.255733
1981.000000	46.191160
1980.000000	46.066975
1979.000000	45.943017
1978.000000	45.863143
1977.000000	45.786503
1976.000000	45.674836
1975.000000	45.566426
1974.000000	45.459814
1973.000000	45.367171
1972.000000	45.282005
1971.000000	45.159542
1970.000000	45.081297
1969.000000	44.991456
1968.000000	44.902778
1967.000000	44.771016
1966.000000	44.727147
1965.000000	44.621376
1964.000000	44.487313
1963.000000	44.406542
1962.000000	44.338446
1961.000000	44.196847
1960.000000	44.113155
1959.000000	44.085406
1958.000000	43.940669
1957.000000	43.877844
1956.000000	43.786329
1955.000000	43.724796
1954.000000	43.664871
1953.000000	43.582488
1952.000000	43.564467
1951.000000	43.436261
1950.000000	43.344498
1949.000000	43.304610
1948.000000	43.280882
1947.000000	43.272541
1946.000000	43.237587
1945.000000	43.220408
1944.000000	43.193835
1943.000000	43.189811
1942.000000	43.239225
1941.000000	43.226170
1940.000000	43.323123
1939.000000	43.358759
1938.000000	43.406392
1937.000000	43.525065
1936.000000	43.620809
1935.000000	43.624414
1934.000000	43.752668
1933.000000	43.873001
1932.000000	44.042157
1931.000000	44.159833
1930.000000	44.390599
1929.000000	44.533960
1928.000000	44.748184
1927.000000	44.938216
1926.000000	45.137783
1925.000000	45.419326
1924.000000	45.633556
1923.000000	45.830268
1922.000000	46.084801
1921.000000	46.443676
1920.000000	46.695889
1919.000000	46.999145
1918.000000	47.265167
1917.000000	47.596398
1916.000000	47.822672
1915.000000	48.253434
1914.000000	48.596195
1913.000000	49.046148
1912.000000	49.366608
1911.000000	49.626164
1910.000000	50.085367
1909.000000	50.437474
1908.000000	50.763089
1907.000000	51.169751
1906.000000	51.575324
1905.000000	52.051175
1904.000000	52.471418
1903.000000	52.807408
1902.000000	53.273297
1901.000000	53.667611
1900.000000	54.103909
1899.000000	54.577830
1898.000000	55.032448
1897.000000	55.383011
1896.000000	55.782104
1895.000000	56.174874
1894.000000	56.578991
1893.000000	56.906089
1892.000000	57.354212
1891.000000	57.736938
1890.000000	58.135720
1889.000000	58.466395
1888.000000	58.839401
1887.000000	59.129090
1886.000000	59.500657
1885.000000	59.788370
1884.000000	60.067700
1883.000000	60.289129
1882.000000	60.532333
1881.000000	60.854049
1880.000000	61.060879
1879.000000	61.294691
1878.000000	61.511379
1877.000000	61.750701
1876.000000	61.943881
1875.000000	62.122437
1874.000000	62.296787
1873.000000	62.455031
1872.000000	62.616402
1871.000000	62.740077
1870.000000	62.798999
1869.000000	62.919717
1868.000000	63.069918
1867.000000	63.085638
1866.000000	63.183506
1865.000000	63.276474
1864.000000	63.318072
1863.000000	63.404176
1862.000000	63.450510
1861.000000	63.496293
1860.000000	63.516938
1859.000000	63.541195
1858.000000	63.564666
1857.000000	63.608624
1856.000000	63.612383
1855.000000	63.633671
1854.000000	63.692104
1853.000000	63.683883
1852.000000	63.662056
1851.000000	63.680003
1850.000000	63.664615
1849.000000	63.646900
1848.000000	63.667470
1847.000000	63.682746
1846.000000	63.680230
1845.000000	63.674377
1844.000000	63.638394
1843.000000	63.588963
1842.000000	63.589397
1841.000000	63.589254
1840.000000	63.554167
1839.000000	63.538004
1838.000000	63.558959
1837.000000	63.513850
1836.000000	63.456211
1835.000000	63.427421
1834.000000	63.400221
1833.000000	63.375287
1832.000000	63.350321
1831.000000	63.328423
1830.000000	63.272351
1829.000000	63.225818
1828.000000	63.204197
1827.000000	63.194541
1826.000000	63.186227
1825.000000	63.157042
1824.000000	63.147007
1823.000000	63.123773
1822.000000	63.096947
1821.000000	63.070850
1820.000000	63.022333
1819.000000	62.968569
1818.000000	62.959725
1817.000000	62.960568
1816.000000	62.902597
1815.000000	62.888933
1814.000000	62.880645
1813.000000	62.836744
1812.000000	62.798897
1811.000000	62.765791
1810.000000	62.746374
1809.000000	62.742618
1808.000000	62.717472
1807.000000	62.672094
1806.000000	62.661015
1805.000000	62.611227
1804.000000	62.562102
1803.000000	62.557055
1802.000000	62.537078
1801.000000	62.516098
1800.000000	62.497110
1799.000000	62.482613
1798.000000	62.460876
1797.000000	62.438481
1796.000000	62.403564
1795.000000	62.394955
1794.000000	62.396928
1793.000000	62.356973
1792.000000	62.328107
1791.000000	62.310284
1790.000000	62.280212
1789.000000	62.272871
1788.000000	62.269843
1787.000000	62.215279
1786.000000	62.156237
1785.000000	62.163281
1784.000000	62.138807
1783.000000	62.109698
1782.000000	62.069116
1781.000000	62.061499
1780.000000	62.024735
1779.000000	61.989767
1778.000000	61.956550
1777.000000	61.900522
1776.000000	61.862054
1775.000000	61.828320
1774.000000	61.751647
1773.000000	61.703334
1772.000000	61.661876
1771.000000	61.624749
1770.000000	61.572346
1769.000000	61.519977
1768.000000	61.452339
1767.000000	61.405227
1766.000000	61.366527
1765.000000	61.327960
1764.000000	61.317920
1763.000000	61.255575
1762.000000	61.208073
1761.000000	61.160025
1760.000000	61.084883
1759.000000	61.013076
1758.000000	60.988705
1757.000000	60.948660
1756.000000	60.901174
1755.000000	60.833447
1754.000000	60.786471
1753.000000	60.756418
1752.000000	60.686657
1751.000000	60.646744
1750.000000	60.590162
1749.000000	60.574156
1748.000000	60.499911
1747.000000	60.418610
1746.000000	60.390199
1745.000000	60.316581
1744.000000	60.288664
1743.000000	60.205994
1742.000000	60.184453
1741.000000	60.174088
1740.000000	60.087505
1739.000000	60.038997
1738.000000	59.984913
1737.000000	59.973869
1736.000000	59.933103
1735.000000	59.908498
1734.000000	59.921505
1733.000000	59.932211
1732.000000	59.911758
1731.000000	59.932307
1730.000000	59.945632
1729.000000	59.967436
1728.000000	60.059172
1727.000000	60.084073
1726.000000	60.109834
1725.000000	60.160046
1724.000000	60.193269
1723.000000	60.277159
1722.000000	60.359878
1721.000000	60.485795
1720.000000	60.557478
1719.000000	60.623954
1718.000000	60.688357
1717.000000	60.786189
1716.000000	60.848286
1715.000000	60.925118
1714.000000	60.973837
1713.000000	61.069372
1712.000000	61.139447
1711.000000	61.163068
1710.000000	61.205164
1709.000000	61.253737
1708.000000	61.307760
1707.000000	61.370186
1706.000000	61.387993
1705.000000	61.407758
1704.000000	61.439876
1703.000000	61.456474
1702.000000	61.440748
1701.000000	61.464615
1700.000000	61.473680
1699.000000	61.489134
1698.000000	61.501458
1697.000000	61.537916
1696.000000	61.586363
1695.000000	61.551910
1694.000000	61.641256
1693.000000	61.660976
1692.000000	61.670050
1691.000000	61.782915
1690.000000	61.819126
1689.000000	61.883033
1688.000000	61.956865
1687.000000	62.039099
1686.000000	62.137336
1685.000000	62.256868
1684.000000	62.370019
1683.000000	62.507578
1682.000000	62.613985
1681.000000	62.768144
1680.000000	62.901895
1679.000000	63.043807
1678.000000	63.170566
1677.000000	63.314883
1676.000000	63.434555
1675.000000	63.593153
1674.000000	63.752391
1673.000000	63.924073
1672.000000	64.019153
1671.000000	64.146513
1670.000000	64.289733
1669.000000	64.399449
1668.000000	64.507867
1667.000000	64.626822
1666.000000	64.724026
1665.000000	64.787092
1664.000000	64.888398
1663.000000	64.967588
1662.000000	65.014630
1661.000000	65.068991
1660.000000	65.137410
1659.000000	65.190870
1658.000000	65.239857
1657.000000	65.260692
1656.000000	65.314503
1655.000000	65.349496
1654.000000	65.364891
1653.000000	65.371313
1652.000000	65.402870
1651.000000	65.396040
1650.000000	65.396998
1649.000000	65.421248
1648.000000	65.409575
1647.000000	65.406863
1646.000000	65.400769
1645.000000	65.384534
1644.000000	65.368469
1643.000000	65.358524
1642.000000	65.356017
1641.000000	65.346820
1640.000000	65.337917
1639.000000	65.304566
1638.000000	65.283877
1637.000000	65.267186
1636.000000	65.230033
1635.000000	65.217766
1634.000000	65.180383
1633.000000	65.150057
1632.000000	65.125740
1631.000000	65.106809
1630.000000	65.080330
1629.000000	65.049415
1628.000000	65.025187
1627.000000	65.004888
1626.000000	64.966910
1625.000000	64.921462
1624.000000	64.894108
1623.000000	64.862787
1622.000000	64.823281
1621.000000	64.780806
1620.000000	64.761589
1619.000000	64.729683
1618.000000	64.676765
1617.000000	64.651739
1616.000000	64.609241
1615.000000	64.554658
1614.000000	64.516400
1613.000000	64.468539
1612.000000	64.439535
1611.000000	64.409482
1610.000000	64.353308
1609.000000	64.309571
1608.000000	64.273559
1607.000000	64.217805
1606.000000	64.159163
1605.000000	64.107397
1604.000000	64.068627
1603.000000	64.034277
1602.000000	63.992018
1601.000000	63.942836
1600.000000	63.896909
1599.000000	63.856696
1598.000000	63.804350
1597.000000	63.759522
1596.000000	63.712645
1595.000000	63.671804
1594.000000	63.631051
1593.000000	63.589881
1592.000000	63.548779
1591.000000	63.507899
1590.000000	63.470765
1589.000000	63.426632
1588.000000	63.395674
1587.000000	63.367820
1586.000000	63.318744
1585.000000	63.279709
1584.000000	63.247954
1583.000000	63.214873
1582.000000	63.176380
1581.000000	63.137962
1580.000000	63.101243
1579.000000	63.072452
1578.000000	63.061396
1577.000000	63.016330
1576.000000	62.974485
1575.000000	62.958102
1574.000000	62.918342
1573.000000	62.880544
1572.000000	62.856952
1571.000000	62.814430
1570.000000	62.781277
1569.000000	62.748043
1568.000000	62.715823
1567.000000	62.696245
1566.000000	62.683978
1565.000000	62.672073
1564.000000	62.638159
1563.000000	62.613342
1562.000000	62.606695
1561.000000	62.581018
1560.000000	62.583431
1559.000000	62.564191
1558.000000	62.541607
1557.000000	62.540063
1556.000000	62.520048
1555.000000	62.479307
1554.000000	62.464007
1553.000000	62.461476
1552.000000	62.448106
1551.000000	62.412953
1550.000000	62.393459
1549.000000	62.367963
1548.000000	62.346600
1547.000000	62.296386
1546.000000	62.264781
1545.000000	62.220962
1544.000000	62.158789
1543.000000	62.113732
1542.000000	62.066651
1541.000000	62.010954
1540.000000	61.951723
1539.000000	61.880873
1538.000000	61.791492
1537.000000	61.718016
1536.000000	61.657281
1535.000000	61.574253
1534.000000	61.510347
1533.000000	61.448882
1532.000000	61.374206
1531.000000	61.302874
1530.000000	61.251306
1529.000000	61.178700
1528.000000	61.110419
1527.000000	61.048030
1526.000000	60.986728
1525.000000	60.954629
1524.000000	60.863892
1523.000000	60.803573
1522.000000	60.771846
1521.000000	60.717931
1520.000000	60.695970
1519.000000	60.619793
1518.000000	60.567300
1517.000000	60.519652
1516.000000	60.498697
1515.000000	60.460836
1514.000000	60.465472
1513.000000	60.460525
1512.000000	60.472011
1511.000000	60.454740
1510.000000	60.417441
1509.000000	60.405309
1508.000000	60.357821
1507.000000	60.331877
1506.000000	60.308726
1505.000000	60.276816
1504.000000	60.276192
1503.000000	60.265383
1502.000000	60.243143
1501.000000	60.256299
1500.000000	60.246367
1499.000000	60.261212
1498.000000	60.258051
1497.000000	60.275354
1496.000000	60.309457
1495.000000	60.306933
1494.000000	60.328666
1493.000000	60.357696
1492.000000	60.394058
1491.000000	60.439928
1490.000000	60.484874
1489.000000	60.517924
1488.000000	60.570256
1487.000000	60.641784
1486.000000	60.688095
1485.000000	60.767987
1484.000000	60.836331
1483.000000	60.898314
1482.000000	60.984868
1481.000000	61.036853
1480.000000	61.109154
1479.000000	61.204388
1478.000000	61.275619
1477.000000	61.357380
1476.000000	61.419158
1475.000000	61.493764
1474.000000	61.567049
1473.000000	61.634024
1472.000000	61.702203
1471.000000	61.765524
1470.000000	61.864835
1469.000000	61.897200
1468.000000	61.964440
1467.000000	62.008692
1466.000000	62.055843
1465.000000	62.113072
1464.000000	62.178572
1463.000000	62.210055
1462.000000	62.249524
1461.000000	62.285148
1460.000000	62.345474
1459.000000	62.427896
1458.000000	62.453910
1457.000000	62.489008
1456.000000	62.537206
1455.000000	62.614119
1454.000000	62.652396
1453.000000	62.691493
1452.000000	62.728808
1451.000000	62.782553
1450.000000	62.855905
1449.000000	62.917250
1448.000000	62.943752
1447.000000	62.986274
1446.000000	63.045955
1445.000000	63.103112
1444.000000	63.170703
1443.000000	63.259989
1442.000000	63.298726
1441.000000	63.346423
1440.000000	63.407980
1439.000000	63.470196
1438.000000	63.542421
1437.000000	63.625857
1436.000000	63.690910
1435.000000	63.743082
1434.000000	63.813599
1433.000000	63.882964
1432.000000	63.975216
1431.000000	64.045035
1430.000000	64.122457
1429.000000	64.214028
1428.000000	64.296042
1427.000000	64.380467
1426.000000	64.481858
1425.000000	64.580307
1424.000000	64.665776
1423.000000	64.775890
1422.000000	64.881577
1421.000000	64.979154
1420.000000	65.073836
1419.000000	65.198149
1418.000000	65.312041
1417.000000	65.423505
1416.000000	65.539251
1415.000000	65.664792
1414.000000	65.792019
1413.000000	65.885021
1412.000000	65.998032
1411.000000	66.131605
1410.000000	66.254394
1409.000000	66.375747
1408.000000	66.480758
1407.000000	66.596418
1406.000000	66.694062
1405.000000	66.810309
1404.000000	66.929222
1403.000000	67.033738
1402.000000	67.146262
1401.000000	67.248492
1400.000000	67.354947
1399.000000	67.460982
1398.000000	67.559181
1397.000000	67.666158
1396.000000	67.762439
1395.000000	67.843993
1394.000000	67.927612
1393.000000	68.020815
1392.000000	68.109522
1391.000000	68.193000
1390.000000	68.264150
1389.000000	68.322189
1388.000000	68.396286
1387.000000	68.479743
1386.000000	68.583094
1385.000000	68.652870
1384.000000	68.693005
1383.000000	68.776805
1382.000000	68.849635
1381.000000	68.887437
1380.000000	68.923598
1379.000000	68.977691
1378.000000	69.036113
1377.000000	69.065107
1376.000000	69.109058
1375.000000	69.154353
1374.000000	69.179580
1373.000000	69.199866
1372.000000	69.227829
1371.000000	69.286005
1370.000000	69.323292
1369.000000	69.333641
1368.000000	69.363996
1367.000000	69.394427
1366.000000	69.421062
1365.000000	69.450507
1364.000000	69.485820
1363.000000	69.534082
1362.000000	69.557810
1361.000000	69.598443
1360.000000	69.638299
1359.000000	69.671538
1358.000000	69.709287
1357.000000	69.767658
1356.000000	69.811045
1355.000000	69.843003
1354.000000	69.898421
1353.000000	69.935451
1352.000000	69.977266
1351.000000	70.015367
1350.000000	70.043767
1349.000000	70.089363
1348.000000	70.121106
1347.000000	70.142345
1346.000000	70.179839
1345.000000	70.232493
1344.000000	70.276733
1343.000000	70.312039
1342.000000	70.348080
1341.000000	70.366528
1340.000000	70.408354
1339.000000	70.428768
1338.000000	70.469906
1337.000000	70.497023
1336.000000	70.511726
1335.000000	70.534653
1334.000000	70.554073
1333.000000	70.573894
1332.000000	70.607351
1331.000000	70.605558
1330.000000	70.636952
1329.000000	70.663458
1328.000000	70.686742
1327.000000	70.723234
1326.000000	70.717537
1325.000000	70.721849
1324.000000	70.734675
1323.000000	70.759810
1322.000000	70.797070
1321.000000	70.810389
1320.000000	70.791054
1319.000000	70.800891
1318.000000	70.819053
1317.000000	70.844646
1316.000000	70.883947
1315.000000	70.856726
1314.000000	70.853864
1313.000000	70.871073
1312.000000	70.856239
1311.000000	70.878258
1310.000000	70.931568
1309.000000	70.914767
1308.000000	70.895066
1307.000000	70.925412
1306.000000	70.949932
1305.000000	70.923231
1304.000000	70.941257
1303.000000	70.953944
1302.000000	70.927830
1301.000000	70.948990
1300.000000	70.963130
1299.000000	70.967132
1298.000000	70.954921
1297.000000	70.946175
1296.000000	70.959165
1295.000000	70.963270
1294.000000	70.974561
1293.000000	70.958959
1292.000000	70.942992
1291.000000	70.959752
1290.000000	70.958908
1289.000000	70.949063
1288.000000	70.950765
1287.000000	70.960944
1286.000000	70.931903
1285.000000	70.925937
1284.000000	70.935504
1283.000000	70.931112
1282.000000	70.916041
1281.000000	70.927618
1280.000000	70.922032
1279.000000	70.928968
1278.000000	70.922400
1277.000000	70.921286
1276.000000	70.914423
1275.000000	70.930811
1274.000000	70.920529
1273.000000	70.924043
1272.000000	70.924591
1271.000000	70.926145
1270.000000	70.943313
1269.000000	70.935396
1268.000000	70.927594
1267.000000	70.955957
1266.000000	70.952731
1265.000000	70.954744
1264.000000	70.990547
1263.000000	70.960515
1262.000000	70.987628
1261.000000	70.997932
1260.000000	70.982105
1259.000000	71.004070
1258.000000	71.037702
1257.000000	70.991994
1256.000000	71.045352
1255.000000	71.040469
1254.000000	71.034865
1253.000000	71.024760
1252.000000	71.033960
1251.000000	71.039245
1250.000000	71.024531
1249.000000	71.040488
1248.000000	71.044563
1247.000000	71.019521
1246.000000	71.021453
1245.000000	71.032939
1244.000000	71.014811
1243.000000	71.006806
1242.000000	71.023861
1241.000000	70.995499
1240.000000	70.969056
1239.000000	70.955078
1238.000000	70.962973
1237.000000	70.931556
1236.000000	70.930177
1235.000000	70.928425
1234.000000	70.891669
1233.000000	70.867764
1232.000000	70.862808
1231.000000	70.865241
1230.000000	70.855037
1229.000000	70.827037
1228.000000	70.806357
1227.000000	70.809970
1226.000000	70.791999
1225.000000	70.772540
1224.000000	70.772673
1223.000000	70.756221
1222.000000	70.771199
1221.000000	70.758051
1220.000000	70.734187
1219.000000	70.713757
1218.000000	70.715762
1217.000000	70.688859
1216.000000	70.675836
1215.000000	70.662098
1214.000000	70.640636
1213.000000	70.650308
1212.000000	70.607039
1211.000000	70.601157
1210.000000	70.578058
1209.000000	70.582867
1208.000000	70.566515
1207.000000	70.532714
1206.000000	70.513775
1205.000000	70.467941
1204.000000	70.469911
1203.000000	70.449226
1202.000000	70.406580
1201.000000	70.413182
1200.000000	70.387198
1199.000000	70.367427
1198.000000	70.335121
1197.000000	70.312682
1196.000000	70.290759
1195.000000	70.287347
1194.000000	70.259612
1193.000000	70.226348
1192.000000	70.221544
1191.000000	70.221763
1190.000000	70.210936
1189.000000	70.184893
1188.000000	70.177274
1187.000000	70.177099
1186.000000	70.173207
1185.000000	70.177254
1184.000000	70.177026
1183.000000	70.176538
1182.000000	70.181328
1181.000000	70.189687
1180.000000	70.210163
1179.000000	70.236765
1178.000000	70.265932
1177.000000	70.281760
1176.000000	70.304627
1175.000000	70.347936
1174.000000	70.372722
1173.000000	70.407200
1172.000000	70.453806
1171.000000	70.469405
1170.000000	70.486544
1169.000000	70.532976
1168.000000	70.572229
1167.000000	70.626221
1166.000000	70.683869
1165.000000	70.714153
1164.000000	70.768496
1163.000000	70.813203
1162.000000	70.839991
1161.000000	70.884417
1160.000000	70.928889
1159.000000	70.977162
1158.000000	71.043207
1157.000000	71.078703
1156.000000	71.107955
1155.000000	71.145628
1154.000000	71.180558
1153.000000	71.215326
1152.000000	71.246343
1151.000000	71.262074
1150.000000	71.282898
1149.000000	71.322690
1148.000000	71.349399
1147.000000	71.373906
1146.000000	71.387942
1145.000000	71.403075
1144.000000	71.439430
1143.000000	71.470061
1142.000000	71.498727
1141.000000	71.528567
1140.000000	71.553798
1139.000000	71.571838
1138.000000	71.593509
1137.000000	71.621024
1136.000000	71.649937
1135.000000	71.675276
1134.000000	71.699161
1133.000000	71.713471
1132.000000	71.713682
1131.000000	71.726138
1130.000000	71.749434
1129.000000	71.772683
1128.000000	71.785962
1127.000000	71.804792
1126.000000	71.815178
1125.000000	71.834116
1124.000000	71.865716
1123.000000	71.880080
1122.000000	71.877292
1121.000000	71.879729
1120.000000	71.888618
1119.000000	71.901758
1118.000000	71.901815
1117.000000	71.898489
1116.000000	71.897206
1115.000000	71.897520
1114.000000	71.896663
1113.000000	71.894043
1112.000000	71.910028
1111.000000	71.900890
1110.000000	71.896567
1109.000000	71.911339
1108.000000	71.926481
1107.000000	71.938221
1106.000000	71.931576
1105.000000	71.923017
1104.000000	71.926634
1103.000000	71.936136
1102.000000	71.939235
1101.000000	71.932430
1100.000000	71.904459
1099.000000	71.918622
1098.000000	71.937138
1097.000000	71.938993
1096.000000	71.952571
1095.000000	71.955644
1094.000000	71.954909
1093.000000	71.939592
1092.000000	71.934083
1091.000000	71.925462
1090.000000	71.925536
1089.000000	71.949405
1088.000000	71.935292
1087.000000	71.931379
1086.000000	71.914823
1085.000000	71.924439
1084.000000	71.938763
1083.000000	71.933998
1082.000000	71.926309
1081.000000	71.915225
1080.000000	71.938137
1079.000000	71.917012
1078.000000	71.903641
1077.000000	71.912187
1076.000000	71.898597
1075.000000	71.909747
1074.000000	71.907493
1073.000000	71.926997
1072.000000	71.888260
1071.000000	71.892635
1070.000000	71.893390
1069.000000	71.877929
1068.000000	71.887824
1067.000000	71.891526
1066.000000	71.870309
1065.000000	71.854570
1064.000000	71.853094
1063.000000	71.855154
1062.000000	71.855848
1061.000000	71.873779
1060.000000	71.856997
1059.000000	71.856836
1058.000000	71.846701
1057.000000	71.844055
1056.000000	71.831985
1055.000000	71.822564
1054.000000	71.835725
1053.000000	71.826333
1052.000000	71.811498
1051.000000	71.799932
1050.000000	71.806223
1049.000000	71.806699
1048.000000	71.814646
1047.000000	71.784015
1046.000000	71.787348
1045.000000	71.802438
1044.000000	71.793040
1043.000000	71.752043
1042.000000	71.751410
1041.000000	71.758409
1040.000000	71.772757
1039.000000	71.760592
1038.000000	71.764510
1037.000000	71.757902
1036.000000	71.760583
1035.000000	71.778828
1034.000000	71.759016
1033.000000	71.765895
1032.000000	71.778604
1031.000000	71.751931
1030.000000	71.763251
1029.000000	71.758093
1028.000000	71.746729
1027.000000	71.766291
1026.000000	71.755314
1025.000000	71.749560
1024.000000	71.766057
1023.000000	71.743339
1022.000000	71.754475
1021.000000	71.762678
1020.000000	71.769866
1019.000000	71.743902
1018.000000	71.752099
1017.000000	71.759405
1016.000000	71.777614
1015.000000	71.766487
1014.000000	71.784521
1013.000000	71.783203
1012.000000	71.775428
1011.000000	71.785753
1010.000000	71.785770
1009.000000	71.810233
1008.000000	71.819876
1007.000000	71.802179
1006.000000	71.816646
1005.000000	71.822925
1004.000000	71.812950
1003.000000	71.813582
1002.000000	71.820856
1001.000000	71.816780
1000.000000	71.824483
999.000000	71.823532
998.000000	71.837426
997.000000	71.846655
996.000000	71.859669
995.000000	71.853474
994.000000	71.851077
993.000000	71.867911
992.000000	71.874170
991.000000	71.884766
990.000000	71.899979
989.000000	71.917082
988.000000	71.907589
987.000000	71.894645
986.000000	71.913555
985.000000	71.936084
984.000000	71.947908
983.000000	71.948311
982.000000	71.947090
981.000000	71.959072
980.000000	71.962709
979.000000	71.957140
978.000000	71.964348
977.000000	71.977457
976.000000	71.977687
975.000000	71.967216
974.000000	71.977230
973.000000	71.996546
972.000000	71.988199
971.000000	71.990479
970.000000	72.009875
969.000000	72.027083
968.000000	72.032632
967.000000	72.026050
966.000000	72.023128
965.000000	72.045055
964.000000	72.043597
963.000000	72.040180
962.000000	72.042610
961.000000	72.032876
960.000000	72.058940
959.000000	72.063698
958.000000	72.049956
957.000000	72.074597
956.000000	72.090529
955.000000	72.108704
954.000000	72.101766
953.000000	72.088009
952.000000	72.087360
951.000000	72.082351
950.000000	72.084649
949.000000	72.084998
948.000000	72.092260
947.000000	72.106428
946.000000	72.116672
945.000000	72.121650
944.000000	72.121464
943.000000	72.123406
942.000000	72.127071
941.000000	72.114218
940.000000	72.135605
939.000000	72.171327
938.000000	72.159009
937.000000	72.153140
936.000000	72.155372
935.000000	72.162446
934.000000	72.165111
933.000000	72.156006
932.000000	72.139053
931.000000	72.145969
930.000000	72.160694
929.000000	72.171053
928.000000	72.181781
927.000000	72.175075
926.000000	72.168444
925.000000	72.162013
924.000000	72.133468
923.000000	72.152722
922.000000	72.184928
921.000000	72.174980
920.000000	72.148054
919.000000	72.139999
918.000000	72.146597
917.000000	72.140230
916.000000	72.161319
915.000000	72.136816
914.000000	72.122274
913.000000	72.133348
912.000000	72.149797
911.000000	72.166111
910.000000	72.179693
909.000000	72.176211
908.000000	72.201565
907.000000	72.211250
906.000000	72.205262
905.000000	72.175723
904.000000	72.194164
903.000000	72.191287
902.000000	72.195994
901.000000	72.218601
900.000000	72.211155
899.000000	72.169634
898.000000	72.153415
897.000000	72.205750
896.000000	72.247701
895.000000	72.269032
894.000000	72.242737
893.000000	72.241507
892.000000	72.240424
891.000000	72.214386
890.000000	72.234819
889.000000	72.290912
888.000000	72.310649
887.000000	72.232058
886.000000	72.210206
885.000000	72.218896
884.000000	72.284433
883.000000	72.237788
882.000000	72.295021
881.000000	72.262977
880.000000	72.291951
879.000000	72.295916
878.000000	72.292568
877.000000	72.279594
876.000000	72.287622
875.000000	72.248768
874.000000	72.323679
873.000000	72.357485
872.000000	72.335383
871.000000	72.364914
870.000000	72.466432
869.000000	72.269977
868.000000	72.339699
867.000000	72.344230
866.000000	72.409351
865.000000	72.446449
864.000000	72.331667
863.000000	72.396521
862.000000	72.412188
861.000000	72.344658
860.000000	72.293534
859.000000	72.237686
858.000000	72.137315
857.000000	71.968740
856.000000	72.449502
855.000000	72.100099
854.000000	72.458477
853.000000	72.241441
852.000000	71.987489
851.000000	72.184207
850.000000	72.384456
849.000000	72.217663
848.000000	72.298207
847.000000	72.069110
846.000000	72.070859
845.000000	72.322006
844.000000	72.420322
843.000000	72.349089
842.000000	72.152003
841.000000	71.986498
840.000000	72.307947
839.000000	72.244119
838.000000	72.535832
837.000000	72.447603
836.000000	72.400075
835.000000	72.287840
834.000000	72.131032
833.000000	72.249419
832.000000	72.278372
831.000000	72.085361
830.000000	72.318205
829.000000	72.402879
828.000000	71.949047
827.000000	72.113052
826.000000	71.994073
825.000000	72.129022
824.000000	72.296009
823.000000	72.211126
822.000000	72.236702
821.000000	72.066682
820.000000	72.169160
819.000000	72.439621
818.000000	72.221511
817.000000	72.278068
816.000000	72.279843
815.000000	72.260355
814.000000	72.200507
813.000000	72.141957
812.000000	72.209559
811.000000	72.283214
810.000000	72.149270
809.000000	72.292217
808.000000	72.289525
807.000000	72.210142
806.000000	72.213779
805.000000	72.253978
804.000000	72.192486
803.000000	72.162836
802.000000	72.315713
801.000000	72.260684
800.000000	72.172900
799.000000	72.215836
798.000000	72.188938
797.000000	72.078407
796.000000	72.112498
795.000000	72.169722
794.000000	72.115184
793.000000	72.359000
792.000000	72.446657
791.000000	72.337234
790.000000	72.201601
789.000000	72.248715
788.000000	72.319517
787.000000	72.289484
786.000000	72.310059
785.000000	72.280646
784.000000	72.141629
783.000000	72.325549
782.000000	72.184264
781.000000	72.293952
780.000000	72.308613
779.000000	72.314778
778.000000	72.297232
777.000000	72.364655
776.000000	72.230462
775.000000	72.253179
774.000000	72.342807
773.000000	72.186999
772.000000	72.204710
771.000000	72.238770
770.000000	72.313493
769.000000	72.275211
768.000000	72.293741
767.000000	72.352048
766.000000	72.336217
765.000000	72.348904
764.000000	72.291951
763.000000	72.261055
762.000000	72.258154
761.000000	72.169106
760.000000	72.200936
759.000000	72.358423
758.000000	72.282757
757.000000	72.145032
756.000000	72.234114
755.000000	72.252411
754.000000	72.193811
753.000000	72.256454
752.000000	72.335112
751.000000	72.334911
750.000000	72.267411
749.000000	72.310894
748.000000	72.288634
747.000000	72.267670
746.000000	72.276329
745.000000	72.274713
744.000000	72.282111
743.000000	72.317173
742.000000	72.321677
741.000000	72.276440
740.000000	72.248777
739.000000	72.310803
738.000000	72.295587
737.000000	72.243061
736.000000	72.266400
735.000000	72.247044
734.000000	72.325268
733.000000	72.375058
732.000000	72.233030
731.000000	72.252166
730.000000	72.262922
729.000000	72.217646
728.000000	72.235525
727.000000	72.263534
726.000000	72.271466
725.000000	72.235296
724.000000	72.261315
723.000000	72.282867
722.000000	72.316105
721.000000	72.337165
720.000000	72.309548
719.000000	72.254992
718.000000	72.270340
717.000000	72.345464
716.000000	72.351009
715.000000	72.365734
714.000000	72.350069
713.000000	72.305176
712.000000	72.311821
711.000000	72.388677
710.000000	72.393436
709.000000	72.361589
708.000000	72.328575
707.000000	72.331122
706.000000	72.336790
705.000000	72.261078
704.000000	72.222151
703.000000	72.331693
702.000000	72.362806
701.000000	72.286819
700.000000	72.289860
699.000000	72.297621
698.000000	72.310591
697.000000	72.336034
696.000000	72.338557
695.000000	72.334883
694.000000	72.346941
693.000000	72.343999
692.000000	72.376898
691.000000	72.421698
690.000000	72.365725
689.000000	72.232734
688.000000	72.210273
687.000000	72.265528
686.000000	72.256471
685.000000	72.224518
684.000000	72.201726
683.000000	72.273415
682.000000	72.299024
681.000000	72.243610
680.000000	72.220036
679.000000	72.231739
678.000000	72.287424
677.000000	72.295135
676.000000	72.271245
675.000000	72.280504
674.000000	72.290576
673.000000	72.344215
672.000000	72.330608
671.000000	72.274462
670.000000	72.173293
669.000000	72.262192
668.000000	72.261446
667.000000	72.255593
666.000000	72.304903
665.000000	72.336299
664.000000	72.268060
663.000000	72.249867
662.000000	72.231176
661.000000	72.283777
660.000000	72.297297
659.000000	72.262815
658.000000	72.244747
657.000000	72.248153
656.000000	72.279928
655.000000	72.319221
654.000000	72.261834
653.000000	72.217358
652.000000	72.299960
651.000000	72.330863
650.000000	72.321788
649.000000	72.298751
648.000000	72.302193
647.000000	72.321523
646.000000	72.281419
645.000000	72.302445
644.000000	72.320593
643.000000	72.263641
642.000000	72.307429
641.000000	72.324438
640.000000	72.278511
639.000000	72.310449
638.000000	72.287913
637.000000	72.314543
636.000000	72.278731
635.000000	72.255826
634.000000	72.298259
633.000000	72.260058
632.000000	72.275485
631.000000	72.323856
630.000000	72.248802
629.000000	72.254452
628.000000	72.307011
627.000000	72.277534
626.000000	72.317509
625.000000	72.307206
624.000000	72.327586
623.000000	72.256550
622.000000	72.255205
621.000000	72.210005
620.000000	72.240999
619.000000	72.278557
618.000000	72.366841
617.000000	72.266365
616.000000	72.243474
615.000000	72.257376
614.000000	72.208020
613.000000	72.283797
612.000000	72.353576
611.000000	72.347875
610.000000	72.257179
609.000000	72.268549
608.000000	72.262206
607.000000	72.296171
606.000000	72.236924
605.000000	72.226636
604.000000	72.225788
603.000000	72.217817
602.000000	72.221564
601.000000	72.261494
600.000000	72.270608
599.000000	72.207308
598.000000	72.218952
597.000000	72.216626
596.000000	72.196369
595.000000	72.205122
594.000000	72.233640
593.000000	72.223436
592.000000	72.141129
591.000000	72.167999
590.000000	72.189695
589.000000	72.151239
588.000000	72.172097
587.000000	72.206476
586.000000	72.227294
585.000000	72.142845
584.000000	72.119658
583.000000	72.087468
582.000000	72.114629
581.000000	72.167529
580.000000	72.098320
579.000000	72.160173
578.000000	72.127896
577.000000	72.123754
576.000000	72.210117
575.000000	72.158625
574.000000	72.090491
573.000000	72.089320
572.000000	72.087058
571.000000	72.016903
570.000000	72.083068
569.000000	72.038239
568.000000	72.023505
567.000000	72.025445
566.000000	71.962111
565.000000	72.043478
564.000000	72.091248
563.000000	72.059347
562.000000	71.995870
561.000000	71.987557
560.000000	71.946987
559.000000	71.934583
558.000000	71.912736
557.000000	71.935353
556.000000	71.951751
555.000000	71.928417
554.000000	71.882351
553.000000	71.902970
552.000000	71.908081
551.000000	71.925747
550.000000	71.865963
549.000000	71.823435
548.000000	71.835538
547.000000	71.836235
546.000000	71.815733
545.000000	71.844143
544.000000	71.822705
543.000000	71.794403
542.000000	71.725804
541.000000	71.726920
540.000000	71.695450
539.000000	71.727852
538.000000	71.699391
537.000000	71.703306
536.000000	71.682083
535.000000	71.671555
534.000000	71.651757
533.000000	71.619238
532.000000	71.617532
531.000000	71.586843
530.000000	71.589853
529.000000	71.606855
528.000000	71.527842
527.000000	71.560049
526.000000	71.526609
525.000000	71.521029
524.000000	71.499436
523.000000	71.472150
522.000000	71.455198
521.000000	71.409914
520.000000	71.379171
519.000000	71.423086
518.000000	71.353070
517.000000	71.356595
516.000000	71.312461
515.000000	71.277463
514.000000	71.289321
513.000000	71.267210
512.000000	71.248342
511.000000	71.211877
510.000000	71.172592
509.000000	71.216446
508.000000	71.199847
507.000000	71.125842
506.000000	71.082650
505.000000	71.091709
504.000000	71.024198
503.000000	71.050142
502.000000	71.020880
501.000000	71.018075
500.000000	70.943762
499.000000	70.975392
498.000000	70.951410
497.000000	70.922967
496.000000	70.862276
495.000000	70.859039
494.000000	70.841630
493.000000	70.838482
492.000000	70.830953
491.000000	70.740439
490.000000	70.599051
489.000000	70.644778
488.000000	70.647468
487.000000	70.554418
486.000000	70.469181
485.000000	70.467554
484.000000	70.557463
483.000000	70.607846
482.000000	70.578182
481.000000	70.533940
480.000000	70.446419
479.000000	70.410674
478.000000	70.364387
477.000000	70.347486
476.000000	70.310837
475.000000	70.242734
474.000000	70.176437
473.000000	70.160842
472.000000	70.148390
471.000000	70.095063
470.000000	70.070778
469.000000	70.049477
468.000000	69.951884
467.000000	69.908424
466.000000	69.899856
465.000000	69.782599
464.000000	69.702673
463.000000	69.712548
462.000000	69.652723
461.000000	69.604209
460.000000	69.543186
459.000000	69.502938
458.000000	69.503396
457.000000	69.418703
456.000000	69.325183
455.000000	69.256260
454.000000	69.241553
453.000000	69.186651
452.000000	69.119089
451.000000	69.071296
450.000000	68.998622
449.000000	68.949608
448.000000	68.929069
447.000000	68.871833
446.000000	68.748569
445.000000	68.606339
444.000000	68.548988
443.000000	68.526293
442.000000	68.489288
441.000000	68.395912
440.000000	68.344751
439.000000	68.264667
438.000000	68.171760
437.000000	68.073028
436.000000	67.956318
435.000000	67.857504
434.000000	67.774177
433.000000	67.722494
432.000000	67.622543
431.000000	67.506997
430.000000	67.390246
429.000000	67.251843
428.000000	67.168607
427.000000	67.084610
426.000000	66.973980
425.000000	66.869351
424.000000	66.757475
423.000000	66.646363
422.000000	66.514097
421.000000	66.312940
420.000000	66.249390
419.000000	66.116911
418.000000	66.008814
417.000000	65.835672
416.000000	65.714286
415.000000	65.567253
414.000000	65.414108
413.000000	65.322478
412.000000	65.176946
411.000000	64.992017
410.000000	64.932333
409.000000	64.746612
408.000000	64.584362
407.000000	64.421123
406.000000	64.232606
405.000000	64.063961
404.000000	63.896707
403.000000	63.726235
402.000000	63.612431
401.000000	63.429209
400.000000	63.345822
399.000000	63.165383
398.000000	62.972481
397.000000	62.807491
396.000000	62.521923
395.000000	62.361707
394.000000	62.200413
393.000000	61.981741
392.000000	61.858111
391.000000	61.652182
390.000000	61.512219
389.000000	61.285175
388.000000	61.045361
387.000000	60.834507
386.000000	60.573582
385.000000	60.389239
384.000000	60.162868
383.000000	60.056144
382.000000	59.792812
381.000000	59.462401
380.000000	59.337000
379.000000	59.026664
378.000000	58.558233
377.000000	58.645115
376.000000	58.482134
375.000000	58.194195
374.000000	57.955252
373.000000	57.712058
372.000000	57.369215
371.000000	57.170709
370.000000	57.009331
369.000000	56.506990
368.000000	56.248873
367.000000	56.089135
366.000000	55.715355
365.000000	55.598567
364.000000	55.131198
363.000000	54.862286
362.000000	54.687466
361.000000	54.253729
360.000000	54.061691
359.000000	53.727788
358.000000	53.594209
357.000000	53.335729
356.000000	53.118473
355.000000	52.614982
354.000000	52.501215
353.000000	52.162269
352.000000	52.024778
351.000000	51.787017
350.000000	51.342268
349.000000	51.149472
348.000000	50.875904
347.000000	50.496736
346.000000	50.276725
345.000000	49.955338
344.000000	49.654585
343.000000	49.189609
342.000000	48.958126
341.000000	48.824543
340.000000	48.231939
339.000000	47.716226
338.000000	47.317767
337.000000	46.941132
336.000000	46.652453
335.000000	46.145450
334.000000	45.614589
333.000000	44.922283
332.000000	44.498475
331.000000	44.239352
330.000000	43.579873
329.000000	43.150420
328.000000	42.414525
327.000000	42.103752
326.000000	41.555928
325.000000	41.125075
324.000000	40.798257
323.000000	40.285706
322.000000	40.140002
321.000000	40.007081
320.000000	39.640514
319.000000	39.485951
318.000000	38.942665
317.000000	38.623419
316.000000	38.289329
315.000000	38.211721
314.000000	37.981078
313.000000	37.852087
312.000000	37.466866
311.000000	37.272361
310.000000	37.079771
309.000000	36.757997
308.000000	36.503701
307.000000	36.490977
306.000000	36.198192
305.000000	36.014909
304.000000	35.835284
303.000000	35.545712
302.000000	35.407327
301.000000	35.118438
300.000000	34.742310
299.000000	34.373908
298.000000	34.125279
297.000000	33.672614
296.000000	33.160374
295.000000	32.547990
294.000000	31.945075
293.000000	31.133334
292.000000	30.269763
291.000000	29.227573
290.000000	28.279153
289.000000	27.218389
288.000000	26.511518
287.000000	25.842848
286.000000	25.323922
285.000000	25.018367
284.000000	24.789900
283.000000	24.680904
282.000000	24.670006
281.000000	24.554888
280.000000	24.637641
279.000000	24.669811
278.000000	24.782892
277.000000	24.939228
276.000000	25.143670
275.000000	25.485150
274.000000	25.668184
273.000000	26.017234
272.000000	26.231504
271.000000	26.327911
270.000000	26.359036
269.000000	26.499023
268.000000	26.689241
267.000000	27.054315
266.000000	27.277258
265.000000	27.508187
264.000000	27.834220
263.000000	28.136793
262.000000	28.370277
261.000000	28.579679
260.000000	28.799251
259.000000	29.032054
258.000000	29.331338
257.000000	29.762228
256.000000	30.004646
255.000000	30.143297
254.000000	30.152950
253.000000	29.955254
252.000000	29.821398
251.000000	29.584634
250.000000	29.205804
249.000000	28.676152
248.000000	27.862142
247.000000	26.850280
246.000000	25.739524
245.000000	24.522127
244.000000	23.307497
243.000000	22.098985
242.000000	20.921698
241.000000	19.934931
240.000000	19.058836
239.000000	18.257746
238.000000	17.734487
237.000000	17.377604
236.000000	17.060130
235.000000	16.895159
234.000000	16.862720
233.000000	16.812966
232.000000	16.600913
231.000000	16.493845
230.000000	16.485425
229.000000	16.425501
228.000000	16.444159
227.000000	16.517452
226.000000	16.585013
225.000000	16.639429
224.000000	16.695070
223.000000	16.835726
222.000000	16.956676
221.000000	17.096185
220.000000	17.393972
219.000000	17.628864
218.000000	17.807162
217.000000	18.016032
216.000000	18.196335
215.000000	18.368550
214.000000	18.665953
213.000000	19.104655
212.000000	19.337022
211.000000	19.500761
210.000000	19.942463
209.000000	20.254046
208.000000	20.471512
207.000000	20.968559
206.000000	21.395761
205.000000	21.835205
204.000000	22.485303
203.000000	22.870097
202.000000	23.272408
201.000000	23.759875
200.000000	24.315919
