PE UV       SUBTECH     SPECTRUM    ASCII       PEDS        4.00        
   -1
RTAgneauUK 12.Sample.asc
18/03/02
15:19:21.00
18/03/02
15:19:21.00
Administrator

200.000000
1
Lambda 750
750N8071901
PerkinElmer UV WinLab 6.0.4.0738 / 1.61.00 Lambda 900

0
0
3350/servo 860.8/2
0
0
UV/VIS
1
1
1
CommonBeamDepol,150mm sphere / downward view
0
0
0
0
Program
Program
3350/servo 860.8/2
3350/0.2 860.8/0.2
3350/0.2 860.8/0.2
0
1
 
 
 
0
 
860.8
319.2
860.8
Front
100
on
 
 
0
0
0
 
0
 
 
 
0
 
 
0
0
0
0
0
 
 
 
 
0
0


0
0
#HDR
-1
-1
#GR
nm
%R
1.0
0.0
2350.000000
-1.000000
2151
8
72.273098
17.465961
#DATA
2350.000000	44.941128
2349.000000	44.657497
2348.000000	44.455580
2347.000000	45.565031
2346.000000	45.228097
2345.000000	45.000978
2344.000000	44.910207
2343.000000	44.474500
2342.000000	45.047921
2341.000000	44.875126
2340.000000	44.943419
2339.000000	45.487771
2338.000000	45.082147
2337.000000	45.036924
2336.000000	45.541450
2335.000000	45.510812
2334.000000	45.481629
2333.000000	45.494971
2332.000000	45.630750
2331.000000	45.284000
2330.000000	44.948118
2329.000000	45.219388
2328.000000	45.301777
2327.000000	45.245183
2326.000000	45.179930
2325.000000	45.126433
2324.000000	45.178675
2323.000000	45.019935
2322.000000	45.055004
2321.000000	44.946643
2320.000000	44.946177
2319.000000	44.644964
2318.000000	44.840805
2317.000000	44.858520
2316.000000	44.807026
2315.000000	44.698744
2314.000000	44.551234
2313.000000	44.458024
2312.000000	44.626037
2311.000000	44.484444
2310.000000	44.278401
2309.000000	44.436538
2308.000000	44.017832
2307.000000	44.048941
2306.000000	43.943337
2305.000000	43.880130
2304.000000	43.698165
2303.000000	43.642649
2302.000000	43.801304
2301.000000	43.564089
2300.000000	43.505828
2299.000000	43.361391
2298.000000	43.262601
2297.000000	43.143625
2296.000000	43.185892
2295.000000	43.246522
2294.000000	42.975345
2293.000000	42.921573
2292.000000	42.779979
2291.000000	42.781539
2290.000000	42.744088
2289.000000	42.666346
2288.000000	42.656128
2287.000000	42.399228
2286.000000	42.323045
2285.000000	42.321251
2284.000000	42.458658
2283.000000	42.477805
2282.000000	42.279577
2281.000000	42.294023
2280.000000	42.452237
2279.000000	42.454038
2278.000000	42.411083
2277.000000	42.274397
2276.000000	42.220951
2275.000000	42.344499
2274.000000	42.346928
2273.000000	42.492604
2272.000000	42.570146
2271.000000	42.485676
2270.000000	42.559627
2269.000000	42.724507
2268.000000	42.803172
2267.000000	42.825577
2266.000000	42.935896
2265.000000	43.066079
2264.000000	43.126222
2263.000000	43.223450
2262.000000	43.369171
2261.000000	43.547820
2260.000000	43.591657
2259.000000	43.736591
2258.000000	44.009738
2257.000000	44.155037
2256.000000	44.319979
2255.000000	44.572621
2254.000000	44.784410
2253.000000	44.894628
2252.000000	45.126762
2251.000000	45.358637
2250.000000	45.519571
2249.000000	45.640987
2248.000000	45.796609
2247.000000	46.108996
2246.000000	46.424244
2245.000000	46.583511
2244.000000	46.608110
2243.000000	46.721657
2242.000000	47.059781
2241.000000	47.213463
2240.000000	47.259749
2239.000000	47.428796
2238.000000	47.571421
2237.000000	47.721372
2236.000000	47.947395
2235.000000	48.017116
2234.000000	48.033754
2233.000000	48.205766
2232.000000	48.256021
2231.000000	48.344682
2230.000000	48.386953
2229.000000	48.331318
2228.000000	48.356487
2227.000000	48.518964
2226.000000	48.474657
2225.000000	48.367036
2224.000000	48.345764
2223.000000	48.360623
2222.000000	48.493488
2221.000000	48.490367
2220.000000	48.370606
2219.000000	48.343697
2218.000000	48.314240
2217.000000	48.175160
2216.000000	48.209208
2215.000000	48.199184
2214.000000	48.159684
2213.000000	48.276207
2212.000000	48.246981
2211.000000	48.036187
2210.000000	47.983915
2209.000000	47.860103
2208.000000	47.778760
2207.000000	47.688931
2206.000000	47.701687
2205.000000	47.610698
2204.000000	47.640167
2203.000000	47.520658
2202.000000	47.498034
2201.000000	47.400165
2200.000000	47.191063
2199.000000	47.294767
2198.000000	47.183326
2197.000000	47.115429
2196.000000	47.080075
2195.000000	47.069427
2194.000000	46.879180
2193.000000	46.723936
2192.000000	46.777688
2191.000000	46.713310
2190.000000	46.659621
2189.000000	46.589960
2188.000000	46.489804
2187.000000	46.429375
2186.000000	46.404842
2185.000000	46.427058
2184.000000	46.474557
2183.000000	46.465487
2182.000000	46.212907
2181.000000	46.218588
2180.000000	46.222621
2179.000000	46.269231
2178.000000	46.176167
2177.000000	46.209971
2176.000000	46.436775
2175.000000	46.320819
2174.000000	46.296558
2173.000000	46.236721
2172.000000	46.316197
2171.000000	46.350534
2170.000000	46.345041
2169.000000	46.472045
2168.000000	46.655520
2167.000000	46.689918
2166.000000	46.669340
2165.000000	46.758768
2164.000000	47.061631
2163.000000	46.918449
2162.000000	47.228327
2161.000000	47.425085
2160.000000	47.552437
2159.000000	47.700977
2158.000000	47.733668
2157.000000	47.794408
2156.000000	47.918046
2155.000000	48.317227
2154.000000	48.360579
2153.000000	48.565720
2152.000000	48.554977
2151.000000	48.803237
2150.000000	48.997852
2149.000000	49.072784
2148.000000	49.218373
2147.000000	49.470979
2146.000000	49.651856
2145.000000	49.766422
2144.000000	49.905637
2143.000000	49.954894
2142.000000	50.198931
2141.000000	50.276493
2140.000000	50.424399
2139.000000	50.604882
2138.000000	50.797704
2137.000000	50.887115
2136.000000	50.816064
2135.000000	51.087233
2134.000000	51.152900
2133.000000	51.223132
2132.000000	51.268979
2131.000000	51.594416
2130.000000	51.597584
2129.000000	51.622339
2128.000000	51.725779
2127.000000	51.834707
2126.000000	51.862140
2125.000000	51.777034
2124.000000	52.036902
2123.000000	52.029451
2122.000000	52.180523
2121.000000	52.065910
2120.000000	52.054129
2119.000000	52.104383
2118.000000	52.340312
2117.000000	52.251854
2116.000000	52.329599
2115.000000	52.472915
2114.000000	52.234465
2113.000000	52.255513
2112.000000	52.307365
2111.000000	52.421238
2110.000000	52.358958
2109.000000	52.466177
2108.000000	52.555548
2107.000000	52.463434
2106.000000	52.518246
2105.000000	52.482449
2104.000000	52.527910
2103.000000	52.636748
2102.000000	52.628389
2101.000000	52.537786
2100.000000	52.619859
2099.000000	52.598552
2098.000000	52.534492
2097.000000	52.646986
2096.000000	52.579983
2095.000000	52.605929
2094.000000	52.698605
2093.000000	52.520585
2092.000000	52.543486
2091.000000	52.607361
2090.000000	52.559492
2089.000000	52.584806
2088.000000	52.472013
2087.000000	52.557658
2086.000000	52.606543
2085.000000	52.483666
2084.000000	52.334337
2083.000000	52.321568
2082.000000	52.266628
2081.000000	52.233612
2080.000000	52.094616
2079.000000	52.115725
2078.000000	52.024155
2077.000000	51.902953
2076.000000	51.850642
2075.000000	51.767976
2074.000000	51.606819
2073.000000	51.542871
2072.000000	51.469532
2071.000000	51.395270
2070.000000	51.358818
2069.000000	51.242277
2068.000000	51.008905
2067.000000	50.836964
2066.000000	50.696996
2065.000000	50.609818
2064.000000	50.506961
2063.000000	50.310330
2062.000000	50.052814
2061.000000	49.974477
2060.000000	49.841293
2059.000000	49.695001
2058.000000	49.513568
2057.000000	49.342492
2056.000000	49.238121
2055.000000	49.092842
2054.000000	48.991478
2053.000000	48.848583
2052.000000	48.712537
2051.000000	48.527529
2050.000000	48.394274
2049.000000	48.359457
2048.000000	48.302934
2047.000000	48.201894
2046.000000	48.101699
2045.000000	48.037463
2044.000000	48.012777
2043.000000	47.993902
2042.000000	48.025264
2041.000000	48.022430
2040.000000	48.022898
2039.000000	48.045071
2038.000000	48.086345
2037.000000	48.083110
2036.000000	48.121387
2035.000000	48.255735
2034.000000	48.359851
2033.000000	48.464935
2032.000000	48.648706
2031.000000	48.751283
2030.000000	48.826636
2029.000000	48.948475
2028.000000	49.070032
2027.000000	49.191835
2026.000000	49.373475
2025.000000	49.511285
2024.000000	49.590036
2023.000000	49.684329
2022.000000	49.767150
2021.000000	49.831743
2020.000000	49.910880
2019.000000	49.999747
2018.000000	50.068836
2017.000000	50.141691
2016.000000	50.175124
2015.000000	50.156835
2014.000000	50.185102
2013.000000	50.201476
2012.000000	50.156044
2011.000000	50.182746
2010.000000	50.190504
2009.000000	50.125153
2008.000000	50.067614
2007.000000	50.047673
2006.000000	49.987754
2005.000000	49.945584
2004.000000	49.880672
2003.000000	49.844877
2002.000000	49.773882
2001.000000	49.657197
2000.000000	49.618777
1999.000000	49.554199
1998.000000	49.465034
1997.000000	49.391801
1996.000000	49.317249
1995.000000	49.210981
1994.000000	49.085986
1993.000000	49.040169
1992.000000	48.961134
1991.000000	48.849905
1990.000000	48.808367
1989.000000	48.700481
1988.000000	48.589627
1987.000000	48.522201
1986.000000	48.426293
1985.000000	48.359309
1984.000000	48.266741
1983.000000	48.165857
1982.000000	48.102533
1981.000000	47.993563
1980.000000	47.883808
1979.000000	47.782331
1978.000000	47.685649
1977.000000	47.618705
1976.000000	47.501428
1975.000000	47.428975
1974.000000	47.293925
1973.000000	47.226483
1972.000000	47.142038
1971.000000	47.026950
1970.000000	46.932175
1969.000000	46.856219
1968.000000	46.785110
1967.000000	46.641176
1966.000000	46.576862
1965.000000	46.503200
1964.000000	46.370912
1963.000000	46.273291
1962.000000	46.198689
1961.000000	46.127110
1960.000000	46.045355
1959.000000	45.966085
1958.000000	45.877654
1957.000000	45.815306
1956.000000	45.697137
1955.000000	45.610649
1954.000000	45.583701
1953.000000	45.507559
1952.000000	45.452530
1951.000000	45.374852
1950.000000	45.320292
1949.000000	45.284436
1948.000000	45.266767
1947.000000	45.217818
1946.000000	45.178774
1945.000000	45.163335
1944.000000	45.137109
1943.000000	45.146551
1942.000000	45.211559
1941.000000	45.138187
1940.000000	45.246811
1939.000000	45.308846
1938.000000	45.301101
1937.000000	45.437830
1936.000000	45.487517
1935.000000	45.567869
1934.000000	45.673259
1933.000000	45.754746
1932.000000	45.949245
1931.000000	46.085488
1930.000000	46.256421
1929.000000	46.449806
1928.000000	46.605508
1927.000000	46.756690
1926.000000	46.975961
1925.000000	47.209416
1924.000000	47.334857
1923.000000	47.620559
1922.000000	47.925149
1921.000000	48.181926
1920.000000	48.415660
1919.000000	48.734238
1918.000000	48.959259
1917.000000	49.252838
1916.000000	49.553030
1915.000000	49.900865
1914.000000	50.277990
1913.000000	50.577329
1912.000000	50.918790
1911.000000	51.247923
1910.000000	51.581588
1909.000000	51.949960
1908.000000	52.235689
1907.000000	52.679488
1906.000000	53.044351
1905.000000	53.433568
1904.000000	53.827539
1903.000000	54.131528
1902.000000	54.561020
1901.000000	54.995695
1900.000000	55.399906
1899.000000	55.820000
1898.000000	56.221943
1897.000000	56.571810
1896.000000	57.016599
1895.000000	57.387934
1894.000000	57.745060
1893.000000	58.038370
1892.000000	58.498570
1891.000000	58.842128
1890.000000	59.178677
1889.000000	59.475154
1888.000000	59.789749
1887.000000	60.130794
1886.000000	60.474873
1885.000000	60.687175
1884.000000	60.997513
1883.000000	61.218537
1882.000000	61.441828
1881.000000	61.653544
1880.000000	61.918161
1879.000000	62.108950
1878.000000	62.287279
1877.000000	62.536547
1876.000000	62.695057
1875.000000	62.848114
1874.000000	63.056527
1873.000000	63.156549
1872.000000	63.298474
1871.000000	63.415400
1870.000000	63.478992
1869.000000	63.624663
1868.000000	63.738258
1867.000000	63.778141
1866.000000	63.811640
1865.000000	63.903646
1864.000000	63.971599
1863.000000	64.012349
1862.000000	64.040773
1861.000000	64.074008
1860.000000	64.133143
1859.000000	64.126848
1858.000000	64.155717
1857.000000	64.188987
1856.000000	64.213322
1855.000000	64.216256
1854.000000	64.232560
1853.000000	64.230760
1852.000000	64.242958
1851.000000	64.249592
1850.000000	64.264412
1849.000000	64.257623
1848.000000	64.239533
1847.000000	64.270291
1846.000000	64.270427
1845.000000	64.255363
1844.000000	64.231509
1843.000000	64.145824
1842.000000	64.134418
1841.000000	64.152526
1840.000000	64.128717
1839.000000	64.104904
1838.000000	64.090675
1837.000000	64.049919
1836.000000	64.028846
1835.000000	63.997488
1834.000000	63.969602
1833.000000	63.967117
1832.000000	63.944343
1831.000000	63.893132
1830.000000	63.882613
1829.000000	63.823581
1828.000000	63.773564
1827.000000	63.781154
1826.000000	63.783735
1825.000000	63.748885
1824.000000	63.736818
1823.000000	63.730151
1822.000000	63.685018
1821.000000	63.659579
1820.000000	63.620124
1819.000000	63.582073
1818.000000	63.600616
1817.000000	63.608607
1816.000000	63.554877
1815.000000	63.528756
1814.000000	63.509138
1813.000000	63.454631
1812.000000	63.407683
1811.000000	63.389180
1810.000000	63.395263
1809.000000	63.395646
1808.000000	63.355084
1807.000000	63.319410
1806.000000	63.308470
1805.000000	63.264348
1804.000000	63.220059
1803.000000	63.196907
1802.000000	63.188937
1801.000000	63.192964
1800.000000	63.156433
1799.000000	63.121013
1798.000000	63.123774
1797.000000	63.104115
1796.000000	63.083191
1795.000000	63.073065
1794.000000	63.064601
1793.000000	63.038006
1792.000000	62.999755
1791.000000	62.986837
1790.000000	62.980715
1789.000000	62.955526
1788.000000	62.936955
1787.000000	62.915194
1786.000000	62.881486
1785.000000	62.860783
1784.000000	62.848057
1783.000000	62.821735
1782.000000	62.788896
1781.000000	62.755819
1780.000000	62.714960
1779.000000	62.706707
1778.000000	62.674524
1777.000000	62.629697
1776.000000	62.598148
1775.000000	62.558885
1774.000000	62.486536
1773.000000	62.452803
1772.000000	62.418777
1771.000000	62.370306
1770.000000	62.329795
1769.000000	62.273626
1768.000000	62.217796
1767.000000	62.165120
1766.000000	62.125471
1765.000000	62.082877
1764.000000	62.055249
1763.000000	61.979781
1762.000000	61.977692
1761.000000	61.940538
1760.000000	61.862335
1759.000000	61.808219
1758.000000	61.781637
1757.000000	61.735608
1756.000000	61.709236
1755.000000	61.658393
1754.000000	61.586044
1753.000000	61.523078
1752.000000	61.502132
1751.000000	61.466532
1750.000000	61.396183
1749.000000	61.384178
1748.000000	61.338573
1747.000000	61.279780
1746.000000	61.231543
1745.000000	61.198667
1744.000000	61.142342
1743.000000	61.100575
1742.000000	61.047078
1741.000000	61.019478
1740.000000	60.972696
1739.000000	60.898230
1738.000000	60.847626
1737.000000	60.826222
1736.000000	60.810371
1735.000000	60.778001
1734.000000	60.781075
1733.000000	60.789455
1732.000000	60.772891
1731.000000	60.801137
1730.000000	60.812048
1729.000000	60.835073
1728.000000	60.900712
1727.000000	60.931190
1726.000000	60.960006
1725.000000	61.025779
1724.000000	61.054091
1723.000000	61.133901
1722.000000	61.197018
1721.000000	61.246916
1720.000000	61.368581
1719.000000	61.454238
1718.000000	61.529032
1717.000000	61.579739
1716.000000	61.659948
1715.000000	61.715055
1714.000000	61.775313
1713.000000	61.874828
1712.000000	61.898422
1711.000000	61.952613
1710.000000	61.996995
1709.000000	62.026555
1708.000000	62.076166
1707.000000	62.137641
1706.000000	62.173270
1705.000000	62.172533
1704.000000	62.187593
1703.000000	62.222490
1702.000000	62.189022
1701.000000	62.251037
1700.000000	62.208909
1699.000000	62.233893
1698.000000	62.303161
1697.000000	62.294304
1696.000000	62.349706
1695.000000	62.324318
1694.000000	62.359206
1693.000000	62.411450
1692.000000	62.431367
1691.000000	62.492269
1690.000000	62.557653
1689.000000	62.614873
1688.000000	62.692127
1687.000000	62.786921
1686.000000	62.875767
1685.000000	62.975228
1684.000000	63.061562
1683.000000	63.169537
1682.000000	63.303573
1681.000000	63.451055
1680.000000	63.551334
1679.000000	63.687661
1678.000000	63.818501
1677.000000	63.933680
1676.000000	64.073835
1675.000000	64.186359
1674.000000	64.312226
1673.000000	64.455647
1672.000000	64.577659
1671.000000	64.680949
1670.000000	64.802269
1669.000000	64.922443
1668.000000	65.024654
1667.000000	65.126676
1666.000000	65.208791
1665.000000	65.277042
1664.000000	65.336224
1663.000000	65.418223
1662.000000	65.463574
1661.000000	65.519945
1660.000000	65.561489
1659.000000	65.615869
1658.000000	65.666887
1657.000000	65.693305
1656.000000	65.731610
1655.000000	65.752509
1654.000000	65.778719
1653.000000	65.783331
1652.000000	65.813451
1651.000000	65.791057
1650.000000	65.806488
1649.000000	65.824319
1648.000000	65.813531
1647.000000	65.827417
1646.000000	65.809720
1645.000000	65.800169
1644.000000	65.783113
1643.000000	65.765089
1642.000000	65.767155
1641.000000	65.750838
1640.000000	65.740442
1639.000000	65.719852
1638.000000	65.685717
1637.000000	65.685885
1636.000000	65.654215
1635.000000	65.626247
1634.000000	65.594934
1633.000000	65.574986
1632.000000	65.561031
1631.000000	65.543103
1630.000000	65.528865
1629.000000	65.489111
1628.000000	65.456588
1627.000000	65.428868
1626.000000	65.405003
1625.000000	65.356345
1624.000000	65.326123
1623.000000	65.314660
1622.000000	65.291581
1621.000000	65.247983
1620.000000	65.213925
1619.000000	65.179874
1618.000000	65.133176
1617.000000	65.117431
1616.000000	65.086806
1615.000000	65.047670
1614.000000	65.013878
1613.000000	64.973501
1612.000000	64.938708
1611.000000	64.897014
1610.000000	64.852805
1609.000000	64.828042
1608.000000	64.787012
1607.000000	64.737482
1606.000000	64.687044
1605.000000	64.647015
1604.000000	64.614888
1603.000000	64.573356
1602.000000	64.528676
1601.000000	64.489135
1600.000000	64.460139
1599.000000	64.410593
1598.000000	64.361924
1597.000000	64.329580
1596.000000	64.287270
1595.000000	64.244166
1594.000000	64.211136
1593.000000	64.190828
1592.000000	64.155077
1591.000000	64.119074
1590.000000	64.071478
1589.000000	64.025701
1588.000000	64.007022
1587.000000	63.975798
1586.000000	63.927500
1585.000000	63.895526
1584.000000	63.855230
1583.000000	63.832783
1582.000000	63.809858
1581.000000	63.771164
1580.000000	63.745356
1579.000000	63.715196
1578.000000	63.693384
1577.000000	63.664785
1576.000000	63.626881
1575.000000	63.599507
1574.000000	63.570207
1573.000000	63.543822
1572.000000	63.504745
1571.000000	63.467418
1570.000000	63.447532
1569.000000	63.421948
1568.000000	63.392358
1567.000000	63.370286
1566.000000	63.351793
1565.000000	63.343048
1564.000000	63.319084
1563.000000	63.294409
1562.000000	63.286586
1561.000000	63.262787
1560.000000	63.251891
1559.000000	63.235796
1558.000000	63.221089
1557.000000	63.217827
1556.000000	63.202607
1555.000000	63.181161
1554.000000	63.167471
1553.000000	63.158449
1552.000000	63.147279
1551.000000	63.117327
1550.000000	63.096763
1549.000000	63.065578
1548.000000	63.039772
1547.000000	62.996240
1546.000000	62.960844
1545.000000	62.923385
1544.000000	62.859003
1543.000000	62.822636
1542.000000	62.781555
1541.000000	62.726288
1540.000000	62.668096
1539.000000	62.614886
1538.000000	62.531645
1537.000000	62.464676
1536.000000	62.407692
1535.000000	62.336511
1534.000000	62.272090
1533.000000	62.220206
1532.000000	62.143851
1531.000000	62.066358
1530.000000	62.011860
1529.000000	61.950591
1528.000000	61.901739
1527.000000	61.862004
1526.000000	61.799483
1525.000000	61.748026
1524.000000	61.696764
1523.000000	61.647117
1522.000000	61.588728
1521.000000	61.546927
1520.000000	61.511500
1519.000000	61.453028
1518.000000	61.408258
1517.000000	61.394851
1516.000000	61.372854
1515.000000	61.332939
1514.000000	61.348522
1513.000000	61.360799
1512.000000	61.355019
1511.000000	61.307946
1510.000000	61.267509
1509.000000	61.275550
1508.000000	61.228121
1507.000000	61.186581
1506.000000	61.178244
1505.000000	61.151850
1504.000000	61.155446
1503.000000	61.146313
1502.000000	61.118627
1501.000000	61.112517
1500.000000	61.128145
1499.000000	61.127397
1498.000000	61.140501
1497.000000	61.169272
1496.000000	61.159554
1495.000000	61.175609
1494.000000	61.204899
1493.000000	61.221821
1492.000000	61.262621
1491.000000	61.317697
1490.000000	61.341325
1489.000000	61.381602
1488.000000	61.432909
1487.000000	61.502154
1486.000000	61.541887
1485.000000	61.619574
1484.000000	61.691736
1483.000000	61.740730
1482.000000	61.797291
1481.000000	61.858255
1480.000000	61.921057
1479.000000	61.990290
1478.000000	62.052563
1477.000000	62.115449
1476.000000	62.193872
1475.000000	62.250411
1474.000000	62.322579
1473.000000	62.383698
1472.000000	62.451958
1471.000000	62.534090
1470.000000	62.603581
1469.000000	62.625484
1468.000000	62.689839
1467.000000	62.731207
1466.000000	62.777870
1465.000000	62.814595
1464.000000	62.891731
1463.000000	62.909597
1462.000000	62.932372
1461.000000	62.981824
1460.000000	63.038361
1459.000000	63.112339
1458.000000	63.129710
1457.000000	63.161756
1456.000000	63.216307
1455.000000	63.287345
1454.000000	63.295629
1453.000000	63.347303
1452.000000	63.375253
1451.000000	63.432205
1450.000000	63.492145
1449.000000	63.548394
1448.000000	63.578410
1447.000000	63.620118
1446.000000	63.688756
1445.000000	63.716077
1444.000000	63.788739
1443.000000	63.852808
1442.000000	63.910898
1441.000000	63.940176
1440.000000	63.986578
1439.000000	64.049726
1438.000000	64.123461
1437.000000	64.205724
1436.000000	64.250951
1435.000000	64.322038
1434.000000	64.385717
1433.000000	64.443617
1432.000000	64.517412
1431.000000	64.587682
1430.000000	64.670030
1429.000000	64.732171
1428.000000	64.812958
1427.000000	64.896875
1426.000000	64.976285
1425.000000	65.083550
1424.000000	65.169236
1423.000000	65.264223
1422.000000	65.340644
1421.000000	65.436315
1420.000000	65.532243
1419.000000	65.631515
1418.000000	65.735618
1417.000000	65.824638
1416.000000	65.935652
1415.000000	66.054707
1414.000000	66.143609
1413.000000	66.238489
1412.000000	66.345703
1411.000000	66.457714
1410.000000	66.578171
1409.000000	66.674208
1408.000000	66.756440
1407.000000	66.871691
1406.000000	66.970198
1405.000000	67.082818
1404.000000	67.188782
1403.000000	67.272553
1402.000000	67.372769
1401.000000	67.473880
1400.000000	67.563348
1399.000000	67.659906
1398.000000	67.747977
1397.000000	67.830218
1396.000000	67.911354
1395.000000	67.992285
1394.000000	68.076605
1393.000000	68.156982
1392.000000	68.221884
1391.000000	68.288110
1390.000000	68.348654
1389.000000	68.409102
1388.000000	68.478460
1387.000000	68.544679
1386.000000	68.651175
1385.000000	68.723978
1384.000000	68.752899
1383.000000	68.809478
1382.000000	68.868494
1381.000000	68.914360
1380.000000	68.954655
1379.000000	69.005928
1378.000000	69.056080
1377.000000	69.084468
1376.000000	69.132860
1375.000000	69.174726
1374.000000	69.195412
1373.000000	69.218521
1372.000000	69.241745
1371.000000	69.288022
1370.000000	69.334991
1369.000000	69.353607
1368.000000	69.361475
1367.000000	69.383136
1366.000000	69.420659
1365.000000	69.450910
1364.000000	69.480376
1363.000000	69.516843
1362.000000	69.543596
1361.000000	69.573440
1360.000000	69.603012
1359.000000	69.635745
1358.000000	69.665424
1357.000000	69.720651
1356.000000	69.771696
1355.000000	69.781560
1354.000000	69.817371
1353.000000	69.859041
1352.000000	69.895191
1351.000000	69.932876
1350.000000	69.966109
1349.000000	70.001495
1348.000000	70.035460
1347.000000	70.064572
1346.000000	70.104275
1345.000000	70.154908
1344.000000	70.180357
1343.000000	70.189607
1342.000000	70.234421
1341.000000	70.255915
1340.000000	70.289632
1339.000000	70.310659
1338.000000	70.340594
1337.000000	70.371163
1336.000000	70.395872
1335.000000	70.426472
1334.000000	70.424488
1333.000000	70.440987
1332.000000	70.475024
1331.000000	70.475077
1330.000000	70.512638
1329.000000	70.531267
1328.000000	70.540509
1327.000000	70.570788
1326.000000	70.553609
1325.000000	70.571800
1324.000000	70.597773
1323.000000	70.609028
1322.000000	70.643733
1321.000000	70.641920
1320.000000	70.621602
1319.000000	70.643267
1318.000000	70.655974
1317.000000	70.662630
1316.000000	70.704022
1315.000000	70.700087
1314.000000	70.680763
1313.000000	70.697860
1312.000000	70.701640
1311.000000	70.729253
1310.000000	70.754238
1309.000000	70.747261
1308.000000	70.747777
1307.000000	70.730059
1306.000000	70.762532
1305.000000	70.760398
1304.000000	70.777458
1303.000000	70.772460
1302.000000	70.774675
1301.000000	70.798665
1300.000000	70.812992
1299.000000	70.801744
1298.000000	70.797726
1297.000000	70.774760
1296.000000	70.787837
1295.000000	70.795640
1294.000000	70.810165
1293.000000	70.787204
1292.000000	70.784572
1291.000000	70.777618
1290.000000	70.773545
1289.000000	70.797131
1288.000000	70.786007
1287.000000	70.792547
1286.000000	70.761614
1285.000000	70.760609
1284.000000	70.773688
1283.000000	70.761046
1282.000000	70.763552
1281.000000	70.760008
1280.000000	70.766458
1279.000000	70.761785
1278.000000	70.772995
1277.000000	70.770993
1276.000000	70.763950
1275.000000	70.760455
1274.000000	70.779933
1273.000000	70.761974
1272.000000	70.746296
1271.000000	70.774996
1270.000000	70.768543
1269.000000	70.751156
1268.000000	70.767496
1267.000000	70.779085
1266.000000	70.774984
1265.000000	70.789898
1264.000000	70.825967
1263.000000	70.806782
1262.000000	70.826252
1261.000000	70.807605
1260.000000	70.817012
1259.000000	70.820778
1258.000000	70.856190
1257.000000	70.841794
1256.000000	70.860220
1255.000000	70.862542
1254.000000	70.882834
1253.000000	70.879018
1252.000000	70.860863
1251.000000	70.861506
1250.000000	70.851148
1249.000000	70.856915
1248.000000	70.855346
1247.000000	70.854013
1246.000000	70.848281
1245.000000	70.856647
1244.000000	70.851036
1243.000000	70.860878
1242.000000	70.841410
1241.000000	70.819210
1240.000000	70.805695
1239.000000	70.783689
1238.000000	70.789336
1237.000000	70.763282
1236.000000	70.763835
1235.000000	70.750925
1234.000000	70.745033
1233.000000	70.719006
1232.000000	70.701681
1231.000000	70.699287
1230.000000	70.697660
1229.000000	70.669173
1228.000000	70.641650
1227.000000	70.659565
1226.000000	70.647377
1225.000000	70.638215
1224.000000	70.637549
1223.000000	70.609950
1222.000000	70.613943
1221.000000	70.591356
1220.000000	70.588348
1219.000000	70.557687
1218.000000	70.561785
1217.000000	70.526563
1216.000000	70.522196
1215.000000	70.521048
1214.000000	70.491061
1213.000000	70.487213
1212.000000	70.448718
1211.000000	70.454909
1210.000000	70.441055
1209.000000	70.446339
1208.000000	70.419965
1207.000000	70.392719
1206.000000	70.375765
1205.000000	70.334994
1204.000000	70.333545
1203.000000	70.327623
1202.000000	70.298164
1201.000000	70.304148
1200.000000	70.285203
1199.000000	70.271866
1198.000000	70.247320
1197.000000	70.236151
1196.000000	70.220463
1195.000000	70.191696
1194.000000	70.172515
1193.000000	70.147107
1192.000000	70.142306
1191.000000	70.144027
1190.000000	70.132376
1189.000000	70.101596
1188.000000	70.092283
1187.000000	70.098044
1186.000000	70.091350
1185.000000	70.100825
1184.000000	70.098087
1183.000000	70.103638
1182.000000	70.115875
1181.000000	70.128365
1180.000000	70.138092
1179.000000	70.156349
1178.000000	70.182605
1177.000000	70.193519
1176.000000	70.218507
1175.000000	70.254885
1174.000000	70.277871
1173.000000	70.308243
1172.000000	70.340384
1171.000000	70.369760
1170.000000	70.410613
1169.000000	70.436263
1168.000000	70.464691
1167.000000	70.516067
1166.000000	70.560053
1165.000000	70.577416
1164.000000	70.624540
1163.000000	70.675884
1162.000000	70.706704
1161.000000	70.728469
1160.000000	70.767559
1159.000000	70.811138
1158.000000	70.856708
1157.000000	70.899641
1156.000000	70.930624
1155.000000	70.966302
1154.000000	71.000138
1153.000000	71.021791
1152.000000	71.031788
1151.000000	71.052254
1150.000000	71.082323
1149.000000	71.107405
1148.000000	71.138640
1147.000000	71.160482
1146.000000	71.181377
1145.000000	71.198261
1144.000000	71.222824
1143.000000	71.254443
1142.000000	71.272409
1141.000000	71.288869
1140.000000	71.314729
1139.000000	71.332584
1138.000000	71.359273
1137.000000	71.394227
1136.000000	71.404353
1135.000000	71.421610
1134.000000	71.441908
1133.000000	71.438547
1132.000000	71.428629
1131.000000	71.458317
1130.000000	71.484853
1129.000000	71.506829
1128.000000	71.519665
1127.000000	71.529134
1126.000000	71.541235
1125.000000	71.548496
1124.000000	71.561823
1123.000000	71.576315
1122.000000	71.585639
1121.000000	71.594926
1120.000000	71.601155
1119.000000	71.611208
1118.000000	71.617384
1117.000000	71.613386
1116.000000	71.594981
1115.000000	71.596548
1114.000000	71.604204
1113.000000	71.626536
1112.000000	71.637961
1111.000000	71.622602
1110.000000	71.595786
1109.000000	71.619558
1108.000000	71.629366
1107.000000	71.631981
1106.000000	71.632779
1105.000000	71.643308
1104.000000	71.644987
1103.000000	71.644451
1102.000000	71.626282
1101.000000	71.635955
1100.000000	71.628983
1099.000000	71.637308
1098.000000	71.654230
1097.000000	71.654336
1096.000000	71.661569
1095.000000	71.647779
1094.000000	71.648675
1093.000000	71.633392
1092.000000	71.639906
1091.000000	71.636016
1090.000000	71.649560
1089.000000	71.655740
1088.000000	71.655351
1087.000000	71.645126
1086.000000	71.625319
1085.000000	71.630809
1084.000000	71.628108
1083.000000	71.622705
1082.000000	71.640772
1081.000000	71.630847
1080.000000	71.646162
1079.000000	71.626073
1078.000000	71.612073
1077.000000	71.613553
1076.000000	71.611804
1075.000000	71.615749
1074.000000	71.612357
1073.000000	71.621098
1072.000000	71.576980
1071.000000	71.601397
1070.000000	71.587504
1069.000000	71.578301
1068.000000	71.586638
1067.000000	71.586390
1066.000000	71.585710
1065.000000	71.577295
1064.000000	71.555017
1063.000000	71.556378
1062.000000	71.564947
1061.000000	71.572809
1060.000000	71.557772
1059.000000	71.566664
1058.000000	71.557145
1057.000000	71.556350
1056.000000	71.544516
1055.000000	71.544635
1054.000000	71.540048
1053.000000	71.507020
1052.000000	71.514094
1051.000000	71.523918
1050.000000	71.514402
1049.000000	71.513564
1048.000000	71.515911
1047.000000	71.518014
1046.000000	71.487912
1045.000000	71.510612
1044.000000	71.499226
1043.000000	71.477036
1042.000000	71.475439
1041.000000	71.474453
1040.000000	71.469577
1039.000000	71.472916
1038.000000	71.476996
1037.000000	71.470795
1036.000000	71.454291
1035.000000	71.462286
1034.000000	71.450601
1033.000000	71.466573
1032.000000	71.461482
1031.000000	71.452846
1030.000000	71.461410
1029.000000	71.446757
1028.000000	71.452837
1027.000000	71.455763
1026.000000	71.460476
1025.000000	71.462323
1024.000000	71.465342
1023.000000	71.439503
1022.000000	71.452329
1021.000000	71.457164
1020.000000	71.438821
1019.000000	71.459340
1018.000000	71.444473
1017.000000	71.456846
1016.000000	71.455263
1015.000000	71.457556
1014.000000	71.447970
1013.000000	71.449303
1012.000000	71.462324
1011.000000	71.453346
1010.000000	71.459378
1009.000000	71.461344
1008.000000	71.455828
1007.000000	71.469169
1006.000000	71.478895
1005.000000	71.480994
1004.000000	71.464997
1003.000000	71.462355
1002.000000	71.482484
1001.000000	71.474898
1000.000000	71.480296
999.000000	71.486285
998.000000	71.501814
997.000000	71.499318
996.000000	71.506823
995.000000	71.495182
994.000000	71.497216
993.000000	71.519578
992.000000	71.520391
991.000000	71.536794
990.000000	71.552611
989.000000	71.537549
988.000000	71.543588
987.000000	71.546382
986.000000	71.554575
985.000000	71.569035
984.000000	71.597240
983.000000	71.588675
982.000000	71.574224
981.000000	71.582945
980.000000	71.585495
979.000000	71.597274
978.000000	71.604608
977.000000	71.620144
976.000000	71.608373
975.000000	71.603790
974.000000	71.605462
973.000000	71.625580
972.000000	71.621283
971.000000	71.611552
970.000000	71.637606
969.000000	71.657346
968.000000	71.660521
967.000000	71.656071
966.000000	71.652319
965.000000	71.664522
964.000000	71.674866
963.000000	71.662858
962.000000	71.654153
961.000000	71.655044
960.000000	71.685619
959.000000	71.691369
958.000000	71.677875
957.000000	71.713441
956.000000	71.729902
955.000000	71.719386
954.000000	71.709617
953.000000	71.709167
952.000000	71.718952
951.000000	71.709195
950.000000	71.699071
949.000000	71.711705
948.000000	71.719042
947.000000	71.725421
946.000000	71.739724
945.000000	71.747142
944.000000	71.749475
943.000000	71.755822
942.000000	71.741508
941.000000	71.735437
940.000000	71.756166
939.000000	71.769726
938.000000	71.755798
937.000000	71.745745
936.000000	71.769881
935.000000	71.780530
934.000000	71.776120
933.000000	71.763124
932.000000	71.745467
931.000000	71.753070
930.000000	71.765883
929.000000	71.785816
928.000000	71.807639
927.000000	71.787118
926.000000	71.751590
925.000000	71.756373
924.000000	71.761385
923.000000	71.746018
922.000000	71.761618
921.000000	71.774824
920.000000	71.767044
919.000000	71.740975
918.000000	71.757601
917.000000	71.768755
916.000000	71.775603
915.000000	71.754598
914.000000	71.742079
913.000000	71.752201
912.000000	71.784831
911.000000	71.779873
910.000000	71.813137
909.000000	71.789432
908.000000	71.805484
907.000000	71.796720
906.000000	71.815338
905.000000	71.845217
904.000000	71.776211
903.000000	71.775573
902.000000	71.811129
901.000000	71.818243
900.000000	71.795048
899.000000	71.774936
898.000000	71.800008
897.000000	71.836845
896.000000	71.851057
895.000000	71.856363
894.000000	71.819916
893.000000	71.831496
892.000000	71.828790
891.000000	71.835647
890.000000	71.884264
889.000000	71.864290
888.000000	71.863791
887.000000	71.817623
886.000000	71.856717
885.000000	71.890079
884.000000	71.911500
883.000000	71.855413
882.000000	71.898971
881.000000	71.840236
880.000000	71.857218
879.000000	71.896685
878.000000	71.918788
877.000000	71.895831
876.000000	71.932736
875.000000	71.924136
874.000000	71.939335
873.000000	71.962672
872.000000	71.927487
871.000000	71.973467
870.000000	71.959879
869.000000	71.965140
868.000000	71.949377
867.000000	71.939873
866.000000	71.969932
865.000000	72.048404
864.000000	71.959377
863.000000	71.865343
862.000000	71.893573
861.000000	71.907778
860.000000	71.922448
859.000000	71.932327
858.000000	72.036686
857.000000	71.902535
856.000000	71.863556
855.000000	71.709964
854.000000	72.161299
853.000000	72.049291
852.000000	71.831060
851.000000	72.104963
850.000000	72.227413
849.000000	72.175829
848.000000	71.991302
847.000000	71.930421
846.000000	72.199553
845.000000	72.273098
844.000000	72.001919
843.000000	71.962625
842.000000	71.920588
841.000000	71.991249
840.000000	71.933139
839.000000	72.066472
838.000000	71.927829
837.000000	72.052003
836.000000	72.076806
835.000000	71.917026
834.000000	71.863598
833.000000	72.022920
832.000000	72.060899
831.000000	71.646081
830.000000	72.053508
829.000000	71.928141
828.000000	71.937227
827.000000	71.945923
826.000000	71.799210
825.000000	71.800347
824.000000	71.998046
823.000000	71.970102
822.000000	71.931779
821.000000	71.923270
820.000000	72.019797
819.000000	72.104695
818.000000	72.024967
817.000000	71.832255
816.000000	72.012354
815.000000	71.946564
814.000000	71.982221
813.000000	71.944317
812.000000	71.960385
811.000000	72.032083
810.000000	71.992376
809.000000	71.850682
808.000000	71.986531
807.000000	71.979712
806.000000	71.938780
805.000000	72.040195
804.000000	71.875527
803.000000	71.908608
802.000000	71.893138
801.000000	71.964069
800.000000	71.907548
799.000000	72.026772
798.000000	71.938601
797.000000	71.857369
796.000000	71.920126
795.000000	71.946065
794.000000	71.889976
793.000000	71.958223
792.000000	72.071954
791.000000	72.090192
790.000000	71.962679
789.000000	72.025625
788.000000	72.151428
787.000000	72.140678
786.000000	71.917603
785.000000	71.991022
784.000000	71.925388
783.000000	72.019305
782.000000	72.034075
781.000000	72.098126
780.000000	72.019953
779.000000	72.028414
778.000000	72.104109
777.000000	72.164273
776.000000	71.938630
775.000000	72.004480
774.000000	72.096636
773.000000	71.942090
772.000000	71.972012
771.000000	71.920162
770.000000	72.097892
769.000000	72.046858
768.000000	72.112474
767.000000	72.081056
766.000000	72.024667
765.000000	72.070927
764.000000	71.967587
763.000000	72.049383
762.000000	72.044617
761.000000	71.925435
760.000000	71.943775
759.000000	72.076375
758.000000	71.985555
757.000000	71.867363
756.000000	71.908279
755.000000	71.895970
754.000000	71.920219
753.000000	71.964254
752.000000	71.932963
751.000000	71.942385
750.000000	71.964062
749.000000	71.919962
748.000000	71.847658
747.000000	71.926781
746.000000	71.936894
745.000000	71.971591
744.000000	72.003155
743.000000	71.972522
742.000000	71.941033
741.000000	71.988444
740.000000	72.067381
739.000000	72.070759
738.000000	71.988895
737.000000	71.960680
736.000000	71.955205
735.000000	71.965100
734.000000	71.968426
733.000000	72.008583
732.000000	71.927611
731.000000	71.959007
730.000000	71.967509
729.000000	71.984758
728.000000	71.975166
727.000000	71.921196
726.000000	71.915519
725.000000	71.897758
724.000000	71.961584
723.000000	71.983746
722.000000	71.965387
721.000000	71.988871
720.000000	72.000679
719.000000	71.966698
718.000000	71.968155
717.000000	72.014630
716.000000	71.996880
715.000000	71.960084
714.000000	71.964725
713.000000	71.966383
712.000000	71.933592
711.000000	71.990789
710.000000	72.031000
709.000000	71.964803
708.000000	71.947200
707.000000	71.923724
706.000000	71.916782
705.000000	71.933938
704.000000	71.962490
703.000000	71.972149
702.000000	71.962450
701.000000	71.959743
700.000000	71.988824
699.000000	71.952642
698.000000	71.968669
697.000000	72.034986
696.000000	72.026449
695.000000	71.999795
694.000000	71.960293
693.000000	71.988893
692.000000	72.021617
691.000000	72.050160
690.000000	71.980957
689.000000	71.925596
688.000000	71.924342
687.000000	71.890954
686.000000	71.897396
685.000000	71.912113
684.000000	71.904016
683.000000	71.961227
682.000000	71.914648
681.000000	71.885177
680.000000	71.906088
679.000000	71.908796
678.000000	71.963770
677.000000	72.001550
676.000000	71.961808
675.000000	71.983428
674.000000	71.932667
673.000000	71.944899
672.000000	71.962347
671.000000	71.969001
670.000000	71.835371
669.000000	71.866251
668.000000	71.891555
667.000000	71.914672
666.000000	71.949129
665.000000	71.921474
664.000000	71.856760
663.000000	71.861934
662.000000	71.835053
661.000000	71.884363
660.000000	71.880465
659.000000	71.867452
658.000000	71.894410
657.000000	71.910057
656.000000	71.925329
655.000000	71.956215
654.000000	71.908956
653.000000	71.835985
652.000000	71.885796
651.000000	71.913811
650.000000	71.958638
649.000000	71.889349
648.000000	71.927876
647.000000	71.961905
646.000000	71.953306
645.000000	71.955375
644.000000	71.927519
643.000000	71.913658
642.000000	71.915067
641.000000	71.908024
640.000000	71.905109
639.000000	71.955575
638.000000	71.910632
637.000000	71.898086
636.000000	71.880473
635.000000	71.892537
634.000000	71.883216
633.000000	71.852242
632.000000	71.900481
631.000000	71.907305
630.000000	71.869428
629.000000	71.890356
628.000000	71.945208
627.000000	71.890291
626.000000	71.909492
625.000000	71.950103
624.000000	71.935699
623.000000	71.898313
622.000000	71.848733
621.000000	71.868405
620.000000	71.840029
619.000000	71.822690
618.000000	71.932784
617.000000	71.877667
616.000000	71.849681
615.000000	71.876435
614.000000	71.852691
613.000000	71.880476
612.000000	71.901212
611.000000	71.922518
610.000000	71.857515
609.000000	71.819093
608.000000	71.806592
607.000000	71.851001
606.000000	71.860556
605.000000	71.842664
604.000000	71.824947
603.000000	71.824549
602.000000	71.843452
601.000000	71.859186
600.000000	71.851381
599.000000	71.835972
598.000000	71.816714
597.000000	71.795679
596.000000	71.807545
595.000000	71.811760
594.000000	71.807989
593.000000	71.837428
592.000000	71.732272
591.000000	71.775389
590.000000	71.784703
589.000000	71.714542
588.000000	71.788311
587.000000	71.794102
586.000000	71.741708
585.000000	71.733774
584.000000	71.688671
583.000000	71.656146
582.000000	71.683218
581.000000	71.736262
580.000000	71.690445
579.000000	71.674702
578.000000	71.755194
577.000000	71.675553
576.000000	71.742146
575.000000	71.639165
574.000000	71.667062
573.000000	71.676128
572.000000	71.684748
571.000000	71.595723
570.000000	71.657033
569.000000	71.642253
568.000000	71.602083
567.000000	71.609859
566.000000	71.524323
565.000000	71.573028
564.000000	71.586253
563.000000	71.611756
562.000000	71.573295
561.000000	71.549421
560.000000	71.485434
559.000000	71.492101
558.000000	71.500848
557.000000	71.507431
556.000000	71.484460
555.000000	71.497140
554.000000	71.409449
553.000000	71.469226
552.000000	71.402907
551.000000	71.490950
550.000000	71.400558
549.000000	71.347413
548.000000	71.355655
547.000000	71.423981
546.000000	71.351882
545.000000	71.380609
544.000000	71.335840
543.000000	71.317289
542.000000	71.255542
541.000000	71.308192
540.000000	71.246860
539.000000	71.260747
538.000000	71.295126
537.000000	71.211378
536.000000	71.183287
535.000000	71.163166
534.000000	71.173072
533.000000	71.192397
532.000000	71.160581
531.000000	71.073062
530.000000	71.096172
529.000000	71.129993
528.000000	71.064083
527.000000	71.053196
526.000000	71.022364
525.000000	71.009347
524.000000	70.973918
523.000000	70.969679
522.000000	70.951168
521.000000	70.977022
520.000000	70.872083
519.000000	70.885908
518.000000	70.824192
517.000000	70.876478
516.000000	70.821899
515.000000	70.810964
514.000000	70.831048
513.000000	70.763019
512.000000	70.748909
511.000000	70.736482
510.000000	70.739415
509.000000	70.771308
508.000000	70.748939
507.000000	70.681800
506.000000	70.651049
505.000000	70.642443
504.000000	70.535825
503.000000	70.531560
502.000000	70.509444
501.000000	70.519412
500.000000	70.484741
499.000000	70.501649
498.000000	70.443995
497.000000	70.395680
496.000000	70.360466
495.000000	70.362965
494.000000	70.359302
493.000000	70.284295
492.000000	70.256355
491.000000	70.258905
490.000000	70.187364
489.000000	70.156674
488.000000	70.158186
487.000000	70.096627
486.000000	70.016466
485.000000	69.992734
484.000000	70.082084
483.000000	70.135255
482.000000	70.078705
481.000000	70.071728
480.000000	69.991753
479.000000	69.942999
478.000000	69.893591
477.000000	69.892167
476.000000	69.853337
475.000000	69.812975
474.000000	69.733014
473.000000	69.704451
472.000000	69.687750
471.000000	69.609438
470.000000	69.563951
469.000000	69.575064
468.000000	69.506951
467.000000	69.421568
466.000000	69.408842
465.000000	69.301124
464.000000	69.227596
463.000000	69.277836
462.000000	69.231674
461.000000	69.168362
460.000000	69.120474
459.000000	69.045003
458.000000	69.001693
457.000000	68.948772
456.000000	68.891229
455.000000	68.821363
454.000000	68.788661
453.000000	68.804508
452.000000	68.794567
451.000000	68.671428
450.000000	68.541485
449.000000	68.484317
448.000000	68.443921
447.000000	68.425463
446.000000	68.337261
445.000000	68.177003
444.000000	68.116763
443.000000	68.076730
442.000000	68.051145
441.000000	67.994488
440.000000	67.913115
439.000000	67.795830
438.000000	67.738739
437.000000	67.643890
436.000000	67.509400
435.000000	67.382522
434.000000	67.329620
433.000000	67.271802
432.000000	67.167691
431.000000	67.079047
430.000000	66.992061
429.000000	66.885214
428.000000	66.821261
427.000000	66.649627
426.000000	66.565383
425.000000	66.515816
424.000000	66.363785
423.000000	66.210891
422.000000	66.059575
421.000000	65.954593
420.000000	65.901565
419.000000	65.748461
418.000000	65.556196
417.000000	65.470266
416.000000	65.338346
415.000000	65.183656
414.000000	65.095906
413.000000	64.936637
412.000000	64.755809
411.000000	64.565143
410.000000	64.469371
409.000000	64.317585
408.000000	64.140846
407.000000	64.018353
406.000000	63.895891
405.000000	63.650954
404.000000	63.486779
403.000000	63.365623
402.000000	63.226037
401.000000	63.010219
400.000000	62.930990
399.000000	62.742712
398.000000	62.550777
397.000000	62.418730
396.000000	62.230121
395.000000	62.048626
394.000000	61.836317
393.000000	61.707777
392.000000	61.582127
391.000000	61.315195
390.000000	61.143355
389.000000	61.008652
388.000000	60.747633
387.000000	60.582493
386.000000	60.364510
385.000000	60.145402
384.000000	59.895705
383.000000	59.753471
382.000000	59.512953
381.000000	59.262353
380.000000	59.040628
379.000000	58.783250
378.000000	58.476406
377.000000	58.421516
376.000000	58.306650
375.000000	58.076521
374.000000	57.649609
373.000000	57.360600
372.000000	57.072191
371.000000	57.017010
370.000000	56.875134
369.000000	56.333258
368.000000	56.072877
367.000000	55.936879
366.000000	55.648991
365.000000	55.405016
364.000000	55.129796
363.000000	54.861911
362.000000	54.520787
361.000000	54.233736
360.000000	54.065808
359.000000	53.887789
358.000000	53.755640
357.000000	53.351920
356.000000	53.011283
355.000000	52.791831
354.000000	52.650982
353.000000	52.342957
352.000000	52.084086
351.000000	51.748341
350.000000	51.608235
349.000000	51.241059
348.000000	51.090060
347.000000	50.658027
346.000000	50.415649
345.000000	50.045876
344.000000	49.820886
343.000000	49.615929
342.000000	49.139691
341.000000	48.949903
340.000000	48.578987
339.000000	48.009305
338.000000	47.734722
337.000000	47.340390
336.000000	46.878369
335.000000	46.533568
334.000000	45.836993
333.000000	45.523343
332.000000	45.007769
331.000000	44.531608
330.000000	44.168074
329.000000	43.663655
328.000000	43.086377
327.000000	42.708673
326.000000	42.196342
325.000000	41.904941
324.000000	41.472149
323.000000	41.333710
322.000000	40.787357
321.000000	40.832619
320.000000	40.433317
319.000000	40.423048
318.000000	39.899518
317.000000	39.727284
316.000000	39.484649
315.000000	39.352565
314.000000	39.122745
313.000000	38.892261
312.000000	38.734145
311.000000	38.541947
310.000000	38.371743
309.000000	38.211074
308.000000	38.032677
307.000000	37.872423
306.000000	37.686039
305.000000	37.575288
304.000000	37.294383
303.000000	37.123518
302.000000	37.074668
301.000000	36.845261
300.000000	36.470305
299.000000	36.306998
298.000000	36.107436
297.000000	35.823927
296.000000	35.321517
295.000000	34.813596
294.000000	34.273847
293.000000	33.437812
292.000000	32.602883
291.000000	31.694641
290.000000	30.722145
289.000000	29.934430
288.000000	29.230358
287.000000	28.532310
286.000000	27.976939
285.000000	27.783130
284.000000	27.564139
283.000000	27.607665
282.000000	27.427961
281.000000	27.326460
280.000000	27.322433
279.000000	27.431696
278.000000	27.491417
277.000000	27.722434
276.000000	27.986244
275.000000	28.267238
274.000000	28.482331
273.000000	28.790515
272.000000	28.893683
271.000000	29.174035
270.000000	29.178054
269.000000	29.270733
268.000000	29.465507
267.000000	29.806860
266.000000	30.063187
265.000000	30.331087
264.000000	30.543074
263.000000	30.922344
262.000000	31.273108
261.000000	31.441210
260.000000	31.634654
259.000000	31.924167
258.000000	32.295885
257.000000	32.704455
256.000000	33.059205
255.000000	33.242970
254.000000	33.295521
253.000000	33.099192
252.000000	32.972108
251.000000	32.796161
250.000000	32.421586
249.000000	31.854240
248.000000	31.064658
247.000000	30.088780
246.000000	28.920055
245.000000	27.654110
244.000000	26.365069
243.000000	25.106522
242.000000	23.917386
241.000000	22.625086
240.000000	21.486565
239.000000	20.616480
238.000000	19.875414
237.000000	19.298712
236.000000	18.847178
235.000000	18.560496
234.000000	18.311494
233.000000	18.085019
232.000000	17.906594
231.000000	17.723885
230.000000	17.593394
229.000000	17.465961
228.000000	17.469723
227.000000	17.480475
226.000000	17.572900
225.000000	17.597566
224.000000	17.700214
223.000000	17.847076
222.000000	17.969125
221.000000	18.187696
220.000000	18.533948
219.000000	18.724007
218.000000	18.765428
217.000000	19.015621
216.000000	19.334258
215.000000	19.644580
214.000000	19.879011
213.000000	20.222275
212.000000	20.538692
211.000000	20.812062
210.000000	21.263017
209.000000	21.584289
208.000000	21.967797
207.000000	22.302252
206.000000	22.618864
205.000000	23.001458
204.000000	23.558834
203.000000	24.067423
202.000000	24.317735
201.000000	24.667869
200.000000	25.276258
