PE UV       SUBTECH     SPECTRUM    ASCII       PEDS        4.00        
   -1
RTVeauAl 52.Sample.asc
18/03/02
14:56:42.00
18/03/02
14:56:42.00
Administrator

200.000000
1
Lambda 750
750N8071901
PerkinElmer UV WinLab 6.0.4.0738 / 1.61.00 Lambda 900

0
0
3350/servo 860.8/2
0
0
UV/VIS
1
1
1
CommonBeamDepol,150mm sphere / downward view
0
0
0
0
Program
Program
3350/servo 860.8/2
3350/0.2 860.8/0.2
3350/0.2 860.8/0.2
0
1
 
 
 
0
 
860.8
319.2
860.8
Front
100
on
 
 
0
0
0
 
0
 
 
 
0
 
 
0
0
0
0
0
 
 
 
 
0
0


0
0
#HDR
-1
-1
#GR
nm
%R
1.0
0.0
2350.000000
-1.000000
2151
8
60.383730
13.457730
#DATA
2350.000000	27.178470
2349.000000	26.927511
2348.000000	27.267388
2347.000000	27.810428
2346.000000	27.677755
2345.000000	27.548502
2344.000000	27.572273
2343.000000	27.209693
2342.000000	27.457756
2341.000000	27.231567
2340.000000	27.682826
2339.000000	27.513711
2338.000000	27.812010
2337.000000	27.674295
2336.000000	27.743990
2335.000000	28.190331
2334.000000	28.099034
2333.000000	28.119970
2332.000000	28.429112
2331.000000	27.949816
2330.000000	27.843034
2329.000000	27.991018
2328.000000	27.609386
2327.000000	27.974216
2326.000000	27.889582
2325.000000	27.900255
2324.000000	27.745672
2323.000000	27.747103
2322.000000	27.723943
2321.000000	27.740490
2320.000000	27.432144
2319.000000	27.437466
2318.000000	27.666831
2317.000000	27.425230
2316.000000	27.261078
2315.000000	27.369075
2314.000000	27.146324
2313.000000	27.115462
2312.000000	27.097641
2311.000000	27.072185
2310.000000	27.159987
2309.000000	27.113838
2308.000000	26.892349
2307.000000	26.954847
2306.000000	26.901294
2305.000000	26.758836
2304.000000	26.714477
2303.000000	26.857123
2302.000000	26.538425
2301.000000	26.471040
2300.000000	26.434158
2299.000000	26.170912
2298.000000	26.095752
2297.000000	26.127937
2296.000000	26.077125
2295.000000	25.930991
2294.000000	26.018362
2293.000000	25.898364
2292.000000	25.863220
2291.000000	25.856651
2290.000000	25.753654
2289.000000	25.703154
2288.000000	25.649059
2287.000000	25.701956
2286.000000	25.556015
2285.000000	25.436479
2284.000000	25.285268
2283.000000	25.307691
2282.000000	25.254382
2281.000000	25.410893
2280.000000	25.429490
2279.000000	25.565558
2278.000000	25.497683
2277.000000	25.442611
2276.000000	25.470321
2275.000000	25.392916
2274.000000	25.455657
2273.000000	25.656950
2272.000000	25.752585
2271.000000	25.779918
2270.000000	25.569096
2269.000000	25.548176
2268.000000	25.683664
2267.000000	25.781647
2266.000000	25.917196
2265.000000	25.984244
2264.000000	26.095734
2263.000000	26.164342
2262.000000	26.265367
2261.000000	26.339278
2260.000000	26.485541
2259.000000	26.624129
2258.000000	26.777276
2257.000000	26.918839
2256.000000	27.018617
2255.000000	27.273390
2254.000000	27.374584
2253.000000	27.597538
2252.000000	27.838462
2251.000000	27.919471
2250.000000	28.135785
2249.000000	28.365921
2248.000000	28.488851
2247.000000	28.569621
2246.000000	28.783664
2245.000000	28.951286
2244.000000	29.130309
2243.000000	29.296703
2242.000000	29.340542
2241.000000	29.501494
2240.000000	29.707690
2239.000000	29.801019
2238.000000	29.911802
2237.000000	30.114073
2236.000000	30.176053
2235.000000	30.157005
2234.000000	30.237145
2233.000000	30.351936
2232.000000	30.380385
2231.000000	30.499794
2230.000000	30.571842
2229.000000	30.641717
2228.000000	30.696891
2227.000000	30.534855
2226.000000	30.462767
2225.000000	30.496148
2224.000000	30.547768
2223.000000	30.563444
2222.000000	30.587348
2221.000000	30.583718
2220.000000	30.466691
2219.000000	30.461775
2218.000000	30.430245
2217.000000	30.479798
2216.000000	30.434475
2215.000000	30.372707
2214.000000	30.294905
2213.000000	30.335863
2212.000000	30.220294
2211.000000	30.091124
2210.000000	30.052337
2209.000000	30.091915
2208.000000	30.021261
2207.000000	29.975193
2206.000000	30.034553
2205.000000	29.919122
2204.000000	29.898261
2203.000000	29.694095
2202.000000	29.562220
2201.000000	29.606230
2200.000000	29.525728
2199.000000	29.411966
2198.000000	29.450258
2197.000000	29.510693
2196.000000	29.373620
2195.000000	29.233019
2194.000000	29.077747
2193.000000	29.034725
2192.000000	28.943553
2191.000000	28.895402
2190.000000	28.835382
2189.000000	28.808776
2188.000000	28.818002
2187.000000	28.778430
2186.000000	28.816637
2185.000000	28.773570
2184.000000	28.688929
2183.000000	28.707206
2182.000000	28.539199
2181.000000	28.469524
2180.000000	28.552400
2179.000000	28.607414
2178.000000	28.495889
2177.000000	28.473572
2176.000000	28.488244
2175.000000	28.480043
2174.000000	28.554017
2173.000000	28.481614
2172.000000	28.527828
2171.000000	28.733927
2170.000000	28.627039
2169.000000	28.789777
2168.000000	29.003863
2167.000000	28.900263
2166.000000	29.011245
2165.000000	29.116884
2164.000000	29.140146
2163.000000	29.252889
2162.000000	29.542134
2161.000000	29.528646
2160.000000	29.607468
2159.000000	29.745883
2158.000000	29.760063
2157.000000	29.782750
2156.000000	30.008249
2155.000000	30.303594
2154.000000	30.277437
2153.000000	30.439419
2152.000000	30.488994
2151.000000	30.539513
2150.000000	30.863938
2149.000000	30.960622
2148.000000	31.157677
2147.000000	31.336623
2146.000000	31.255140
2145.000000	31.508790
2144.000000	31.760419
2143.000000	31.645848
2142.000000	31.890278
2141.000000	32.143812
2140.000000	32.211012
2139.000000	32.114895
2138.000000	32.377833
2137.000000	32.574231
2136.000000	32.452757
2135.000000	32.648609
2134.000000	32.883477
2133.000000	32.759109
2132.000000	33.042204
2131.000000	33.111156
2130.000000	33.332730
2129.000000	33.247263
2128.000000	33.318477
2127.000000	33.292657
2126.000000	33.317487
2125.000000	33.448134
2124.000000	33.464258
2123.000000	33.580371
2122.000000	33.692687
2121.000000	33.716243
2120.000000	33.715337
2119.000000	33.768078
2118.000000	33.789435
2117.000000	33.854038
2116.000000	33.926090
2115.000000	33.940871
2114.000000	33.852606
2113.000000	33.871026
2112.000000	34.139342
2111.000000	34.002699
2110.000000	33.959548
2109.000000	33.968914
2108.000000	34.263975
2107.000000	34.182643
2106.000000	34.155895
2105.000000	34.195531
2104.000000	34.200488
2103.000000	34.237542
2102.000000	34.275999
2101.000000	34.303990
2100.000000	34.304383
2099.000000	34.384394
2098.000000	34.351281
2097.000000	34.355625
2096.000000	34.317211
2095.000000	34.231779
2094.000000	34.426900
2093.000000	34.354362
2092.000000	34.440863
2091.000000	34.356338
2090.000000	34.237494
2089.000000	34.332897
2088.000000	34.440732
2087.000000	34.304742
2086.000000	34.285060
2085.000000	34.216702
2084.000000	34.100470
2083.000000	34.073727
2082.000000	34.046704
2081.000000	34.027016
2080.000000	34.004759
2079.000000	33.965957
2078.000000	33.841759
2077.000000	33.883262
2076.000000	33.769959
2075.000000	33.563913
2074.000000	33.449221
2073.000000	33.433337
2072.000000	33.319915
2071.000000	33.245757
2070.000000	33.218723
2069.000000	33.101372
2068.000000	32.872038
2067.000000	32.750802
2066.000000	32.590436
2065.000000	32.491134
2064.000000	32.462175
2063.000000	32.234090
2062.000000	32.067917
2061.000000	31.966398
2060.000000	31.793668
2059.000000	31.665967
2058.000000	31.569008
2057.000000	31.398951
2056.000000	31.326126
2055.000000	31.219744
2054.000000	31.082466
2053.000000	30.997504
2052.000000	30.839197
2051.000000	30.700323
2050.000000	30.563354
2049.000000	30.473174
2048.000000	30.402124
2047.000000	30.353619
2046.000000	30.282580
2045.000000	30.285537
2044.000000	30.248439
2043.000000	30.200433
2042.000000	30.238136
2041.000000	30.227487
2040.000000	30.252879
2039.000000	30.304507
2038.000000	30.340925
2037.000000	30.381378
2036.000000	30.436767
2035.000000	30.494479
2034.000000	30.595154
2033.000000	30.716768
2032.000000	30.833690
2031.000000	30.954420
2030.000000	31.068748
2029.000000	31.191102
2028.000000	31.284635
2027.000000	31.411898
2026.000000	31.615532
2025.000000	31.747913
2024.000000	31.852095
2023.000000	31.927351
2022.000000	32.004694
2021.000000	32.090344
2020.000000	32.173797
2019.000000	32.250007
2018.000000	32.271443
2017.000000	32.315778
2016.000000	32.353173
2015.000000	32.384300
2014.000000	32.430088
2013.000000	32.449616
2012.000000	32.415238
2011.000000	32.392813
2010.000000	32.413180
2009.000000	32.380993
2008.000000	32.306845
2007.000000	32.278416
2006.000000	32.230092
2005.000000	32.197696
2004.000000	32.122473
2003.000000	32.064913
2002.000000	32.015781
2001.000000	31.930390
2000.000000	31.863410
1999.000000	31.802162
1998.000000	31.716437
1997.000000	31.658570
1996.000000	31.573025
1995.000000	31.476493
1994.000000	31.387413
1993.000000	31.294513
1992.000000	31.222104
1991.000000	31.114519
1990.000000	31.050277
1989.000000	30.973975
1988.000000	30.876318
1987.000000	30.801287
1986.000000	30.716469
1985.000000	30.659794
1984.000000	30.590780
1983.000000	30.509369
1982.000000	30.441550
1981.000000	30.353884
1980.000000	30.268486
1979.000000	30.183810
1978.000000	30.099687
1977.000000	30.022998
1976.000000	29.933116
1975.000000	29.849225
1974.000000	29.774478
1973.000000	29.684147
1972.000000	29.649523
1971.000000	29.573660
1970.000000	29.484759
1969.000000	29.388383
1968.000000	29.338276
1967.000000	29.294892
1966.000000	29.215472
1965.000000	29.141078
1964.000000	29.100570
1963.000000	29.038898
1962.000000	28.934559
1961.000000	28.825467
1960.000000	28.785783
1959.000000	28.675752
1958.000000	28.579285
1957.000000	28.571819
1956.000000	28.500478
1955.000000	28.414879
1954.000000	28.415711
1953.000000	28.363811
1952.000000	28.292896
1951.000000	28.248111
1950.000000	28.166914
1949.000000	28.126550
1948.000000	28.105907
1947.000000	28.089558
1946.000000	28.060544
1945.000000	28.074141
1944.000000	28.031863
1943.000000	28.084603
1942.000000	28.125326
1941.000000	28.120904
1940.000000	28.139419
1939.000000	28.152996
1938.000000	28.206741
1937.000000	28.329908
1936.000000	28.367852
1935.000000	28.459594
1934.000000	28.451166
1933.000000	28.670875
1932.000000	28.734070
1931.000000	28.861474
1930.000000	29.012690
1929.000000	29.224292
1928.000000	29.340295
1927.000000	29.543784
1926.000000	29.692794
1925.000000	29.946760
1924.000000	30.098699
1923.000000	30.310845
1922.000000	30.508084
1921.000000	30.827033
1920.000000	31.066650
1919.000000	31.278812
1918.000000	31.537387
1917.000000	31.816606
1916.000000	32.054847
1915.000000	32.423879
1914.000000	32.762791
1913.000000	33.105518
1912.000000	33.509295
1911.000000	33.698826
1910.000000	34.106442
1909.000000	34.427945
1908.000000	34.767990
1907.000000	35.210045
1906.000000	35.612629
1905.000000	35.986234
1904.000000	36.370451
1903.000000	36.827230
1902.000000	37.242885
1901.000000	37.661495
1900.000000	38.166456
1899.000000	38.533058
1898.000000	39.007421
1897.000000	39.401803
1896.000000	39.821639
1895.000000	40.237893
1894.000000	40.631412
1893.000000	41.080865
1892.000000	41.508718
1891.000000	41.926533
1890.000000	42.298575
1889.000000	42.705530
1888.000000	43.087710
1887.000000	43.415854
1886.000000	43.799858
1885.000000	44.155589
1884.000000	44.497399
1883.000000	44.791108
1882.000000	45.031489
1881.000000	45.363675
1880.000000	45.692567
1879.000000	45.939061
1878.000000	46.165366
1877.000000	46.413493
1876.000000	46.632291
1875.000000	46.843511
1874.000000	47.075601
1873.000000	47.259814
1872.000000	47.412503
1871.000000	47.561474
1870.000000	47.737563
1869.000000	47.904104
1868.000000	48.015190
1867.000000	48.059356
1866.000000	48.154438
1865.000000	48.232023
1864.000000	48.303719
1863.000000	48.361529
1862.000000	48.434187
1861.000000	48.464077
1860.000000	48.533733
1859.000000	48.562910
1858.000000	48.603392
1857.000000	48.619843
1856.000000	48.673609
1855.000000	48.716223
1854.000000	48.772146
1853.000000	48.785399
1852.000000	48.771181
1851.000000	48.754636
1850.000000	48.742346
1849.000000	48.739852
1848.000000	48.734205
1847.000000	48.751519
1846.000000	48.760111
1845.000000	48.753126
1844.000000	48.713605
1843.000000	48.664108
1842.000000	48.639671
1841.000000	48.647299
1840.000000	48.613138
1839.000000	48.584568
1838.000000	48.583978
1837.000000	48.523232
1836.000000	48.486825
1835.000000	48.477546
1834.000000	48.438426
1833.000000	48.411824
1832.000000	48.386346
1831.000000	48.331266
1830.000000	48.289555
1829.000000	48.238429
1828.000000	48.202164
1827.000000	48.170856
1826.000000	48.151053
1825.000000	48.128867
1824.000000	48.097367
1823.000000	48.088598
1822.000000	48.048152
1821.000000	47.999011
1820.000000	47.951075
1819.000000	47.925642
1818.000000	47.909483
1817.000000	47.888276
1816.000000	47.856887
1815.000000	47.822078
1814.000000	47.794399
1813.000000	47.758313
1812.000000	47.712569
1811.000000	47.670804
1810.000000	47.650550
1809.000000	47.639043
1808.000000	47.607103
1807.000000	47.552262
1806.000000	47.529460
1805.000000	47.503888
1804.000000	47.462222
1803.000000	47.446473
1802.000000	47.422328
1801.000000	47.387853
1800.000000	47.362813
1799.000000	47.340963
1798.000000	47.328382
1797.000000	47.298733
1796.000000	47.264511
1795.000000	47.255464
1794.000000	47.239143
1793.000000	47.208931
1792.000000	47.199204
1791.000000	47.193824
1790.000000	47.161526
1789.000000	47.130438
1788.000000	47.104516
1787.000000	47.069439
1786.000000	47.026601
1785.000000	47.005468
1784.000000	46.999280
1783.000000	46.977495
1782.000000	46.930312
1781.000000	46.878147
1780.000000	46.810066
1779.000000	46.793645
1778.000000	46.748380
1777.000000	46.676673
1776.000000	46.632497
1775.000000	46.574093
1774.000000	46.515409
1773.000000	46.476632
1772.000000	46.428506
1771.000000	46.348382
1770.000000	46.278023
1769.000000	46.246970
1768.000000	46.193100
1767.000000	46.122197
1766.000000	46.057016
1765.000000	46.027408
1764.000000	45.990139
1763.000000	45.912850
1762.000000	45.863490
1761.000000	45.792860
1760.000000	45.701492
1759.000000	45.651312
1758.000000	45.595155
1757.000000	45.544935
1756.000000	45.514116
1755.000000	45.452803
1754.000000	45.363494
1753.000000	45.342082
1752.000000	45.282297
1751.000000	45.212649
1750.000000	45.158755
1749.000000	45.123588
1748.000000	45.047958
1747.000000	44.962767
1746.000000	44.912985
1745.000000	44.854516
1744.000000	44.779744
1743.000000	44.741128
1742.000000	44.662679
1741.000000	44.608981
1740.000000	44.553662
1739.000000	44.480744
1738.000000	44.451632
1737.000000	44.388245
1736.000000	44.372355
1735.000000	44.344735
1734.000000	44.350694
1733.000000	44.339710
1732.000000	44.322438
1731.000000	44.332727
1730.000000	44.329666
1729.000000	44.378455
1728.000000	44.439520
1727.000000	44.457583
1726.000000	44.515357
1725.000000	44.574312
1724.000000	44.632585
1723.000000	44.724393
1722.000000	44.814130
1721.000000	44.911309
1720.000000	45.001983
1719.000000	45.124558
1718.000000	45.187035
1717.000000	45.265215
1716.000000	45.377329
1715.000000	45.467262
1714.000000	45.517867
1713.000000	45.626979
1712.000000	45.687580
1711.000000	45.770592
1710.000000	45.831179
1709.000000	45.885471
1708.000000	45.922817
1707.000000	45.998666
1706.000000	46.012837
1705.000000	46.059544
1704.000000	46.145681
1703.000000	46.127944
1702.000000	46.144582
1701.000000	46.185559
1700.000000	46.155710
1699.000000	46.188974
1698.000000	46.243059
1697.000000	46.252724
1696.000000	46.312299
1695.000000	46.293284
1694.000000	46.378061
1693.000000	46.407703
1692.000000	46.461365
1691.000000	46.545805
1690.000000	46.620710
1689.000000	46.695877
1688.000000	46.795826
1687.000000	46.910129
1686.000000	47.034260
1685.000000	47.167664
1684.000000	47.322020
1683.000000	47.464484
1682.000000	47.611329
1681.000000	47.786570
1680.000000	47.944626
1679.000000	48.116439
1678.000000	48.286397
1677.000000	48.483420
1676.000000	48.667162
1675.000000	48.822103
1674.000000	49.017958
1673.000000	49.185201
1672.000000	49.342311
1671.000000	49.496577
1670.000000	49.661367
1669.000000	49.835684
1668.000000	49.963376
1667.000000	50.143025
1666.000000	50.229412
1665.000000	50.314084
1664.000000	50.421990
1663.000000	50.529930
1662.000000	50.618146
1661.000000	50.689400
1660.000000	50.755713
1659.000000	50.834296
1658.000000	50.899914
1657.000000	50.953065
1656.000000	50.980968
1655.000000	51.007279
1654.000000	51.049719
1653.000000	51.079231
1652.000000	51.112683
1651.000000	51.109168
1650.000000	51.110647
1649.000000	51.132711
1648.000000	51.128637
1647.000000	51.142690
1646.000000	51.128415
1645.000000	51.118071
1644.000000	51.102610
1643.000000	51.082521
1642.000000	51.058898
1641.000000	51.043478
1640.000000	51.029667
1639.000000	50.991410
1638.000000	50.963273
1637.000000	50.957751
1636.000000	50.921814
1635.000000	50.899734
1634.000000	50.870789
1633.000000	50.820786
1632.000000	50.785439
1631.000000	50.764123
1630.000000	50.719510
1629.000000	50.677223
1628.000000	50.637578
1627.000000	50.593217
1626.000000	50.560585
1625.000000	50.522001
1624.000000	50.476077
1623.000000	50.444884
1622.000000	50.398962
1621.000000	50.339747
1620.000000	50.310151
1619.000000	50.250827
1618.000000	50.196603
1617.000000	50.165733
1616.000000	50.123950
1615.000000	50.066755
1614.000000	50.006584
1613.000000	49.953201
1612.000000	49.907216
1611.000000	49.859605
1610.000000	49.799330
1609.000000	49.750945
1608.000000	49.693488
1607.000000	49.626725
1606.000000	49.556436
1605.000000	49.495273
1604.000000	49.449535
1603.000000	49.384952
1602.000000	49.323555
1601.000000	49.266705
1600.000000	49.216643
1599.000000	49.168597
1598.000000	49.107172
1597.000000	49.055121
1596.000000	49.000813
1595.000000	48.943142
1594.000000	48.892904
1593.000000	48.841711
1592.000000	48.786441
1591.000000	48.749842
1590.000000	48.694538
1589.000000	48.635055
1588.000000	48.598102
1587.000000	48.555887
1586.000000	48.501761
1585.000000	48.468511
1584.000000	48.425194
1583.000000	48.371467
1582.000000	48.331337
1581.000000	48.293908
1580.000000	48.255041
1579.000000	48.216935
1578.000000	48.179590
1577.000000	48.138441
1576.000000	48.102767
1575.000000	48.064592
1574.000000	48.028858
1573.000000	47.974465
1572.000000	47.933211
1571.000000	47.883410
1570.000000	47.853685
1569.000000	47.822872
1568.000000	47.790627
1567.000000	47.753112
1566.000000	47.720771
1565.000000	47.693612
1564.000000	47.666632
1563.000000	47.645376
1562.000000	47.630963
1561.000000	47.607228
1560.000000	47.591426
1559.000000	47.574292
1558.000000	47.546422
1557.000000	47.526053
1556.000000	47.507311
1555.000000	47.491725
1554.000000	47.470142
1553.000000	47.454895
1552.000000	47.442071
1551.000000	47.409804
1550.000000	47.387187
1549.000000	47.345702
1548.000000	47.309618
1547.000000	47.267706
1546.000000	47.221519
1545.000000	47.162824
1544.000000	47.092295
1543.000000	47.037324
1542.000000	46.977225
1541.000000	46.894785
1540.000000	46.825877
1539.000000	46.737442
1538.000000	46.653163
1537.000000	46.574089
1536.000000	46.481753
1535.000000	46.403289
1534.000000	46.312037
1533.000000	46.231152
1532.000000	46.130112
1531.000000	46.045629
1530.000000	45.979073
1529.000000	45.897590
1528.000000	45.810490
1527.000000	45.742104
1526.000000	45.670030
1525.000000	45.604470
1524.000000	45.533850
1523.000000	45.467219
1522.000000	45.419973
1521.000000	45.365901
1520.000000	45.335083
1519.000000	45.268533
1518.000000	45.210072
1517.000000	45.170357
1516.000000	45.132399
1515.000000	45.090698
1514.000000	45.065107
1513.000000	45.008753
1512.000000	44.989961
1511.000000	44.974516
1510.000000	44.965854
1509.000000	45.003130
1508.000000	45.011119
1507.000000	44.999261
1506.000000	45.014595
1505.000000	44.967921
1504.000000	44.920541
1503.000000	44.892803
1502.000000	44.874074
1501.000000	44.866028
1500.000000	44.880563
1499.000000	44.885165
1498.000000	44.901557
1497.000000	44.918667
1496.000000	44.925699
1495.000000	44.948968
1494.000000	44.976011
1493.000000	45.010989
1492.000000	45.069923
1491.000000	45.099973
1490.000000	45.164527
1489.000000	45.206388
1488.000000	45.278796
1487.000000	45.330283
1486.000000	45.409309
1485.000000	45.476173
1484.000000	45.552632
1483.000000	45.647771
1482.000000	45.691962
1481.000000	45.799627
1480.000000	45.874197
1479.000000	45.945648
1478.000000	46.017664
1477.000000	46.114716
1476.000000	46.186091
1475.000000	46.270448
1474.000000	46.334895
1473.000000	46.422955
1472.000000	46.494702
1471.000000	46.553600
1470.000000	46.664304
1469.000000	46.726723
1468.000000	46.804932
1467.000000	46.849837
1466.000000	46.928805
1465.000000	46.954718
1464.000000	47.051499
1463.000000	47.102497
1462.000000	47.148017
1461.000000	47.195179
1460.000000	47.243024
1459.000000	47.325802
1458.000000	47.392904
1457.000000	47.418348
1456.000000	47.470070
1455.000000	47.552496
1454.000000	47.613429
1453.000000	47.661400
1452.000000	47.699501
1451.000000	47.781268
1450.000000	47.853411
1449.000000	47.917053
1448.000000	47.982442
1447.000000	48.030417
1446.000000	48.107017
1445.000000	48.165001
1444.000000	48.251023
1443.000000	48.353882
1442.000000	48.412593
1441.000000	48.470845
1440.000000	48.548800
1439.000000	48.627272
1438.000000	48.706776
1437.000000	48.794221
1436.000000	48.880525
1435.000000	48.997298
1434.000000	49.084348
1433.000000	49.169594
1432.000000	49.258503
1431.000000	49.354904
1430.000000	49.460522
1429.000000	49.553543
1428.000000	49.662623
1427.000000	49.783026
1426.000000	49.897209
1425.000000	50.027418
1424.000000	50.148195
1423.000000	50.287061
1422.000000	50.411734
1421.000000	50.534163
1420.000000	50.656975
1419.000000	50.801515
1418.000000	50.960254
1417.000000	51.116258
1416.000000	51.270920
1415.000000	51.429033
1414.000000	51.566291
1413.000000	51.719295
1412.000000	51.880820
1411.000000	52.035096
1410.000000	52.214107
1409.000000	52.356332
1408.000000	52.489263
1407.000000	52.649580
1406.000000	52.812044
1405.000000	52.971906
1404.000000	53.124467
1403.000000	53.267355
1402.000000	53.422388
1401.000000	53.563069
1400.000000	53.689866
1399.000000	53.827894
1398.000000	53.957438
1397.000000	54.088875
1396.000000	54.217982
1395.000000	54.342541
1394.000000	54.471008
1393.000000	54.583261
1392.000000	54.691624
1391.000000	54.801948
1390.000000	54.915576
1389.000000	55.004880
1388.000000	55.103156
1387.000000	55.218202
1386.000000	55.360815
1385.000000	55.459143
1384.000000	55.519200
1383.000000	55.611658
1382.000000	55.710374
1381.000000	55.783945
1380.000000	55.846853
1379.000000	55.916877
1378.000000	55.981130
1377.000000	56.027311
1376.000000	56.094346
1375.000000	56.143543
1374.000000	56.174602
1373.000000	56.216869
1372.000000	56.264779
1371.000000	56.327851
1370.000000	56.387913
1369.000000	56.431505
1368.000000	56.453153
1367.000000	56.485644
1366.000000	56.533569
1365.000000	56.578299
1364.000000	56.633489
1363.000000	56.697201
1362.000000	56.742227
1361.000000	56.794497
1360.000000	56.841636
1359.000000	56.886838
1358.000000	56.964324
1357.000000	57.041537
1356.000000	57.085621
1355.000000	57.117346
1354.000000	57.179496
1353.000000	57.229173
1352.000000	57.290176
1351.000000	57.336905
1350.000000	57.387214
1349.000000	57.447612
1348.000000	57.502623
1347.000000	57.546353
1346.000000	57.598466
1345.000000	57.658419
1344.000000	57.717925
1343.000000	57.764915
1342.000000	57.802629
1341.000000	57.822712
1340.000000	57.894221
1339.000000	57.948950
1338.000000	58.001047
1337.000000	58.026455
1336.000000	58.046788
1335.000000	58.091104
1334.000000	58.114144
1333.000000	58.138795
1332.000000	58.176898
1331.000000	58.223833
1330.000000	58.250146
1329.000000	58.260455
1328.000000	58.285069
1327.000000	58.329360
1326.000000	58.352617
1325.000000	58.337793
1324.000000	58.344683
1323.000000	58.367671
1322.000000	58.417881
1321.000000	58.436893
1320.000000	58.433544
1319.000000	58.423867
1318.000000	58.435910
1317.000000	58.464744
1316.000000	58.487598
1315.000000	58.467325
1314.000000	58.496176
1313.000000	58.506815
1312.000000	58.486350
1311.000000	58.512097
1310.000000	58.552050
1309.000000	58.555286
1308.000000	58.569806
1307.000000	58.556245
1306.000000	58.578082
1305.000000	58.567389
1304.000000	58.578166
1303.000000	58.577956
1302.000000	58.599561
1301.000000	58.603508
1300.000000	58.606095
1299.000000	58.621508
1298.000000	58.619429
1297.000000	58.593309
1296.000000	58.606160
1295.000000	58.608885
1294.000000	58.609035
1293.000000	58.611189
1292.000000	58.607360
1291.000000	58.608411
1290.000000	58.602716
1289.000000	58.592220
1288.000000	58.590622
1287.000000	58.603506
1286.000000	58.589188
1285.000000	58.550185
1284.000000	58.566058
1283.000000	58.552842
1282.000000	58.560753
1281.000000	58.551167
1280.000000	58.551785
1279.000000	58.557801
1278.000000	58.551728
1277.000000	58.553094
1276.000000	58.571204
1275.000000	58.555386
1274.000000	58.571345
1273.000000	58.559609
1272.000000	58.563106
1271.000000	58.564933
1270.000000	58.562408
1269.000000	58.574169
1268.000000	58.571640
1267.000000	58.558569
1266.000000	58.568765
1265.000000	58.595541
1264.000000	58.623240
1263.000000	58.629744
1262.000000	58.627482
1261.000000	58.630188
1260.000000	58.606303
1259.000000	58.650278
1258.000000	58.647615
1257.000000	58.651915
1256.000000	58.695121
1255.000000	58.701779
1254.000000	58.691941
1253.000000	58.685542
1252.000000	58.682469
1251.000000	58.686431
1250.000000	58.682191
1249.000000	58.687006
1248.000000	58.682163
1247.000000	58.671602
1246.000000	58.669953
1245.000000	58.664703
1244.000000	58.653413
1243.000000	58.654916
1242.000000	58.643049
1241.000000	58.628132
1240.000000	58.589586
1239.000000	58.564187
1238.000000	58.569556
1237.000000	58.553086
1236.000000	58.506808
1235.000000	58.489784
1234.000000	58.487259
1233.000000	58.477228
1232.000000	58.426039
1231.000000	58.426706
1230.000000	58.405389
1229.000000	58.392268
1228.000000	58.357569
1227.000000	58.355177
1226.000000	58.338453
1225.000000	58.318078
1224.000000	58.321947
1223.000000	58.308670
1222.000000	58.284841
1221.000000	58.260731
1220.000000	58.243069
1219.000000	58.202990
1218.000000	58.193898
1217.000000	58.176445
1216.000000	58.161448
1215.000000	58.113317
1214.000000	58.086431
1213.000000	58.088355
1212.000000	58.054873
1211.000000	58.030032
1210.000000	58.001346
1209.000000	57.978874
1208.000000	57.949650
1207.000000	57.897685
1206.000000	57.885673
1205.000000	57.861053
1204.000000	57.813972
1203.000000	57.781620
1202.000000	57.742435
1201.000000	57.740000
1200.000000	57.710266
1199.000000	57.669880
1198.000000	57.625740
1197.000000	57.609789
1196.000000	57.578311
1195.000000	57.553310
1194.000000	57.516260
1193.000000	57.492787
1192.000000	57.478325
1191.000000	57.471284
1190.000000	57.457199
1189.000000	57.420830
1188.000000	57.415877
1187.000000	57.420498
1186.000000	57.409158
1185.000000	57.418905
1184.000000	57.420547
1183.000000	57.421025
1182.000000	57.443206
1181.000000	57.470120
1180.000000	57.489199
1179.000000	57.510545
1178.000000	57.545792
1177.000000	57.577877
1176.000000	57.609148
1175.000000	57.659259
1174.000000	57.703581
1173.000000	57.749070
1172.000000	57.801255
1171.000000	57.858924
1170.000000	57.908730
1169.000000	57.957077
1168.000000	58.011105
1167.000000	58.082516
1166.000000	58.148045
1165.000000	58.199634
1164.000000	58.261130
1163.000000	58.329527
1162.000000	58.399107
1161.000000	58.460672
1160.000000	58.511836
1159.000000	58.577152
1158.000000	58.650752
1157.000000	58.701789
1156.000000	58.754092
1155.000000	58.816090
1154.000000	58.862907
1153.000000	58.909048
1152.000000	58.953754
1151.000000	59.000025
1150.000000	59.037000
1149.000000	59.060964
1148.000000	59.099318
1147.000000	59.135425
1146.000000	59.176365
1145.000000	59.209546
1144.000000	59.247739
1143.000000	59.302590
1142.000000	59.334825
1141.000000	59.359765
1140.000000	59.401427
1139.000000	59.440967
1138.000000	59.483278
1137.000000	59.520645
1136.000000	59.551664
1135.000000	59.567857
1134.000000	59.599462
1133.000000	59.637537
1132.000000	59.665217
1131.000000	59.697076
1130.000000	59.699202
1129.000000	59.711770
1128.000000	59.747297
1127.000000	59.767579
1126.000000	59.786882
1125.000000	59.806981
1124.000000	59.830236
1123.000000	59.850455
1122.000000	59.874646
1121.000000	59.883442
1120.000000	59.885874
1119.000000	59.906113
1118.000000	59.921442
1117.000000	59.916956
1116.000000	59.928932
1115.000000	59.938408
1114.000000	59.927594
1113.000000	59.941947
1112.000000	59.934289
1111.000000	59.916045
1110.000000	59.917298
1109.000000	59.925982
1108.000000	59.955762
1107.000000	59.960638
1106.000000	59.974927
1105.000000	59.970583
1104.000000	59.973440
1103.000000	59.978846
1102.000000	59.965475
1101.000000	59.966994
1100.000000	59.951899
1099.000000	59.958500
1098.000000	59.962425
1097.000000	59.959303
1096.000000	59.985340
1095.000000	59.992791
1094.000000	59.975151
1093.000000	59.988433
1092.000000	59.971160
1091.000000	59.970986
1090.000000	59.963051
1089.000000	59.977319
1088.000000	59.985143
1087.000000	59.985106
1086.000000	59.980136
1085.000000	59.951214
1084.000000	59.965218
1083.000000	59.968861
1082.000000	59.974904
1081.000000	59.964202
1080.000000	59.968459
1079.000000	59.954244
1078.000000	59.931580
1077.000000	59.939559
1076.000000	59.938751
1075.000000	59.946717
1074.000000	59.947381
1073.000000	59.950405
1072.000000	59.943674
1071.000000	59.918132
1070.000000	59.913190
1069.000000	59.907951
1068.000000	59.905067
1067.000000	59.920982
1066.000000	59.908164
1065.000000	59.914144
1064.000000	59.872513
1063.000000	59.869168
1062.000000	59.868362
1061.000000	59.873280
1060.000000	59.886403
1059.000000	59.862252
1058.000000	59.868790
1057.000000	59.851541
1056.000000	59.833092
1055.000000	59.833579
1054.000000	59.837452
1053.000000	59.823524
1052.000000	59.815515
1051.000000	59.810423
1050.000000	59.799998
1049.000000	59.811964
1048.000000	59.808032
1047.000000	59.791854
1046.000000	59.762482
1045.000000	59.783950
1044.000000	59.782967
1043.000000	59.744365
1042.000000	59.740674
1041.000000	59.747197
1040.000000	59.748321
1039.000000	59.757517
1038.000000	59.742458
1037.000000	59.728827
1036.000000	59.733197
1035.000000	59.764605
1034.000000	59.720717
1033.000000	59.737665
1032.000000	59.733472
1031.000000	59.734409
1030.000000	59.720899
1029.000000	59.705429
1028.000000	59.735134
1027.000000	59.729973
1026.000000	59.737981
1025.000000	59.733232
1024.000000	59.734198
1023.000000	59.726871
1022.000000	59.704964
1021.000000	59.721610
1020.000000	59.731268
1019.000000	59.733189
1018.000000	59.732380
1017.000000	59.721517
1016.000000	59.736722
1015.000000	59.739779
1014.000000	59.749282
1013.000000	59.757745
1012.000000	59.775350
1011.000000	59.764758
1010.000000	59.771613
1009.000000	59.792052
1008.000000	59.784477
1007.000000	59.779241
1006.000000	59.782211
1005.000000	59.801600
1004.000000	59.804274
1003.000000	59.808903
1002.000000	59.820715
1001.000000	59.813170
1000.000000	59.824786
999.000000	59.835487
998.000000	59.865639
997.000000	59.871533
996.000000	59.876101
995.000000	59.877620
994.000000	59.876997
993.000000	59.893513
992.000000	59.909418
991.000000	59.907039
990.000000	59.912921
989.000000	59.907154
988.000000	59.905623
987.000000	59.911430
986.000000	59.943383
985.000000	59.944160
984.000000	59.937382
983.000000	59.965504
982.000000	59.979943
981.000000	59.981879
980.000000	59.982716
979.000000	59.988625
978.000000	59.999248
977.000000	60.001830
976.000000	59.985770
975.000000	59.985124
974.000000	60.002636
973.000000	60.011192
972.000000	60.013166
971.000000	60.009067
970.000000	60.021240
969.000000	60.030312
968.000000	60.054732
967.000000	60.059860
966.000000	60.060246
965.000000	60.079268
964.000000	60.077231
963.000000	60.081283
962.000000	60.073044
961.000000	60.077784
960.000000	60.091367
959.000000	60.092075
958.000000	60.093082
957.000000	60.099781
956.000000	60.106796
955.000000	60.127041
954.000000	60.133447
953.000000	60.130596
952.000000	60.135169
951.000000	60.134526
950.000000	60.134107
949.000000	60.140011
948.000000	60.140367
947.000000	60.142690
946.000000	60.150381
945.000000	60.144403
944.000000	60.133268
943.000000	60.147450
942.000000	60.154395
941.000000	60.145541
940.000000	60.157970
939.000000	60.179559
938.000000	60.179851
937.000000	60.163938
936.000000	60.163580
935.000000	60.189922
934.000000	60.200574
933.000000	60.184830
932.000000	60.160497
931.000000	60.183259
930.000000	60.185359
929.000000	60.159795
928.000000	60.168209
927.000000	60.150483
926.000000	60.130565
925.000000	60.114469
924.000000	60.104874
923.000000	60.128451
922.000000	60.141999
921.000000	60.134883
920.000000	60.138959
919.000000	60.119596
918.000000	60.133272
917.000000	60.152900
916.000000	60.155660
915.000000	60.101480
914.000000	60.089527
913.000000	60.104922
912.000000	60.106641
911.000000	60.132942
910.000000	60.141063
909.000000	60.142013
908.000000	60.152125
907.000000	60.130147
906.000000	60.152802
905.000000	60.156248
904.000000	60.142539
903.000000	60.173851
902.000000	60.192258
901.000000	60.213078
900.000000	60.203226
899.000000	60.174970
898.000000	60.158599
897.000000	60.163925
896.000000	60.240962
895.000000	60.198603
894.000000	60.197074
893.000000	60.255726
892.000000	60.210490
891.000000	60.208552
890.000000	60.251325
889.000000	60.349861
888.000000	60.310816
887.000000	60.244300
886.000000	60.216884
885.000000	60.243222
884.000000	60.263021
883.000000	60.235120
882.000000	60.254348
881.000000	60.310022
880.000000	60.309635
879.000000	60.334645
878.000000	60.341321
877.000000	60.280476
876.000000	60.364132
875.000000	60.306003
874.000000	60.289823
873.000000	60.363900
872.000000	60.269759
871.000000	60.314550
870.000000	60.338391
869.000000	60.284467
868.000000	60.345439
867.000000	60.303370
866.000000	60.383730
865.000000	60.341222
864.000000	60.323018
863.000000	60.268078
862.000000	60.310727
861.000000	60.339748
860.000000	60.381171
859.000000	59.799117
858.000000	59.928160
857.000000	59.741061
856.000000	59.921245
855.000000	59.889694
854.000000	60.052869
853.000000	59.713338
852.000000	60.039134
851.000000	59.861677
850.000000	60.036785
849.000000	60.048321
848.000000	60.043755
847.000000	59.902379
846.000000	59.788708
845.000000	59.877658
844.000000	59.941569
843.000000	59.919198
842.000000	59.667375
841.000000	59.878652
840.000000	60.032217
839.000000	59.810252
838.000000	59.949887
837.000000	59.942814
836.000000	59.982763
835.000000	59.833511
834.000000	59.880182
833.000000	59.887225
832.000000	59.854463
831.000000	59.647718
830.000000	59.869487
829.000000	59.906209
828.000000	59.812038
827.000000	59.870100
826.000000	59.861896
825.000000	59.794005
824.000000	59.916812
823.000000	59.898295
822.000000	59.684102
821.000000	59.785836
820.000000	59.958743
819.000000	59.900575
818.000000	59.864821
817.000000	59.905845
816.000000	59.861155
815.000000	59.730631
814.000000	59.882868
813.000000	59.851709
812.000000	59.869219
811.000000	59.817708
810.000000	59.991190
809.000000	59.928968
808.000000	59.806102
807.000000	59.872223
806.000000	59.854581
805.000000	59.879073
804.000000	59.670278
803.000000	59.877615
802.000000	59.858544
801.000000	59.912651
800.000000	59.785590
799.000000	59.866986
798.000000	59.741611
797.000000	59.774517
796.000000	59.774081
795.000000	59.812865
794.000000	59.832715
793.000000	59.922209
792.000000	59.983831
791.000000	59.872350
790.000000	59.781635
789.000000	59.882929
788.000000	60.019498
787.000000	59.888050
786.000000	59.816394
785.000000	59.975651
784.000000	59.808852
783.000000	59.748201
782.000000	59.851920
781.000000	59.918317
780.000000	59.836737
779.000000	59.918004
778.000000	59.947038
777.000000	59.987726
776.000000	59.869546
775.000000	59.919471
774.000000	59.872866
773.000000	59.899759
772.000000	59.861574
771.000000	59.902592
770.000000	59.835534
769.000000	59.892698
768.000000	59.850063
767.000000	59.913211
766.000000	59.911884
765.000000	59.885683
764.000000	59.892159
763.000000	59.921317
762.000000	59.887180
761.000000	59.806422
760.000000	59.751959
759.000000	59.860607
758.000000	59.768881
757.000000	59.893677
756.000000	59.846182
755.000000	59.816930
754.000000	59.872891
753.000000	59.857705
752.000000	59.784922
751.000000	59.855316
750.000000	59.768208
749.000000	59.832715
748.000000	59.842205
747.000000	59.848774
746.000000	59.800408
745.000000	59.812401
744.000000	59.798680
743.000000	59.764509
742.000000	59.788361
741.000000	59.807648
740.000000	59.791093
739.000000	59.863863
738.000000	59.810766
737.000000	59.742824
736.000000	59.758040
735.000000	59.800360
734.000000	59.792947
733.000000	59.820643
732.000000	59.772089
731.000000	59.799015
730.000000	59.778789
729.000000	59.745026
728.000000	59.703014
727.000000	59.701411
726.000000	59.734956
725.000000	59.737255
724.000000	59.745886
723.000000	59.760140
722.000000	59.795268
721.000000	59.780240
720.000000	59.771087
719.000000	59.738483
718.000000	59.755162
717.000000	59.758959
716.000000	59.703277
715.000000	59.709853
714.000000	59.782588
713.000000	59.816349
712.000000	59.774191
711.000000	59.822135
710.000000	59.823822
709.000000	59.745678
708.000000	59.706941
707.000000	59.703252
706.000000	59.702194
705.000000	59.759836
704.000000	59.760226
703.000000	59.768440
702.000000	59.748381
701.000000	59.723154
700.000000	59.764104
699.000000	59.766312
698.000000	59.750858
697.000000	59.775237
696.000000	59.795923
695.000000	59.772203
694.000000	59.761979
693.000000	59.772217
692.000000	59.779056
691.000000	59.808154
690.000000	59.770128
689.000000	59.725330
688.000000	59.708456
687.000000	59.690467
686.000000	59.677080
685.000000	59.699901
684.000000	59.686582
683.000000	59.760281
682.000000	59.748082
681.000000	59.711551
680.000000	59.683892
679.000000	59.680974
678.000000	59.745491
677.000000	59.781241
676.000000	59.745817
675.000000	59.737022
674.000000	59.746651
673.000000	59.754103
672.000000	59.766539
671.000000	59.769441
670.000000	59.676042
669.000000	59.721420
668.000000	59.724301
667.000000	59.696537
666.000000	59.744452
665.000000	59.792340
664.000000	59.749897
663.000000	59.729172
662.000000	59.765135
661.000000	59.748690
660.000000	59.736582
659.000000	59.725735
658.000000	59.722633
657.000000	59.751542
656.000000	59.775308
655.000000	59.773167
654.000000	59.759594
653.000000	59.717944
652.000000	59.732522
651.000000	59.754443
650.000000	59.764201
649.000000	59.747128
648.000000	59.777158
647.000000	59.795164
646.000000	59.780061
645.000000	59.800453
644.000000	59.759624
643.000000	59.777211
642.000000	59.741176
641.000000	59.712231
640.000000	59.689915
639.000000	59.745062
638.000000	59.721712
637.000000	59.741870
636.000000	59.714577
635.000000	59.757150
634.000000	59.731467
633.000000	59.701292
632.000000	59.750963
631.000000	59.771234
630.000000	59.778537
629.000000	59.780177
628.000000	59.790356
627.000000	59.722784
626.000000	59.728339
625.000000	59.796321
624.000000	59.759382
623.000000	59.731373
622.000000	59.734238
621.000000	59.703473
620.000000	59.700021
619.000000	59.691085
618.000000	59.790089
617.000000	59.741194
616.000000	59.710738
615.000000	59.741123
614.000000	59.706276
613.000000	59.742640
612.000000	59.751755
611.000000	59.764953
610.000000	59.702494
609.000000	59.695972
608.000000	59.635823
607.000000	59.714696
606.000000	59.674894
605.000000	59.708914
604.000000	59.679198
603.000000	59.695250
602.000000	59.663372
601.000000	59.726742
600.000000	59.711576
599.000000	59.659526
598.000000	59.643984
597.000000	59.635228
596.000000	59.649698
595.000000	59.686255
594.000000	59.610749
593.000000	59.679469
592.000000	59.589941
591.000000	59.615021
590.000000	59.598565
589.000000	59.592255
588.000000	59.596206
587.000000	59.610561
586.000000	59.566448
585.000000	59.556487
584.000000	59.531516
583.000000	59.532951
582.000000	59.542928
581.000000	59.581095
580.000000	59.535568
579.000000	59.528577
578.000000	59.497923
577.000000	59.537139
576.000000	59.539113
575.000000	59.469735
574.000000	59.460747
573.000000	59.479611
572.000000	59.460675
571.000000	59.454319
570.000000	59.397008
569.000000	59.427039
568.000000	59.361266
567.000000	59.376185
566.000000	59.367112
565.000000	59.390464
564.000000	59.385862
563.000000	59.361665
562.000000	59.319743
561.000000	59.321482
560.000000	59.279039
559.000000	59.284608
558.000000	59.288966
557.000000	59.290765
556.000000	59.237843
555.000000	59.261736
554.000000	59.216678
553.000000	59.217088
552.000000	59.204490
551.000000	59.238401
550.000000	59.163514
549.000000	59.117453
548.000000	59.108461
547.000000	59.144491
546.000000	59.132609
545.000000	59.091340
544.000000	59.098116
543.000000	59.073285
542.000000	59.030496
541.000000	59.038281
540.000000	58.999627
539.000000	58.993278
538.000000	59.003215
537.000000	58.995643
536.000000	58.946177
535.000000	58.889475
534.000000	58.905981
533.000000	58.879198
532.000000	58.854481
531.000000	58.833609
530.000000	58.786843
529.000000	58.818602
528.000000	58.763587
527.000000	58.730156
526.000000	58.720422
525.000000	58.692734
524.000000	58.710408
523.000000	58.657827
522.000000	58.638041
521.000000	58.617907
520.000000	58.571253
519.000000	58.592068
518.000000	58.532527
517.000000	58.500774
516.000000	58.460041
515.000000	58.433480
514.000000	58.432739
513.000000	58.388335
512.000000	58.350400
511.000000	58.321980
510.000000	58.272870
509.000000	58.275252
508.000000	58.238611
507.000000	58.157943
506.000000	58.160774
505.000000	58.147156
504.000000	58.069650
503.000000	58.071647
502.000000	58.030824
501.000000	58.000434
500.000000	57.930841
499.000000	57.934784
498.000000	57.918454
497.000000	57.897587
496.000000	57.819307
495.000000	57.798130
494.000000	57.786653
493.000000	57.695342
492.000000	57.668691
491.000000	57.660601
490.000000	57.578180
489.000000	57.566602
488.000000	57.555620
487.000000	57.463659
486.000000	57.368976
485.000000	57.379511
484.000000	57.449442
483.000000	57.434180
482.000000	57.410900
481.000000	57.385510
480.000000	57.249079
479.000000	57.189310
478.000000	57.152366
477.000000	57.096425
476.000000	57.033360
475.000000	56.979264
474.000000	56.899864
473.000000	56.839330
472.000000	56.785610
471.000000	56.756429
470.000000	56.702300
469.000000	56.635438
468.000000	56.549275
467.000000	56.475411
466.000000	56.413792
465.000000	56.290012
464.000000	56.219952
463.000000	56.206301
462.000000	56.115855
461.000000	56.059994
460.000000	55.988588
459.000000	55.901665
458.000000	55.854923
457.000000	55.740081
456.000000	55.624225
455.000000	55.563863
454.000000	55.549817
453.000000	55.486720
452.000000	55.392983
451.000000	55.260232
450.000000	55.150457
449.000000	55.035889
448.000000	54.978368
447.000000	54.926998
446.000000	54.771402
445.000000	54.631991
444.000000	54.562757
443.000000	54.470675
442.000000	54.389012
441.000000	54.283293
440.000000	54.176548
439.000000	54.073249
438.000000	53.990612
437.000000	53.858975
436.000000	53.753344
435.000000	53.583826
434.000000	53.486725
433.000000	53.416647
432.000000	53.303203
431.000000	53.212711
430.000000	53.113036
429.000000	52.975905
428.000000	52.854362
427.000000	52.694116
426.000000	52.578745
425.000000	52.503129
424.000000	52.385009
423.000000	52.220230
422.000000	52.098720
421.000000	51.950303
420.000000	51.849394
419.000000	51.655450
418.000000	51.521172
417.000000	51.426571
416.000000	51.294227
415.000000	51.105067
414.000000	51.006781
413.000000	50.891541
412.000000	50.676999
411.000000	50.523209
410.000000	50.421872
409.000000	50.271401
408.000000	50.094430
407.000000	49.978061
406.000000	49.843276
405.000000	49.644071
404.000000	49.495398
403.000000	49.343412
402.000000	49.213838
401.000000	49.018183
400.000000	48.937293
399.000000	48.720766
398.000000	48.513196
397.000000	48.371132
396.000000	48.239615
395.000000	48.020840
394.000000	47.843145
393.000000	47.677967
392.000000	47.536151
391.000000	47.386266
390.000000	47.225069
389.000000	47.077957
388.000000	46.863907
387.000000	46.664414
386.000000	46.476223
385.000000	46.252131
384.000000	46.058228
383.000000	45.929862
382.000000	45.748827
381.000000	45.498963
380.000000	45.304730
379.000000	45.066533
378.000000	44.812952
377.000000	44.751832
376.000000	44.644408
375.000000	44.510225
374.000000	44.155120
373.000000	43.930983
372.000000	43.652526
371.000000	43.558774
370.000000	43.402088
369.000000	43.028228
368.000000	42.764505
367.000000	42.592652
366.000000	42.224739
365.000000	42.056906
364.000000	41.797216
363.000000	41.601745
362.000000	41.360674
361.000000	41.071952
360.000000	40.910528
359.000000	40.671552
358.000000	40.443905
357.000000	40.296137
356.000000	39.983482
355.000000	39.626256
354.000000	39.610888
353.000000	39.229035
352.000000	39.027003
351.000000	38.725634
350.000000	38.543885
349.000000	38.344843
348.000000	38.174735
347.000000	37.879195
346.000000	37.652793
345.000000	37.418761
344.000000	37.290277
343.000000	37.049261
342.000000	36.802789
341.000000	36.565994
340.000000	36.453953
339.000000	36.034076
338.000000	35.914083
337.000000	35.605456
336.000000	35.417909
335.000000	35.198601
334.000000	34.959444
333.000000	34.363039
332.000000	34.438234
331.000000	33.963543
330.000000	33.645061
329.000000	33.555275
328.000000	33.047525
327.000000	33.023024
326.000000	32.625623
325.000000	32.335681
324.000000	32.063516
323.000000	31.722516
322.000000	31.325689
321.000000	31.255917
320.000000	30.930190
319.000000	30.853801
318.000000	30.599131
317.000000	30.289377
316.000000	29.991397
315.000000	29.579503
314.000000	29.343285
313.000000	29.161181
312.000000	28.693765
311.000000	28.402008
310.000000	28.083990
309.000000	27.700282
308.000000	27.443493
307.000000	27.186191
306.000000	26.892545
305.000000	26.449301
304.000000	26.149188
303.000000	25.712990
302.000000	25.374547
301.000000	24.963585
300.000000	24.451237
299.000000	23.918392
298.000000	23.184533
297.000000	22.574815
296.000000	21.881985
295.000000	21.099802
294.000000	20.229300
293.000000	19.346448
292.000000	18.283343
291.000000	17.276425
290.000000	16.408234
289.000000	15.644721
288.000000	15.036210
287.000000	14.567238
286.000000	14.213841
285.000000	14.060033
284.000000	13.826377
283.000000	13.695623
282.000000	13.627853
281.000000	13.530466
280.000000	13.491191
279.000000	13.498809
278.000000	13.502255
277.000000	13.457730
276.000000	13.499618
275.000000	13.566626
274.000000	13.558401
273.000000	13.642189
272.000000	13.787176
271.000000	13.875891
270.000000	13.839933
269.000000	13.908774
268.000000	13.937766
267.000000	14.136441
266.000000	14.209646
265.000000	14.352380
264.000000	14.484567
263.000000	14.661558
262.000000	14.785728
261.000000	14.919231
260.000000	15.092038
259.000000	15.246494
258.000000	15.467586
257.000000	15.679474
256.000000	15.807660
255.000000	15.944107
254.000000	16.055782
253.000000	16.089590
252.000000	16.140047
251.000000	16.224091
250.000000	16.242117
249.000000	16.123955
248.000000	16.022870
247.000000	15.843076
246.000000	15.628564
245.000000	15.452098
244.000000	15.275298
243.000000	15.087003
242.000000	14.961813
241.000000	14.910725
240.000000	14.941919
239.000000	15.024309
238.000000	15.139861
237.000000	15.204848
236.000000	15.352334
235.000000	15.587822
234.000000	15.768983
233.000000	15.883432
232.000000	16.013861
231.000000	16.160116
230.000000	16.235163
229.000000	16.281897
228.000000	16.409328
227.000000	16.435633
226.000000	16.586973
225.000000	16.737298
224.000000	16.848418
223.000000	17.054080
222.000000	17.292776
221.000000	17.489857
220.000000	17.726652
219.000000	18.040028
218.000000	18.148457
217.000000	18.409208
216.000000	18.739296
215.000000	18.897136
214.000000	19.251800
213.000000	19.661930
212.000000	19.870767
211.000000	20.255595
210.000000	20.703089
209.000000	20.963779
208.000000	21.417934
207.000000	21.878393
206.000000	22.226947
205.000000	22.618770
204.000000	23.141886
203.000000	23.627762
202.000000	24.098996
201.000000	24.368911
200.000000	24.807489
