PE UV       SUBTECH     SPECTRUM    ASCII       PEDS        4.00        
   -1
RTVeauAl 12.Sample.asc
18/03/02
14:12:51.00
18/03/02
14:12:51.00
Administrator

200.000000
1
Lambda 750
750N8071901
PerkinElmer UV WinLab 6.0.4.0738 / 1.61.00 Lambda 900

0
0
3350/servo 860.8/2
0
0
UV/VIS
1
1
1
CommonBeamDepol,150mm sphere / downward view
0
0
0
0
Program
Program
3350/servo 860.8/2
3350/0.2 860.8/0.2
3350/0.2 860.8/0.2
0
1
 
 
 
0
 
860.8
319.2
860.8
Front
100
on
 
 
0
0
0
 
0
 
 
 
0
 
 
0
0
0
0
0
 
 
 
 
0
0


0
0
#HDR
-1
-1
#GR
nm
%R
1.0
0.0
2350.000000
-1.000000
2151
8
63.262423
15.810692
#DATA
2350.000000	30.435019
2349.000000	29.925110
2348.000000	30.162521
2347.000000	30.619721
2346.000000	30.255866
2345.000000	30.281629
2344.000000	30.322671
2343.000000	30.093807
2342.000000	29.982955
2341.000000	30.474201
2340.000000	30.311799
2339.000000	30.771748
2338.000000	30.830070
2337.000000	30.544462
2336.000000	31.091677
2335.000000	30.725638
2334.000000	31.021406
2333.000000	30.884951
2332.000000	31.018971
2331.000000	31.058514
2330.000000	30.542527
2329.000000	30.940883
2328.000000	30.797012
2327.000000	30.700765
2326.000000	30.715525
2325.000000	30.591539
2324.000000	30.546741
2323.000000	30.774526
2322.000000	30.609828
2321.000000	30.796477
2320.000000	30.209073
2319.000000	30.159874
2318.000000	30.577679
2317.000000	30.452550
2316.000000	30.374548
2315.000000	30.055270
2314.000000	29.990138
2313.000000	30.011898
2312.000000	30.030050
2311.000000	29.902256
2310.000000	29.942318
2309.000000	29.982295
2308.000000	29.602542
2307.000000	29.725134
2306.000000	29.733918
2305.000000	29.548930
2304.000000	29.339910
2303.000000	29.237057
2302.000000	29.303625
2301.000000	29.226980
2300.000000	29.422229
2299.000000	29.087112
2298.000000	28.956994
2297.000000	28.884598
2296.000000	28.874353
2295.000000	28.871752
2294.000000	28.715242
2293.000000	28.724500
2292.000000	28.555774
2291.000000	28.621596
2290.000000	28.633209
2289.000000	28.508292
2288.000000	28.589944
2287.000000	28.520998
2286.000000	28.329785
2285.000000	28.134863
2284.000000	28.224885
2283.000000	28.257801
2282.000000	28.374517
2281.000000	28.386914
2280.000000	28.258675
2279.000000	28.285995
2278.000000	28.157044
2277.000000	28.127819
2276.000000	28.260631
2275.000000	28.272079
2274.000000	28.148890
2273.000000	28.262235
2272.000000	28.434123
2271.000000	28.355435
2270.000000	28.337590
2269.000000	28.426330
2268.000000	28.634190
2267.000000	28.595150
2266.000000	28.708532
2265.000000	28.826633
2264.000000	28.862967
2263.000000	28.938702
2262.000000	29.040054
2261.000000	29.153430
2260.000000	29.248277
2259.000000	29.396586
2258.000000	29.481569
2257.000000	29.611197
2256.000000	29.871033
2255.000000	30.055579
2254.000000	30.217889
2253.000000	30.362111
2252.000000	30.629569
2251.000000	30.901941
2250.000000	30.947605
2249.000000	31.151570
2248.000000	31.440064
2247.000000	31.568081
2246.000000	31.650985
2245.000000	31.811828
2244.000000	32.137844
2243.000000	32.339786
2242.000000	32.386933
2241.000000	32.496916
2240.000000	32.601084
2239.000000	32.696782
2238.000000	32.748312
2237.000000	32.875606
2236.000000	32.962912
2235.000000	33.047431
2234.000000	33.163689
2233.000000	33.196764
2232.000000	33.336803
2231.000000	33.443334
2230.000000	33.448424
2229.000000	33.494240
2228.000000	33.498252
2227.000000	33.460131
2226.000000	33.484524
2225.000000	33.444564
2224.000000	33.386169
2223.000000	33.427655
2222.000000	33.459142
2221.000000	33.469290
2220.000000	33.478723
2219.000000	33.543442
2218.000000	33.376142
2217.000000	33.218699
2216.000000	33.164840
2215.000000	33.135588
2214.000000	33.225676
2213.000000	33.147950
2212.000000	33.149628
2211.000000	33.047603
2210.000000	32.982905
2209.000000	32.879662
2208.000000	32.809673
2207.000000	32.731069
2206.000000	32.789475
2205.000000	32.716550
2204.000000	32.756380
2203.000000	32.664111
2202.000000	32.611121
2201.000000	32.560616
2200.000000	32.344295
2199.000000	32.333170
2198.000000	32.377409
2197.000000	32.242917
2196.000000	32.165876
2195.000000	32.131630
2194.000000	32.030192
2193.000000	31.892718
2192.000000	31.973614
2191.000000	31.937900
2190.000000	31.891049
2189.000000	31.805249
2188.000000	31.537230
2187.000000	31.533824
2186.000000	31.656249
2185.000000	31.564691
2184.000000	31.674531
2183.000000	31.601632
2182.000000	31.579282
2181.000000	31.399462
2180.000000	31.361349
2179.000000	31.419540
2178.000000	31.447386
2177.000000	31.529853
2176.000000	31.470334
2175.000000	31.502851
2174.000000	31.464628
2173.000000	31.596890
2172.000000	31.622661
2171.000000	31.514818
2170.000000	31.671982
2169.000000	31.705470
2168.000000	31.803663
2167.000000	31.842760
2166.000000	31.836661
2165.000000	31.788710
2164.000000	32.133084
2163.000000	32.099357
2162.000000	32.204014
2161.000000	32.486347
2160.000000	32.641221
2159.000000	32.660250
2158.000000	32.845230
2157.000000	32.956569
2156.000000	33.008622
2155.000000	33.112559
2154.000000	33.177677
2153.000000	33.532941
2152.000000	33.559964
2151.000000	33.734768
2150.000000	33.764168
2149.000000	33.900155
2148.000000	33.929778
2147.000000	34.346686
2146.000000	34.282487
2145.000000	34.371571
2144.000000	34.570780
2143.000000	34.812030
2142.000000	35.015413
2141.000000	34.956998
2140.000000	35.089591
2139.000000	35.356840
2138.000000	35.508256
2137.000000	35.560447
2136.000000	35.529713
2135.000000	35.673293
2134.000000	35.934976
2133.000000	35.744298
2132.000000	35.977715
2131.000000	36.218118
2130.000000	36.219979
2129.000000	36.202850
2128.000000	36.282402
2127.000000	36.406343
2126.000000	36.397670
2125.000000	36.395402
2124.000000	36.605247
2123.000000	36.701349
2122.000000	36.621314
2121.000000	36.761307
2120.000000	36.743067
2119.000000	36.876761
2118.000000	36.837589
2117.000000	36.902094
2116.000000	36.879315
2115.000000	36.986380
2114.000000	36.964826
2113.000000	37.025544
2112.000000	36.980053
2111.000000	36.966994
2110.000000	37.056304
2109.000000	37.111342
2108.000000	37.231845
2107.000000	37.217282
2106.000000	37.174362
2105.000000	37.218343
2104.000000	37.340299
2103.000000	37.346141
2102.000000	37.338344
2101.000000	37.333738
2100.000000	37.452206
2099.000000	37.421750
2098.000000	37.284116
2097.000000	37.424519
2096.000000	37.409784
2095.000000	37.381714
2094.000000	37.423062
2093.000000	37.379528
2092.000000	37.383185
2091.000000	37.321082
2090.000000	37.330533
2089.000000	37.351757
2088.000000	37.371661
2087.000000	37.336108
2086.000000	37.348311
2085.000000	37.280960
2084.000000	37.177711
2083.000000	37.174832
2082.000000	37.102350
2081.000000	37.007518
2080.000000	36.910179
2079.000000	36.900873
2078.000000	36.835124
2077.000000	36.797719
2076.000000	36.663853
2075.000000	36.606430
2074.000000	36.602984
2073.000000	36.541575
2072.000000	36.379944
2071.000000	36.360472
2070.000000	36.242930
2069.000000	36.090434
2068.000000	35.912085
2067.000000	35.738706
2066.000000	35.633342
2065.000000	35.493735
2064.000000	35.315800
2063.000000	35.171923
2062.000000	35.097229
2061.000000	34.964650
2060.000000	34.819138
2059.000000	34.640158
2058.000000	34.479630
2057.000000	34.408697
2056.000000	34.346681
2055.000000	34.208303
2054.000000	34.021638
2053.000000	33.860113
2052.000000	33.786718
2051.000000	33.631228
2050.000000	33.493447
2049.000000	33.496492
2048.000000	33.459973
2047.000000	33.346336
2046.000000	33.250851
2045.000000	33.196868
2044.000000	33.186618
2043.000000	33.172123
2042.000000	33.176320
2041.000000	33.175680
2040.000000	33.190515
2039.000000	33.202611
2038.000000	33.254290
2037.000000	33.289853
2036.000000	33.292967
2035.000000	33.434283
2034.000000	33.561276
2033.000000	33.656500
2032.000000	33.820521
2031.000000	33.939553
2030.000000	34.013959
2029.000000	34.119585
2028.000000	34.248043
2027.000000	34.385683
2026.000000	34.573773
2025.000000	34.731993
2024.000000	34.796333
2023.000000	34.866730
2022.000000	34.963906
2021.000000	35.065872
2020.000000	35.191431
2019.000000	35.268321
2018.000000	35.305786
2017.000000	35.342240
2016.000000	35.378737
2015.000000	35.374079
2014.000000	35.385347
2013.000000	35.417851
2012.000000	35.430138
2011.000000	35.422561
2010.000000	35.389088
2009.000000	35.326882
2008.000000	35.294606
2007.000000	35.279399
2006.000000	35.206739
2005.000000	35.170897
2004.000000	35.118776
2003.000000	35.052541
2002.000000	35.001691
2001.000000	34.906142
2000.000000	34.824360
1999.000000	34.766608
1998.000000	34.699732
1997.000000	34.628725
1996.000000	34.556913
1995.000000	34.429440
1994.000000	34.336720
1993.000000	34.254993
1992.000000	34.219265
1991.000000	34.104453
1990.000000	34.035822
1989.000000	33.952905
1988.000000	33.834362
1987.000000	33.790437
1986.000000	33.677077
1985.000000	33.615746
1984.000000	33.550354
1983.000000	33.434453
1982.000000	33.384777
1981.000000	33.331239
1980.000000	33.234915
1979.000000	33.112825
1978.000000	33.054708
1977.000000	32.933520
1976.000000	32.865997
1975.000000	32.798657
1974.000000	32.711020
1973.000000	32.669928
1972.000000	32.603680
1971.000000	32.506234
1970.000000	32.399029
1969.000000	32.313516
1968.000000	32.250844
1967.000000	32.206889
1966.000000	32.092154
1965.000000	32.041772
1964.000000	31.990086
1963.000000	31.940973
1962.000000	31.838889
1961.000000	31.775530
1960.000000	31.671516
1959.000000	31.600341
1958.000000	31.545122
1957.000000	31.515258
1956.000000	31.438740
1955.000000	31.375613
1954.000000	31.285399
1953.000000	31.244126
1952.000000	31.203209
1951.000000	31.148862
1950.000000	31.087082
1949.000000	31.040155
1948.000000	31.005365
1947.000000	30.996841
1946.000000	31.033076
1945.000000	30.977092
1944.000000	30.963673
1943.000000	30.941347
1942.000000	30.996274
1941.000000	31.051422
1940.000000	31.064887
1939.000000	31.132602
1938.000000	31.152472
1937.000000	31.231437
1936.000000	31.326246
1935.000000	31.312288
1934.000000	31.468919
1933.000000	31.548814
1932.000000	31.718756
1931.000000	31.850522
1930.000000	31.997439
1929.000000	32.166766
1928.000000	32.347284
1927.000000	32.490436
1926.000000	32.616857
1925.000000	32.839658
1924.000000	33.067739
1923.000000	33.268928
1922.000000	33.563541
1921.000000	33.840862
1920.000000	34.028849
1919.000000	34.287810
1918.000000	34.467482
1917.000000	34.900360
1916.000000	35.139813
1915.000000	35.480737
1914.000000	35.855571
1913.000000	36.166261
1912.000000	36.434020
1911.000000	36.763845
1910.000000	37.130360
1909.000000	37.525476
1908.000000	37.872914
1907.000000	38.262290
1906.000000	38.649442
1905.000000	39.072205
1904.000000	39.433333
1903.000000	39.906189
1902.000000	40.331398
1901.000000	40.794625
1900.000000	41.221756
1899.000000	41.667021
1898.000000	42.114039
1897.000000	42.568763
1896.000000	42.923266
1895.000000	43.380267
1894.000000	43.797483
1893.000000	44.226092
1892.000000	44.597653
1891.000000	44.977274
1890.000000	45.456810
1889.000000	45.791829
1888.000000	46.155341
1887.000000	46.559716
1886.000000	46.909821
1885.000000	47.240503
1884.000000	47.563426
1883.000000	47.878919
1882.000000	48.114999
1881.000000	48.484012
1880.000000	48.753697
1879.000000	48.984803
1878.000000	49.254214
1877.000000	49.521395
1876.000000	49.700348
1875.000000	49.893315
1874.000000	50.101929
1873.000000	50.299727
1872.000000	50.459850
1871.000000	50.588206
1870.000000	50.732300
1869.000000	50.852189
1868.000000	51.009280
1867.000000	51.079965
1866.000000	51.172979
1865.000000	51.242167
1864.000000	51.337780
1863.000000	51.395020
1862.000000	51.454229
1861.000000	51.514291
1860.000000	51.521357
1859.000000	51.568920
1858.000000	51.592715
1857.000000	51.606157
1856.000000	51.665366
1855.000000	51.683521
1854.000000	51.737678
1853.000000	51.734184
1852.000000	51.735023
1851.000000	51.741771
1850.000000	51.729710
1849.000000	51.729507
1848.000000	51.735693
1847.000000	51.752625
1846.000000	51.760735
1845.000000	51.746796
1844.000000	51.695854
1843.000000	51.605989
1842.000000	51.613695
1841.000000	51.604526
1840.000000	51.562178
1839.000000	51.544576
1838.000000	51.547637
1837.000000	51.493551
1836.000000	51.439170
1835.000000	51.432854
1834.000000	51.409746
1833.000000	51.358223
1832.000000	51.324687
1831.000000	51.264980
1830.000000	51.255378
1829.000000	51.218545
1828.000000	51.151279
1827.000000	51.114443
1826.000000	51.094167
1825.000000	51.074316
1824.000000	51.060697
1823.000000	51.043209
1822.000000	50.997524
1821.000000	50.940325
1820.000000	50.903775
1819.000000	50.885524
1818.000000	50.869614
1817.000000	50.854560
1816.000000	50.816262
1815.000000	50.802211
1814.000000	50.757566
1813.000000	50.695958
1812.000000	50.692876
1811.000000	50.675473
1810.000000	50.637488
1809.000000	50.617352
1808.000000	50.603344
1807.000000	50.562461
1806.000000	50.526045
1805.000000	50.482922
1804.000000	50.443908
1803.000000	50.440323
1802.000000	50.408324
1801.000000	50.376916
1800.000000	50.354552
1799.000000	50.323407
1798.000000	50.313655
1797.000000	50.288357
1796.000000	50.250183
1795.000000	50.250628
1794.000000	50.249908
1793.000000	50.221095
1792.000000	50.185408
1791.000000	50.150373
1790.000000	50.129056
1789.000000	50.118458
1788.000000	50.092722
1787.000000	50.053102
1786.000000	50.023729
1785.000000	50.007150
1784.000000	49.960135
1783.000000	49.939751
1782.000000	49.907200
1781.000000	49.869625
1780.000000	49.814158
1779.000000	49.790922
1778.000000	49.736807
1777.000000	49.667916
1776.000000	49.616129
1775.000000	49.574564
1774.000000	49.510242
1773.000000	49.456559
1772.000000	49.409349
1771.000000	49.340246
1770.000000	49.276884
1769.000000	49.236512
1768.000000	49.181403
1767.000000	49.126981
1766.000000	49.060649
1765.000000	49.000831
1764.000000	48.967760
1763.000000	48.928854
1762.000000	48.876621
1761.000000	48.785655
1760.000000	48.734205
1759.000000	48.661798
1758.000000	48.616655
1757.000000	48.571411
1756.000000	48.539503
1755.000000	48.470101
1754.000000	48.391120
1753.000000	48.321105
1752.000000	48.281936
1751.000000	48.238075
1750.000000	48.161078
1749.000000	48.089814
1748.000000	48.026994
1747.000000	47.948725
1746.000000	47.909118
1745.000000	47.842004
1744.000000	47.793076
1743.000000	47.717454
1742.000000	47.661429
1741.000000	47.614450
1740.000000	47.570492
1739.000000	47.508439
1738.000000	47.483545
1737.000000	47.407616
1736.000000	47.393788
1735.000000	47.378820
1734.000000	47.392546
1733.000000	47.366777
1732.000000	47.343097
1731.000000	47.378703
1730.000000	47.371196
1729.000000	47.400383
1728.000000	47.462956
1727.000000	47.482481
1726.000000	47.564742
1725.000000	47.627802
1724.000000	47.667965
1723.000000	47.761215
1722.000000	47.843834
1721.000000	47.946667
1720.000000	48.055715
1719.000000	48.145677
1718.000000	48.224657
1717.000000	48.299992
1716.000000	48.380123
1715.000000	48.465030
1714.000000	48.555366
1713.000000	48.657759
1712.000000	48.702390
1711.000000	48.799411
1710.000000	48.860717
1709.000000	48.907819
1708.000000	48.935929
1707.000000	49.012214
1706.000000	49.050135
1705.000000	49.055791
1704.000000	49.109988
1703.000000	49.130767
1702.000000	49.136358
1701.000000	49.188990
1700.000000	49.177606
1699.000000	49.188996
1698.000000	49.247111
1697.000000	49.244828
1696.000000	49.298047
1695.000000	49.292610
1694.000000	49.355305
1693.000000	49.381009
1692.000000	49.432637
1691.000000	49.518276
1690.000000	49.603513
1689.000000	49.677368
1688.000000	49.778530
1687.000000	49.889657
1686.000000	50.019312
1685.000000	50.130201
1684.000000	50.301574
1683.000000	50.435190
1682.000000	50.592175
1681.000000	50.763257
1680.000000	50.926510
1679.000000	51.081759
1678.000000	51.245694
1677.000000	51.427471
1676.000000	51.605497
1675.000000	51.788944
1674.000000	51.965960
1673.000000	52.146014
1672.000000	52.307359
1671.000000	52.462383
1670.000000	52.624974
1669.000000	52.811204
1668.000000	52.920843
1667.000000	53.074155
1666.000000	53.174684
1665.000000	53.282052
1664.000000	53.354847
1663.000000	53.445734
1662.000000	53.530858
1661.000000	53.591174
1660.000000	53.680397
1659.000000	53.756104
1658.000000	53.833284
1657.000000	53.874569
1656.000000	53.902040
1655.000000	53.929174
1654.000000	53.967289
1653.000000	53.991928
1652.000000	54.032956
1651.000000	54.017442
1650.000000	54.018511
1649.000000	54.028578
1648.000000	54.005068
1647.000000	54.037013
1646.000000	54.019951
1645.000000	53.999552
1644.000000	53.988403
1643.000000	53.975794
1642.000000	53.982859
1641.000000	53.959136
1640.000000	53.943494
1639.000000	53.915944
1638.000000	53.875732
1637.000000	53.860687
1636.000000	53.818551
1635.000000	53.792740
1634.000000	53.749748
1633.000000	53.714760
1632.000000	53.690859
1631.000000	53.654849
1630.000000	53.609506
1629.000000	53.584284
1628.000000	53.550905
1627.000000	53.515690
1626.000000	53.475670
1625.000000	53.432567
1624.000000	53.388450
1623.000000	53.341187
1622.000000	53.305200
1621.000000	53.253424
1620.000000	53.208847
1619.000000	53.161469
1618.000000	53.108984
1617.000000	53.073753
1616.000000	53.024493
1615.000000	52.980158
1614.000000	52.938066
1613.000000	52.875191
1612.000000	52.812201
1611.000000	52.766056
1610.000000	52.712739
1609.000000	52.668283
1608.000000	52.609199
1607.000000	52.548506
1606.000000	52.496245
1605.000000	52.430256
1604.000000	52.364987
1603.000000	52.306227
1602.000000	52.255120
1601.000000	52.209812
1600.000000	52.162360
1599.000000	52.093170
1598.000000	52.022562
1597.000000	51.987148
1596.000000	51.947576
1595.000000	51.892662
1594.000000	51.840838
1593.000000	51.790028
1592.000000	51.742069
1591.000000	51.705120
1590.000000	51.649783
1589.000000	51.574593
1588.000000	51.537235
1587.000000	51.505103
1586.000000	51.454482
1585.000000	51.411364
1584.000000	51.376904
1583.000000	51.335125
1582.000000	51.287767
1581.000000	51.232988
1580.000000	51.189448
1579.000000	51.162397
1578.000000	51.139908
1577.000000	51.094817
1576.000000	51.046851
1575.000000	51.006671
1574.000000	50.969543
1573.000000	50.922401
1572.000000	50.887373
1571.000000	50.848894
1570.000000	50.815831
1569.000000	50.787286
1568.000000	50.752899
1567.000000	50.710548
1566.000000	50.672321
1565.000000	50.648393
1564.000000	50.635462
1563.000000	50.612625
1562.000000	50.596601
1561.000000	50.571077
1560.000000	50.541219
1559.000000	50.523907
1558.000000	50.511738
1557.000000	50.502931
1556.000000	50.471341
1555.000000	50.449188
1554.000000	50.435058
1553.000000	50.425129
1552.000000	50.407353
1551.000000	50.375625
1550.000000	50.346489
1549.000000	50.316665
1548.000000	50.284376
1547.000000	50.222418
1546.000000	50.174041
1545.000000	50.119011
1544.000000	50.057651
1543.000000	49.997671
1542.000000	49.938290
1541.000000	49.862623
1540.000000	49.784106
1539.000000	49.718443
1538.000000	49.618637
1537.000000	49.524089
1536.000000	49.445441
1535.000000	49.361327
1534.000000	49.284614
1533.000000	49.213490
1532.000000	49.113739
1531.000000	49.012824
1530.000000	48.944659
1529.000000	48.850819
1528.000000	48.791405
1527.000000	48.719553
1526.000000	48.653137
1525.000000	48.586191
1524.000000	48.509495
1523.000000	48.452626
1522.000000	48.405116
1521.000000	48.347980
1520.000000	48.308785
1519.000000	48.247626
1518.000000	48.210168
1517.000000	48.170070
1516.000000	48.105081
1515.000000	48.068748
1514.000000	48.050122
1513.000000	48.002175
1512.000000	47.978073
1511.000000	47.970813
1510.000000	47.981391
1509.000000	48.028967
1508.000000	48.023041
1507.000000	48.011936
1506.000000	47.976405
1505.000000	47.949395
1504.000000	47.950433
1503.000000	47.921222
1502.000000	47.901309
1501.000000	47.890741
1500.000000	47.899448
1499.000000	47.885928
1498.000000	47.908105
1497.000000	47.907103
1496.000000	47.936124
1495.000000	47.945802
1494.000000	47.977780
1493.000000	48.018315
1492.000000	48.065601
1491.000000	48.104883
1490.000000	48.171270
1489.000000	48.178895
1488.000000	48.234857
1487.000000	48.309684
1486.000000	48.388625
1485.000000	48.474544
1484.000000	48.550448
1483.000000	48.635199
1482.000000	48.701449
1481.000000	48.805496
1480.000000	48.890744
1479.000000	48.959705
1478.000000	49.037497
1477.000000	49.103272
1476.000000	49.212079
1475.000000	49.275685
1474.000000	49.374626
1473.000000	49.446042
1472.000000	49.510114
1471.000000	49.621991
1470.000000	49.739156
1469.000000	49.771931
1468.000000	49.832137
1467.000000	49.881183
1466.000000	49.951521
1465.000000	49.988716
1464.000000	50.072784
1463.000000	50.152974
1462.000000	50.179897
1461.000000	50.221228
1460.000000	50.312391
1459.000000	50.400786
1458.000000	50.433445
1457.000000	50.472634
1456.000000	50.559221
1455.000000	50.635262
1454.000000	50.667876
1453.000000	50.721442
1452.000000	50.762145
1451.000000	50.849708
1450.000000	50.921167
1449.000000	50.973284
1448.000000	51.026108
1447.000000	51.082666
1446.000000	51.164469
1445.000000	51.246217
1444.000000	51.345453
1443.000000	51.406136
1442.000000	51.480436
1441.000000	51.542916
1440.000000	51.590740
1439.000000	51.688448
1438.000000	51.795537
1437.000000	51.889678
1436.000000	51.953214
1435.000000	52.039096
1434.000000	52.126469
1433.000000	52.219441
1432.000000	52.318603
1431.000000	52.409332
1430.000000	52.507684
1429.000000	52.617073
1428.000000	52.719502
1427.000000	52.836452
1426.000000	52.956751
1425.000000	53.090284
1424.000000	53.204864
1423.000000	53.330265
1422.000000	53.460242
1421.000000	53.586853
1420.000000	53.711841
1419.000000	53.838112
1418.000000	54.001438
1417.000000	54.135370
1416.000000	54.283855
1415.000000	54.436477
1414.000000	54.581138
1413.000000	54.735197
1412.000000	54.888818
1411.000000	55.042910
1410.000000	55.204974
1409.000000	55.347311
1408.000000	55.474601
1407.000000	55.632750
1406.000000	55.778360
1405.000000	55.922054
1404.000000	56.077761
1403.000000	56.217215
1402.000000	56.370111
1401.000000	56.503215
1400.000000	56.625047
1399.000000	56.758764
1398.000000	56.883312
1397.000000	57.012685
1396.000000	57.132811
1395.000000	57.255626
1394.000000	57.374914
1393.000000	57.484141
1392.000000	57.598012
1391.000000	57.706990
1390.000000	57.795987
1389.000000	57.894498
1388.000000	57.996487
1387.000000	58.105048
1386.000000	58.232935
1385.000000	58.327147
1384.000000	58.385228
1383.000000	58.467228
1382.000000	58.572848
1381.000000	58.645516
1380.000000	58.702873
1379.000000	58.785061
1378.000000	58.847963
1377.000000	58.883356
1376.000000	58.948201
1375.000000	59.011615
1374.000000	59.054849
1373.000000	59.102831
1372.000000	59.153322
1371.000000	59.213099
1370.000000	59.258553
1369.000000	59.288193
1368.000000	59.319563
1367.000000	59.354878
1366.000000	59.407493
1365.000000	59.453037
1364.000000	59.495186
1363.000000	59.543277
1362.000000	59.582428
1361.000000	59.634363
1360.000000	59.681127
1359.000000	59.730963
1358.000000	59.783026
1357.000000	59.862065
1356.000000	59.919648
1355.000000	59.948969
1354.000000	60.016028
1353.000000	60.071464
1352.000000	60.129158
1351.000000	60.188065
1350.000000	60.244002
1349.000000	60.299197
1348.000000	60.347612
1347.000000	60.389915
1346.000000	60.462135
1345.000000	60.516953
1344.000000	60.547991
1343.000000	60.581651
1342.000000	60.630167
1341.000000	60.676527
1340.000000	60.762247
1339.000000	60.806595
1338.000000	60.825088
1337.000000	60.850206
1336.000000	60.876671
1335.000000	60.914014
1334.000000	60.939252
1333.000000	60.959234
1332.000000	61.029605
1331.000000	61.042723
1330.000000	61.058480
1329.000000	61.075037
1328.000000	61.107638
1327.000000	61.153092
1326.000000	61.186263
1325.000000	61.183162
1324.000000	61.185490
1323.000000	61.241729
1322.000000	61.254111
1321.000000	61.243905
1320.000000	61.276872
1319.000000	61.270479
1318.000000	61.282179
1317.000000	61.327099
1316.000000	61.347610
1315.000000	61.323986
1314.000000	61.349426
1313.000000	61.361543
1312.000000	61.347076
1311.000000	61.405815
1310.000000	61.418142
1309.000000	61.414608
1308.000000	61.432941
1307.000000	61.432098
1306.000000	61.438486
1305.000000	61.441318
1304.000000	61.475633
1303.000000	61.493425
1302.000000	61.489705
1301.000000	61.481312
1300.000000	61.485402
1299.000000	61.492111
1298.000000	61.486527
1297.000000	61.478671
1296.000000	61.483181
1295.000000	61.499210
1294.000000	61.506416
1293.000000	61.508494
1292.000000	61.497310
1291.000000	61.485373
1290.000000	61.498320
1289.000000	61.492172
1288.000000	61.488979
1287.000000	61.489188
1286.000000	61.490664
1285.000000	61.469529
1284.000000	61.453599
1283.000000	61.434070
1282.000000	61.432683
1281.000000	61.440917
1280.000000	61.431759
1279.000000	61.448075
1278.000000	61.441388
1277.000000	61.441758
1276.000000	61.428372
1275.000000	61.446592
1274.000000	61.452919
1273.000000	61.427293
1272.000000	61.431870
1271.000000	61.447154
1270.000000	61.459630
1269.000000	61.447141
1268.000000	61.436874
1267.000000	61.461167
1266.000000	61.462244
1265.000000	61.482866
1264.000000	61.539866
1263.000000	61.522717
1262.000000	61.500468
1261.000000	61.509708
1260.000000	61.504653
1259.000000	61.543808
1258.000000	61.581358
1257.000000	61.561895
1256.000000	61.587307
1255.000000	61.581694
1254.000000	61.595073
1253.000000	61.571528
1252.000000	61.575482
1251.000000	61.571300
1250.000000	61.580374
1249.000000	61.589181
1248.000000	61.572754
1247.000000	61.592847
1246.000000	61.571217
1245.000000	61.566452
1244.000000	61.567785
1243.000000	61.560377
1242.000000	61.559533
1241.000000	61.528532
1240.000000	61.517285
1239.000000	61.478196
1238.000000	61.464829
1237.000000	61.448023
1236.000000	61.414779
1235.000000	61.398030
1234.000000	61.373522
1233.000000	61.367927
1232.000000	61.322084
1231.000000	61.319475
1230.000000	61.302969
1229.000000	61.302220
1228.000000	61.285315
1227.000000	61.255080
1226.000000	61.234025
1225.000000	61.206468
1224.000000	61.195997
1223.000000	61.177116
1222.000000	61.172635
1221.000000	61.146695
1220.000000	61.121802
1219.000000	61.098689
1218.000000	61.096418
1217.000000	61.070210
1216.000000	61.040971
1215.000000	61.025456
1214.000000	60.988097
1213.000000	60.999922
1212.000000	60.963280
1211.000000	60.933676
1210.000000	60.902248
1209.000000	60.899298
1208.000000	60.855400
1207.000000	60.813740
1206.000000	60.809732
1205.000000	60.772926
1204.000000	60.733785
1203.000000	60.712759
1202.000000	60.690784
1201.000000	60.662793
1200.000000	60.631101
1199.000000	60.610142
1198.000000	60.589944
1197.000000	60.546138
1196.000000	60.519488
1195.000000	60.501311
1194.000000	60.464492
1193.000000	60.438054
1192.000000	60.431545
1191.000000	60.416093
1190.000000	60.405878
1189.000000	60.374153
1188.000000	60.376172
1187.000000	60.387168
1186.000000	60.362041
1185.000000	60.363317
1184.000000	60.365255
1183.000000	60.380144
1182.000000	60.396539
1181.000000	60.406356
1180.000000	60.419502
1179.000000	60.450349
1178.000000	60.491276
1177.000000	60.513470
1176.000000	60.524481
1175.000000	60.576091
1174.000000	60.620953
1173.000000	60.662518
1172.000000	60.719768
1171.000000	60.766200
1170.000000	60.820944
1169.000000	60.882569
1168.000000	60.930587
1167.000000	60.998536
1166.000000	61.068411
1165.000000	61.114173
1164.000000	61.187221
1163.000000	61.256388
1162.000000	61.307841
1161.000000	61.373505
1160.000000	61.435030
1159.000000	61.489939
1158.000000	61.553865
1157.000000	61.609206
1156.000000	61.649856
1155.000000	61.699943
1154.000000	61.757638
1153.000000	61.815673
1152.000000	61.858967
1151.000000	61.901606
1150.000000	61.939773
1149.000000	61.971422
1148.000000	62.007252
1147.000000	62.040288
1146.000000	62.064067
1145.000000	62.087466
1144.000000	62.123294
1143.000000	62.170626
1142.000000	62.214874
1141.000000	62.256560
1140.000000	62.271856
1139.000000	62.296497
1138.000000	62.353677
1137.000000	62.392732
1136.000000	62.425519
1135.000000	62.461850
1134.000000	62.497386
1133.000000	62.525637
1132.000000	62.537857
1131.000000	62.560605
1130.000000	62.588094
1129.000000	62.595571
1128.000000	62.614993
1127.000000	62.635106
1126.000000	62.649939
1125.000000	62.667382
1124.000000	62.692281
1123.000000	62.704655
1122.000000	62.718140
1121.000000	62.724978
1120.000000	62.734838
1119.000000	62.756878
1118.000000	62.777241
1117.000000	62.768888
1116.000000	62.772459
1115.000000	62.792499
1114.000000	62.798785
1113.000000	62.804477
1112.000000	62.801971
1111.000000	62.785036
1110.000000	62.772374
1109.000000	62.781843
1108.000000	62.802603
1107.000000	62.800093
1106.000000	62.808209
1105.000000	62.808865
1104.000000	62.813538
1103.000000	62.815348
1102.000000	62.824714
1101.000000	62.823320
1100.000000	62.824020
1099.000000	62.795048
1098.000000	62.814923
1097.000000	62.813043
1096.000000	62.805928
1095.000000	62.820038
1094.000000	62.825934
1093.000000	62.833426
1092.000000	62.832218
1091.000000	62.805653
1090.000000	62.803895
1089.000000	62.816768
1088.000000	62.797083
1087.000000	62.801503
1086.000000	62.812047
1085.000000	62.802029
1084.000000	62.794010
1083.000000	62.784006
1082.000000	62.787449
1081.000000	62.797949
1080.000000	62.789293
1079.000000	62.793533
1078.000000	62.788491
1077.000000	62.755684
1076.000000	62.767776
1075.000000	62.770308
1074.000000	62.764916
1073.000000	62.766782
1072.000000	62.762751
1071.000000	62.755255
1070.000000	62.717309
1069.000000	62.711618
1068.000000	62.722843
1067.000000	62.739527
1066.000000	62.718895
1065.000000	62.727687
1064.000000	62.716665
1063.000000	62.677606
1062.000000	62.679018
1061.000000	62.682034
1060.000000	62.690515
1059.000000	62.691977
1058.000000	62.675348
1057.000000	62.651663
1056.000000	62.642462
1055.000000	62.638261
1054.000000	62.635761
1053.000000	62.656446
1052.000000	62.619919
1051.000000	62.601555
1050.000000	62.609458
1049.000000	62.603303
1048.000000	62.607931
1047.000000	62.608689
1046.000000	62.583116
1045.000000	62.577787
1044.000000	62.595827
1043.000000	62.581635
1042.000000	62.545490
1041.000000	62.538805
1040.000000	62.559036
1039.000000	62.550329
1038.000000	62.532286
1037.000000	62.519241
1036.000000	62.516863
1035.000000	62.545234
1034.000000	62.495467
1033.000000	62.539467
1032.000000	62.528723
1031.000000	62.532843
1030.000000	62.525162
1029.000000	62.502736
1028.000000	62.506158
1027.000000	62.518838
1026.000000	62.509220
1025.000000	62.504534
1024.000000	62.529050
1023.000000	62.516951
1022.000000	62.494601
1021.000000	62.498458
1020.000000	62.508540
1019.000000	62.486924
1018.000000	62.491331
1017.000000	62.492654
1016.000000	62.488585
1015.000000	62.496311
1014.000000	62.513103
1013.000000	62.500134
1012.000000	62.522211
1011.000000	62.526289
1010.000000	62.527358
1009.000000	62.523762
1008.000000	62.514441
1007.000000	62.521380
1006.000000	62.530200
1005.000000	62.558859
1004.000000	62.562199
1003.000000	62.554682
1002.000000	62.552889
1001.000000	62.544729
1000.000000	62.551456
999.000000	62.577571
998.000000	62.583466
997.000000	62.592066
996.000000	62.617721
995.000000	62.603956
994.000000	62.596466
993.000000	62.624432
992.000000	62.635974
991.000000	62.639475
990.000000	62.651677
989.000000	62.644902
988.000000	62.660980
987.000000	62.666395
986.000000	62.678801
985.000000	62.672000
984.000000	62.697130
983.000000	62.707003
982.000000	62.702166
981.000000	62.708652
980.000000	62.723329
979.000000	62.718229
978.000000	62.727897
977.000000	62.742612
976.000000	62.725105
975.000000	62.727322
974.000000	62.758627
973.000000	62.779210
972.000000	62.765229
971.000000	62.758574
970.000000	62.782574
969.000000	62.784718
968.000000	62.810257
967.000000	62.810917
966.000000	62.810693
965.000000	62.811398
964.000000	62.799288
963.000000	62.804547
962.000000	62.807923
961.000000	62.807580
960.000000	62.829403
959.000000	62.844098
958.000000	62.843559
957.000000	62.848517
956.000000	62.860507
955.000000	62.871711
954.000000	62.879922
953.000000	62.875582
952.000000	62.860703
951.000000	62.864789
950.000000	62.879616
949.000000	62.901959
948.000000	62.901686
947.000000	62.888465
946.000000	62.903920
945.000000	62.888269
944.000000	62.887350
943.000000	62.906838
942.000000	62.904862
941.000000	62.911047
940.000000	62.914710
939.000000	62.934879
938.000000	62.938176
937.000000	62.923325
936.000000	62.937953
935.000000	62.945062
934.000000	62.937250
933.000000	62.932179
932.000000	62.928284
931.000000	62.935803
930.000000	62.924273
929.000000	62.923395
928.000000	62.925688
927.000000	62.914205
926.000000	62.907594
925.000000	62.901622
924.000000	62.899931
923.000000	62.898853
922.000000	62.904565
921.000000	62.913797
920.000000	62.899796
919.000000	62.867098
918.000000	62.888496
917.000000	62.915041
916.000000	62.912579
915.000000	62.879657
914.000000	62.895967
913.000000	62.908451
912.000000	62.892448
911.000000	62.894186
910.000000	62.896468
909.000000	62.904845
908.000000	62.909107
907.000000	62.930762
906.000000	62.961929
905.000000	62.973235
904.000000	62.921478
903.000000	62.899407
902.000000	62.921998
901.000000	62.969289
900.000000	62.967593
899.000000	62.966406
898.000000	62.991064
897.000000	62.963950
896.000000	62.993558
895.000000	63.000940
894.000000	62.983666
893.000000	62.992286
892.000000	62.989838
891.000000	63.014760
890.000000	63.079183
889.000000	63.098001
888.000000	63.054857
887.000000	62.975263
886.000000	63.001232
885.000000	62.993508
884.000000	63.082494
883.000000	63.057915
882.000000	63.107947
881.000000	63.097144
880.000000	63.083353
879.000000	63.084948
878.000000	63.105260
877.000000	63.092049
876.000000	63.139429
875.000000	63.085331
874.000000	63.120177
873.000000	63.091046
872.000000	63.045608
871.000000	63.128383
870.000000	63.147386
869.000000	63.106080
868.000000	63.177717
867.000000	63.143098
866.000000	63.193378
865.000000	63.069949
864.000000	63.156803
863.000000	63.181810
862.000000	63.103923
861.000000	63.068478
860.000000	63.083332
859.000000	62.617109
858.000000	62.982677
857.000000	62.867030
856.000000	63.067783
855.000000	63.190532
854.000000	63.209103
853.000000	63.091589
852.000000	62.978435
851.000000	63.008884
850.000000	63.001972
849.000000	63.262423
848.000000	63.136229
847.000000	63.025567
846.000000	63.037380
845.000000	63.060342
844.000000	62.974369
843.000000	63.137527
842.000000	62.778585
841.000000	63.023539
840.000000	63.246431
839.000000	63.169511
838.000000	63.141174
837.000000	63.091760
836.000000	63.084538
835.000000	63.023900
834.000000	63.147468
833.000000	62.996356
832.000000	63.046543
831.000000	62.881385
830.000000	63.154619
829.000000	63.067564
828.000000	62.882844
827.000000	63.092621
826.000000	63.041745
825.000000	62.829036
824.000000	63.123008
823.000000	62.926132
822.000000	62.969637
821.000000	62.924538
820.000000	63.039589
819.000000	63.138817
818.000000	63.071683
817.000000	63.006302
816.000000	63.030267
815.000000	63.030870
814.000000	63.055240
813.000000	62.931088
812.000000	63.154805
811.000000	63.038379
810.000000	63.104221
809.000000	63.034901
808.000000	62.997107
807.000000	63.042686
806.000000	62.987031
805.000000	63.129997
804.000000	62.939670
803.000000	63.025752
802.000000	62.960153
801.000000	63.024120
800.000000	63.042821
799.000000	63.134505
798.000000	63.033527
797.000000	62.905771
796.000000	62.918571
795.000000	62.960790
794.000000	63.006685
793.000000	63.131425
792.000000	63.178834
791.000000	62.982968
790.000000	62.947350
789.000000	63.066136
788.000000	63.174257
787.000000	63.116845
786.000000	63.100835
785.000000	63.127161
784.000000	62.989549
783.000000	63.034055
782.000000	63.094853
781.000000	63.129673
780.000000	63.075579
779.000000	63.104740
778.000000	63.109495
777.000000	63.240539
776.000000	63.163320
775.000000	63.085894
774.000000	63.048892
773.000000	63.076098
772.000000	63.072342
771.000000	63.036066
770.000000	63.061800
769.000000	63.111041
768.000000	63.154871
767.000000	63.146809
766.000000	63.109361
765.000000	63.104926
764.000000	63.123022
763.000000	63.091493
762.000000	63.077017
761.000000	63.008541
760.000000	63.004922
759.000000	63.103260
758.000000	63.096103
757.000000	62.984287
756.000000	63.014705
755.000000	63.006890
754.000000	63.028808
753.000000	63.019314
752.000000	63.053819
751.000000	63.109800
750.000000	62.995008
749.000000	62.983092
748.000000	62.998099
747.000000	63.076729
746.000000	63.024094
745.000000	63.066801
744.000000	63.065747
743.000000	63.018160
742.000000	63.021087
741.000000	63.049655
740.000000	63.069568
739.000000	63.056125
738.000000	63.048324
737.000000	63.036066
736.000000	63.085378
735.000000	63.090281
734.000000	63.032370
733.000000	63.016421
732.000000	62.975866
731.000000	63.012994
730.000000	63.026615
729.000000	62.993519
728.000000	62.988183
727.000000	62.961095
726.000000	62.959587
725.000000	62.926237
724.000000	62.916687
723.000000	62.973450
722.000000	63.017694
721.000000	63.010652
720.000000	63.068378
719.000000	63.049315
718.000000	63.035117
717.000000	63.038105
716.000000	63.052276
715.000000	63.096266
714.000000	63.127571
713.000000	63.106974
712.000000	63.056545
711.000000	63.044591
710.000000	63.056128
709.000000	63.045672
708.000000	63.039579
707.000000	63.019279
706.000000	62.994551
705.000000	62.967888
704.000000	62.951992
703.000000	63.013276
702.000000	63.006251
701.000000	62.997104
700.000000	63.061336
699.000000	63.014490
698.000000	63.038516
697.000000	63.097631
696.000000	63.064109
695.000000	63.054252
694.000000	63.002687
693.000000	62.965516
692.000000	63.042446
691.000000	63.084830
690.000000	63.058672
689.000000	63.019576
688.000000	62.985149
687.000000	62.969749
686.000000	62.967359
685.000000	62.945819
684.000000	62.949776
683.000000	63.032257
682.000000	63.006261
681.000000	62.978452
680.000000	62.981033
679.000000	62.985353
678.000000	63.069131
677.000000	63.134278
676.000000	63.090787
675.000000	63.043636
674.000000	63.045821
673.000000	63.069915
672.000000	63.021211
671.000000	63.016446
670.000000	62.969957
669.000000	63.002719
668.000000	63.015262
667.000000	63.015956
666.000000	63.047815
665.000000	63.058060
664.000000	62.999267
663.000000	62.964428
662.000000	63.000936
661.000000	63.066675
660.000000	63.095487
659.000000	63.049536
658.000000	63.033474
657.000000	63.118170
656.000000	63.108273
655.000000	63.121963
654.000000	63.066672
653.000000	63.027742
652.000000	63.082981
651.000000	63.108247
650.000000	63.134064
649.000000	63.094841
648.000000	63.104871
647.000000	63.064038
646.000000	63.077029
645.000000	63.130320
644.000000	63.112820
643.000000	63.095840
642.000000	63.082465
641.000000	63.106433
640.000000	63.061221
639.000000	63.091660
638.000000	63.102403
637.000000	63.074448
636.000000	63.080655
635.000000	63.105063
634.000000	63.120858
633.000000	63.082640
632.000000	63.077942
631.000000	63.099766
630.000000	63.083323
629.000000	63.087574
628.000000	63.097606
627.000000	63.087809
626.000000	63.133101
625.000000	63.136208
624.000000	63.085535
623.000000	63.100238
622.000000	63.061069
621.000000	63.070264
620.000000	63.072897
619.000000	63.053954
618.000000	63.104027
617.000000	63.084202
616.000000	63.065044
615.000000	63.074404
614.000000	63.035338
613.000000	63.129913
612.000000	63.159924
611.000000	63.132659
610.000000	63.084980
609.000000	63.116615
608.000000	63.058055
607.000000	63.130931
606.000000	63.100868
605.000000	63.073102
604.000000	63.051573
603.000000	63.043022
602.000000	63.054262
601.000000	63.084397
600.000000	63.108052
599.000000	63.051683
598.000000	63.057265
597.000000	63.072982
596.000000	63.034899
595.000000	63.070018
594.000000	63.074740
593.000000	63.040462
592.000000	63.012193
591.000000	63.042560
590.000000	63.065488
589.000000	63.027429
588.000000	63.079731
587.000000	63.050526
586.000000	63.037851
585.000000	62.991724
584.000000	63.000889
583.000000	62.939097
582.000000	62.982455
581.000000	62.986565
580.000000	62.965715
579.000000	62.950872
578.000000	63.017876
577.000000	62.969305
576.000000	63.025111
575.000000	62.964559
574.000000	62.916756
573.000000	62.979170
572.000000	62.958766
571.000000	62.927990
570.000000	62.931422
569.000000	62.919061
568.000000	62.879579
567.000000	62.904167
566.000000	62.847076
565.000000	62.871965
564.000000	62.913033
563.000000	62.898240
562.000000	62.863154
561.000000	62.847998
560.000000	62.790568
559.000000	62.801458
558.000000	62.813345
557.000000	62.784633
556.000000	62.785899
555.000000	62.802307
554.000000	62.770588
553.000000	62.784503
552.000000	62.779312
551.000000	62.818230
550.000000	62.772144
549.000000	62.701113
548.000000	62.712832
547.000000	62.730517
546.000000	62.726808
545.000000	62.736086
544.000000	62.688945
543.000000	62.672989
542.000000	62.645182
541.000000	62.668529
540.000000	62.579336
539.000000	62.610811
538.000000	62.619308
537.000000	62.568199
536.000000	62.559424
535.000000	62.497516
534.000000	62.532397
533.000000	62.514964
532.000000	62.537967
531.000000	62.480229
530.000000	62.488478
529.000000	62.520164
528.000000	62.448580
527.000000	62.443669
526.000000	62.413764
525.000000	62.419135
524.000000	62.344606
523.000000	62.344198
522.000000	62.365742
521.000000	62.374127
520.000000	62.289960
519.000000	62.307320
518.000000	62.228542
517.000000	62.247490
516.000000	62.195827
515.000000	62.239198
514.000000	62.230954
513.000000	62.174281
512.000000	62.116427
511.000000	62.109242
510.000000	62.108880
509.000000	62.129234
508.000000	62.081565
507.000000	62.025590
506.000000	62.020056
505.000000	62.019816
504.000000	61.971429
503.000000	61.960637
502.000000	61.919912
501.000000	61.886224
500.000000	61.809026
499.000000	61.841864
498.000000	61.837398
497.000000	61.837540
496.000000	61.744495
495.000000	61.713035
494.000000	61.709979
493.000000	61.642481
492.000000	61.639428
491.000000	61.611005
490.000000	61.555615
489.000000	61.559628
488.000000	61.511478
487.000000	61.451426
486.000000	61.364705
485.000000	61.298407
484.000000	61.368065
483.000000	61.440583
482.000000	61.400940
481.000000	61.338084
480.000000	61.274072
479.000000	61.253458
478.000000	61.230763
477.000000	61.186925
476.000000	61.151418
475.000000	61.084499
474.000000	61.026727
473.000000	60.996094
472.000000	60.956662
471.000000	60.921474
470.000000	60.858470
469.000000	60.829607
468.000000	60.776607
467.000000	60.734493
466.000000	60.675433
465.000000	60.570473
464.000000	60.535770
463.000000	60.519712
462.000000	60.428667
461.000000	60.366657
460.000000	60.303180
459.000000	60.245184
458.000000	60.213236
457.000000	60.153157
456.000000	60.063268
455.000000	59.964641
454.000000	59.926962
453.000000	59.923646
452.000000	59.855068
451.000000	59.732312
450.000000	59.643836
449.000000	59.547614
448.000000	59.504948
447.000000	59.456818
446.000000	59.358977
445.000000	59.210268
444.000000	59.148405
443.000000	59.097902
442.000000	59.022018
441.000000	58.923947
440.000000	58.826314
439.000000	58.766297
438.000000	58.674028
437.000000	58.545923
436.000000	58.443457
435.000000	58.332803
434.000000	58.269100
433.000000	58.171475
432.000000	58.100494
431.000000	58.059812
430.000000	57.954165
429.000000	57.836912
428.000000	57.733597
427.000000	57.592780
426.000000	57.487613
425.000000	57.449714
424.000000	57.363820
423.000000	57.190810
422.000000	57.074940
421.000000	56.966507
420.000000	56.917174
419.000000	56.753235
418.000000	56.616412
417.000000	56.514881
416.000000	56.443290
415.000000	56.230124
414.000000	56.149021
413.000000	56.047115
412.000000	55.879471
411.000000	55.743954
410.000000	55.647387
409.000000	55.453306
408.000000	55.266105
407.000000	55.176183
406.000000	55.081730
405.000000	54.903980
404.000000	54.746151
403.000000	54.630729
402.000000	54.560753
401.000000	54.424252
400.000000	54.265333
399.000000	54.145244
398.000000	53.902613
397.000000	53.838011
396.000000	53.655310
395.000000	53.462100
394.000000	53.313782
393.000000	53.161571
392.000000	53.084296
391.000000	52.915792
390.000000	52.793435
389.000000	52.571505
388.000000	52.394259
387.000000	52.201385
386.000000	52.016756
385.000000	51.859445
384.000000	51.645376
383.000000	51.553710
382.000000	51.283899
381.000000	51.131153
380.000000	50.974472
379.000000	50.805564
378.000000	50.544501
377.000000	50.407701
376.000000	50.318704
375.000000	49.927510
374.000000	49.822028
373.000000	49.736032
372.000000	49.484072
371.000000	49.335083
370.000000	49.128987
369.000000	48.667261
368.000000	48.435994
367.000000	48.312998
366.000000	48.042027
365.000000	47.841440
364.000000	47.622244
363.000000	47.414060
362.000000	47.183704
361.000000	46.897801
360.000000	46.729707
359.000000	46.335894
358.000000	46.215086
357.000000	46.011575
356.000000	45.832449
355.000000	45.491663
354.000000	45.363931
353.000000	45.016274
352.000000	44.927437
351.000000	44.597002
350.000000	44.375899
349.000000	44.107076
348.000000	43.938591
347.000000	43.777815
346.000000	43.357844
345.000000	43.028831
344.000000	43.073844
343.000000	42.846687
342.000000	42.615679
341.000000	42.499116
340.000000	42.301321
339.000000	41.792693
338.000000	41.674209
337.000000	41.389997
336.000000	41.212980
335.000000	40.701137
334.000000	40.577971
333.000000	40.438176
332.000000	40.150085
331.000000	39.917632
330.000000	39.610584
329.000000	39.440699
328.000000	38.978041
327.000000	38.873523
326.000000	38.469621
325.000000	38.210439
324.000000	38.043754
323.000000	37.558368
322.000000	37.199599
321.000000	37.221498
320.000000	36.588326
319.000000	36.649629
318.000000	35.986456
317.000000	35.689428
316.000000	35.417789
315.000000	35.147968
314.000000	34.908713
313.000000	34.493807
312.000000	34.096210
311.000000	33.801587
310.000000	33.406122
309.000000	33.121652
308.000000	32.774027
307.000000	32.509866
306.000000	32.064655
305.000000	31.771780
304.000000	31.458171
303.000000	30.873043
302.000000	30.390798
301.000000	29.900232
300.000000	29.463779
299.000000	28.815266
298.000000	28.067033
297.000000	27.378979
296.000000	26.584901
295.000000	25.581480
294.000000	24.679491
293.000000	23.555166
292.000000	22.322448
291.000000	21.090489
290.000000	20.038994
289.000000	19.128981
288.000000	18.372631
287.000000	17.719956
286.000000	17.186911
285.000000	16.843117
284.000000	16.580387
283.000000	16.454587
282.000000	16.256547
281.000000	16.061166
280.000000	15.996028
279.000000	15.926600
278.000000	15.896230
277.000000	15.839326
276.000000	15.901944
275.000000	15.975602
274.000000	16.028093
273.000000	16.068869
272.000000	16.115776
271.000000	16.129084
270.000000	16.162673
269.000000	16.180466
268.000000	16.298542
267.000000	16.360314
266.000000	16.541234
265.000000	16.661937
264.000000	16.818196
263.000000	16.995957
262.000000	17.120265
261.000000	17.221063
260.000000	17.431302
259.000000	17.671599
258.000000	17.926255
257.000000	18.106043
256.000000	18.320775
255.000000	18.489280
254.000000	18.611553
253.000000	18.662663
252.000000	18.798572
251.000000	18.884329
250.000000	18.799637
249.000000	18.671269
248.000000	18.445933
247.000000	18.139086
246.000000	17.743615
245.000000	17.379336
244.000000	17.029467
243.000000	16.624307
242.000000	16.315912
241.000000	16.069853
240.000000	15.895992
239.000000	15.810692
238.000000	15.821758
237.000000	15.939538
236.000000	16.080757
235.000000	16.229375
234.000000	16.355082
233.000000	16.496367
232.000000	16.668962
231.000000	16.732046
230.000000	16.759699
229.000000	16.804790
228.000000	16.890404
227.000000	16.989250
226.000000	17.152806
225.000000	17.304065
224.000000	17.411419
223.000000	17.596078
222.000000	17.818249
221.000000	18.050686
220.000000	18.284046
219.000000	18.486015
218.000000	18.715010
217.000000	18.984003
216.000000	19.201833
215.000000	19.472531
214.000000	19.825090
213.000000	20.249906
212.000000	20.634231
211.000000	21.027729
210.000000	21.436564
209.000000	21.767212
208.000000	22.164367
207.000000	22.592228
206.000000	23.019156
205.000000	23.446996
204.000000	24.082215
203.000000	24.570946
202.000000	24.805310
201.000000	25.217956
200.000000	25.771503
