PE UV       SUBTECH     SPECTRUM    ASCII       PEDS        4.00        
   -1
RTVeauAl 62.Sample.asc
18/03/02
15:07:00.00
18/03/02
15:07:00.00
Administrator

200.000000
1
Lambda 750
750N8071901
PerkinElmer UV WinLab 6.0.4.0738 / 1.61.00 Lambda 900

0
0
3350/servo 860.8/2
0
0
UV/VIS
1
1
1
CommonBeamDepol,150mm sphere / downward view
0
0
0
0
Program
Program
3350/servo 860.8/2
3350/0.2 860.8/0.2
3350/0.2 860.8/0.2
0
1
 
 
 
0
 
860.8
319.2
860.8
Front
100
on
 
 
0
0
0
 
0
 
 
 
0
 
 
0
0
0
0
0
 
 
 
 
0
0


0
0
#HDR
-1
-1
#GR
nm
%R
1.0
0.0
2350.000000
-1.000000
2151
8
65.573605
15.819039
#DATA
2350.000000	30.064563
2349.000000	29.845583
2348.000000	29.989336
2347.000000	30.622948
2346.000000	29.998377
2345.000000	30.084958
2344.000000	30.132853
2343.000000	29.618093
2342.000000	30.267943
2341.000000	29.808831
2340.000000	30.133671
2339.000000	30.190288
2338.000000	30.346547
2337.000000	30.136748
2336.000000	30.565839
2335.000000	30.494862
2334.000000	30.528821
2333.000000	30.674747
2332.000000	30.766253
2331.000000	30.591180
2330.000000	30.205645
2329.000000	30.679383
2328.000000	30.484784
2327.000000	30.369732
2326.000000	30.541714
2325.000000	30.364195
2324.000000	30.317072
2323.000000	30.247446
2322.000000	29.965693
2321.000000	30.104011
2320.000000	30.216328
2319.000000	30.179199
2318.000000	30.195547
2317.000000	30.142867
2316.000000	30.162429
2315.000000	30.192990
2314.000000	29.855450
2313.000000	29.564040
2312.000000	29.669042
2311.000000	29.686237
2310.000000	29.594388
2309.000000	29.543377
2308.000000	29.599715
2307.000000	29.405839
2306.000000	29.385577
2305.000000	29.442929
2304.000000	29.233660
2303.000000	29.093015
2302.000000	29.183227
2301.000000	29.011467
2300.000000	29.012621
2299.000000	28.873694
2298.000000	28.705893
2297.000000	28.729226
2296.000000	28.651964
2295.000000	28.540396
2294.000000	28.545759
2293.000000	28.441340
2292.000000	28.243280
2291.000000	28.204310
2290.000000	28.191452
2289.000000	28.165455
2288.000000	28.212236
2287.000000	28.237720
2286.000000	28.021734
2285.000000	27.888271
2284.000000	27.963534
2283.000000	27.964873
2282.000000	27.817895
2281.000000	28.076703
2280.000000	28.033841
2279.000000	27.922220
2278.000000	27.873794
2277.000000	27.931372
2276.000000	27.951504
2275.000000	27.976635
2274.000000	28.080484
2273.000000	28.201957
2272.000000	28.260729
2271.000000	28.202300
2270.000000	28.161800
2269.000000	28.245391
2268.000000	28.247486
2267.000000	28.316145
2266.000000	28.389635
2265.000000	28.617726
2264.000000	28.672712
2263.000000	28.682833
2262.000000	28.761595
2261.000000	28.941854
2260.000000	29.177582
2259.000000	29.218578
2258.000000	29.383866
2257.000000	29.536120
2256.000000	29.628784
2255.000000	29.757086
2254.000000	29.865571
2253.000000	30.033599
2252.000000	30.306254
2251.000000	30.460243
2250.000000	30.634731
2249.000000	30.866184
2248.000000	30.909963
2247.000000	31.138255
2246.000000	31.478125
2245.000000	31.630909
2244.000000	31.847317
2243.000000	31.979292
2242.000000	31.971341
2241.000000	32.134713
2240.000000	32.354317
2239.000000	32.460565
2238.000000	32.656010
2237.000000	32.761957
2236.000000	32.817406
2235.000000	32.893782
2234.000000	32.918868
2233.000000	33.037427
2232.000000	33.095791
2231.000000	33.185093
2230.000000	33.148597
2229.000000	33.147868
2228.000000	33.319057
2227.000000	33.327706
2226.000000	33.295873
2225.000000	33.261944
2224.000000	33.135829
2223.000000	33.091028
2222.000000	33.109153
2221.000000	33.111049
2220.000000	33.188280
2219.000000	33.228784
2218.000000	33.149122
2217.000000	33.165355
2216.000000	33.191295
2215.000000	33.235774
2214.000000	33.102467
2213.000000	32.965195
2212.000000	32.929041
2211.000000	32.910210
2210.000000	32.864187
2209.000000	32.769222
2208.000000	32.644307
2207.000000	32.643632
2206.000000	32.665501
2205.000000	32.457926
2204.000000	32.309641
2203.000000	32.284446
2202.000000	32.255752
2201.000000	32.314964
2200.000000	32.174066
2199.000000	32.024294
2198.000000	32.145144
2197.000000	32.156382
2196.000000	31.970783
2195.000000	31.829378
2194.000000	31.698589
2193.000000	31.705878
2192.000000	31.695033
2191.000000	31.611503
2190.000000	31.542592
2189.000000	31.366559
2188.000000	31.322928
2187.000000	31.432355
2186.000000	31.309165
2185.000000	31.219043
2184.000000	31.175215
2183.000000	31.308746
2182.000000	31.293467
2181.000000	31.104532
2180.000000	31.046857
2179.000000	31.066940
2178.000000	31.126190
2177.000000	31.144342
2176.000000	31.068115
2175.000000	31.267522
2174.000000	31.297042
2173.000000	31.259708
2172.000000	31.269138
2171.000000	31.278177
2170.000000	31.385135
2169.000000	31.322807
2168.000000	31.460487
2167.000000	31.489366
2166.000000	31.518674
2165.000000	31.766967
2164.000000	31.804260
2163.000000	31.885718
2162.000000	32.038974
2161.000000	31.990408
2160.000000	32.175853
2159.000000	32.468468
2158.000000	32.389980
2157.000000	32.642783
2156.000000	32.823341
2155.000000	32.903690
2154.000000	32.984254
2153.000000	33.257877
2152.000000	33.398731
2151.000000	33.528956
2150.000000	33.709298
2149.000000	33.659859
2148.000000	33.760821
2147.000000	34.045136
2146.000000	34.063847
2145.000000	34.222423
2144.000000	34.282259
2143.000000	34.405471
2142.000000	34.639750
2141.000000	35.036226
2140.000000	35.032033
2139.000000	35.019935
2138.000000	35.369148
2137.000000	35.387162
2136.000000	35.336681
2135.000000	35.499545
2134.000000	35.533701
2133.000000	35.654175
2132.000000	35.894908
2131.000000	35.836524
2130.000000	35.982275
2129.000000	35.995840
2128.000000	36.051514
2127.000000	36.223452
2126.000000	36.129557
2125.000000	36.252094
2124.000000	36.450030
2123.000000	36.504437
2122.000000	36.468182
2121.000000	36.439567
2120.000000	36.517446
2119.000000	36.572345
2118.000000	36.656215
2117.000000	36.738175
2116.000000	36.660915
2115.000000	36.730004
2114.000000	36.694671
2113.000000	36.649039
2112.000000	36.822353
2111.000000	36.807393
2110.000000	36.886562
2109.000000	36.983540
2108.000000	36.983665
2107.000000	37.073385
2106.000000	37.059729
2105.000000	36.983959
2104.000000	36.968604
2103.000000	37.065924
2102.000000	37.035831
2101.000000	36.997737
2100.000000	37.077919
2099.000000	37.068227
2098.000000	37.073433
2097.000000	37.173958
2096.000000	37.135872
2095.000000	37.093230
2094.000000	37.091086
2093.000000	37.045091
2092.000000	37.182253
2091.000000	37.178189
2090.000000	37.087444
2089.000000	37.091597
2088.000000	37.095021
2087.000000	37.054948
2086.000000	37.078888
2085.000000	37.027849
2084.000000	36.899197
2083.000000	36.829055
2082.000000	36.851439
2081.000000	36.784571
2080.000000	36.827570
2079.000000	36.689224
2078.000000	36.588812
2077.000000	36.578587
2076.000000	36.414424
2075.000000	36.326123
2074.000000	36.237278
2073.000000	36.140789
2072.000000	36.074253
2071.000000	35.968900
2070.000000	35.937672
2069.000000	35.755879
2068.000000	35.605374
2067.000000	35.480170
2066.000000	35.368127
2065.000000	35.217018
2064.000000	35.126649
2063.000000	34.925901
2062.000000	34.764809
2061.000000	34.600865
2060.000000	34.479333
2059.000000	34.369172
2058.000000	34.253244
2057.000000	34.083979
2056.000000	33.960971
2055.000000	33.805379
2054.000000	33.660907
2053.000000	33.535682
2052.000000	33.421700
2051.000000	33.264524
2050.000000	33.172816
2049.000000	33.153778
2048.000000	33.044293
2047.000000	32.978297
2046.000000	32.874979
2045.000000	32.824239
2044.000000	32.816580
2043.000000	32.771944
2042.000000	32.763984
2041.000000	32.781328
2040.000000	32.811778
2039.000000	32.816001
2038.000000	32.859278
2037.000000	32.910658
2036.000000	32.958351
2035.000000	33.063348
2034.000000	33.180406
2033.000000	33.298864
2032.000000	33.428283
2031.000000	33.531924
2030.000000	33.647652
2029.000000	33.783429
2028.000000	33.931755
2027.000000	34.082533
2026.000000	34.202754
2025.000000	34.297546
2024.000000	34.389049
2023.000000	34.490860
2022.000000	34.627506
2021.000000	34.722479
2020.000000	34.796815
2019.000000	34.862453
2018.000000	34.921398
2017.000000	34.961023
2016.000000	34.975982
2015.000000	35.000951
2014.000000	35.046389
2013.000000	35.055558
2012.000000	35.033808
2011.000000	35.050292
2010.000000	35.041779
2009.000000	34.994489
2008.000000	34.966355
2007.000000	34.959655
2006.000000	34.894308
2005.000000	34.854220
2004.000000	34.760945
2003.000000	34.720324
2002.000000	34.645452
2001.000000	34.568808
2000.000000	34.524324
1999.000000	34.448612
1998.000000	34.364182
1997.000000	34.270318
1996.000000	34.199815
1995.000000	34.117458
1994.000000	34.001369
1993.000000	33.902584
1992.000000	33.811823
1991.000000	33.747172
1990.000000	33.687044
1989.000000	33.554667
1988.000000	33.458641
1987.000000	33.398851
1986.000000	33.281471
1985.000000	33.231007
1984.000000	33.206884
1983.000000	33.082154
1982.000000	32.999913
1981.000000	32.921855
1980.000000	32.790868
1979.000000	32.685155
1978.000000	32.609954
1977.000000	32.513300
1976.000000	32.431992
1975.000000	32.370086
1974.000000	32.297811
1973.000000	32.224426
1972.000000	32.176228
1971.000000	32.067827
1970.000000	32.023726
1969.000000	31.906204
1968.000000	31.838425
1967.000000	31.729321
1966.000000	31.670244
1965.000000	31.588412
1964.000000	31.470668
1963.000000	31.427161
1962.000000	31.321305
1961.000000	31.281438
1960.000000	31.206353
1959.000000	31.124749
1958.000000	31.033075
1957.000000	30.993419
1956.000000	30.940771
1955.000000	30.878984
1954.000000	30.786878
1953.000000	30.736729
1952.000000	30.695425
1951.000000	30.632201
1950.000000	30.557403
1949.000000	30.504528
1948.000000	30.519422
1947.000000	30.446168
1946.000000	30.475384
1945.000000	30.417559
1944.000000	30.413396
1943.000000	30.503133
1942.000000	30.534561
1941.000000	30.460299
1940.000000	30.524213
1939.000000	30.577935
1938.000000	30.618162
1937.000000	30.770500
1936.000000	30.785257
1935.000000	30.829457
1934.000000	30.926104
1933.000000	31.104522
1932.000000	31.146680
1931.000000	31.322567
1930.000000	31.457194
1929.000000	31.634328
1928.000000	31.872816
1927.000000	32.013620
1926.000000	32.195524
1925.000000	32.334053
1924.000000	32.615379
1923.000000	32.759105
1922.000000	32.991559
1921.000000	33.299833
1920.000000	33.495413
1919.000000	33.816709
1918.000000	34.135117
1917.000000	34.419165
1916.000000	34.584323
1915.000000	34.956297
1914.000000	35.317590
1913.000000	35.726006
1912.000000	36.062395
1911.000000	36.309659
1910.000000	36.720882
1909.000000	37.115528
1908.000000	37.396975
1907.000000	37.772361
1906.000000	38.189549
1905.000000	38.706596
1904.000000	39.136210
1903.000000	39.541221
1902.000000	40.029731
1901.000000	40.457595
1900.000000	40.919464
1899.000000	41.350862
1898.000000	41.865793
1897.000000	42.325555
1896.000000	42.755109
1895.000000	43.164773
1894.000000	43.603223
1893.000000	44.096133
1892.000000	44.512934
1891.000000	44.941424
1890.000000	45.396663
1889.000000	45.798003
1888.000000	46.216370
1887.000000	46.610621
1886.000000	46.964366
1885.000000	47.322958
1884.000000	47.669447
1883.000000	48.023049
1882.000000	48.330216
1881.000000	48.672967
1880.000000	48.976558
1879.000000	49.211357
1878.000000	49.506144
1877.000000	49.805181
1876.000000	50.055121
1875.000000	50.258528
1874.000000	50.480232
1873.000000	50.680701
1872.000000	50.912375
1871.000000	51.046569
1870.000000	51.176810
1869.000000	51.305383
1868.000000	51.507757
1867.000000	51.572070
1866.000000	51.624836
1865.000000	51.735638
1864.000000	51.834142
1863.000000	51.890614
1862.000000	51.963331
1861.000000	52.035599
1860.000000	52.111382
1859.000000	52.180656
1858.000000	52.171232
1857.000000	52.223817
1856.000000	52.295210
1855.000000	52.259434
1854.000000	52.321706
1853.000000	52.360210
1852.000000	52.336444
1851.000000	52.341786
1850.000000	52.342645
1849.000000	52.329015
1848.000000	52.336455
1847.000000	52.328948
1846.000000	52.314335
1845.000000	52.309992
1844.000000	52.270168
1843.000000	52.226587
1842.000000	52.230341
1841.000000	52.220749
1840.000000	52.182805
1839.000000	52.159981
1838.000000	52.126459
1837.000000	52.084218
1836.000000	52.037181
1835.000000	52.003123
1834.000000	51.960515
1833.000000	51.951164
1832.000000	51.926398
1831.000000	51.852148
1830.000000	51.800386
1829.000000	51.769665
1828.000000	51.716599
1827.000000	51.685981
1826.000000	51.666274
1825.000000	51.612511
1824.000000	51.592793
1823.000000	51.581829
1822.000000	51.532419
1821.000000	51.489244
1820.000000	51.451843
1819.000000	51.408202
1818.000000	51.391179
1817.000000	51.361641
1816.000000	51.304105
1815.000000	51.277569
1814.000000	51.252880
1813.000000	51.223563
1812.000000	51.191231
1811.000000	51.155681
1810.000000	51.128995
1809.000000	51.114598
1808.000000	51.080666
1807.000000	51.030637
1806.000000	51.000332
1805.000000	50.954897
1804.000000	50.908087
1803.000000	50.907006
1802.000000	50.884542
1801.000000	50.837084
1800.000000	50.818500
1799.000000	50.784491
1798.000000	50.747104
1797.000000	50.734884
1796.000000	50.714049
1795.000000	50.696718
1794.000000	50.684205
1793.000000	50.653447
1792.000000	50.623470
1791.000000	50.599414
1790.000000	50.553395
1789.000000	50.525961
1788.000000	50.524579
1787.000000	50.504090
1786.000000	50.453585
1785.000000	50.409505
1784.000000	50.376130
1783.000000	50.348918
1782.000000	50.315011
1781.000000	50.275710
1780.000000	50.226914
1779.000000	50.186259
1778.000000	50.154061
1777.000000	50.100350
1776.000000	50.055230
1775.000000	49.982857
1774.000000	49.899594
1773.000000	49.847926
1772.000000	49.803928
1771.000000	49.753746
1770.000000	49.677820
1769.000000	49.625103
1768.000000	49.567580
1767.000000	49.507079
1766.000000	49.444684
1765.000000	49.378695
1764.000000	49.329424
1763.000000	49.224115
1762.000000	49.192281
1761.000000	49.144713
1760.000000	49.070182
1759.000000	49.016569
1758.000000	48.971684
1757.000000	48.894488
1756.000000	48.845278
1755.000000	48.759182
1754.000000	48.696347
1753.000000	48.632333
1752.000000	48.600682
1751.000000	48.543924
1750.000000	48.444286
1749.000000	48.416724
1748.000000	48.339311
1747.000000	48.254642
1746.000000	48.184832
1745.000000	48.130588
1744.000000	48.061778
1743.000000	47.998272
1742.000000	47.944305
1741.000000	47.864466
1740.000000	47.803960
1739.000000	47.759800
1738.000000	47.714203
1737.000000	47.656561
1736.000000	47.637963
1735.000000	47.624150
1734.000000	47.584069
1733.000000	47.563675
1732.000000	47.547685
1731.000000	47.599004
1730.000000	47.596393
1729.000000	47.621095
1728.000000	47.686806
1727.000000	47.725166
1726.000000	47.782381
1725.000000	47.834754
1724.000000	47.903749
1723.000000	48.024017
1722.000000	48.092533
1721.000000	48.218018
1720.000000	48.312120
1719.000000	48.422168
1718.000000	48.513129
1717.000000	48.606014
1716.000000	48.690694
1715.000000	48.771051
1714.000000	48.858112
1713.000000	48.961161
1712.000000	49.043904
1711.000000	49.157281
1710.000000	49.183837
1709.000000	49.223940
1708.000000	49.302546
1707.000000	49.366385
1706.000000	49.378702
1705.000000	49.415166
1704.000000	49.446689
1703.000000	49.470227
1702.000000	49.483275
1701.000000	49.500983
1700.000000	49.526571
1699.000000	49.514290
1698.000000	49.570002
1697.000000	49.597377
1696.000000	49.645601
1695.000000	49.641871
1694.000000	49.708146
1693.000000	49.763088
1692.000000	49.804324
1691.000000	49.892725
1690.000000	49.973791
1689.000000	50.058748
1688.000000	50.158526
1687.000000	50.292104
1686.000000	50.418029
1685.000000	50.556736
1684.000000	50.723576
1683.000000	50.880618
1682.000000	51.061699
1681.000000	51.232252
1680.000000	51.393871
1679.000000	51.558643
1678.000000	51.782938
1677.000000	51.983212
1676.000000	52.144734
1675.000000	52.359342
1674.000000	52.558642
1673.000000	52.757785
1672.000000	52.901747
1671.000000	53.101822
1670.000000	53.289568
1669.000000	53.465124
1668.000000	53.599626
1667.000000	53.762176
1666.000000	53.854206
1665.000000	53.986018
1664.000000	54.106222
1663.000000	54.225301
1662.000000	54.299057
1661.000000	54.391160
1660.000000	54.453788
1659.000000	54.540960
1658.000000	54.607693
1657.000000	54.642937
1656.000000	54.702316
1655.000000	54.742089
1654.000000	54.786940
1653.000000	54.792258
1652.000000	54.833548
1651.000000	54.828346
1650.000000	54.841442
1649.000000	54.858226
1648.000000	54.841958
1647.000000	54.841943
1646.000000	54.836536
1645.000000	54.836294
1644.000000	54.808066
1643.000000	54.794397
1642.000000	54.784973
1641.000000	54.755421
1640.000000	54.742163
1639.000000	54.713489
1638.000000	54.663814
1637.000000	54.656044
1636.000000	54.616564
1635.000000	54.582451
1634.000000	54.553320
1633.000000	54.491990
1632.000000	54.461052
1631.000000	54.443847
1630.000000	54.401509
1629.000000	54.342912
1628.000000	54.306921
1627.000000	54.261936
1626.000000	54.230581
1625.000000	54.171554
1624.000000	54.120291
1623.000000	54.083572
1622.000000	54.040420
1621.000000	53.976070
1620.000000	53.933496
1619.000000	53.884166
1618.000000	53.817808
1617.000000	53.771633
1616.000000	53.722605
1615.000000	53.670294
1614.000000	53.625377
1613.000000	53.549621
1612.000000	53.487826
1611.000000	53.439362
1610.000000	53.383935
1609.000000	53.327566
1608.000000	53.267095
1607.000000	53.190735
1606.000000	53.111330
1605.000000	53.061836
1604.000000	53.004841
1603.000000	52.948624
1602.000000	52.892770
1601.000000	52.821043
1600.000000	52.750815
1599.000000	52.695285
1598.000000	52.628348
1597.000000	52.562979
1596.000000	52.509539
1595.000000	52.455908
1594.000000	52.400564
1593.000000	52.347725
1592.000000	52.291850
1591.000000	52.238594
1590.000000	52.179383
1589.000000	52.113705
1588.000000	52.075748
1587.000000	52.036691
1586.000000	51.971266
1585.000000	51.913944
1584.000000	51.869328
1583.000000	51.825725
1582.000000	51.781788
1581.000000	51.739205
1580.000000	51.693215
1579.000000	51.651316
1578.000000	51.605493
1577.000000	51.554295
1576.000000	51.507538
1575.000000	51.469115
1574.000000	51.432614
1573.000000	51.381196
1572.000000	51.339491
1571.000000	51.291545
1570.000000	51.250278
1569.000000	51.225416
1568.000000	51.177151
1567.000000	51.144887
1566.000000	51.117362
1565.000000	51.080183
1564.000000	51.034094
1563.000000	51.015778
1562.000000	51.005204
1561.000000	50.976979
1560.000000	50.951247
1559.000000	50.936875
1558.000000	50.918313
1557.000000	50.898674
1556.000000	50.870082
1555.000000	50.861471
1554.000000	50.844501
1553.000000	50.815936
1552.000000	50.804580
1551.000000	50.770285
1550.000000	50.744153
1549.000000	50.694983
1548.000000	50.663813
1547.000000	50.608436
1546.000000	50.565557
1545.000000	50.499987
1544.000000	50.428257
1543.000000	50.363159
1542.000000	50.294578
1541.000000	50.210774
1540.000000	50.138952
1539.000000	50.043737
1538.000000	49.932635
1537.000000	49.865789
1536.000000	49.775909
1535.000000	49.675906
1534.000000	49.572165
1533.000000	49.510216
1532.000000	49.410948
1531.000000	49.316275
1530.000000	49.212923
1529.000000	49.138216
1528.000000	49.065572
1527.000000	48.977141
1526.000000	48.907787
1525.000000	48.825344
1524.000000	48.756411
1523.000000	48.680622
1522.000000	48.648520
1521.000000	48.580034
1520.000000	48.537555
1519.000000	48.478461
1518.000000	48.439667
1517.000000	48.386744
1516.000000	48.312028
1515.000000	48.269410
1514.000000	48.255873
1513.000000	48.211550
1512.000000	48.182903
1511.000000	48.171686
1510.000000	48.159180
1509.000000	48.219304
1508.000000	48.217678
1507.000000	48.201893
1506.000000	48.152172
1505.000000	48.127480
1504.000000	48.122395
1503.000000	48.082643
1502.000000	48.069399
1501.000000	48.079279
1500.000000	48.068553
1499.000000	48.069412
1498.000000	48.085628
1497.000000	48.091071
1496.000000	48.114750
1495.000000	48.118221
1494.000000	48.162644
1493.000000	48.180693
1492.000000	48.233462
1491.000000	48.284305
1490.000000	48.343289
1489.000000	48.393524
1488.000000	48.424679
1487.000000	48.478660
1486.000000	48.546731
1485.000000	48.642594
1484.000000	48.724587
1483.000000	48.831985
1482.000000	48.903998
1481.000000	48.989593
1480.000000	49.072112
1479.000000	49.150690
1478.000000	49.231809
1477.000000	49.308325
1476.000000	49.408819
1475.000000	49.499431
1474.000000	49.584130
1473.000000	49.649045
1472.000000	49.723029
1471.000000	49.837534
1470.000000	49.951962
1469.000000	49.992460
1468.000000	50.068674
1467.000000	50.126407
1466.000000	50.192500
1465.000000	50.265095
1464.000000	50.348734
1463.000000	50.392936
1462.000000	50.437572
1461.000000	50.476764
1460.000000	50.559714
1459.000000	50.666322
1458.000000	50.699635
1457.000000	50.735338
1456.000000	50.805053
1455.000000	50.889771
1454.000000	50.952858
1453.000000	51.008763
1452.000000	51.056683
1451.000000	51.135271
1450.000000	51.224360
1449.000000	51.287844
1448.000000	51.361954
1447.000000	51.424278
1446.000000	51.487690
1445.000000	51.591149
1444.000000	51.677642
1443.000000	51.760188
1442.000000	51.837983
1441.000000	51.898985
1440.000000	51.969995
1439.000000	52.067414
1438.000000	52.178748
1437.000000	52.292953
1436.000000	52.365631
1435.000000	52.448170
1434.000000	52.556417
1433.000000	52.646735
1432.000000	52.765171
1431.000000	52.870324
1430.000000	52.983421
1429.000000	53.094744
1428.000000	53.220433
1427.000000	53.355896
1426.000000	53.493165
1425.000000	53.616394
1424.000000	53.764971
1423.000000	53.920877
1422.000000	54.035212
1421.000000	54.174457
1420.000000	54.332115
1419.000000	54.492610
1418.000000	54.656573
1417.000000	54.812586
1416.000000	54.979427
1415.000000	55.159104
1414.000000	55.344451
1413.000000	55.511150
1412.000000	55.675398
1411.000000	55.843836
1410.000000	56.022144
1409.000000	56.201487
1408.000000	56.373142
1407.000000	56.538445
1406.000000	56.705612
1405.000000	56.892546
1404.000000	57.056640
1403.000000	57.210931
1402.000000	57.383943
1401.000000	57.545676
1400.000000	57.688449
1399.000000	57.850271
1398.000000	58.000444
1397.000000	58.143242
1396.000000	58.287706
1395.000000	58.427437
1394.000000	58.569685
1393.000000	58.693010
1392.000000	58.822598
1391.000000	58.962786
1390.000000	59.074646
1389.000000	59.182772
1388.000000	59.309557
1387.000000	59.450057
1386.000000	59.584372
1385.000000	59.683234
1384.000000	59.763894
1383.000000	59.869146
1382.000000	59.969845
1381.000000	60.044690
1380.000000	60.133302
1379.000000	60.210682
1378.000000	60.263580
1377.000000	60.335227
1376.000000	60.415269
1375.000000	60.465822
1374.000000	60.527040
1373.000000	60.590382
1372.000000	60.639642
1371.000000	60.689761
1370.000000	60.743847
1369.000000	60.786671
1368.000000	60.816085
1367.000000	60.863039
1366.000000	60.920164
1365.000000	60.974080
1364.000000	61.024630
1363.000000	61.091530
1362.000000	61.165134
1361.000000	61.232185
1360.000000	61.278214
1359.000000	61.325282
1358.000000	61.381743
1357.000000	61.456071
1356.000000	61.512671
1355.000000	61.561721
1354.000000	61.646911
1353.000000	61.706242
1352.000000	61.770745
1351.000000	61.858999
1350.000000	61.923093
1349.000000	61.964962
1348.000000	62.020226
1347.000000	62.070620
1346.000000	62.136473
1345.000000	62.215041
1344.000000	62.266800
1343.000000	62.311453
1342.000000	62.373346
1341.000000	62.426940
1340.000000	62.494885
1339.000000	62.550542
1338.000000	62.579279
1337.000000	62.608700
1336.000000	62.650335
1335.000000	62.699961
1334.000000	62.737883
1333.000000	62.794181
1332.000000	62.840565
1331.000000	62.861387
1330.000000	62.889265
1329.000000	62.916416
1328.000000	62.932730
1327.000000	62.990625
1326.000000	63.018866
1325.000000	63.001214
1324.000000	63.009935
1323.000000	63.063541
1322.000000	63.082135
1321.000000	63.093834
1320.000000	63.109039
1319.000000	63.109453
1318.000000	63.119980
1317.000000	63.160792
1316.000000	63.172623
1315.000000	63.192035
1314.000000	63.201029
1313.000000	63.198002
1312.000000	63.192966
1311.000000	63.254278
1310.000000	63.270569
1309.000000	63.281017
1308.000000	63.292332
1307.000000	63.269872
1306.000000	63.283394
1305.000000	63.291578
1304.000000	63.327449
1303.000000	63.339288
1302.000000	63.329585
1301.000000	63.331690
1300.000000	63.342130
1299.000000	63.334923
1298.000000	63.338422
1297.000000	63.331303
1296.000000	63.329101
1295.000000	63.361730
1294.000000	63.360840
1293.000000	63.352435
1292.000000	63.335101
1291.000000	63.335195
1290.000000	63.336192
1289.000000	63.329404
1288.000000	63.337576
1287.000000	63.337616
1286.000000	63.328896
1285.000000	63.305102
1284.000000	63.311455
1283.000000	63.317017
1282.000000	63.273247
1281.000000	63.266953
1280.000000	63.278043
1279.000000	63.284164
1278.000000	63.290972
1277.000000	63.288871
1276.000000	63.276333
1275.000000	63.285890
1274.000000	63.285822
1273.000000	63.267265
1272.000000	63.283534
1271.000000	63.294137
1270.000000	63.292090
1269.000000	63.298621
1268.000000	63.311957
1267.000000	63.325941
1266.000000	63.315169
1265.000000	63.354583
1264.000000	63.376481
1263.000000	63.356309
1262.000000	63.354067
1261.000000	63.360633
1260.000000	63.373317
1259.000000	63.394178
1258.000000	63.442983
1257.000000	63.430464
1256.000000	63.449921
1255.000000	63.425720
1254.000000	63.444171
1253.000000	63.435205
1252.000000	63.441414
1251.000000	63.451775
1250.000000	63.464182
1249.000000	63.464958
1248.000000	63.449889
1247.000000	63.466382
1246.000000	63.451299
1245.000000	63.443028
1244.000000	63.388574
1243.000000	63.394619
1242.000000	63.391703
1241.000000	63.371802
1240.000000	63.353690
1239.000000	63.304493
1238.000000	63.307284
1237.000000	63.293491
1236.000000	63.248781
1235.000000	63.216680
1234.000000	63.211462
1233.000000	63.195551
1232.000000	63.163702
1231.000000	63.135504
1230.000000	63.121374
1229.000000	63.105917
1228.000000	63.084494
1227.000000	63.086534
1226.000000	63.032741
1225.000000	63.015928
1224.000000	63.010402
1223.000000	62.987638
1222.000000	62.986316
1221.000000	62.953769
1220.000000	62.930648
1219.000000	62.908036
1218.000000	62.906706
1217.000000	62.871367
1216.000000	62.839276
1215.000000	62.805779
1214.000000	62.779270
1213.000000	62.786121
1212.000000	62.725725
1211.000000	62.697307
1210.000000	62.660855
1209.000000	62.653444
1208.000000	62.604544
1207.000000	62.567194
1206.000000	62.553363
1205.000000	62.487266
1204.000000	62.449629
1203.000000	62.421031
1202.000000	62.390440
1201.000000	62.359760
1200.000000	62.326991
1199.000000	62.306099
1198.000000	62.264293
1197.000000	62.213837
1196.000000	62.176627
1195.000000	62.148309
1194.000000	62.119239
1193.000000	62.099587
1192.000000	62.087797
1191.000000	62.069059
1190.000000	62.043676
1189.000000	61.996835
1188.000000	61.986673
1187.000000	61.988582
1186.000000	61.982687
1185.000000	61.989839
1184.000000	61.983070
1183.000000	61.993084
1182.000000	62.012859
1181.000000	62.023055
1180.000000	62.046287
1179.000000	62.090733
1178.000000	62.130470
1177.000000	62.164131
1176.000000	62.190916
1175.000000	62.239852
1174.000000	62.300840
1173.000000	62.362164
1172.000000	62.419379
1171.000000	62.472816
1170.000000	62.536434
1169.000000	62.596587
1168.000000	62.654002
1167.000000	62.746140
1166.000000	62.828242
1165.000000	62.891750
1164.000000	62.972912
1163.000000	63.051873
1162.000000	63.118461
1161.000000	63.190388
1160.000000	63.255003
1159.000000	63.321516
1158.000000	63.407411
1157.000000	63.480876
1156.000000	63.536802
1155.000000	63.603020
1154.000000	63.657406
1153.000000	63.684232
1152.000000	63.738728
1151.000000	63.811333
1150.000000	63.867137
1149.000000	63.914800
1148.000000	63.960105
1147.000000	63.996770
1146.000000	64.040660
1145.000000	64.072916
1144.000000	64.112999
1143.000000	64.169378
1142.000000	64.219893
1141.000000	64.252437
1140.000000	64.289426
1139.000000	64.343969
1138.000000	64.379123
1137.000000	64.409879
1136.000000	64.453340
1135.000000	64.494680
1134.000000	64.544404
1133.000000	64.560852
1132.000000	64.576040
1131.000000	64.606269
1130.000000	64.633146
1129.000000	64.673112
1128.000000	64.703189
1127.000000	64.726531
1126.000000	64.752232
1125.000000	64.776556
1124.000000	64.801241
1123.000000	64.833813
1122.000000	64.847739
1121.000000	64.852459
1120.000000	64.870836
1119.000000	64.869033
1118.000000	64.869429
1117.000000	64.885944
1116.000000	64.886234
1115.000000	64.885925
1114.000000	64.907985
1113.000000	64.909901
1112.000000	64.918026
1111.000000	64.910661
1110.000000	64.913856
1109.000000	64.937030
1108.000000	64.954545
1107.000000	64.949361
1106.000000	64.947057
1105.000000	64.956498
1104.000000	64.968012
1103.000000	64.968693
1102.000000	64.966054
1101.000000	64.954452
1100.000000	64.948422
1099.000000	64.959392
1098.000000	64.963436
1097.000000	64.974064
1096.000000	64.969620
1095.000000	64.970717
1094.000000	64.975445
1093.000000	64.957216
1092.000000	64.956938
1091.000000	64.964215
1090.000000	64.970816
1089.000000	64.983337
1088.000000	64.958546
1087.000000	64.956108
1086.000000	64.950918
1085.000000	64.948888
1084.000000	64.950112
1083.000000	64.944672
1082.000000	64.962753
1081.000000	64.966690
1080.000000	64.960037
1079.000000	64.934072
1078.000000	64.939363
1077.000000	64.947449
1076.000000	64.948491
1075.000000	64.931288
1074.000000	64.947634
1073.000000	64.901133
1072.000000	64.897488
1071.000000	64.914111
1070.000000	64.903313
1069.000000	64.892445
1068.000000	64.903075
1067.000000	64.890339
1066.000000	64.878635
1065.000000	64.873692
1064.000000	64.847650
1063.000000	64.840097
1062.000000	64.853253
1061.000000	64.852835
1060.000000	64.840189
1059.000000	64.836820
1058.000000	64.844547
1057.000000	64.834358
1056.000000	64.812661
1055.000000	64.813873
1054.000000	64.801423
1053.000000	64.767385
1052.000000	64.779653
1051.000000	64.767906
1050.000000	64.772114
1049.000000	64.769104
1048.000000	64.756296
1047.000000	64.772010
1046.000000	64.737636
1045.000000	64.759875
1044.000000	64.743000
1043.000000	64.713997
1042.000000	64.704700
1041.000000	64.705691
1040.000000	64.700098
1039.000000	64.687478
1038.000000	64.687754
1037.000000	64.689705
1036.000000	64.686078
1035.000000	64.691011
1034.000000	64.698991
1033.000000	64.695258
1032.000000	64.700242
1031.000000	64.685077
1030.000000	64.681456
1029.000000	64.684537
1028.000000	64.695677
1027.000000	64.683801
1026.000000	64.695589
1025.000000	64.680382
1024.000000	64.689047
1023.000000	64.677117
1022.000000	64.683177
1021.000000	64.690129
1020.000000	64.677951
1019.000000	64.685235
1018.000000	64.681003
1017.000000	64.682632
1016.000000	64.698112
1015.000000	64.696552
1014.000000	64.705032
1013.000000	64.704222
1012.000000	64.707594
1011.000000	64.702742
1010.000000	64.728480
1009.000000	64.746331
1008.000000	64.742013
1007.000000	64.738714
1006.000000	64.727481
1005.000000	64.760030
1004.000000	64.760127
1003.000000	64.765299
1002.000000	64.780228
1001.000000	64.771437
1000.000000	64.782402
999.000000	64.783811
998.000000	64.802003
997.000000	64.805236
996.000000	64.831770
995.000000	64.835591
994.000000	64.836781
993.000000	64.865378
992.000000	64.875610
991.000000	64.879982
990.000000	64.877855
989.000000	64.874864
988.000000	64.884462
987.000000	64.891565
986.000000	64.911183
985.000000	64.919332
984.000000	64.920153
983.000000	64.937344
982.000000	64.940040
981.000000	64.962035
980.000000	64.972145
979.000000	64.972959
978.000000	64.968637
977.000000	64.984947
976.000000	64.987200
975.000000	64.991205
974.000000	65.003088
973.000000	65.004625
972.000000	65.018235
971.000000	65.016002
970.000000	65.021465
969.000000	65.040573
968.000000	65.060485
967.000000	65.063202
966.000000	65.070721
965.000000	65.091909
964.000000	65.084154
963.000000	65.071541
962.000000	65.076118
961.000000	65.086424
960.000000	65.113568
959.000000	65.130592
958.000000	65.129484
957.000000	65.138415
956.000000	65.158906
955.000000	65.169975
954.000000	65.161760
953.000000	65.159390
952.000000	65.165227
951.000000	65.178734
950.000000	65.187953
949.000000	65.193659
948.000000	65.174396
947.000000	65.184372
946.000000	65.208269
945.000000	65.196614
944.000000	65.208376
943.000000	65.219259
942.000000	65.220696
941.000000	65.230783
940.000000	65.231384
939.000000	65.250835
938.000000	65.248667
937.000000	65.217440
936.000000	65.222454
935.000000	65.254822
934.000000	65.253508
933.000000	65.231743
932.000000	65.218788
931.000000	65.232172
930.000000	65.241916
929.000000	65.238849
928.000000	65.269203
927.000000	65.246999
926.000000	65.220445
925.000000	65.198008
924.000000	65.181167
923.000000	65.206838
922.000000	65.225355
921.000000	65.229745
920.000000	65.213420
919.000000	65.204321
918.000000	65.207692
917.000000	65.208728
916.000000	65.224463
915.000000	65.205792
914.000000	65.188902
913.000000	65.178023
912.000000	65.211086
911.000000	65.222796
910.000000	65.219098
909.000000	65.208636
908.000000	65.215230
907.000000	65.251875
906.000000	65.240138
905.000000	65.246123
904.000000	65.231013
903.000000	65.211819
902.000000	65.277974
901.000000	65.274901
900.000000	65.228566
899.000000	65.270278
898.000000	65.274729
897.000000	65.275998
896.000000	65.350696
895.000000	65.349032
894.000000	65.316560
893.000000	65.365979
892.000000	65.332916
891.000000	65.330425
890.000000	65.385656
889.000000	65.400288
888.000000	65.393817
887.000000	65.355029
886.000000	65.391690
885.000000	65.348870
884.000000	65.400059
883.000000	65.393887
882.000000	65.443267
881.000000	65.404770
880.000000	65.410111
879.000000	65.483925
878.000000	65.501613
877.000000	65.390056
876.000000	65.350008
875.000000	65.445000
874.000000	65.491876
873.000000	65.487083
872.000000	65.494409
871.000000	65.491254
870.000000	65.447956
869.000000	65.451295
868.000000	65.485951
867.000000	65.478956
866.000000	65.528536
865.000000	65.520861
864.000000	65.476507
863.000000	65.513433
862.000000	65.461224
861.000000	65.477766
860.000000	65.460241
859.000000	65.025230
858.000000	65.202127
857.000000	65.139614
856.000000	65.382577
855.000000	65.104383
854.000000	65.379664
853.000000	65.394191
852.000000	64.871269
851.000000	65.024388
850.000000	65.294802
849.000000	65.273275
848.000000	65.185296
847.000000	65.192059
846.000000	64.969030
845.000000	65.227774
844.000000	65.382570
843.000000	65.111993
842.000000	65.087896
841.000000	65.132828
840.000000	65.251666
839.000000	65.218747
838.000000	65.285438
837.000000	65.324509
836.000000	65.222582
835.000000	65.022800
834.000000	65.024165
833.000000	65.042840
832.000000	65.083361
831.000000	64.962301
830.000000	65.219250
829.000000	65.103433
828.000000	65.015852
827.000000	65.106325
826.000000	64.981180
825.000000	65.155324
824.000000	65.156121
823.000000	65.186884
822.000000	65.065151
821.000000	65.017006
820.000000	65.253198
819.000000	65.284157
818.000000	65.163801
817.000000	65.073857
816.000000	65.182010
815.000000	65.107324
814.000000	65.118908
813.000000	65.260856
812.000000	65.212070
811.000000	65.084444
810.000000	65.142954
809.000000	65.122756
808.000000	65.160130
807.000000	65.078289
806.000000	65.106237
805.000000	65.115350
804.000000	65.158559
803.000000	65.331736
802.000000	65.160338
801.000000	65.090932
800.000000	65.142245
799.000000	65.310504
798.000000	65.051078
797.000000	64.926037
796.000000	65.075501
795.000000	65.068920
794.000000	64.977607
793.000000	65.190446
792.000000	65.235857
791.000000	65.299345
790.000000	65.117763
789.000000	65.325328
788.000000	65.287573
787.000000	65.284444
786.000000	65.158464
785.000000	65.271229
784.000000	65.176815
783.000000	65.199909
782.000000	65.150894
781.000000	65.248996
780.000000	65.202261
779.000000	65.213286
778.000000	65.253658
777.000000	65.313470
776.000000	65.193170
775.000000	65.252188
774.000000	65.303577
773.000000	65.212665
772.000000	65.197068
771.000000	65.131191
770.000000	65.172926
769.000000	65.217845
768.000000	65.244964
767.000000	65.307600
766.000000	65.283338
765.000000	65.208777
764.000000	65.245636
763.000000	65.216708
762.000000	65.239209
761.000000	65.144746
760.000000	65.255172
759.000000	65.321026
758.000000	65.194416
757.000000	65.200804
756.000000	65.196048
755.000000	65.151006
754.000000	65.230827
753.000000	65.217543
752.000000	65.102804
751.000000	65.181138
750.000000	65.263614
749.000000	65.262973
748.000000	65.192639
747.000000	65.230800
746.000000	65.238298
745.000000	65.209543
744.000000	65.189074
743.000000	65.167682
742.000000	65.179754
741.000000	65.267034
740.000000	65.306303
739.000000	65.254986
738.000000	65.237061
737.000000	65.170805
736.000000	65.214845
735.000000	65.265537
734.000000	65.237521
733.000000	65.297595
732.000000	65.218980
731.000000	65.248298
730.000000	65.207858
729.000000	65.160479
728.000000	65.176788
727.000000	65.160626
726.000000	65.188039
725.000000	65.189778
724.000000	65.212873
723.000000	65.194316
722.000000	65.244681
721.000000	65.228588
720.000000	65.191587
719.000000	65.244577
718.000000	65.297732
717.000000	65.304016
716.000000	65.277971
715.000000	65.261731
714.000000	65.267752
713.000000	65.255151
712.000000	65.249272
711.000000	65.290273
710.000000	65.299459
709.000000	65.279007
708.000000	65.267805
707.000000	65.226988
706.000000	65.217522
705.000000	65.252219
704.000000	65.266980
703.000000	65.296866
702.000000	65.279378
701.000000	65.289189
700.000000	65.323759
699.000000	65.276856
698.000000	65.288904
697.000000	65.322882
696.000000	65.309171
695.000000	65.338351
694.000000	65.324857
693.000000	65.326457
692.000000	65.340705
691.000000	65.337395
690.000000	65.307997
689.000000	65.254468
688.000000	65.282746
687.000000	65.266746
686.000000	65.273864
685.000000	65.262111
684.000000	65.240659
683.000000	65.273491
682.000000	65.277183
681.000000	65.283552
680.000000	65.268800
679.000000	65.306261
678.000000	65.337644
677.000000	65.338176
676.000000	65.333077
675.000000	65.368183
674.000000	65.332676
673.000000	65.337659
672.000000	65.340607
671.000000	65.347067
670.000000	65.295737
669.000000	65.340964
668.000000	65.315045
667.000000	65.345448
666.000000	65.357361
665.000000	65.381222
664.000000	65.358940
663.000000	65.314972
662.000000	65.312328
661.000000	65.365464
660.000000	65.384114
659.000000	65.370373
658.000000	65.396366
657.000000	65.389087
656.000000	65.403278
655.000000	65.400773
654.000000	65.383961
653.000000	65.332243
652.000000	65.375961
651.000000	65.410359
650.000000	65.426900
649.000000	65.400924
648.000000	65.424864
647.000000	65.430231
646.000000	65.417921
645.000000	65.463281
644.000000	65.461779
643.000000	65.449228
642.000000	65.453670
641.000000	65.434646
640.000000	65.422912
639.000000	65.498902
638.000000	65.475200
637.000000	65.467141
636.000000	65.461544
635.000000	65.451098
634.000000	65.448305
633.000000	65.422970
632.000000	65.462616
631.000000	65.472585
630.000000	65.447837
629.000000	65.492065
628.000000	65.511100
627.000000	65.460363
626.000000	65.527191
625.000000	65.503227
624.000000	65.456715
623.000000	65.459560
622.000000	65.484115
621.000000	65.507719
620.000000	65.484442
619.000000	65.482103
618.000000	65.573605
617.000000	65.531670
616.000000	65.502162
615.000000	65.483057
614.000000	65.497419
613.000000	65.531257
612.000000	65.514120
611.000000	65.511997
610.000000	65.493408
609.000000	65.521056
608.000000	65.476809
607.000000	65.543430
606.000000	65.516320
605.000000	65.490400
604.000000	65.496205
603.000000	65.475544
602.000000	65.529616
601.000000	65.543314
600.000000	65.563073
599.000000	65.469063
598.000000	65.464859
597.000000	65.528772
596.000000	65.481499
595.000000	65.523251
594.000000	65.480528
593.000000	65.536364
592.000000	65.466997
591.000000	65.515571
590.000000	65.504419
589.000000	65.493316
588.000000	65.544460
587.000000	65.543014
586.000000	65.543178
585.000000	65.472924
584.000000	65.506629
583.000000	65.453073
582.000000	65.480972
581.000000	65.503463
580.000000	65.473095
579.000000	65.461253
578.000000	65.516490
577.000000	65.460498
576.000000	65.527323
575.000000	65.483656
574.000000	65.473547
573.000000	65.498849
572.000000	65.495134
571.000000	65.379562
570.000000	65.433880
569.000000	65.450739
568.000000	65.413677
567.000000	65.449989
566.000000	65.421247
565.000000	65.411174
564.000000	65.421681
563.000000	65.412452
562.000000	65.399809
561.000000	65.381936
560.000000	65.348302
559.000000	65.384180
558.000000	65.339490
557.000000	65.384630
556.000000	65.400672
555.000000	65.360096
554.000000	65.328508
553.000000	65.332762
552.000000	65.355385
551.000000	65.403059
550.000000	65.334887
549.000000	65.276066
548.000000	65.293401
547.000000	65.342234
546.000000	65.324784
545.000000	65.351324
544.000000	65.324979
543.000000	65.245133
542.000000	65.237842
541.000000	65.286603
540.000000	65.185942
539.000000	65.221900
538.000000	65.276014
537.000000	65.237681
536.000000	65.227746
535.000000	65.176450
534.000000	65.166235
533.000000	65.133499
532.000000	65.199491
531.000000	65.134301
530.000000	65.142260
529.000000	65.131702
528.000000	65.099125
527.000000	65.065071
526.000000	65.083470
525.000000	65.097447
524.000000	65.023316
523.000000	64.971623
522.000000	65.027005
521.000000	65.030689
520.000000	64.943856
519.000000	64.989680
518.000000	64.951863
517.000000	64.977701
516.000000	64.933011
515.000000	64.937327
514.000000	64.895524
513.000000	64.876909
512.000000	64.889260
511.000000	64.814961
510.000000	64.826794
509.000000	64.885775
508.000000	64.876805
507.000000	64.789829
506.000000	64.783865
505.000000	64.790071
504.000000	64.732088
503.000000	64.723614
502.000000	64.736438
501.000000	64.718838
500.000000	64.640292
499.000000	64.665144
498.000000	64.670488
497.000000	64.608452
496.000000	64.553236
495.000000	64.537359
494.000000	64.537571
493.000000	64.482269
492.000000	64.498371
491.000000	64.479004
490.000000	64.398937
489.000000	64.430303
488.000000	64.382204
487.000000	64.306435
486.000000	64.235523
485.000000	64.225197
484.000000	64.318899
483.000000	64.329427
482.000000	64.263802
481.000000	64.268907
480.000000	64.229914
479.000000	64.214590
478.000000	64.186894
477.000000	64.148455
476.000000	64.108281
475.000000	64.070888
474.000000	63.997706
473.000000	63.979562
472.000000	63.953206
471.000000	63.901199
470.000000	63.851364
469.000000	63.839611
468.000000	63.811134
467.000000	63.757630
466.000000	63.702819
465.000000	63.617761
464.000000	63.589663
463.000000	63.570263
462.000000	63.501485
461.000000	63.461741
460.000000	63.395660
459.000000	63.347565
458.000000	63.310983
457.000000	63.247214
456.000000	63.147057
455.000000	63.085463
454.000000	63.094683
453.000000	63.056018
452.000000	62.948496
451.000000	62.822230
450.000000	62.762534
449.000000	62.704831
448.000000	62.664013
447.000000	62.601048
446.000000	62.459769
445.000000	62.398061
444.000000	62.330207
443.000000	62.249703
442.000000	62.228931
441.000000	62.139925
440.000000	62.027191
439.000000	61.936911
438.000000	61.893053
437.000000	61.788222
436.000000	61.670283
435.000000	61.574632
434.000000	61.471723
433.000000	61.422059
432.000000	61.349415
431.000000	61.261665
430.000000	61.176342
429.000000	61.064008
428.000000	60.986919
427.000000	60.820326
426.000000	60.695354
425.000000	60.642958
424.000000	60.567042
423.000000	60.441619
422.000000	60.321820
421.000000	60.211018
420.000000	60.143104
419.000000	59.969235
418.000000	59.819589
417.000000	59.734273
416.000000	59.613560
415.000000	59.453782
414.000000	59.360951
413.000000	59.273768
412.000000	59.081186
411.000000	58.950057
410.000000	58.855663
409.000000	58.694084
408.000000	58.515812
407.000000	58.411181
406.000000	58.310590
405.000000	58.137031
404.000000	57.938356
403.000000	57.829518
402.000000	57.721449
401.000000	57.524891
400.000000	57.429657
399.000000	57.299170
398.000000	57.063936
397.000000	56.984444
396.000000	56.867379
395.000000	56.653713
394.000000	56.534359
393.000000	56.405126
392.000000	56.295218
391.000000	56.030546
390.000000	55.898954
389.000000	55.754526
388.000000	55.536591
387.000000	55.430159
386.000000	55.158736
385.000000	55.025106
384.000000	54.915020
383.000000	54.709824
382.000000	54.627665
381.000000	54.391451
380.000000	54.237854
379.000000	54.085411
378.000000	53.761759
377.000000	53.599955
376.000000	53.599064
375.000000	53.425708
374.000000	53.097649
373.000000	52.982844
372.000000	52.717148
371.000000	52.558626
370.000000	52.495182
369.000000	52.152375
368.000000	51.708223
367.000000	51.650460
366.000000	51.411710
365.000000	51.298114
364.000000	50.892961
363.000000	50.741013
362.000000	50.507755
361.000000	50.102391
360.000000	50.008795
359.000000	49.722828
358.000000	49.477082
357.000000	49.320163
356.000000	49.119517
355.000000	48.579190
354.000000	48.617679
353.000000	48.219951
352.000000	47.943978
351.000000	47.811643
350.000000	47.463452
349.000000	47.388968
348.000000	47.084563
347.000000	46.797995
346.000000	46.586680
345.000000	46.323376
344.000000	45.979236
343.000000	45.745120
342.000000	45.446059
341.000000	45.319783
340.000000	44.936111
339.000000	44.741867
338.000000	44.249635
337.000000	44.096288
336.000000	43.984804
335.000000	43.489833
334.000000	43.173183
333.000000	42.690055
332.000000	42.499047
331.000000	42.350398
330.000000	41.866753
329.000000	41.626748
328.000000	41.257879
327.000000	40.895586
326.000000	40.644409
325.000000	40.350698
324.000000	40.140170
323.000000	39.694520
322.000000	39.418275
321.000000	39.165145
320.000000	38.632820
319.000000	38.505426
318.000000	38.131645
317.000000	37.728234
316.000000	37.448031
315.000000	36.989440
314.000000	36.673830
313.000000	36.397549
312.000000	35.972527
311.000000	35.428122
310.000000	34.977807
309.000000	34.614951
308.000000	34.130961
307.000000	34.010740
306.000000	33.348161
305.000000	32.956366
304.000000	32.489784
303.000000	31.996298
302.000000	31.450345
301.000000	30.886761
300.000000	30.167664
299.000000	29.392025
298.000000	28.615882
297.000000	27.813737
296.000000	26.822445
295.000000	25.841598
294.000000	24.819963
293.000000	23.546328
292.000000	22.300136
291.000000	21.002499
290.000000	19.779806
289.000000	18.809098
288.000000	18.010713
287.000000	17.323556
286.000000	16.853233
285.000000	16.574071
284.000000	16.272324
283.000000	16.183692
282.000000	16.082988
281.000000	15.886536
280.000000	15.871084
279.000000	15.819039
278.000000	15.824290
277.000000	15.865606
276.000000	15.907397
275.000000	16.042891
274.000000	16.153719
273.000000	16.195328
272.000000	16.288539
271.000000	16.352730
270.000000	16.425655
269.000000	16.547549
268.000000	16.609800
267.000000	16.830781
266.000000	16.918789
265.000000	17.055080
264.000000	17.254694
263.000000	17.453060
262.000000	17.676228
261.000000	17.805429
260.000000	17.924885
259.000000	18.138114
258.000000	18.350895
257.000000	18.563101
256.000000	18.758935
255.000000	18.964366
254.000000	19.032118
253.000000	19.000830
252.000000	19.034339
251.000000	19.002324
250.000000	18.874446
249.000000	18.629101
248.000000	18.356594
247.000000	17.964581
246.000000	17.606724
245.000000	17.233574
244.000000	16.768371
243.000000	16.414896
242.000000	16.216756
241.000000	15.991816
240.000000	15.892256
239.000000	15.923165
238.000000	16.061354
237.000000	16.207516
236.000000	16.278425
235.000000	16.478696
234.000000	16.683039
233.000000	16.778817
232.000000	16.891921
231.000000	16.982471
230.000000	17.032330
229.000000	17.100089
228.000000	17.113526
227.000000	17.225972
226.000000	17.393434
225.000000	17.480909
224.000000	17.660790
223.000000	17.879927
222.000000	18.114398
221.000000	18.263374
220.000000	18.449916
219.000000	18.720756
218.000000	18.946033
217.000000	19.235581
216.000000	19.494893
215.000000	19.743782
214.000000	20.031804
213.000000	20.415691
212.000000	20.783060
211.000000	21.131954
210.000000	21.504280
209.000000	21.911653
208.000000	22.251114
207.000000	22.538159
206.000000	23.101834
205.000000	23.591096
204.000000	24.264515
203.000000	24.657644
202.000000	24.878079
201.000000	25.335208
200.000000	25.892423
