PE UV       SUBTECH     SPECTRUM    ASCII       PEDS        4.00        
   -1
RDms499172.Sample.asc
18/03/22
12:26:11.00
18/03/22
12:26:11.00
Administrator

200.000000
1
Lambda 750
750N8071901
PerkinElmer UV WinLab 6.0.4.0738 / 1.61.00 Lambda 900

0
0
3350/servo 860.8/2
0
0
UV/VIS
1
1
1
CommonBeamDepol,150mm sphere / downward view
0
0
0
0
Program
Program
3350/servo 860.8/2
3350/0.2 860.8/0.2
3350/0.2 860.8/0.2
0
1
 
 
 
0
 
860.8
319.2
860.8
Front
100
on
 
 
0
0
0
 
0
 
 
 
0
 
 
0
0
0
0
0
 
 
 
 
0
0


0
0
#HDR
-1
-1
#GR
nm
%R
1.0
0.0
2350.000000
-1.000000
2151
8
55.909143
6.958098
#DATA
2350.000000	32.092609
2349.000000	32.257344
2348.000000	31.827112
2347.000000	32.532984
2346.000000	32.359396
2345.000000	32.196605
2344.000000	32.372675
2343.000000	32.157217
2342.000000	32.217559
2341.000000	32.717543
2340.000000	32.153524
2339.000000	32.849677
2338.000000	32.828682
2337.000000	32.642523
2336.000000	33.050879
2335.000000	32.853727
2334.000000	32.855632
2333.000000	33.210539
2332.000000	33.193859
2331.000000	33.201362
2330.000000	33.250004
2329.000000	33.020782
2328.000000	32.835418
2327.000000	32.650086
2326.000000	32.947559
2325.000000	32.882094
2324.000000	33.207081
2323.000000	32.917600
2322.000000	32.675282
2321.000000	32.715965
2320.000000	32.659301
2319.000000	32.417951
2318.000000	32.426442
2317.000000	32.467655
2316.000000	32.180407
2315.000000	32.014110
2314.000000	32.200361
2313.000000	32.077066
2312.000000	31.956744
2311.000000	32.194259
2310.000000	32.186820
2309.000000	32.068660
2308.000000	31.817979
2307.000000	31.955352
2306.000000	32.005171
2305.000000	31.893644
2304.000000	31.798102
2303.000000	31.705958
2302.000000	31.782164
2301.000000	31.681631
2300.000000	31.824947
2299.000000	31.516919
2298.000000	31.354345
2297.000000	31.362542
2296.000000	31.261180
2295.000000	31.464198
2294.000000	31.220454
2293.000000	31.133232
2292.000000	31.056111
2291.000000	31.071476
2290.000000	31.307340
2289.000000	31.155793
2288.000000	31.266444
2287.000000	31.449900
2286.000000	31.116710
2285.000000	31.134047
2284.000000	31.112776
2283.000000	30.973125
2282.000000	30.981349
2281.000000	31.036548
2280.000000	31.162314
2279.000000	31.075145
2278.000000	31.143941
2277.000000	31.173182
2276.000000	31.130965
2275.000000	31.126440
2274.000000	31.426810
2273.000000	31.506545
2272.000000	31.531665
2271.000000	31.403784
2270.000000	31.403636
2269.000000	31.509283
2268.000000	31.625493
2267.000000	31.659052
2266.000000	31.901107
2265.000000	32.068213
2264.000000	32.192658
2263.000000	32.271798
2262.000000	32.275552
2261.000000	32.368087
2260.000000	32.560694
2259.000000	32.798983
2258.000000	32.982418
2257.000000	33.006814
2256.000000	33.192047
2255.000000	33.342600
2254.000000	33.598964
2253.000000	33.793887
2252.000000	33.977987
2251.000000	34.187429
2250.000000	34.351620
2249.000000	34.498175
2248.000000	34.571789
2247.000000	34.828142
2246.000000	35.086357
2245.000000	35.307080
2244.000000	35.434158
2243.000000	35.517005
2242.000000	35.754630
2241.000000	35.939757
2240.000000	36.040299
2239.000000	36.037236
2238.000000	36.109318
2237.000000	36.283048
2236.000000	36.400570
2235.000000	36.516820
2234.000000	36.528250
2233.000000	36.546070
2232.000000	36.585571
2231.000000	36.788322
2230.000000	36.766345
2229.000000	36.897920
2228.000000	37.085801
2227.000000	37.085917
2226.000000	36.903844
2225.000000	36.889509
2224.000000	36.986810
2223.000000	36.927865
2222.000000	36.768156
2221.000000	36.846758
2220.000000	36.930033
2219.000000	36.943095
2218.000000	36.900472
2217.000000	36.816570
2216.000000	36.754122
2215.000000	36.715220
2214.000000	36.710855
2213.000000	36.724384
2212.000000	36.539573
2211.000000	36.515989
2210.000000	36.491472
2209.000000	36.450303
2208.000000	36.143372
2207.000000	36.202001
2206.000000	36.354347
2205.000000	36.376682
2204.000000	36.165718
2203.000000	36.001611
2202.000000	35.928840
2201.000000	35.909100
2200.000000	35.971970
2199.000000	35.846181
2198.000000	35.841230
2197.000000	35.843265
2196.000000	35.696568
2195.000000	35.689253
2194.000000	35.737153
2193.000000	35.642923
2192.000000	35.542075
2191.000000	35.304378
2190.000000	35.307904
2189.000000	35.318489
2188.000000	35.227654
2187.000000	35.144902
2186.000000	35.173620
2185.000000	35.113556
2184.000000	35.163557
2183.000000	35.260053
2182.000000	35.148483
2181.000000	35.045283
2180.000000	34.951263
2179.000000	34.966477
2178.000000	34.887691
2177.000000	34.873703
2176.000000	34.841109
2175.000000	34.934556
2174.000000	34.993124
2173.000000	35.152270
2172.000000	35.189383
2171.000000	35.236031
2170.000000	35.233731
2169.000000	35.203475
2168.000000	35.285562
2167.000000	35.271910
2166.000000	35.541373
2165.000000	35.491744
2164.000000	35.473273
2163.000000	35.653697
2162.000000	35.814490
2161.000000	35.843474
2160.000000	35.986625
2159.000000	36.061839
2158.000000	36.080996
2157.000000	36.308871
2156.000000	36.427921
2155.000000	36.603957
2154.000000	36.826258
2153.000000	37.069324
2152.000000	36.936301
2151.000000	37.014404
2150.000000	37.009024
2149.000000	37.317650
2148.000000	37.159092
2147.000000	37.335767
2146.000000	37.632339
2145.000000	37.737635
2144.000000	37.908406
2143.000000	37.889929
2142.000000	37.967630
2141.000000	37.901663
2140.000000	38.002955
2139.000000	38.206760
2138.000000	38.372288
2137.000000	38.460041
2136.000000	38.441448
2135.000000	38.632911
2134.000000	38.503639
2133.000000	38.503927
2132.000000	38.739616
2131.000000	38.911423
2130.000000	38.959662
2129.000000	38.937958
2128.000000	38.789918
2127.000000	38.835493
2126.000000	38.688613
2125.000000	39.022328
2124.000000	39.157857
2123.000000	38.991607
2122.000000	39.103842
2121.000000	39.171022
2120.000000	39.236471
2119.000000	39.310025
2118.000000	39.243050
2117.000000	39.426068
2116.000000	39.366356
2115.000000	39.508243
2114.000000	39.325236
2113.000000	39.476771
2112.000000	39.288378
2111.000000	39.409976
2110.000000	39.299249
2109.000000	39.432101
2108.000000	39.583721
2107.000000	39.345630
2106.000000	39.559141
2105.000000	39.565084
2104.000000	39.463096
2103.000000	39.603324
2102.000000	39.532371
2101.000000	39.518607
2100.000000	39.542106
2099.000000	39.563062
2098.000000	39.550108
2097.000000	39.396707
2096.000000	39.488320
2095.000000	39.476263
2094.000000	39.471063
2093.000000	39.465955
2092.000000	39.469408
2091.000000	39.499414
2090.000000	39.497124
2089.000000	39.422773
2088.000000	39.393728
2087.000000	39.465930
2086.000000	39.371524
2085.000000	39.324344
2084.000000	39.405359
2083.000000	39.292625
2082.000000	39.245752
2081.000000	39.100215
2080.000000	39.059640
2079.000000	39.090032
2078.000000	39.024988
2077.000000	39.050895
2076.000000	38.911790
2075.000000	38.881176
2074.000000	38.821688
2073.000000	38.669378
2072.000000	38.657281
2071.000000	38.556916
2070.000000	38.506994
2069.000000	38.349654
2068.000000	38.276110
2067.000000	38.198594
2066.000000	38.076149
2065.000000	37.982650
2064.000000	37.853823
2063.000000	37.742075
2062.000000	37.665696
2061.000000	37.428508
2060.000000	37.307186
2059.000000	37.244317
2058.000000	37.197453
2057.000000	37.050756
2056.000000	36.949779
2055.000000	36.853688
2054.000000	36.691115
2053.000000	36.584508
2052.000000	36.507761
2051.000000	36.410539
2050.000000	36.335615
2049.000000	36.326317
2048.000000	36.247955
2047.000000	36.189136
2046.000000	36.117013
2045.000000	36.064607
2044.000000	36.086300
2043.000000	36.060278
2042.000000	36.001918
2041.000000	36.063287
2040.000000	36.097354
2039.000000	36.092818
2038.000000	36.117495
2037.000000	36.167993
2036.000000	36.230625
2035.000000	36.274430
2034.000000	36.363276
2033.000000	36.463160
2032.000000	36.539016
2031.000000	36.635670
2030.000000	36.728302
2029.000000	36.790295
2028.000000	36.857685
2027.000000	36.962153
2026.000000	37.065089
2025.000000	37.156580
2024.000000	37.221643
2023.000000	37.301098
2022.000000	37.319907
2021.000000	37.300564
2020.000000	37.370570
2019.000000	37.382929
2018.000000	37.353045
2017.000000	37.359544
2016.000000	37.338441
2015.000000	37.329737
2014.000000	37.292391
2013.000000	37.299222
2012.000000	37.303920
2011.000000	37.234698
2010.000000	37.160791
2009.000000	37.127815
2008.000000	37.050116
2007.000000	36.970187
2006.000000	36.858921
2005.000000	36.762696
2004.000000	36.696626
2003.000000	36.599293
2002.000000	36.547374
2001.000000	36.445541
2000.000000	36.315611
1999.000000	36.201934
1998.000000	36.109372
1997.000000	36.031979
1996.000000	35.987834
1995.000000	35.924853
1994.000000	35.780022
1993.000000	35.660971
1992.000000	35.532638
1991.000000	35.451761
1990.000000	35.354863
1989.000000	35.209840
1988.000000	35.107721
1987.000000	35.050798
1986.000000	34.927560
1985.000000	34.791826
1984.000000	34.734102
1983.000000	34.665587
1982.000000	34.606515
1981.000000	34.492813
1980.000000	34.361678
1979.000000	34.238269
1978.000000	34.150747
1977.000000	34.040022
1976.000000	33.908551
1975.000000	33.806222
1974.000000	33.713142
1973.000000	33.668393
1972.000000	33.544037
1971.000000	33.376760
1970.000000	33.334893
1969.000000	33.283360
1968.000000	33.180615
1967.000000	33.128444
1966.000000	33.068530
1965.000000	32.916926
1964.000000	32.818375
1963.000000	32.738339
1962.000000	32.646988
1961.000000	32.541137
1960.000000	32.505920
1959.000000	32.436391
1958.000000	32.325614
1957.000000	32.187702
1956.000000	32.116264
1955.000000	32.067652
1954.000000	32.061235
1953.000000	31.943526
1952.000000	31.889742
1951.000000	31.865149
1950.000000	31.847037
1949.000000	31.760817
1948.000000	31.775842
1947.000000	31.704121
1946.000000	31.663397
1945.000000	31.634559
1944.000000	31.658830
1943.000000	31.692105
1942.000000	31.707768
1941.000000	31.736175
1940.000000	31.713843
1939.000000	31.742699
1938.000000	31.716143
1937.000000	31.832896
1936.000000	31.922900
1935.000000	31.977203
1934.000000	32.091023
1933.000000	32.198276
1932.000000	32.295595
1931.000000	32.470789
1930.000000	32.608018
1929.000000	32.746491
1928.000000	32.878035
1927.000000	32.966097
1926.000000	33.241857
1925.000000	33.441408
1924.000000	33.613245
1923.000000	33.842875
1922.000000	34.047121
1921.000000	34.370109
1920.000000	34.554842
1919.000000	34.801620
1918.000000	35.130375
1917.000000	35.423829
1916.000000	35.653353
1915.000000	36.005379
1914.000000	36.366902
1913.000000	36.695493
1912.000000	36.961408
1911.000000	37.304530
1910.000000	37.661345
1909.000000	38.051820
1908.000000	38.435535
1907.000000	38.725196
1906.000000	39.260885
1905.000000	39.599414
1904.000000	40.054395
1903.000000	40.446327
1902.000000	40.824527
1901.000000	41.196173
1900.000000	41.696273
1899.000000	42.059307
1898.000000	42.494220
1897.000000	42.897447
1896.000000	43.330033
1895.000000	43.784881
1894.000000	44.127518
1893.000000	44.481469
1892.000000	44.849680
1891.000000	45.207156
1890.000000	45.585967
1889.000000	45.942783
1888.000000	46.253044
1887.000000	46.592692
1886.000000	46.941607
1885.000000	47.194810
1884.000000	47.511151
1883.000000	47.758598
1882.000000	47.986711
1881.000000	48.302275
1880.000000	48.540832
1879.000000	48.712182
1878.000000	48.869953
1877.000000	49.114099
1876.000000	49.268090
1875.000000	49.443885
1874.000000	49.618921
1873.000000	49.689226
1872.000000	49.804527
1871.000000	49.920003
1870.000000	50.045446
1869.000000	50.198927
1868.000000	50.304925
1867.000000	50.342813
1866.000000	50.357061
1865.000000	50.436669
1864.000000	50.497214
1863.000000	50.567989
1862.000000	50.627052
1861.000000	50.699819
1860.000000	50.739130
1859.000000	50.746387
1858.000000	50.769950
1857.000000	50.843080
1856.000000	50.857781
1855.000000	50.851966
1854.000000	50.895920
1853.000000	50.940683
1852.000000	50.943381
1851.000000	50.949477
1850.000000	50.948847
1849.000000	50.948541
1848.000000	50.962017
1847.000000	50.937520
1846.000000	50.896883
1845.000000	50.897901
1844.000000	50.897071
1843.000000	50.905350
1842.000000	50.875164
1841.000000	50.832429
1840.000000	50.832957
1839.000000	50.805209
1838.000000	50.754884
1837.000000	50.733580
1836.000000	50.677588
1835.000000	50.616482
1834.000000	50.579556
1833.000000	50.567847
1832.000000	50.534581
1831.000000	50.519301
1830.000000	50.505786
1829.000000	50.458706
1828.000000	50.397229
1827.000000	50.386344
1826.000000	50.378415
1825.000000	50.358367
1824.000000	50.361523
1823.000000	50.327548
1822.000000	50.293345
1821.000000	50.279364
1820.000000	50.248416
1819.000000	50.211888
1818.000000	50.190712
1817.000000	50.172909
1816.000000	50.121376
1815.000000	50.100328
1814.000000	50.078178
1813.000000	50.068329
1812.000000	50.052256
1811.000000	50.033245
1810.000000	50.038236
1809.000000	50.018456
1808.000000	49.982914
1807.000000	49.960989
1806.000000	49.940544
1805.000000	49.912003
1804.000000	49.912743
1803.000000	49.901660
1802.000000	49.880216
1801.000000	49.855488
1800.000000	49.841470
1799.000000	49.835664
1798.000000	49.815597
1797.000000	49.801158
1796.000000	49.781763
1795.000000	49.770799
1794.000000	49.762485
1793.000000	49.765911
1792.000000	49.760377
1791.000000	49.740536
1790.000000	49.732996
1789.000000	49.705116
1788.000000	49.680987
1787.000000	49.699466
1786.000000	49.697629
1785.000000	49.681448
1784.000000	49.667153
1783.000000	49.669892
1782.000000	49.637682
1781.000000	49.600001
1780.000000	49.573409
1779.000000	49.541645
1778.000000	49.502398
1777.000000	49.493456
1776.000000	49.478788
1775.000000	49.416479
1774.000000	49.391868
1773.000000	49.381703
1772.000000	49.326004
1771.000000	49.282180
1770.000000	49.243394
1769.000000	49.228031
1768.000000	49.189293
1767.000000	49.153674
1766.000000	49.112493
1765.000000	49.082375
1764.000000	49.072863
1763.000000	49.012011
1762.000000	49.001088
1761.000000	48.978578
1760.000000	48.950769
1759.000000	48.885083
1758.000000	48.879251
1757.000000	48.877076
1756.000000	48.825195
1755.000000	48.794200
1754.000000	48.773748
1753.000000	48.706015
1752.000000	48.672613
1751.000000	48.649636
1750.000000	48.659069
1749.000000	48.634984
1748.000000	48.576897
1747.000000	48.507116
1746.000000	48.499687
1745.000000	48.454800
1744.000000	48.404750
1743.000000	48.363669
1742.000000	48.327948
1741.000000	48.313767
1740.000000	48.271886
1739.000000	48.230969
1738.000000	48.165006
1737.000000	48.154838
1736.000000	48.140957
1735.000000	48.129644
1734.000000	48.094571
1733.000000	48.115069
1732.000000	48.065731
1731.000000	48.100119
1730.000000	48.112600
1729.000000	48.110304
1728.000000	48.170895
1727.000000	48.203499
1726.000000	48.279982
1725.000000	48.277813
1724.000000	48.340603
1723.000000	48.405189
1722.000000	48.460186
1721.000000	48.551388
1720.000000	48.606332
1719.000000	48.708115
1718.000000	48.758995
1717.000000	48.798768
1716.000000	48.863732
1715.000000	48.948112
1714.000000	49.016191
1713.000000	49.076136
1712.000000	49.093079
1711.000000	49.174459
1710.000000	49.264231
1709.000000	49.284850
1708.000000	49.318260
1707.000000	49.329667
1706.000000	49.369004
1705.000000	49.413407
1704.000000	49.437576
1703.000000	49.478085
1702.000000	49.473247
1701.000000	49.484654
1700.000000	49.533336
1699.000000	49.512184
1698.000000	49.589754
1697.000000	49.607175
1696.000000	49.654808
1695.000000	49.637777
1694.000000	49.638863
1693.000000	49.691671
1692.000000	49.752004
1691.000000	49.807404
1690.000000	49.820393
1689.000000	49.883045
1688.000000	49.970646
1687.000000	50.004884
1686.000000	50.086371
1685.000000	50.179666
1684.000000	50.269582
1683.000000	50.363156
1682.000000	50.418020
1681.000000	50.558656
1680.000000	50.624753
1679.000000	50.710893
1678.000000	50.778163
1677.000000	50.904940
1676.000000	51.013638
1675.000000	51.113532
1674.000000	51.224049
1673.000000	51.295271
1672.000000	51.386905
1671.000000	51.473987
1670.000000	51.551148
1669.000000	51.665321
1668.000000	51.688185
1667.000000	51.811498
1666.000000	51.809288
1665.000000	51.868081
1664.000000	51.918635
1663.000000	51.965439
1662.000000	52.010004
1661.000000	52.068067
1660.000000	52.073153
1659.000000	52.106473
1658.000000	52.138748
1657.000000	52.162746
1656.000000	52.174169
1655.000000	52.218949
1654.000000	52.194344
1653.000000	52.227334
1652.000000	52.228706
1651.000000	52.240066
1650.000000	52.247491
1649.000000	52.220531
1648.000000	52.214461
1647.000000	52.226349
1646.000000	52.202666
1645.000000	52.162602
1644.000000	52.131161
1643.000000	52.135992
1642.000000	52.124534
1641.000000	52.114512
1640.000000	52.109669
1639.000000	52.078458
1638.000000	52.074486
1637.000000	52.047357
1636.000000	51.985832
1635.000000	51.987414
1634.000000	51.977111
1633.000000	51.941034
1632.000000	51.902946
1631.000000	51.873957
1630.000000	51.864981
1629.000000	51.854303
1628.000000	51.801145
1627.000000	51.797368
1626.000000	51.753681
1625.000000	51.702849
1624.000000	51.664637
1623.000000	51.654753
1622.000000	51.651555
1621.000000	51.599893
1620.000000	51.553247
1619.000000	51.529499
1618.000000	51.479710
1617.000000	51.464237
1616.000000	51.430770
1615.000000	51.409830
1614.000000	51.373064
1613.000000	51.334672
1612.000000	51.315851
1611.000000	51.269615
1610.000000	51.223103
1609.000000	51.189392
1608.000000	51.173348
1607.000000	51.128578
1606.000000	51.071139
1605.000000	51.061550
1604.000000	51.024921
1603.000000	50.973572
1602.000000	50.942059
1601.000000	50.902176
1600.000000	50.866718
1599.000000	50.839018
1598.000000	50.799831
1597.000000	50.756304
1596.000000	50.733645
1595.000000	50.701059
1594.000000	50.663853
1593.000000	50.651157
1592.000000	50.624836
1591.000000	50.585958
1590.000000	50.556642
1589.000000	50.509036
1588.000000	50.468442
1587.000000	50.465326
1586.000000	50.450530
1585.000000	50.418704
1584.000000	50.391687
1583.000000	50.351268
1582.000000	50.330161
1581.000000	50.296715
1580.000000	50.266963
1579.000000	50.256397
1578.000000	50.235740
1577.000000	50.201723
1576.000000	50.175342
1575.000000	50.135436
1574.000000	50.074648
1573.000000	50.045840
1572.000000	50.035373
1571.000000	50.040711
1570.000000	50.006302
1569.000000	49.963664
1568.000000	49.935869
1567.000000	49.917885
1566.000000	49.904164
1565.000000	49.869014
1564.000000	49.837048
1563.000000	49.841969
1562.000000	49.829412
1561.000000	49.790281
1560.000000	49.774485
1559.000000	49.749343
1558.000000	49.732342
1557.000000	49.715746
1556.000000	49.695153
1555.000000	49.695579
1554.000000	49.664430
1553.000000	49.646029
1552.000000	49.617368
1551.000000	49.586462
1550.000000	49.563823
1549.000000	49.526894
1548.000000	49.514381
1547.000000	49.475556
1546.000000	49.448920
1545.000000	49.395177
1544.000000	49.337186
1543.000000	49.303152
1542.000000	49.249242
1541.000000	49.187338
1540.000000	49.142355
1539.000000	49.094525
1538.000000	49.057131
1537.000000	48.987135
1536.000000	48.933645
1535.000000	48.871260
1534.000000	48.820636
1533.000000	48.798879
1532.000000	48.731427
1531.000000	48.664949
1530.000000	48.616037
1529.000000	48.558096
1528.000000	48.517526
1527.000000	48.478495
1526.000000	48.453060
1525.000000	48.397514
1524.000000	48.355580
1523.000000	48.316662
1522.000000	48.281746
1521.000000	48.251031
1520.000000	48.238927
1519.000000	48.204249
1518.000000	48.176846
1517.000000	48.177434
1516.000000	48.125081
1515.000000	48.101010
1514.000000	48.070648
1513.000000	48.073260
1512.000000	48.030189
1511.000000	48.032636
1510.000000	48.019447
1509.000000	48.009993
1508.000000	48.007750
1507.000000	47.995149
1506.000000	47.977613
1505.000000	47.970224
1504.000000	47.972190
1503.000000	47.967992
1502.000000	47.939163
1501.000000	47.938174
1500.000000	47.936798
1499.000000	47.935329
1498.000000	47.944376
1497.000000	47.925876
1496.000000	47.929619
1495.000000	47.950163
1494.000000	47.962703
1493.000000	47.987439
1492.000000	47.978417
1491.000000	47.969759
1490.000000	47.997085
1489.000000	48.014127
1488.000000	48.030485
1487.000000	48.023849
1486.000000	48.039766
1485.000000	48.072938
1484.000000	48.087635
1483.000000	48.087188
1482.000000	48.104859
1481.000000	48.158624
1480.000000	48.183629
1479.000000	48.168546
1478.000000	48.201649
1477.000000	48.234473
1476.000000	48.251024
1475.000000	48.249924
1474.000000	48.273297
1473.000000	48.294824
1472.000000	48.308341
1471.000000	48.287362
1470.000000	48.328534
1469.000000	48.331195
1468.000000	48.360037
1467.000000	48.402037
1466.000000	48.411413
1465.000000	48.424592
1464.000000	48.424159
1463.000000	48.456272
1462.000000	48.481573
1461.000000	48.510215
1460.000000	48.534804
1459.000000	48.550675
1458.000000	48.597085
1457.000000	48.608818
1456.000000	48.654295
1455.000000	48.692722
1454.000000	48.727168
1453.000000	48.757531
1452.000000	48.804569
1451.000000	48.836966
1450.000000	48.881017
1449.000000	48.900049
1448.000000	48.948021
1447.000000	49.015521
1446.000000	49.034103
1445.000000	49.118228
1444.000000	49.160073
1443.000000	49.220116
1442.000000	49.279020
1441.000000	49.330366
1440.000000	49.401823
1439.000000	49.451475
1438.000000	49.523876
1437.000000	49.609961
1436.000000	49.686690
1435.000000	49.764642
1434.000000	49.830450
1433.000000	49.920979
1432.000000	49.992180
1431.000000	50.069415
1430.000000	50.166643
1429.000000	50.256635
1428.000000	50.356054
1427.000000	50.455257
1426.000000	50.556405
1425.000000	50.657270
1424.000000	50.770084
1423.000000	50.871779
1422.000000	50.982846
1421.000000	51.103739
1420.000000	51.218893
1419.000000	51.305984
1418.000000	51.425913
1417.000000	51.549795
1416.000000	51.677997
1415.000000	51.783459
1414.000000	51.896685
1413.000000	52.028772
1412.000000	52.139031
1411.000000	52.251574
1410.000000	52.371921
1409.000000	52.464933
1408.000000	52.558214
1407.000000	52.693764
1406.000000	52.800198
1405.000000	52.909343
1404.000000	52.996431
1403.000000	53.086780
1402.000000	53.180036
1401.000000	53.269474
1400.000000	53.365032
1399.000000	53.450537
1398.000000	53.544069
1397.000000	53.617430
1396.000000	53.690161
1395.000000	53.775130
1394.000000	53.857997
1393.000000	53.927869
1392.000000	53.997180
1391.000000	54.074500
1390.000000	54.145474
1389.000000	54.192362
1388.000000	54.246072
1387.000000	54.295650
1386.000000	54.337516
1385.000000	54.405825
1384.000000	54.454628
1383.000000	54.488584
1382.000000	54.520135
1381.000000	54.548077
1380.000000	54.597614
1379.000000	54.638933
1378.000000	54.672053
1377.000000	54.719975
1376.000000	54.758832
1375.000000	54.788329
1374.000000	54.833244
1373.000000	54.863988
1372.000000	54.897131
1371.000000	54.931989
1370.000000	54.951544
1369.000000	54.966790
1368.000000	54.978638
1367.000000	55.006799
1366.000000	55.036736
1365.000000	55.047963
1364.000000	55.071896
1363.000000	55.089070
1362.000000	55.094944
1361.000000	55.108817
1360.000000	55.140647
1359.000000	55.154549
1358.000000	55.155749
1357.000000	55.172257
1356.000000	55.201377
1355.000000	55.215864
1354.000000	55.235706
1353.000000	55.283181
1352.000000	55.307549
1351.000000	55.330040
1350.000000	55.343813
1349.000000	55.375117
1348.000000	55.408982
1347.000000	55.431575
1346.000000	55.453599
1345.000000	55.494442
1344.000000	55.516533
1343.000000	55.538347
1342.000000	55.553144
1341.000000	55.569290
1340.000000	55.586538
1339.000000	55.611238
1338.000000	55.619573
1337.000000	55.647859
1336.000000	55.673038
1335.000000	55.693160
1334.000000	55.704629
1333.000000	55.712198
1332.000000	55.718644
1331.000000	55.720267
1330.000000	55.735500
1329.000000	55.775296
1328.000000	55.807259
1327.000000	55.812838
1326.000000	55.826250
1325.000000	55.830715
1324.000000	55.835883
1323.000000	55.807812
1322.000000	55.806061
1321.000000	55.819561
1320.000000	55.812895
1319.000000	55.817424
1318.000000	55.836018
1317.000000	55.847048
1316.000000	55.829205
1315.000000	55.822929
1314.000000	55.838123
1313.000000	55.862316
1312.000000	55.854549
1311.000000	55.870204
1310.000000	55.858379
1309.000000	55.873220
1308.000000	55.869007
1307.000000	55.861845
1306.000000	55.883260
1305.000000	55.893262
1304.000000	55.887862
1303.000000	55.886007
1302.000000	55.896131
1301.000000	55.875008
1300.000000	55.899776
1299.000000	55.909143
1298.000000	55.890367
1297.000000	55.900417
1296.000000	55.900245
1295.000000	55.905013
1294.000000	55.907579
1293.000000	55.892358
1292.000000	55.884957
1291.000000	55.872253
1290.000000	55.880745
1289.000000	55.871267
1288.000000	55.852071
1287.000000	55.839260
1286.000000	55.821233
1285.000000	55.831313
1284.000000	55.831222
1283.000000	55.841276
1282.000000	55.847592
1281.000000	55.827784
1280.000000	55.826979
1279.000000	55.815059
1278.000000	55.799592
1277.000000	55.798032
1276.000000	55.794051
1275.000000	55.788226
1274.000000	55.795936
1273.000000	55.765935
1272.000000	55.772921
1271.000000	55.748497
1270.000000	55.733602
1269.000000	55.750054
1268.000000	55.762955
1267.000000	55.749755
1266.000000	55.724472
1265.000000	55.715675
1264.000000	55.721815
1263.000000	55.717567
1262.000000	55.735611
1261.000000	55.765576
1260.000000	55.752191
1259.000000	55.742943
1258.000000	55.715162
1257.000000	55.723956
1256.000000	55.735924
1255.000000	55.718214
1254.000000	55.737828
1253.000000	55.725153
1252.000000	55.746433
1251.000000	55.737212
1250.000000	55.739559
1249.000000	55.746820
1248.000000	55.722395
1247.000000	55.712122
1246.000000	55.706528
1245.000000	55.707091
1244.000000	55.713214
1243.000000	55.670366
1242.000000	55.667567
1241.000000	55.661927
1240.000000	55.675298
1239.000000	55.643405
1238.000000	55.631441
1237.000000	55.617905
1236.000000	55.608249
1235.000000	55.600273
1234.000000	55.564864
1233.000000	55.542257
1232.000000	55.544203
1231.000000	55.525446
1230.000000	55.488253
1229.000000	55.473784
1228.000000	55.478490
1227.000000	55.462385
1226.000000	55.445974
1225.000000	55.427607
1224.000000	55.402481
1223.000000	55.378545
1222.000000	55.357511
1221.000000	55.347331
1220.000000	55.313832
1219.000000	55.295422
1218.000000	55.283525
1217.000000	55.259675
1216.000000	55.240635
1215.000000	55.196671
1214.000000	55.176792
1213.000000	55.153120
1212.000000	55.130656
1211.000000	55.128353
1210.000000	55.117994
1209.000000	55.109401
1208.000000	55.112460
1207.000000	55.092341
1206.000000	55.072894
1205.000000	55.073796
1204.000000	55.063871
1203.000000	55.039290
1202.000000	55.022419
1201.000000	55.042670
1200.000000	55.027484
1199.000000	54.998945
1198.000000	54.977221
1197.000000	54.982788
1196.000000	54.969638
1195.000000	54.960887
1194.000000	54.965172
1193.000000	54.958123
1192.000000	54.935681
1191.000000	54.929604
1190.000000	54.911795
1189.000000	54.885311
1188.000000	54.887865
1187.000000	54.890754
1186.000000	54.900941
1185.000000	54.899169
1184.000000	54.889224
1183.000000	54.887507
1182.000000	54.905842
1181.000000	54.921545
1180.000000	54.924853
1179.000000	54.928740
1178.000000	54.943968
1177.000000	54.954582
1176.000000	54.966487
1175.000000	54.988913
1174.000000	55.010411
1173.000000	55.034575
1172.000000	55.046293
1171.000000	55.055288
1170.000000	55.079234
1169.000000	55.095972
1168.000000	55.121235
1167.000000	55.148886
1166.000000	55.167446
1165.000000	55.175855
1164.000000	55.198159
1163.000000	55.216351
1162.000000	55.235038
1161.000000	55.263678
1160.000000	55.284622
1159.000000	55.311300
1158.000000	55.344125
1157.000000	55.381230
1156.000000	55.388336
1155.000000	55.397249
1154.000000	55.429704
1153.000000	55.439597
1152.000000	55.459342
1151.000000	55.482163
1150.000000	55.490684
1149.000000	55.516002
1148.000000	55.540862
1147.000000	55.544408
1146.000000	55.535739
1145.000000	55.542570
1144.000000	55.556394
1143.000000	55.565266
1142.000000	55.586033
1141.000000	55.602326
1140.000000	55.607524
1139.000000	55.614311
1138.000000	55.625893
1137.000000	55.636679
1136.000000	55.656044
1135.000000	55.659273
1134.000000	55.675206
1133.000000	55.666419
1132.000000	55.664865
1131.000000	55.681789
1130.000000	55.696576
1129.000000	55.699432
1128.000000	55.699494
1127.000000	55.704832
1126.000000	55.712197
1125.000000	55.696250
1124.000000	55.695536
1123.000000	55.702150
1122.000000	55.701929
1121.000000	55.698119
1120.000000	55.694592
1119.000000	55.703112
1118.000000	55.704547
1117.000000	55.701094
1116.000000	55.677703
1115.000000	55.675497
1114.000000	55.670150
1113.000000	55.676980
1112.000000	55.674323
1111.000000	55.678065
1110.000000	55.668492
1109.000000	55.668053
1108.000000	55.654823
1107.000000	55.641693
1106.000000	55.654059
1105.000000	55.663884
1104.000000	55.664391
1103.000000	55.643457
1102.000000	55.623484
1101.000000	55.623297
1100.000000	55.623389
1099.000000	55.609426
1098.000000	55.610697
1097.000000	55.605186
1096.000000	55.600713
1095.000000	55.602019
1094.000000	55.595294
1093.000000	55.584499
1092.000000	55.568834
1091.000000	55.573208
1090.000000	55.596280
1089.000000	55.571171
1088.000000	55.547532
1087.000000	55.533000
1086.000000	55.535755
1085.000000	55.528947
1084.000000	55.527811
1083.000000	55.514057
1082.000000	55.499159
1081.000000	55.500187
1080.000000	55.498686
1079.000000	55.495144
1078.000000	55.491998
1077.000000	55.477556
1076.000000	55.445801
1075.000000	55.442737
1074.000000	55.442176
1073.000000	55.426687
1072.000000	55.420173
1071.000000	55.413591
1070.000000	55.403367
1069.000000	55.389597
1068.000000	55.396775
1067.000000	55.400403
1066.000000	55.367211
1065.000000	55.355136
1064.000000	55.368806
1063.000000	55.345554
1062.000000	55.347080
1061.000000	55.344593
1060.000000	55.337284
1059.000000	55.336606
1058.000000	55.311713
1057.000000	55.316824
1056.000000	55.304479
1055.000000	55.307358
1054.000000	55.287748
1053.000000	55.267196
1052.000000	55.246552
1051.000000	55.260285
1050.000000	55.260129
1049.000000	55.226214
1048.000000	55.231104
1047.000000	55.205251
1046.000000	55.214941
1045.000000	55.204452
1044.000000	55.168158
1043.000000	55.170414
1042.000000	55.167004
1041.000000	55.154737
1040.000000	55.166754
1039.000000	55.132730
1038.000000	55.119570
1037.000000	55.105634
1036.000000	55.114688
1035.000000	55.108615
1034.000000	55.076048
1033.000000	55.070075
1032.000000	55.065550
1031.000000	55.056491
1030.000000	55.051841
1029.000000	55.043871
1028.000000	55.010541
1027.000000	55.001542
1026.000000	55.014723
1025.000000	54.992205
1024.000000	54.979639
1023.000000	54.970409
1022.000000	54.951442
1021.000000	54.949458
1020.000000	54.937281
1019.000000	54.916888
1018.000000	54.917704
1017.000000	54.902061
1016.000000	54.886530
1015.000000	54.874681
1014.000000	54.864692
1013.000000	54.877074
1012.000000	54.856681
1011.000000	54.848652
1010.000000	54.832602
1009.000000	54.820227
1008.000000	54.814092
1007.000000	54.795002
1006.000000	54.784113
1005.000000	54.784912
1004.000000	54.776567
1003.000000	54.753354
1002.000000	54.750436
1001.000000	54.736939
1000.000000	54.738127
999.000000	54.723473
998.000000	54.720765
997.000000	54.705667
996.000000	54.679110
995.000000	54.683375
994.000000	54.666628
993.000000	54.659249
992.000000	54.655064
991.000000	54.654920
990.000000	54.649706
989.000000	54.626134
988.000000	54.604467
987.000000	54.602100
986.000000	54.601921
985.000000	54.593617
984.000000	54.574860
983.000000	54.563279
982.000000	54.567064
981.000000	54.562017
980.000000	54.540620
979.000000	54.545868
978.000000	54.531503
977.000000	54.521331
976.000000	54.524832
975.000000	54.514965
974.000000	54.491905
973.000000	54.490121
972.000000	54.472158
971.000000	54.451313
970.000000	54.441394
969.000000	54.450647
968.000000	54.438798
967.000000	54.432388
966.000000	54.431217
965.000000	54.416093
964.000000	54.413985
963.000000	54.395956
962.000000	54.402270
961.000000	54.396315
960.000000	54.370774
959.000000	54.349679
958.000000	54.351900
957.000000	54.330503
956.000000	54.312028
955.000000	54.307524
954.000000	54.312773
953.000000	54.309762
952.000000	54.280794
951.000000	54.255486
950.000000	54.246468
949.000000	54.258159
948.000000	54.254796
947.000000	54.250984
946.000000	54.262342
945.000000	54.223899
944.000000	54.177111
943.000000	54.165685
942.000000	54.168047
941.000000	54.168743
940.000000	54.153954
939.000000	54.148330
938.000000	54.143091
937.000000	54.114451
936.000000	54.095199
935.000000	54.074180
934.000000	54.049203
933.000000	54.037324
932.000000	54.018627
931.000000	54.011265
930.000000	54.015186
929.000000	53.976335
928.000000	53.943786
927.000000	53.943884
926.000000	53.934490
925.000000	53.929731
924.000000	53.910203
923.000000	53.890495
922.000000	53.872520
921.000000	53.853755
920.000000	53.837644
919.000000	53.814773
918.000000	53.799179
917.000000	53.829942
916.000000	53.804557
915.000000	53.770796
914.000000	53.743916
913.000000	53.728299
912.000000	53.738489
911.000000	53.704428
910.000000	53.655738
909.000000	53.650494
908.000000	53.634542
907.000000	53.640995
906.000000	53.611085
905.000000	53.606744
904.000000	53.610715
903.000000	53.582683
902.000000	53.553854
901.000000	53.534585
900.000000	53.539624
899.000000	53.508228
898.000000	53.481280
897.000000	53.498680
896.000000	53.477451
895.000000	53.414323
894.000000	53.385604
893.000000	53.390332
892.000000	53.416480
891.000000	53.387858
890.000000	53.401412
889.000000	53.392343
888.000000	53.281050
887.000000	53.322835
886.000000	53.321936
885.000000	53.251726
884.000000	53.273218
883.000000	53.290209
882.000000	53.258318
881.000000	53.206270
880.000000	53.182443
879.000000	53.212002
878.000000	53.151021
877.000000	53.114141
876.000000	53.096845
875.000000	53.064006
874.000000	52.978845
873.000000	53.069688
872.000000	53.034491
871.000000	53.022136
870.000000	52.940840
869.000000	52.946513
868.000000	52.842385
867.000000	52.886095
866.000000	52.845931
865.000000	52.805535
864.000000	52.947888
863.000000	52.767153
862.000000	52.763753
861.000000	52.604994
860.000000	52.712204
859.000000	52.208064
858.000000	51.238269
857.000000	52.110080
856.000000	52.035674
855.000000	52.013554
854.000000	52.007318
853.000000	51.765238
852.000000	51.536559
851.000000	51.781029
850.000000	51.467026
849.000000	51.620980
848.000000	51.597414
847.000000	51.708278
846.000000	51.538784
845.000000	51.652428
844.000000	51.697970
843.000000	51.663667
842.000000	51.557672
841.000000	51.346294
840.000000	51.423611
839.000000	51.479590
838.000000	51.436118
837.000000	51.402805
836.000000	51.317225
835.000000	51.314229
834.000000	51.236474
833.000000	51.246777
832.000000	51.315569
831.000000	51.016188
830.000000	51.167594
829.000000	50.864578
828.000000	51.229765
827.000000	51.094639
826.000000	51.207926
825.000000	50.843431
824.000000	50.855285
823.000000	50.901847
822.000000	51.008019
821.000000	51.035103
820.000000	50.656716
819.000000	50.755877
818.000000	50.787904
817.000000	50.689717
816.000000	50.739366
815.000000	50.687498
814.000000	50.703714
813.000000	50.582831
812.000000	50.569046
811.000000	50.507632
810.000000	50.471017
809.000000	50.430043
808.000000	50.428821
807.000000	50.385745
806.000000	50.352949
805.000000	50.369012
804.000000	50.394676
803.000000	50.411905
802.000000	50.193716
801.000000	50.197111
800.000000	50.183701
799.000000	50.035248
798.000000	50.023400
797.000000	50.065092
796.000000	49.959301
795.000000	49.959571
794.000000	49.837003
793.000000	49.883341
792.000000	49.821169
791.000000	49.835512
790.000000	49.814098
789.000000	49.843455
788.000000	49.815879
787.000000	49.633749
786.000000	49.641245
785.000000	49.582781
784.000000	49.585120
783.000000	49.473852
782.000000	49.428859
781.000000	49.435152
780.000000	49.414050
779.000000	49.328276
778.000000	49.269307
777.000000	49.194900
776.000000	49.211899
775.000000	49.206990
774.000000	49.201813
773.000000	49.082050
772.000000	49.075820
771.000000	49.037730
770.000000	48.962024
769.000000	48.887262
768.000000	48.865518
767.000000	48.864942
766.000000	48.789987
765.000000	48.763800
764.000000	48.694920
763.000000	48.688839
762.000000	48.629118
761.000000	48.651272
760.000000	48.650360
759.000000	48.513349
758.000000	48.406685
757.000000	48.408509
756.000000	48.351205
755.000000	48.264477
754.000000	48.222413
753.000000	48.138484
752.000000	48.168961
751.000000	48.174142
750.000000	48.055524
749.000000	47.981931
748.000000	47.935101
747.000000	47.939530
746.000000	47.875002
745.000000	47.837604
744.000000	47.751132
743.000000	47.652058
742.000000	47.611623
741.000000	47.600436
740.000000	47.511473
739.000000	47.515843
738.000000	47.466533
737.000000	47.359833
736.000000	47.307785
735.000000	47.284483
734.000000	47.242085
733.000000	47.189443
732.000000	47.136465
731.000000	47.060012
730.000000	47.009413
729.000000	46.989458
728.000000	46.939668
727.000000	46.838343
726.000000	46.806298
725.000000	46.710829
724.000000	46.614644
723.000000	46.608159
722.000000	46.547475
721.000000	46.514746
720.000000	46.416380
719.000000	46.304332
718.000000	46.260998
717.000000	46.248456
716.000000	46.204459
715.000000	46.119299
714.000000	46.127030
713.000000	46.087012
712.000000	45.999057
711.000000	45.941057
710.000000	45.839081
709.000000	45.764822
708.000000	45.668672
707.000000	45.606383
706.000000	45.548780
705.000000	45.488864
704.000000	45.427859
703.000000	45.358071
702.000000	45.297197
701.000000	45.250823
700.000000	45.227925
699.000000	45.160223
698.000000	45.051776
697.000000	44.991683
696.000000	44.926087
695.000000	44.806124
694.000000	44.746355
693.000000	44.680034
692.000000	44.635530
691.000000	44.592126
690.000000	44.532837
689.000000	44.403186
688.000000	44.278692
687.000000	44.255050
686.000000	44.198251
685.000000	44.077012
684.000000	43.989557
683.000000	43.914472
682.000000	43.824268
681.000000	43.783313
680.000000	43.769477
679.000000	43.660078
678.000000	43.562408
677.000000	43.498300
676.000000	43.450129
675.000000	43.345810
674.000000	43.287570
673.000000	43.217033
672.000000	43.142385
671.000000	43.066272
670.000000	42.963390
669.000000	42.894944
668.000000	42.862426
667.000000	42.778619
666.000000	42.697866
665.000000	42.611826
664.000000	42.489377
663.000000	42.489727
662.000000	42.440366
661.000000	42.301650
660.000000	42.208816
659.000000	42.164486
658.000000	42.118090
657.000000	42.039723
656.000000	41.911812
655.000000	41.819995
654.000000	41.739371
653.000000	41.689205
652.000000	41.634196
651.000000	41.543171
650.000000	41.452133
649.000000	41.386020
648.000000	41.297276
647.000000	41.191543
646.000000	41.130007
645.000000	41.033997
644.000000	40.963046
643.000000	40.900021
642.000000	40.805549
641.000000	40.678838
640.000000	40.637039
639.000000	40.556904
638.000000	40.479923
637.000000	40.376646
636.000000	40.297049
635.000000	40.225092
634.000000	40.127587
633.000000	40.088180
632.000000	39.940706
631.000000	39.892888
630.000000	39.838358
629.000000	39.729388
628.000000	39.628306
627.000000	39.523241
626.000000	39.421732
625.000000	39.364744
624.000000	39.303983
623.000000	39.171787
622.000000	39.053735
621.000000	38.991941
620.000000	38.837230
619.000000	38.817300
618.000000	38.745656
617.000000	38.614182
616.000000	38.519688
615.000000	38.442307
614.000000	38.356615
613.000000	38.283674
612.000000	38.190514
611.000000	38.103594
610.000000	38.001224
609.000000	37.900449
608.000000	37.802919
607.000000	37.711954
606.000000	37.611683
605.000000	37.540270
604.000000	37.404612
603.000000	37.333617
602.000000	37.223143
601.000000	37.161539
600.000000	37.052771
599.000000	36.937699
598.000000	36.821039
597.000000	36.773442
596.000000	36.662861
595.000000	36.540038
594.000000	36.457439
593.000000	36.353309
592.000000	36.262379
591.000000	36.148985
590.000000	36.044998
589.000000	35.961414
588.000000	35.849471
587.000000	35.717266
586.000000	35.642661
585.000000	35.550256
584.000000	35.406563
583.000000	35.341891
582.000000	35.240570
581.000000	35.103246
580.000000	34.985564
579.000000	34.909759
578.000000	34.782023
577.000000	34.689475
576.000000	34.589959
575.000000	34.504676
574.000000	34.378052
573.000000	34.258112
572.000000	34.125942
571.000000	34.025069
570.000000	33.896897
569.000000	33.830535
568.000000	33.710307
567.000000	33.611818
566.000000	33.506712
565.000000	33.399762
564.000000	33.267191
563.000000	33.161329
562.000000	33.074657
561.000000	32.966549
560.000000	32.836596
559.000000	32.749548
558.000000	32.664462
557.000000	32.503425
556.000000	32.460781
555.000000	32.313826
554.000000	32.210930
553.000000	32.110980
552.000000	31.999191
551.000000	31.896569
550.000000	31.791212
549.000000	31.648436
548.000000	31.532519
547.000000	31.453776
546.000000	31.336395
545.000000	31.251935
544.000000	31.112707
543.000000	31.009198
542.000000	30.892381
541.000000	30.781706
540.000000	30.667049
539.000000	30.586370
538.000000	30.457384
537.000000	30.342293
536.000000	30.240106
535.000000	30.136968
534.000000	30.002667
533.000000	29.884467
532.000000	29.797320
531.000000	29.673118
530.000000	29.555473
529.000000	29.470262
528.000000	29.345233
527.000000	29.211431
526.000000	29.124896
525.000000	28.992500
524.000000	28.880952
523.000000	28.782756
522.000000	28.676003
521.000000	28.585161
520.000000	28.458225
519.000000	28.319552
518.000000	28.189713
517.000000	28.099678
516.000000	27.954290
515.000000	27.881376
514.000000	27.774526
513.000000	27.658373
512.000000	27.540086
511.000000	27.435025
510.000000	27.341478
509.000000	27.245672
508.000000	27.133405
507.000000	27.032306
506.000000	26.920923
505.000000	26.840217
504.000000	26.722767
503.000000	26.606391
502.000000	26.496662
501.000000	26.375779
500.000000	26.258325
499.000000	26.161793
498.000000	26.051030
497.000000	25.927280
496.000000	25.805120
495.000000	25.675740
494.000000	25.570296
493.000000	25.427444
492.000000	25.301106
491.000000	25.197588
490.000000	25.078713
489.000000	24.966554
488.000000	24.844328
487.000000	24.717710
486.000000	24.596532
485.000000	24.483322
484.000000	24.356279
483.000000	24.248818
482.000000	24.140570
481.000000	24.030235
480.000000	23.941759
479.000000	23.865138
478.000000	23.765094
477.000000	23.660266
476.000000	23.527959
475.000000	23.424794
474.000000	23.332576
473.000000	23.216489
472.000000	23.106759
471.000000	22.994371
470.000000	22.884322
469.000000	22.781340
468.000000	22.672346
467.000000	22.580691
466.000000	22.475604
465.000000	22.358366
464.000000	22.260931
463.000000	22.145108
462.000000	22.026529
461.000000	21.921380
460.000000	21.812833
459.000000	21.678928
458.000000	21.545784
457.000000	21.423654
456.000000	21.304713
455.000000	21.190067
454.000000	21.078213
453.000000	20.954574
452.000000	20.803213
451.000000	20.672124
450.000000	20.562852
449.000000	20.431283
448.000000	20.312869
447.000000	20.181165
446.000000	20.049535
445.000000	19.930646
444.000000	19.801154
443.000000	19.706031
442.000000	19.596125
441.000000	19.467974
440.000000	19.357605
439.000000	19.242380
438.000000	19.111516
437.000000	18.993528
436.000000	18.865334
435.000000	18.767945
434.000000	18.666644
433.000000	18.562514
432.000000	18.434337
431.000000	18.306823
430.000000	18.184995
429.000000	18.071241
428.000000	17.950413
427.000000	17.819909
426.000000	17.684885
425.000000	17.576232
424.000000	17.464882
423.000000	17.346739
422.000000	17.219062
421.000000	17.086102
420.000000	16.955899
419.000000	16.830689
418.000000	16.708873
417.000000	16.577624
416.000000	16.447734
415.000000	16.319812
414.000000	16.180422
413.000000	16.044219
412.000000	15.925363
411.000000	15.789459
410.000000	15.668172
409.000000	15.531484
408.000000	15.398051
407.000000	15.259541
406.000000	15.137306
405.000000	15.006314
404.000000	14.820703
403.000000	14.718090
402.000000	14.603983
401.000000	14.469346
400.000000	14.323131
399.000000	14.190499
398.000000	14.043419
397.000000	13.936957
396.000000	13.789045
395.000000	13.665235
394.000000	13.527232
393.000000	13.412372
392.000000	13.276931
391.000000	13.148720
390.000000	13.039932
389.000000	12.899147
388.000000	12.757901
387.000000	12.661953
386.000000	12.500357
385.000000	12.376974
384.000000	12.250382
383.000000	12.123764
382.000000	12.000465
381.000000	11.869426
380.000000	11.746014
379.000000	11.601219
378.000000	11.448677
377.000000	11.372278
376.000000	11.228006
375.000000	11.121917
374.000000	10.999748
373.000000	10.850003
372.000000	10.756351
371.000000	10.682182
370.000000	10.581331
369.000000	10.543731
368.000000	10.414631
367.000000	10.290486
366.000000	10.197897
365.000000	10.068436
364.000000	10.033600
363.000000	9.940568
362.000000	9.853386
361.000000	9.783142
360.000000	9.707189
359.000000	9.639207
358.000000	9.527835
357.000000	9.427325
356.000000	9.370511
355.000000	9.313155
354.000000	9.215739
353.000000	9.161809
352.000000	9.070734
351.000000	9.028345
350.000000	8.965851
349.000000	8.933261
348.000000	8.777013
347.000000	8.747783
346.000000	8.693248
345.000000	8.639700
344.000000	8.595609
343.000000	8.528574
342.000000	8.460231
341.000000	8.396616
340.000000	8.294125
339.000000	8.275563
338.000000	8.159467
337.000000	8.179395
336.000000	8.066696
335.000000	8.033091
334.000000	7.884733
333.000000	7.941846
332.000000	7.861346
331.000000	7.770472
330.000000	7.762810
329.000000	7.687995
328.000000	7.673273
327.000000	7.599399
326.000000	7.584610
325.000000	7.510288
324.000000	7.483805
323.000000	7.422154
322.000000	7.434498
321.000000	7.354413
320.000000	7.327657
319.000000	7.315373
318.000000	7.277611
317.000000	7.271936
316.000000	7.248378
315.000000	7.247539
314.000000	7.263365
313.000000	7.177899
312.000000	7.185074
311.000000	7.129999
310.000000	7.155428
309.000000	7.085391
308.000000	7.133852
307.000000	7.114822
306.000000	7.089856
305.000000	7.064298
304.000000	7.065502
303.000000	7.030709
302.000000	7.060664
301.000000	7.098013
300.000000	7.053360
299.000000	6.958098
298.000000	7.059465
297.000000	7.091670
296.000000	7.092237
295.000000	7.101981
294.000000	7.075664
293.000000	7.115796
292.000000	7.081651
291.000000	7.111861
290.000000	7.091530
289.000000	7.127252
288.000000	7.168230
287.000000	7.192179
286.000000	7.239914
285.000000	7.253008
284.000000	7.301068
283.000000	7.338539
282.000000	7.362799
281.000000	7.350065
280.000000	7.379858
279.000000	7.466214
278.000000	7.534216
277.000000	7.550104
276.000000	7.601897
275.000000	7.628750
274.000000	7.648742
273.000000	7.701118
272.000000	7.789009
271.000000	7.810217
270.000000	7.853461
269.000000	7.975100
268.000000	7.986275
267.000000	8.068784
266.000000	8.151016
265.000000	8.207297
264.000000	8.289824
263.000000	8.371863
262.000000	8.475464
261.000000	8.528695
260.000000	8.590672
259.000000	8.736267
258.000000	8.816817
257.000000	8.879653
256.000000	8.988698
255.000000	9.075594
254.000000	9.193461
253.000000	9.279447
252.000000	9.407870
251.000000	9.534413
250.000000	9.624441
249.000000	9.732375
248.000000	9.839723
247.000000	9.953225
246.000000	10.067942
245.000000	10.152946
244.000000	10.222451
243.000000	10.397827
242.000000	10.506541
241.000000	10.571407
240.000000	10.703192
239.000000	10.772497
238.000000	10.796154
237.000000	10.880609
236.000000	10.994837
235.000000	11.039256
234.000000	11.168662
233.000000	11.281864
232.000000	11.345506
231.000000	11.444228
230.000000	11.481566
229.000000	11.508667
228.000000	11.648889
227.000000	11.731817
226.000000	11.815560
225.000000	11.932790
224.000000	12.030178
223.000000	12.207685
222.000000	12.413480
221.000000	12.533110
220.000000	12.729320
219.000000	12.831460
218.000000	12.910211
217.000000	13.128147
216.000000	13.430629
215.000000	13.605812
214.000000	13.802646
213.000000	14.112998
212.000000	14.350710
211.000000	14.588958
210.000000	14.879782
209.000000	15.330210
208.000000	15.697446
207.000000	16.122727
206.000000	16.530789
205.000000	16.888637
204.000000	17.405557
203.000000	17.918246
202.000000	18.565195
201.000000	19.248694
200.000000	19.885269
