PE UV       SUBTECH     SPECTRUM    ASCII       PEDS        4.00        
   -1
RDms1482162.Sample.asc
18/03/22
11:29:15.00
18/03/22
11:29:15.00
Administrator

200.000000
1
Lambda 750
750N8071901
PerkinElmer UV WinLab 6.0.4.0738 / 1.61.00 Lambda 900

0
0
3350/servo 860.8/2
0
0
UV/VIS
1
1
1
CommonBeamDepol,150mm sphere / downward view
0
0
0
0
Program
Program
3350/servo 860.8/2
3350/0.2 860.8/0.2
3350/0.2 860.8/0.2
0
1
 
 
 
0
 
860.8
319.2
860.8
Front
100
on
 
 
0
0
0
 
0
 
 
 
0
 
 
0
0
0
0
0
 
 
 
 
0
0


0
0
#HDR
-1
-1
#GR
nm
%R
1.0
0.0
2350.000000
-1.000000
2151
8
73.266432
14.328794
#DATA
2350.000000	42.273938
2349.000000	42.548408
2348.000000	42.144537
2347.000000	42.643616
2346.000000	42.405294
2345.000000	42.549875
2344.000000	42.534463
2343.000000	42.208502
2342.000000	42.452401
2341.000000	42.583092
2340.000000	42.442761
2339.000000	42.524426
2338.000000	42.514116
2337.000000	42.809899
2336.000000	43.017538
2335.000000	42.953905
2334.000000	42.956912
2333.000000	43.137207
2332.000000	43.257969
2331.000000	43.249496
2330.000000	43.034794
2329.000000	42.824316
2328.000000	42.993728
2327.000000	43.088793
2326.000000	42.894651
2325.000000	42.881628
2324.000000	42.938661
2323.000000	42.717081
2322.000000	42.718431
2321.000000	42.698038
2320.000000	42.891580
2319.000000	42.761381
2318.000000	42.348024
2317.000000	42.506333
2316.000000	42.425422
2315.000000	42.273814
2314.000000	42.146218
2313.000000	42.339216
2312.000000	42.264076
2311.000000	42.299558
2310.000000	42.301349
2309.000000	42.023640
2308.000000	42.002327
2307.000000	41.883646
2306.000000	41.798748
2305.000000	41.749438
2304.000000	41.622563
2303.000000	41.703882
2302.000000	41.511352
2301.000000	41.450772
2300.000000	41.201772
2299.000000	41.048957
2298.000000	40.924973
2297.000000	40.804367
2296.000000	40.997602
2295.000000	40.901415
2294.000000	41.010319
2293.000000	40.795908
2292.000000	40.637879
2291.000000	40.348310
2290.000000	40.668765
2289.000000	40.367955
2288.000000	40.478274
2287.000000	40.476391
2286.000000	40.165486
2285.000000	40.141083
2284.000000	40.295928
2283.000000	40.211100
2282.000000	40.195340
2281.000000	40.258029
2280.000000	40.114530
2279.000000	40.227437
2278.000000	40.324458
2277.000000	40.280688
2276.000000	40.376958
2275.000000	40.322858
2274.000000	40.392909
2273.000000	40.635926
2272.000000	40.713887
2271.000000	40.662944
2270.000000	40.647450
2269.000000	40.581313
2268.000000	40.617961
2267.000000	40.726711
2266.000000	40.987161
2265.000000	41.059574
2264.000000	41.223320
2263.000000	41.448070
2262.000000	41.423677
2261.000000	41.469806
2260.000000	41.718241
2259.000000	41.994483
2258.000000	42.164964
2257.000000	42.365060
2256.000000	42.438138
2255.000000	42.692870
2254.000000	42.869296
2253.000000	42.961683
2252.000000	43.285030
2251.000000	43.611560
2250.000000	43.732976
2249.000000	43.948905
2248.000000	44.067889
2247.000000	44.308462
2246.000000	44.653944
2245.000000	44.737519
2244.000000	44.950247
2243.000000	45.225556
2242.000000	45.389074
2241.000000	45.545863
2240.000000	45.668306
2239.000000	45.676177
2238.000000	45.689326
2237.000000	45.843580
2236.000000	46.096728
2235.000000	46.207798
2234.000000	46.336439
2233.000000	46.376576
2232.000000	46.334275
2231.000000	46.453912
2230.000000	46.612044
2229.000000	46.718737
2228.000000	46.727547
2227.000000	46.624137
2226.000000	46.637816
2225.000000	46.514047
2224.000000	46.473763
2223.000000	46.515886
2222.000000	46.573025
2221.000000	46.631803
2220.000000	46.432388
2219.000000	46.338819
2218.000000	46.327168
2217.000000	46.323344
2216.000000	46.330040
2215.000000	46.342087
2214.000000	46.242633
2213.000000	46.270463
2212.000000	46.136489
2211.000000	46.138019
2210.000000	46.105279
2209.000000	45.869634
2208.000000	45.724440
2207.000000	45.673920
2206.000000	45.844688
2205.000000	45.739538
2204.000000	45.563791
2203.000000	45.492280
2202.000000	45.498222
2201.000000	45.411744
2200.000000	45.355777
2199.000000	45.385980
2198.000000	45.352030
2197.000000	45.234931
2196.000000	44.960889
2195.000000	44.908255
2194.000000	44.928103
2193.000000	44.762723
2192.000000	44.798496
2191.000000	44.805764
2190.000000	44.678067
2189.000000	44.549383
2188.000000	44.626935
2187.000000	44.638115
2186.000000	44.578433
2185.000000	44.341547
2184.000000	44.390916
2183.000000	44.493328
2182.000000	44.460056
2181.000000	44.307973
2180.000000	44.217770
2179.000000	44.319273
2178.000000	44.338168
2177.000000	44.288226
2176.000000	44.290736
2175.000000	44.520847
2174.000000	44.360069
2173.000000	44.338026
2172.000000	44.490118
2171.000000	44.677965
2170.000000	44.640020
2169.000000	44.882195
2168.000000	45.009511
2167.000000	45.132180
2166.000000	44.992010
2165.000000	45.321260
2164.000000	45.318722
2163.000000	45.253954
2162.000000	45.508895
2161.000000	45.618599
2160.000000	45.651091
2159.000000	45.843162
2158.000000	45.965666
2157.000000	46.007874
2156.000000	46.191408
2155.000000	46.384513
2154.000000	46.597905
2153.000000	46.903031
2152.000000	47.012576
2151.000000	47.034737
2150.000000	47.010417
2149.000000	47.425339
2148.000000	47.476803
2147.000000	47.806930
2146.000000	47.731863
2145.000000	48.078812
2144.000000	48.113167
2143.000000	48.165379
2142.000000	48.223027
2141.000000	48.474520
2140.000000	48.601988
2139.000000	48.734163
2138.000000	48.821274
2137.000000	49.142108
2136.000000	48.950947
2135.000000	49.311465
2134.000000	49.412783
2133.000000	49.278667
2132.000000	49.344077
2131.000000	49.841237
2130.000000	49.821235
2129.000000	49.649077
2128.000000	49.677198
2127.000000	49.664403
2126.000000	49.894227
2125.000000	49.948592
2124.000000	50.092263
2123.000000	49.898977
2122.000000	49.924518
2121.000000	50.233907
2120.000000	50.181778
2119.000000	50.280150
2118.000000	50.250023
2117.000000	50.327710
2116.000000	50.384855
2115.000000	50.376929
2114.000000	50.361311
2113.000000	50.353950
2112.000000	50.432974
2111.000000	50.490050
2110.000000	50.436162
2109.000000	50.460050
2108.000000	50.467423
2107.000000	50.558153
2106.000000	50.582328
2105.000000	50.505720
2104.000000	50.446004
2103.000000	50.629251
2102.000000	50.560507
2101.000000	50.599263
2100.000000	50.647099
2099.000000	50.625919
2098.000000	50.674079
2097.000000	50.571138
2096.000000	50.677035
2095.000000	50.571225
2094.000000	50.579126
2093.000000	50.605447
2092.000000	50.500676
2091.000000	50.570390
2090.000000	50.450214
2089.000000	50.529949
2088.000000	50.374202
2087.000000	50.396439
2086.000000	50.521622
2085.000000	50.435377
2084.000000	50.283381
2083.000000	50.167841
2082.000000	50.248096
2081.000000	50.129374
2080.000000	50.100641
2079.000000	50.007243
2078.000000	49.910319
2077.000000	49.798666
2076.000000	49.678633
2075.000000	49.631977
2074.000000	49.529629
2073.000000	49.404686
2072.000000	49.329360
2071.000000	49.139013
2070.000000	49.061719
2069.000000	48.927259
2068.000000	48.793244
2067.000000	48.652371
2066.000000	48.459365
2065.000000	48.290893
2064.000000	48.145188
2063.000000	47.974527
2062.000000	47.893050
2061.000000	47.754441
2060.000000	47.608042
2059.000000	47.500000
2058.000000	47.337319
2057.000000	47.183674
2056.000000	47.071159
2055.000000	46.938004
2054.000000	46.800656
2053.000000	46.645455
2052.000000	46.568287
2051.000000	46.401608
2050.000000	46.213021
2049.000000	46.199246
2048.000000	46.120737
2047.000000	46.006169
2046.000000	45.897616
2045.000000	45.861332
2044.000000	45.890265
2043.000000	45.871762
2042.000000	45.852550
2041.000000	45.890267
2040.000000	45.925034
2039.000000	45.828571
2038.000000	45.849823
2037.000000	46.004906
2036.000000	46.062885
2035.000000	46.110246
2034.000000	46.247989
2033.000000	46.311355
2032.000000	46.392884
2031.000000	46.547655
2030.000000	46.677559
2029.000000	46.748759
2028.000000	46.855646
2027.000000	46.975983
2026.000000	47.084722
2025.000000	47.191255
2024.000000	47.242035
2023.000000	47.251590
2022.000000	47.273209
2021.000000	47.313313
2020.000000	47.376480
2019.000000	47.427381
2018.000000	47.449088
2017.000000	47.451983
2016.000000	47.413377
2015.000000	47.401869
2014.000000	47.386409
2013.000000	47.365011
2012.000000	47.324191
2011.000000	47.258495
2010.000000	47.178498
2009.000000	47.130742
2008.000000	47.054109
2007.000000	46.955770
2006.000000	46.835497
2005.000000	46.782464
2004.000000	46.652083
2003.000000	46.502622
2002.000000	46.431170
2001.000000	46.303921
2000.000000	46.161769
1999.000000	46.106399
1998.000000	46.031046
1997.000000	45.896081
1996.000000	45.787044
1995.000000	45.667754
1994.000000	45.570605
1993.000000	45.447603
1992.000000	45.322686
1991.000000	45.178480
1990.000000	45.078094
1989.000000	44.986939
1988.000000	44.879567
1987.000000	44.738384
1986.000000	44.652066
1985.000000	44.535583
1984.000000	44.447664
1983.000000	44.266806
1982.000000	44.185947
1981.000000	44.098135
1980.000000	43.997824
1979.000000	43.862403
1978.000000	43.749085
1977.000000	43.630246
1976.000000	43.511407
1975.000000	43.421107
1974.000000	43.331900
1973.000000	43.261540
1972.000000	43.150427
1971.000000	43.017629
1970.000000	42.913319
1969.000000	42.816314
1968.000000	42.751480
1967.000000	42.652980
1966.000000	42.550515
1965.000000	42.397465
1964.000000	42.330928
1963.000000	42.241394
1962.000000	42.145477
1961.000000	42.016690
1960.000000	41.974785
1959.000000	41.905551
1958.000000	41.815054
1957.000000	41.758285
1956.000000	41.667971
1955.000000	41.559045
1954.000000	41.499218
1953.000000	41.449265
1952.000000	41.389810
1951.000000	41.403689
1950.000000	41.333673
1949.000000	41.235955
1948.000000	41.192752
1947.000000	41.166491
1946.000000	41.188512
1945.000000	41.215896
1944.000000	41.159831
1943.000000	41.166074
1942.000000	41.175515
1941.000000	41.244260
1940.000000	41.340135
1939.000000	41.372675
1938.000000	41.432379
1937.000000	41.501811
1936.000000	41.604917
1935.000000	41.752853
1934.000000	41.926694
1933.000000	42.005730
1932.000000	42.158034
1931.000000	42.288422
1930.000000	42.465314
1929.000000	42.647665
1928.000000	42.850877
1927.000000	43.060784
1926.000000	43.341737
1925.000000	43.541008
1924.000000	43.792636
1923.000000	44.051306
1922.000000	44.365048
1921.000000	44.577789
1920.000000	44.838388
1919.000000	45.212184
1918.000000	45.558916
1917.000000	45.896260
1916.000000	46.154314
1915.000000	46.596336
1914.000000	46.984189
1913.000000	47.417415
1912.000000	47.756352
1911.000000	48.090186
1910.000000	48.603049
1909.000000	48.896207
1908.000000	49.333551
1907.000000	49.786635
1906.000000	50.211142
1905.000000	50.747761
1904.000000	51.326162
1903.000000	51.752962
1902.000000	52.207826
1901.000000	52.730595
1900.000000	53.164952
1899.000000	53.819764
1898.000000	54.194214
1897.000000	54.646542
1896.000000	55.059122
1895.000000	55.587559
1894.000000	56.032885
1893.000000	56.487619
1892.000000	56.960929
1891.000000	57.352981
1890.000000	57.802077
1889.000000	58.219973
1888.000000	58.592685
1887.000000	58.959052
1886.000000	59.309985
1885.000000	59.683861
1884.000000	60.056019
1883.000000	60.357902
1882.000000	60.634034
1881.000000	60.925958
1880.000000	61.260909
1879.000000	61.493323
1878.000000	61.748435
1877.000000	62.012151
1876.000000	62.244597
1875.000000	62.524409
1874.000000	62.648906
1873.000000	62.828715
1872.000000	62.969632
1871.000000	63.192122
1870.000000	63.350434
1869.000000	63.451514
1868.000000	63.604345
1867.000000	63.695854
1866.000000	63.740159
1865.000000	63.861791
1864.000000	63.925335
1863.000000	64.011453
1862.000000	64.075668
1861.000000	64.134855
1860.000000	64.161545
1859.000000	64.225769
1858.000000	64.259328
1857.000000	64.323021
1856.000000	64.329314
1855.000000	64.397731
1854.000000	64.396637
1853.000000	64.426965
1852.000000	64.432480
1851.000000	64.477554
1850.000000	64.452757
1849.000000	64.461567
1848.000000	64.492118
1847.000000	64.469452
1846.000000	64.490478
1845.000000	64.478455
1844.000000	64.398467
1843.000000	64.365515
1842.000000	64.330126
1841.000000	64.321414
1840.000000	64.315477
1839.000000	64.321126
1838.000000	64.293300
1837.000000	64.260526
1836.000000	64.225496
1835.000000	64.225772
1834.000000	64.197992
1833.000000	64.140456
1832.000000	64.078647
1831.000000	64.053108
1830.000000	64.032481
1829.000000	64.005693
1828.000000	63.952657
1827.000000	63.933051
1826.000000	63.919312
1825.000000	63.888361
1824.000000	63.873205
1823.000000	63.849896
1822.000000	63.780088
1821.000000	63.754281
1820.000000	63.733330
1819.000000	63.702374
1818.000000	63.689360
1817.000000	63.643756
1816.000000	63.604814
1815.000000	63.592959
1814.000000	63.570062
1813.000000	63.537383
1812.000000	63.501888
1811.000000	63.469480
1810.000000	63.444395
1809.000000	63.425973
1808.000000	63.392218
1807.000000	63.361507
1806.000000	63.316654
1805.000000	63.307032
1804.000000	63.317503
1803.000000	63.270734
1802.000000	63.224082
1801.000000	63.207873
1800.000000	63.209542
1799.000000	63.183725
1798.000000	63.150511
1797.000000	63.131690
1796.000000	63.117728
1795.000000	63.120406
1794.000000	63.100072
1793.000000	63.070176
1792.000000	63.057595
1791.000000	63.031662
1790.000000	63.020526
1789.000000	63.015182
1788.000000	62.985286
1787.000000	62.975370
1786.000000	62.945044
1785.000000	62.909972
1784.000000	62.909977
1783.000000	62.911566
1782.000000	62.879696
1781.000000	62.824192
1780.000000	62.791682
1779.000000	62.785111
1778.000000	62.746118
1777.000000	62.716022
1776.000000	62.685264
1775.000000	62.625453
1774.000000	62.565815
1773.000000	62.559072
1772.000000	62.511997
1771.000000	62.475102
1770.000000	62.430461
1769.000000	62.367284
1768.000000	62.325256
1767.000000	62.309432
1766.000000	62.273213
1765.000000	62.221675
1764.000000	62.204409
1763.000000	62.147746
1762.000000	62.129778
1761.000000	62.064154
1760.000000	62.003235
1759.000000	61.993194
1758.000000	61.988900
1757.000000	61.920152
1756.000000	61.854346
1755.000000	61.840042
1754.000000	61.816585
1753.000000	61.740682
1752.000000	61.692866
1751.000000	61.650515
1750.000000	61.622569
1749.000000	61.617421
1748.000000	61.530485
1747.000000	61.468402
1746.000000	61.433276
1745.000000	61.376304
1744.000000	61.356629
1743.000000	61.324776
1742.000000	61.238230
1741.000000	61.193293
1740.000000	61.172647
1739.000000	61.146521
1738.000000	61.096204
1737.000000	61.072905
1736.000000	61.065319
1735.000000	61.079578
1734.000000	61.049110
1733.000000	61.066480
1732.000000	61.032512
1731.000000	61.019394
1730.000000	61.073816
1729.000000	61.055719
1728.000000	61.166276
1727.000000	61.186862
1726.000000	61.267619
1725.000000	61.333750
1724.000000	61.377070
1723.000000	61.406880
1722.000000	61.521543
1721.000000	61.597746
1720.000000	61.683755
1719.000000	61.788858
1718.000000	61.863639
1717.000000	61.884872
1716.000000	61.991111
1715.000000	62.103450
1714.000000	62.194861
1713.000000	62.231844
1712.000000	62.291633
1711.000000	62.377924
1710.000000	62.454231
1709.000000	62.466461
1708.000000	62.525525
1707.000000	62.540084
1706.000000	62.573579
1705.000000	62.602271
1704.000000	62.627535
1703.000000	62.635999
1702.000000	62.637081
1701.000000	62.715372
1700.000000	62.691587
1699.000000	62.687279
1698.000000	62.727700
1697.000000	62.763544
1696.000000	62.804446
1695.000000	62.812488
1694.000000	62.839291
1693.000000	62.901388
1692.000000	62.958365
1691.000000	62.957378
1690.000000	63.020954
1689.000000	63.113888
1688.000000	63.195129
1687.000000	63.262459
1686.000000	63.388052
1685.000000	63.487274
1684.000000	63.579599
1683.000000	63.754665
1682.000000	63.837178
1681.000000	63.976262
1680.000000	64.102585
1679.000000	64.223510
1678.000000	64.373889
1677.000000	64.513986
1676.000000	64.644476
1675.000000	64.771764
1674.000000	64.923690
1673.000000	65.061263
1672.000000	65.155547
1671.000000	65.318094
1670.000000	65.435319
1669.000000	65.556385
1668.000000	65.645838
1667.000000	65.761409
1666.000000	65.794762
1665.000000	65.908684
1664.000000	65.961686
1663.000000	66.040429
1662.000000	66.085065
1661.000000	66.133299
1660.000000	66.206892
1659.000000	66.242349
1658.000000	66.290169
1657.000000	66.329697
1656.000000	66.370588
1655.000000	66.411378
1654.000000	66.400990
1653.000000	66.410262
1652.000000	66.450187
1651.000000	66.440399
1650.000000	66.423069
1649.000000	66.443663
1648.000000	66.420096
1647.000000	66.422621
1646.000000	66.439415
1645.000000	66.379052
1644.000000	66.372080
1643.000000	66.366379
1642.000000	66.345630
1641.000000	66.337690
1640.000000	66.339550
1639.000000	66.320122
1638.000000	66.295409
1637.000000	66.275309
1636.000000	66.224026
1635.000000	66.200495
1634.000000	66.189169
1633.000000	66.158439
1632.000000	66.122711
1631.000000	66.063024
1630.000000	66.031316
1629.000000	66.009826
1628.000000	65.981339
1627.000000	65.950607
1626.000000	65.898922
1625.000000	65.870841
1624.000000	65.857053
1623.000000	65.808375
1622.000000	65.773244
1621.000000	65.735827
1620.000000	65.694271
1619.000000	65.645340
1618.000000	65.602528
1617.000000	65.561703
1616.000000	65.508516
1615.000000	65.453241
1614.000000	65.406085
1613.000000	65.383415
1612.000000	65.353934
1611.000000	65.291645
1610.000000	65.251422
1609.000000	65.204878
1608.000000	65.161611
1607.000000	65.108222
1606.000000	65.050378
1605.000000	64.997565
1604.000000	64.929358
1603.000000	64.873459
1602.000000	64.823482
1601.000000	64.777869
1600.000000	64.751594
1599.000000	64.701367
1598.000000	64.645477
1597.000000	64.592491
1596.000000	64.539736
1595.000000	64.490475
1594.000000	64.449418
1593.000000	64.423291
1592.000000	64.373771
1591.000000	64.328934
1590.000000	64.299910
1589.000000	64.244508
1588.000000	64.211577
1587.000000	64.187131
1586.000000	64.140770
1585.000000	64.101347
1584.000000	64.052134
1583.000000	64.021608
1582.000000	63.995357
1581.000000	63.964008
1580.000000	63.927550
1579.000000	63.896193
1578.000000	63.878785
1577.000000	63.813908
1576.000000	63.760429
1575.000000	63.723387
1574.000000	63.693739
1573.000000	63.662680
1572.000000	63.623011
1571.000000	63.582739
1570.000000	63.555275
1569.000000	63.510702
1568.000000	63.481584
1567.000000	63.449507
1566.000000	63.412929
1565.000000	63.391981
1564.000000	63.384487
1563.000000	63.369554
1562.000000	63.325132
1561.000000	63.326033
1560.000000	63.306883
1559.000000	63.272834
1558.000000	63.258851
1557.000000	63.248772
1556.000000	63.219725
1555.000000	63.208702
1554.000000	63.188265
1553.000000	63.166859
1552.000000	63.121313
1551.000000	63.112139
1550.000000	63.077581
1549.000000	63.044463
1548.000000	63.035193
1547.000000	62.967005
1546.000000	62.897483
1545.000000	62.854719
1544.000000	62.775241
1543.000000	62.734391
1542.000000	62.675801
1541.000000	62.619379
1540.000000	62.525796
1539.000000	62.474074
1538.000000	62.400666
1537.000000	62.312876
1536.000000	62.243419
1535.000000	62.173009
1534.000000	62.103276
1533.000000	62.065528
1532.000000	61.968006
1531.000000	61.905386
1530.000000	61.829233
1529.000000	61.753516
1528.000000	61.726646
1527.000000	61.659284
1526.000000	61.619507
1525.000000	61.551714
1524.000000	61.475166
1523.000000	61.437713
1522.000000	61.408160
1521.000000	61.385779
1520.000000	61.350907
1519.000000	61.335755
1518.000000	61.295810
1517.000000	61.273783
1516.000000	61.238839
1515.000000	61.203381
1514.000000	61.158882
1513.000000	61.178428
1512.000000	61.137056
1511.000000	61.124850
1510.000000	61.122129
1509.000000	61.098361
1508.000000	61.102945
1507.000000	61.093237
1506.000000	61.090800
1505.000000	61.079078
1504.000000	61.073813
1503.000000	61.081115
1502.000000	61.063318
1501.000000	61.048664
1500.000000	61.048709
1499.000000	61.064193
1498.000000	61.065119
1497.000000	61.073566
1496.000000	61.074539
1495.000000	61.105289
1494.000000	61.096547
1493.000000	61.142608
1492.000000	61.146095
1491.000000	61.186832
1490.000000	61.219657
1489.000000	61.238204
1488.000000	61.267332
1487.000000	61.281216
1486.000000	61.331659
1485.000000	61.360585
1484.000000	61.385521
1483.000000	61.442680
1482.000000	61.464069
1481.000000	61.532129
1480.000000	61.548834
1479.000000	61.567713
1478.000000	61.625297
1477.000000	61.675991
1476.000000	61.699838
1475.000000	61.737406
1474.000000	61.767145
1473.000000	61.825689
1472.000000	61.843135
1471.000000	61.877239
1470.000000	61.917938
1469.000000	61.949332
1468.000000	62.004402
1467.000000	62.053693
1466.000000	62.093606
1465.000000	62.106910
1464.000000	62.151072
1463.000000	62.190335
1462.000000	62.214619
1461.000000	62.289681
1460.000000	62.304589
1459.000000	62.362144
1458.000000	62.407397
1457.000000	62.443937
1456.000000	62.502566
1455.000000	62.530831
1454.000000	62.585267
1453.000000	62.648807
1452.000000	62.719596
1451.000000	62.774783
1450.000000	62.821902
1449.000000	62.849685
1448.000000	62.923158
1447.000000	63.001293
1446.000000	63.069009
1445.000000	63.146216
1444.000000	63.192138
1443.000000	63.261485
1442.000000	63.339238
1441.000000	63.411104
1440.000000	63.490643
1439.000000	63.563637
1438.000000	63.655956
1437.000000	63.759144
1436.000000	63.839007
1435.000000	63.935006
1434.000000	64.002608
1433.000000	64.106197
1432.000000	64.199777
1431.000000	64.304597
1430.000000	64.404847
1429.000000	64.512840
1428.000000	64.623198
1427.000000	64.732964
1426.000000	64.864110
1425.000000	64.984613
1424.000000	65.099458
1423.000000	65.218067
1422.000000	65.356543
1421.000000	65.492295
1420.000000	65.613212
1419.000000	65.740544
1418.000000	65.890520
1417.000000	66.022728
1416.000000	66.169971
1415.000000	66.307442
1414.000000	66.445951
1413.000000	66.589628
1412.000000	66.735754
1411.000000	66.879022
1410.000000	67.019572
1409.000000	67.151352
1408.000000	67.295866
1407.000000	67.463021
1406.000000	67.588347
1405.000000	67.731100
1404.000000	67.842681
1403.000000	67.973481
1402.000000	68.106868
1401.000000	68.225073
1400.000000	68.349309
1399.000000	68.466267
1398.000000	68.592225
1397.000000	68.711074
1396.000000	68.838485
1395.000000	68.939230
1394.000000	69.033076
1393.000000	69.135219
1392.000000	69.241070
1391.000000	69.348687
1390.000000	69.439662
1389.000000	69.506378
1388.000000	69.598234
1387.000000	69.680764
1386.000000	69.752901
1385.000000	69.837572
1384.000000	69.915941
1383.000000	69.976449
1382.000000	70.034683
1381.000000	70.097486
1380.000000	70.147542
1379.000000	70.191941
1378.000000	70.250385
1377.000000	70.315117
1376.000000	70.358338
1375.000000	70.394358
1374.000000	70.441038
1373.000000	70.475711
1372.000000	70.517023
1371.000000	70.556939
1370.000000	70.585842
1369.000000	70.615759
1368.000000	70.653031
1367.000000	70.697083
1366.000000	70.732337
1365.000000	70.749276
1364.000000	70.789641
1363.000000	70.834585
1362.000000	70.864035
1361.000000	70.903249
1360.000000	70.958838
1359.000000	70.986208
1358.000000	70.998236
1357.000000	71.038865
1356.000000	71.082095
1355.000000	71.112317
1354.000000	71.155206
1353.000000	71.212867
1352.000000	71.247119
1351.000000	71.304246
1350.000000	71.324219
1349.000000	71.352071
1348.000000	71.386484
1347.000000	71.440247
1346.000000	71.474271
1345.000000	71.506031
1344.000000	71.546025
1343.000000	71.608620
1342.000000	71.622369
1341.000000	71.636807
1340.000000	71.662334
1339.000000	71.688927
1338.000000	71.720306
1337.000000	71.748589
1336.000000	71.775342
1335.000000	71.809965
1334.000000	71.848221
1333.000000	71.879446
1332.000000	71.913096
1331.000000	71.940347
1330.000000	71.980954
1329.000000	72.003613
1328.000000	72.014701
1327.000000	72.024800
1326.000000	72.063965
1325.000000	72.078103
1324.000000	72.088751
1323.000000	72.098577
1322.000000	72.120746
1321.000000	72.123477
1320.000000	72.121178
1319.000000	72.163988
1318.000000	72.192969
1317.000000	72.205477
1316.000000	72.186994
1315.000000	72.176581
1314.000000	72.201981
1313.000000	72.241388
1312.000000	72.235991
1311.000000	72.303184
1310.000000	72.281963
1309.000000	72.258258
1308.000000	72.267226
1307.000000	72.274322
1306.000000	72.299119
1305.000000	72.301595
1304.000000	72.306778
1303.000000	72.327435
1302.000000	72.345245
1301.000000	72.348279
1300.000000	72.365124
1299.000000	72.357287
1298.000000	72.337944
1297.000000	72.350744
1296.000000	72.349072
1295.000000	72.353506
1294.000000	72.352524
1293.000000	72.361954
1292.000000	72.357644
1291.000000	72.363566
1290.000000	72.379329
1289.000000	72.360766
1288.000000	72.327001
1287.000000	72.340803
1286.000000	72.332771
1285.000000	72.342805
1284.000000	72.344562
1283.000000	72.343404
1282.000000	72.317345
1281.000000	72.308979
1280.000000	72.327133
1279.000000	72.303313
1278.000000	72.325978
1277.000000	72.343787
1276.000000	72.320650
1275.000000	72.327258
1274.000000	72.338832
1273.000000	72.333056
1272.000000	72.320757
1271.000000	72.320516
1270.000000	72.323676
1269.000000	72.325881
1268.000000	72.356862
1267.000000	72.361644
1266.000000	72.336403
1265.000000	72.360769
1264.000000	72.363770
1263.000000	72.374782
1262.000000	72.378531
1261.000000	72.386725
1260.000000	72.378769
1259.000000	72.381137
1258.000000	72.404344
1257.000000	72.408395
1256.000000	72.403586
1255.000000	72.392711
1254.000000	72.426965
1253.000000	72.412208
1252.000000	72.423463
1251.000000	72.429686
1250.000000	72.422715
1249.000000	72.431346
1248.000000	72.398377
1247.000000	72.407645
1246.000000	72.407369
1245.000000	72.398564
1244.000000	72.405752
1243.000000	72.395372
1242.000000	72.387843
1241.000000	72.353581
1240.000000	72.344445
1239.000000	72.329119
1238.000000	72.329719
1237.000000	72.292145
1236.000000	72.289996
1235.000000	72.285526
1234.000000	72.268969
1233.000000	72.251535
1232.000000	72.236599
1231.000000	72.226100
1230.000000	72.203585
1229.000000	72.205361
1228.000000	72.199113
1227.000000	72.153019
1226.000000	72.148147
1225.000000	72.147789
1224.000000	72.123884
1223.000000	72.105666
1222.000000	72.113289
1221.000000	72.101432
1220.000000	72.085949
1219.000000	72.047477
1218.000000	72.022375
1217.000000	72.018746
1216.000000	72.032937
1215.000000	71.994371
1214.000000	71.971859
1213.000000	71.987721
1212.000000	71.972013
1211.000000	71.943515
1210.000000	71.911244
1209.000000	71.923189
1208.000000	71.894250
1207.000000	71.845631
1206.000000	71.839944
1205.000000	71.839844
1204.000000	71.805724
1203.000000	71.798883
1202.000000	71.792026
1201.000000	71.800550
1200.000000	71.755327
1199.000000	71.720972
1198.000000	71.713893
1197.000000	71.716324
1196.000000	71.686917
1195.000000	71.658334
1194.000000	71.636735
1193.000000	71.630596
1192.000000	71.621499
1191.000000	71.634289
1190.000000	71.609092
1189.000000	71.587767
1188.000000	71.605602
1187.000000	71.604091
1186.000000	71.602415
1185.000000	71.616880
1184.000000	71.607348
1183.000000	71.602478
1182.000000	71.623624
1181.000000	71.649628
1180.000000	71.661187
1179.000000	71.666858
1178.000000	71.692055
1177.000000	71.697441
1176.000000	71.707773
1175.000000	71.751623
1174.000000	71.787978
1173.000000	71.822946
1172.000000	71.838289
1171.000000	71.881908
1170.000000	71.936359
1169.000000	71.964539
1168.000000	72.008445
1167.000000	72.057992
1166.000000	72.089509
1165.000000	72.127935
1164.000000	72.166615
1163.000000	72.193199
1162.000000	72.241518
1161.000000	72.290479
1160.000000	72.333813
1159.000000	72.379006
1158.000000	72.414821
1157.000000	72.443990
1156.000000	72.473588
1155.000000	72.511098
1154.000000	72.543271
1153.000000	72.570703
1152.000000	72.602978
1151.000000	72.621195
1150.000000	72.650800
1149.000000	72.703704
1148.000000	72.732314
1147.000000	72.755128
1146.000000	72.772119
1145.000000	72.795529
1144.000000	72.836895
1143.000000	72.856777
1142.000000	72.870108
1141.000000	72.893071
1140.000000	72.921831
1139.000000	72.949450
1138.000000	72.973546
1137.000000	72.976881
1136.000000	72.991173
1135.000000	73.003214
1134.000000	73.040587
1133.000000	73.063505
1132.000000	73.077089
1131.000000	73.084902
1130.000000	73.112361
1129.000000	73.130785
1128.000000	73.129891
1127.000000	73.152415
1126.000000	73.172022
1125.000000	73.167511
1124.000000	73.180446
1123.000000	73.165826
1122.000000	73.172992
1121.000000	73.194618
1120.000000	73.195173
1119.000000	73.206931
1118.000000	73.212008
1117.000000	73.202623
1116.000000	73.215410
1115.000000	73.231251
1114.000000	73.234917
1113.000000	73.244059
1112.000000	73.252497
1111.000000	73.238696
1110.000000	73.232579
1109.000000	73.241517
1108.000000	73.236831
1107.000000	73.247657
1106.000000	73.266432
1105.000000	73.230640
1104.000000	73.238799
1103.000000	73.239045
1102.000000	73.237707
1101.000000	73.244377
1100.000000	73.240746
1099.000000	73.229978
1098.000000	73.253278
1097.000000	73.224829
1096.000000	73.228383
1095.000000	73.222780
1094.000000	73.238054
1093.000000	73.237585
1092.000000	73.220372
1091.000000	73.234251
1090.000000	73.227986
1089.000000	73.212331
1088.000000	73.214478
1087.000000	73.215653
1086.000000	73.219564
1085.000000	73.216029
1084.000000	73.199779
1083.000000	73.195840
1082.000000	73.186749
1081.000000	73.183810
1080.000000	73.183062
1079.000000	73.197979
1078.000000	73.188054
1077.000000	73.175477
1076.000000	73.165433
1075.000000	73.149629
1074.000000	73.161202
1073.000000	73.161148
1072.000000	73.127432
1071.000000	73.149986
1070.000000	73.162202
1069.000000	73.158967
1068.000000	73.148469
1067.000000	73.140000
1066.000000	73.120932
1065.000000	73.135214
1064.000000	73.112568
1063.000000	73.104200
1062.000000	73.098031
1061.000000	73.080450
1060.000000	73.093295
1059.000000	73.086492
1058.000000	73.076763
1057.000000	73.059454
1056.000000	73.065872
1055.000000	73.070622
1054.000000	73.069631
1053.000000	73.065994
1052.000000	73.058397
1051.000000	73.053971
1050.000000	73.047579
1049.000000	73.038888
1048.000000	73.036020
1047.000000	73.018594
1046.000000	73.032848
1045.000000	73.031513
1044.000000	73.040851
1043.000000	73.019322
1042.000000	73.009991
1041.000000	73.012784
1040.000000	72.997865
1039.000000	72.988891
1038.000000	72.998241
1037.000000	72.980292
1036.000000	72.989081
1035.000000	72.985162
1034.000000	72.966081
1033.000000	72.960589
1032.000000	72.960120
1031.000000	72.954647
1030.000000	72.964035
1029.000000	72.960018
1028.000000	72.935794
1027.000000	72.946440
1026.000000	72.972009
1025.000000	72.946458
1024.000000	72.938410
1023.000000	72.923969
1022.000000	72.916798
1021.000000	72.917455
1020.000000	72.915143
1019.000000	72.911390
1018.000000	72.925703
1017.000000	72.918998
1016.000000	72.908589
1015.000000	72.906336
1014.000000	72.906550
1013.000000	72.921182
1012.000000	72.914146
1011.000000	72.906623
1010.000000	72.910694
1009.000000	72.898170
1008.000000	72.887319
1007.000000	72.901339
1006.000000	72.892015
1005.000000	72.891041
1004.000000	72.889743
1003.000000	72.886812
1002.000000	72.868904
1001.000000	72.862127
1000.000000	72.866468
999.000000	72.883320
998.000000	72.896586
997.000000	72.886758
996.000000	72.884520
995.000000	72.881247
994.000000	72.872535
993.000000	72.862670
992.000000	72.864300
991.000000	72.883574
990.000000	72.885502
989.000000	72.879245
988.000000	72.873147
987.000000	72.875078
986.000000	72.886952
985.000000	72.890044
984.000000	72.889142
983.000000	72.869437
982.000000	72.889997
981.000000	72.889933
980.000000	72.867198
979.000000	72.885032
978.000000	72.866915
977.000000	72.860309
976.000000	72.867543
975.000000	72.884695
974.000000	72.879691
973.000000	72.870098
972.000000	72.876805
971.000000	72.878053
970.000000	72.876395
969.000000	72.920183
968.000000	72.908288
967.000000	72.906176
966.000000	72.903201
965.000000	72.896082
964.000000	72.887281
963.000000	72.897750
962.000000	72.910104
961.000000	72.905144
960.000000	72.894783
959.000000	72.877901
958.000000	72.884342
957.000000	72.912305
956.000000	72.928012
955.000000	72.935470
954.000000	72.935987
953.000000	72.927595
952.000000	72.931239
951.000000	72.921563
950.000000	72.928387
949.000000	72.941682
948.000000	72.927076
947.000000	72.949159
946.000000	72.967571
945.000000	72.965502
944.000000	72.968881
943.000000	72.933975
942.000000	72.936960
941.000000	72.940589
940.000000	72.937392
939.000000	72.938963
938.000000	72.929402
937.000000	72.937000
936.000000	72.924874
935.000000	72.931194
934.000000	72.940449
933.000000	72.927535
932.000000	72.914008
931.000000	72.919156
930.000000	72.921891
929.000000	72.925412
928.000000	72.933228
927.000000	72.931030
926.000000	72.913776
925.000000	72.926944
924.000000	72.928731
923.000000	72.887660
922.000000	72.879720
921.000000	72.878070
920.000000	72.846977
919.000000	72.846779
918.000000	72.872237
917.000000	72.873394
916.000000	72.859549
915.000000	72.867407
914.000000	72.879570
913.000000	72.864535
912.000000	72.839248
911.000000	72.802694
910.000000	72.807457
909.000000	72.784534
908.000000	72.771553
907.000000	72.784197
906.000000	72.796317
905.000000	72.795345
904.000000	72.777408
903.000000	72.781037
902.000000	72.798759
901.000000	72.817627
900.000000	72.806724
899.000000	72.805709
898.000000	72.847081
897.000000	72.892239
896.000000	72.821764
895.000000	72.788479
894.000000	72.799865
893.000000	72.816023
892.000000	72.850077
891.000000	72.845578
890.000000	72.842596
889.000000	72.851877
888.000000	72.871693
887.000000	72.894053
886.000000	72.892819
885.000000	72.867416
884.000000	72.908352
883.000000	72.878876
882.000000	72.774770
881.000000	72.784676
880.000000	72.760753
879.000000	72.778776
878.000000	72.799521
877.000000	72.819957
876.000000	72.879768
875.000000	72.833907
874.000000	72.847001
873.000000	72.835119
872.000000	72.919611
871.000000	72.930776
870.000000	72.835453
869.000000	72.837266
868.000000	72.702837
867.000000	72.694768
866.000000	72.702725
865.000000	72.774281
864.000000	72.806173
863.000000	72.701813
862.000000	72.783111
861.000000	72.704987
860.000000	72.891546
859.000000	73.150221
858.000000	71.762990
857.000000	72.995194
856.000000	72.709113
855.000000	72.700002
854.000000	72.749606
853.000000	73.025207
852.000000	72.647187
851.000000	73.003589
850.000000	72.630092
849.000000	72.366069
848.000000	72.460425
847.000000	72.703025
846.000000	72.660689
845.000000	72.464442
844.000000	72.620431
843.000000	72.599152
842.000000	72.536942
841.000000	72.220949
840.000000	72.552726
839.000000	72.393876
838.000000	72.269326
837.000000	72.415519
836.000000	72.541177
835.000000	72.521027
834.000000	72.376253
833.000000	72.387724
832.000000	72.445732
831.000000	72.244462
830.000000	72.330553
829.000000	72.046253
828.000000	72.640623
827.000000	72.259219
826.000000	72.401637
825.000000	71.892645
824.000000	72.163155
823.000000	72.155096
822.000000	72.241308
821.000000	72.278849
820.000000	72.120906
819.000000	72.253246
818.000000	72.142787
817.000000	72.134941
816.000000	71.926257
815.000000	72.046698
814.000000	72.225171
813.000000	72.163946
812.000000	72.183032
811.000000	71.974381
810.000000	71.805940
809.000000	72.183053
808.000000	72.088241
807.000000	72.120444
806.000000	72.213748
805.000000	72.040841
804.000000	72.060330
803.000000	72.130653
802.000000	71.963904
801.000000	71.967950
800.000000	72.052545
799.000000	71.753897
798.000000	71.751144
797.000000	71.847870
796.000000	71.913504
795.000000	71.960107
794.000000	71.654004
793.000000	71.972090
792.000000	71.846067
791.000000	71.844845
790.000000	71.859016
789.000000	71.877745
788.000000	71.843315
787.000000	71.822192
786.000000	71.866114
785.000000	71.843822
784.000000	71.685743
783.000000	71.734778
782.000000	71.716877
781.000000	71.683236
780.000000	71.680609
779.000000	71.586522
778.000000	71.673130
777.000000	71.523694
776.000000	71.565352
775.000000	71.606617
774.000000	71.598788
773.000000	71.576955
772.000000	71.551702
771.000000	71.509211
770.000000	71.598183
769.000000	71.458137
768.000000	71.346856
767.000000	71.426216
766.000000	71.412125
765.000000	71.496806
764.000000	71.460070
763.000000	71.539946
762.000000	71.431882
761.000000	71.419146
760.000000	71.320379
759.000000	71.446082
758.000000	71.359831
757.000000	71.329568
756.000000	71.305805
755.000000	71.252627
754.000000	71.228006
753.000000	71.210653
752.000000	71.296399
751.000000	71.311313
750.000000	71.214916
749.000000	71.173659
748.000000	71.118709
747.000000	71.083649
746.000000	71.087335
745.000000	71.072513
744.000000	71.046381
743.000000	70.924759
742.000000	70.952399
741.000000	71.009893
740.000000	70.937443
739.000000	70.926028
738.000000	70.897517
737.000000	70.904758
736.000000	70.910606
735.000000	70.872480
734.000000	70.829097
733.000000	70.774711
732.000000	70.774964
731.000000	70.806396
730.000000	70.783662
729.000000	70.722361
728.000000	70.695352
727.000000	70.686400
726.000000	70.692725
725.000000	70.653276
724.000000	70.606021
723.000000	70.623061
722.000000	70.582328
721.000000	70.575923
720.000000	70.607392
719.000000	70.487510
718.000000	70.407343
717.000000	70.405366
716.000000	70.433866
715.000000	70.395850
714.000000	70.411150
713.000000	70.407040
712.000000	70.333088
711.000000	70.306444
710.000000	70.296983
709.000000	70.248053
708.000000	70.200250
707.000000	70.139963
706.000000	70.061991
705.000000	70.066176
704.000000	70.032491
703.000000	69.988014
702.000000	69.979253
701.000000	69.919247
700.000000	69.939952
699.000000	69.958186
698.000000	69.874464
697.000000	69.789823
696.000000	69.792127
695.000000	69.729428
694.000000	69.704320
693.000000	69.697363
692.000000	69.667084
691.000000	69.659172
690.000000	69.615873
689.000000	69.530951
688.000000	69.470350
687.000000	69.400148
686.000000	69.373321
685.000000	69.298155
684.000000	69.268462
683.000000	69.291225
682.000000	69.268215
681.000000	69.249908
680.000000	69.199370
679.000000	69.117897
678.000000	69.065583
677.000000	69.032300
676.000000	68.946039
675.000000	68.899231
674.000000	68.910236
673.000000	68.832213
672.000000	68.826318
671.000000	68.824305
670.000000	68.791690
669.000000	68.739030
668.000000	68.720371
667.000000	68.626690
666.000000	68.591275
665.000000	68.560468
664.000000	68.501057
663.000000	68.487302
662.000000	68.473461
661.000000	68.399804
660.000000	68.292344
659.000000	68.236260
658.000000	68.174659
657.000000	68.233505
656.000000	68.176275
655.000000	68.086938
654.000000	68.013129
653.000000	67.969646
652.000000	67.941033
651.000000	67.964934
650.000000	67.946011
649.000000	67.903649
648.000000	67.796687
647.000000	67.718717
646.000000	67.715839
645.000000	67.697623
644.000000	67.623958
643.000000	67.559566
642.000000	67.447487
641.000000	67.375423
640.000000	67.361690
639.000000	67.319332
638.000000	67.282680
637.000000	67.237145
636.000000	67.109546
635.000000	67.059982
634.000000	66.992327
633.000000	67.049039
632.000000	66.966085
631.000000	66.932181
630.000000	66.891190
629.000000	66.778483
628.000000	66.682864
627.000000	66.667939
626.000000	66.569758
625.000000	66.575350
624.000000	66.547881
623.000000	66.496359
622.000000	66.386661
621.000000	66.318032
620.000000	66.214192
619.000000	66.137741
618.000000	66.141342
617.000000	66.120930
616.000000	66.016293
615.000000	65.900765
614.000000	65.792628
613.000000	65.852186
612.000000	65.765560
611.000000	65.703779
610.000000	65.615860
609.000000	65.608604
608.000000	65.522391
607.000000	65.375669
606.000000	65.328374
605.000000	65.262436
604.000000	65.182935
603.000000	65.208144
602.000000	65.058486
601.000000	64.980104
600.000000	64.952617
599.000000	64.838865
598.000000	64.753879
597.000000	64.786942
596.000000	64.630688
595.000000	64.562349
594.000000	64.501392
593.000000	64.335057
592.000000	64.324328
591.000000	64.222253
590.000000	64.150333
589.000000	64.086940
588.000000	63.960802
587.000000	63.953247
586.000000	63.868642
585.000000	63.718253
584.000000	63.597897
583.000000	63.496784
582.000000	63.494998
581.000000	63.382439
580.000000	63.301986
579.000000	63.232916
578.000000	63.093579
577.000000	63.041579
576.000000	62.977906
575.000000	62.938364
574.000000	62.798933
573.000000	62.653705
572.000000	62.549443
571.000000	62.488412
570.000000	62.330388
569.000000	62.337198
568.000000	62.202040
567.000000	62.105361
566.000000	61.970710
565.000000	61.843506
564.000000	61.805269
563.000000	61.711331
562.000000	61.553373
561.000000	61.486633
560.000000	61.388511
559.000000	61.278399
558.000000	61.183299
557.000000	61.092320
556.000000	61.018136
555.000000	60.799514
554.000000	60.724012
553.000000	60.641888
552.000000	60.490354
551.000000	60.430767
550.000000	60.296241
549.000000	60.133463
548.000000	60.003805
547.000000	59.932559
546.000000	59.829927
545.000000	59.719499
544.000000	59.576080
543.000000	59.483111
542.000000	59.336431
541.000000	59.229372
540.000000	59.104348
539.000000	59.005597
538.000000	58.871481
537.000000	58.763670
536.000000	58.567229
535.000000	58.504853
534.000000	58.359216
533.000000	58.229815
532.000000	58.124015
531.000000	57.951417
530.000000	57.833180
529.000000	57.726989
528.000000	57.541780
527.000000	57.409273
526.000000	57.323852
525.000000	57.139946
524.000000	56.990437
523.000000	56.865794
522.000000	56.722761
521.000000	56.607263
520.000000	56.467851
519.000000	56.304969
518.000000	56.115232
517.000000	56.025871
516.000000	55.852495
515.000000	55.710896
514.000000	55.602417
513.000000	55.399592
512.000000	55.253783
511.000000	55.113924
510.000000	54.990342
509.000000	54.833485
508.000000	54.662814
507.000000	54.535529
506.000000	54.353749
505.000000	54.236930
504.000000	54.094191
503.000000	53.918746
502.000000	53.745235
501.000000	53.618414
500.000000	53.433436
499.000000	53.283298
498.000000	53.118711
497.000000	52.976517
496.000000	52.837015
495.000000	52.667665
494.000000	52.473666
493.000000	52.327124
492.000000	52.181170
491.000000	52.030013
490.000000	51.857745
489.000000	51.687880
488.000000	51.526087
487.000000	51.369286
486.000000	51.187118
485.000000	51.045572
484.000000	50.899697
483.000000	50.809363
482.000000	50.686273
481.000000	50.463616
480.000000	50.269543
479.000000	50.117967
478.000000	49.973573
477.000000	49.806008
476.000000	49.630800
475.000000	49.466646
474.000000	49.328354
473.000000	49.166449
472.000000	48.992958
471.000000	48.809882
470.000000	48.622857
469.000000	48.473520
468.000000	48.335267
467.000000	48.189800
466.000000	47.997079
465.000000	47.819442
464.000000	47.671185
463.000000	47.486672
462.000000	47.296896
461.000000	47.094596
460.000000	46.945646
459.000000	46.753986
458.000000	46.519187
457.000000	46.384437
456.000000	46.221941
455.000000	45.998446
454.000000	45.776239
453.000000	45.572529
452.000000	45.337449
451.000000	45.102027
450.000000	44.938104
449.000000	44.743167
448.000000	44.498716
447.000000	44.307290
446.000000	44.114252
445.000000	43.865851
444.000000	43.649252
443.000000	43.456974
442.000000	43.248591
441.000000	43.062004
440.000000	42.844271
439.000000	42.585145
438.000000	42.402987
437.000000	42.180106
436.000000	41.977623
435.000000	41.775209
434.000000	41.553475
433.000000	41.355200
432.000000	41.138259
431.000000	40.886494
430.000000	40.667819
429.000000	40.501655
428.000000	40.273612
427.000000	40.032478
426.000000	39.839595
425.000000	39.623333
424.000000	39.355842
423.000000	39.133057
422.000000	38.898312
421.000000	38.650421
420.000000	38.446649
419.000000	38.224973
418.000000	37.998482
417.000000	37.736139
416.000000	37.545237
415.000000	37.286226
414.000000	37.063227
413.000000	36.812339
412.000000	36.582492
411.000000	36.335930
410.000000	36.090560
409.000000	35.839483
408.000000	35.607962
407.000000	35.370002
406.000000	35.147454
405.000000	34.896027
404.000000	34.586448
403.000000	34.362024
402.000000	34.155081
401.000000	33.884256
400.000000	33.639064
399.000000	33.378780
398.000000	33.116140
397.000000	32.875893
396.000000	32.627171
395.000000	32.429794
394.000000	32.199113
393.000000	31.957583
392.000000	31.692669
391.000000	31.406770
390.000000	31.278362
389.000000	30.985261
388.000000	30.653980
387.000000	30.512890
386.000000	30.223055
385.000000	29.889131
384.000000	29.626961
383.000000	29.387422
382.000000	29.199944
381.000000	28.871389
380.000000	28.595984
379.000000	28.309488
378.000000	27.962711
377.000000	27.847723
376.000000	27.569487
375.000000	27.300048
374.000000	27.027559
373.000000	26.754698
372.000000	26.490777
371.000000	26.203594
370.000000	25.933335
369.000000	25.654424
368.000000	25.530885
367.000000	25.285233
366.000000	25.090872
365.000000	24.895065
364.000000	24.657850
363.000000	24.365687
362.000000	24.152385
361.000000	23.935377
360.000000	23.731959
359.000000	23.505057
358.000000	23.318691
357.000000	23.058377
356.000000	22.844094
355.000000	22.645383
354.000000	22.421777
353.000000	22.252549
352.000000	22.073227
351.000000	21.905694
350.000000	21.749089
349.000000	21.524793
348.000000	21.320016
347.000000	21.139126
346.000000	20.977192
345.000000	20.723310
344.000000	20.686805
343.000000	20.439362
342.000000	20.226823
341.000000	20.105695
340.000000	19.947038
339.000000	19.830490
338.000000	19.699588
337.000000	19.477649
336.000000	19.325274
335.000000	19.115687
334.000000	18.950183
333.000000	18.815582
332.000000	18.657689
331.000000	18.504622
330.000000	18.328186
329.000000	18.198985
328.000000	18.216703
327.000000	17.909690
326.000000	17.716005
325.000000	17.632748
324.000000	17.564623
323.000000	17.438089
322.000000	17.417778
321.000000	17.265486
320.000000	17.017796
319.000000	16.975903
318.000000	16.906551
317.000000	16.861112
316.000000	16.780967
315.000000	16.617295
314.000000	16.506605
313.000000	16.411530
312.000000	16.391958
311.000000	16.385106
310.000000	16.252454
309.000000	16.221432
308.000000	16.033845
307.000000	16.039492
306.000000	15.942937
305.000000	15.908719
304.000000	15.834493
303.000000	15.816544
302.000000	15.784839
301.000000	15.679166
300.000000	15.544227
299.000000	15.456447
298.000000	15.485474
297.000000	15.411894
296.000000	15.365614
295.000000	15.229491
294.000000	15.124403
293.000000	15.053329
292.000000	14.990962
291.000000	14.872993
290.000000	14.809391
289.000000	14.637642
288.000000	14.601863
287.000000	14.483136
286.000000	14.456968
285.000000	14.395622
284.000000	14.328794
283.000000	14.388495
282.000000	14.431664
281.000000	14.413924
280.000000	14.385188
279.000000	14.455596
278.000000	14.482343
277.000000	14.554329
276.000000	14.565689
275.000000	14.638217
274.000000	14.722934
273.000000	14.785117
272.000000	14.824698
271.000000	14.839635
270.000000	14.949230
269.000000	15.010268
268.000000	15.088472
267.000000	15.178626
266.000000	15.331668
265.000000	15.443044
264.000000	15.495251
263.000000	15.620808
262.000000	15.756920
261.000000	15.910284
260.000000	16.017631
259.000000	16.154098
258.000000	16.306463
257.000000	16.421393
256.000000	16.577846
255.000000	16.750326
254.000000	16.889416
253.000000	17.030352
252.000000	17.220520
251.000000	17.381578
250.000000	17.503918
249.000000	17.583997
248.000000	17.691407
247.000000	17.786007
246.000000	17.843430
245.000000	17.848198
244.000000	17.825820
243.000000	17.717166
242.000000	17.610473
241.000000	17.464401
240.000000	17.321173
239.000000	17.159225
238.000000	16.912549
237.000000	16.691806
236.000000	16.506533
235.000000	16.227894
234.000000	16.100510
233.000000	16.026553
232.000000	15.830004
231.000000	15.617112
230.000000	15.490381
229.000000	15.303958
228.000000	15.229470
227.000000	15.116184
226.000000	14.975113
225.000000	14.900593
224.000000	14.903499
223.000000	14.906296
222.000000	14.893111
221.000000	14.845078
220.000000	14.814779
219.000000	14.916292
218.000000	15.067643
217.000000	15.152869
216.000000	15.192106
215.000000	15.260574
214.000000	15.355347
213.000000	15.481021
212.000000	15.603532
211.000000	15.728645
210.000000	15.925346
209.000000	16.162024
208.000000	16.466035
207.000000	16.755497
206.000000	17.014990
205.000000	17.264946
204.000000	17.630879
203.000000	18.125226
202.000000	18.687306
201.000000	19.225095
200.000000	19.864595
