PE UV       SUBTECH     SPECTRUM    ASCII       PEDS        4.00        
   -1
RDms1482152.Sample.asc
18/03/22
10:20:45.00
18/03/22
10:20:45.00
Administrator

200.000000
1
Lambda 750
750N8071901
PerkinElmer UV WinLab 6.0.4.0738 / 1.61.00 Lambda 900

0
0
3350/servo 860.8/2
0
0
UV/VIS
1
1
1
CommonBeamDepol,150mm sphere / downward view
0
0
0
0
Program
Program
3350/servo 860.8/2
3350/0.2 860.8/0.2
3350/0.2 860.8/0.2
0
1
 
 
 
0
 
860.8
319.2
860.8
Front
100
on
 
 
0
0
0
 
0
 
 
 
0
 
 
0
0
0
0
0
 
 
 
 
0
0


0
0
#HDR
-1
-1
#GR
nm
%R
1.0
0.0
2350.000000
-1.000000
2151
8
84.265825
24.835258
#DATA
2350.000000	44.331558
2349.000000	44.288302
2348.000000	44.138742
2347.000000	44.851595
2346.000000	44.501673
2345.000000	44.527766
2344.000000	44.645905
2343.000000	43.854242
2342.000000	44.631031
2341.000000	44.649606
2340.000000	44.401357
2339.000000	44.880164
2338.000000	44.680104
2337.000000	44.979622
2336.000000	44.934203
2335.000000	45.243214
2334.000000	45.084856
2333.000000	45.387521
2332.000000	45.548464
2331.000000	45.107465
2330.000000	45.085059
2329.000000	44.714702
2328.000000	45.083213
2327.000000	45.020862
2326.000000	45.317919
2325.000000	44.959944
2324.000000	45.044622
2323.000000	44.814274
2322.000000	44.604121
2321.000000	44.606590
2320.000000	44.821288
2319.000000	44.675440
2318.000000	44.833883
2317.000000	45.049113
2316.000000	44.575430
2315.000000	44.592299
2314.000000	44.479609
2313.000000	44.355620
2312.000000	44.309743
2311.000000	44.221334
2310.000000	44.003309
2309.000000	43.993333
2308.000000	43.995476
2307.000000	43.963416
2306.000000	43.938668
2305.000000	43.939051
2304.000000	43.745427
2303.000000	43.883923
2302.000000	43.631324
2301.000000	43.574679
2300.000000	43.442003
2299.000000	43.199741
2298.000000	43.207485
2297.000000	43.076742
2296.000000	43.138352
2295.000000	43.102884
2294.000000	42.818686
2293.000000	42.717619
2292.000000	42.777286
2291.000000	42.825772
2290.000000	42.711062
2289.000000	42.605300
2288.000000	42.726723
2287.000000	42.661554
2286.000000	42.355431
2285.000000	42.184827
2284.000000	42.260807
2283.000000	42.174549
2282.000000	42.338457
2281.000000	42.640511
2280.000000	42.530929
2279.000000	42.406055
2278.000000	42.376670
2277.000000	42.345308
2276.000000	42.503149
2275.000000	42.542610
2274.000000	42.491816
2273.000000	42.497465
2272.000000	42.626833
2271.000000	42.729094
2270.000000	42.917075
2269.000000	42.830780
2268.000000	42.791975
2267.000000	42.899967
2266.000000	43.127732
2265.000000	43.292850
2264.000000	43.332707
2263.000000	43.461083
2262.000000	43.643478
2261.000000	43.778409
2260.000000	43.973974
2259.000000	44.150357
2258.000000	44.400111
2257.000000	44.590977
2256.000000	44.579138
2255.000000	44.669859
2254.000000	44.940604
2253.000000	45.167387
2252.000000	45.532377
2251.000000	45.826802
2250.000000	45.908349
2249.000000	46.042478
2248.000000	46.262385
2247.000000	46.549356
2246.000000	46.710673
2245.000000	46.752198
2244.000000	46.900649
2243.000000	47.261602
2242.000000	47.497025
2241.000000	47.528436
2240.000000	47.761377
2239.000000	47.920392
2238.000000	47.973138
2237.000000	48.087457
2236.000000	48.207743
2235.000000	48.390062
2234.000000	48.486002
2233.000000	48.401817
2232.000000	48.384729
2231.000000	48.546160
2230.000000	48.663878
2229.000000	48.750022
2228.000000	48.851254
2227.000000	48.805172
2226.000000	48.682042
2225.000000	48.684908
2224.000000	48.712407
2223.000000	48.715007
2222.000000	48.714212
2221.000000	48.700374
2220.000000	48.617167
2219.000000	48.631478
2218.000000	48.611935
2217.000000	48.435318
2216.000000	48.389892
2215.000000	48.494123
2214.000000	48.478423
2213.000000	48.423388
2212.000000	48.303414
2211.000000	48.212521
2210.000000	48.279289
2209.000000	48.209873
2208.000000	48.194750
2207.000000	47.983672
2206.000000	47.979248
2205.000000	47.841632
2204.000000	47.856583
2203.000000	47.691516
2202.000000	47.811119
2201.000000	47.766813
2200.000000	47.613310
2199.000000	47.480144
2198.000000	47.571349
2197.000000	47.399088
2196.000000	47.126901
2195.000000	47.127644
2194.000000	47.213954
2193.000000	47.098011
2192.000000	47.120659
2191.000000	46.913683
2190.000000	46.980060
2189.000000	47.015325
2188.000000	46.846598
2187.000000	46.725200
2186.000000	46.765297
2185.000000	46.626832
2184.000000	46.815182
2183.000000	46.794324
2182.000000	46.667288
2181.000000	46.662022
2180.000000	46.597399
2179.000000	46.601903
2178.000000	46.590123
2177.000000	46.611993
2176.000000	46.700882
2175.000000	46.726469
2174.000000	46.734745
2173.000000	46.712020
2172.000000	46.765751
2171.000000	46.994816
2170.000000	46.858413
2169.000000	47.083076
2168.000000	47.136900
2167.000000	47.310009
2166.000000	47.243581
2165.000000	47.369722
2164.000000	47.522312
2163.000000	47.619731
2162.000000	47.762662
2161.000000	47.952882
2160.000000	48.038670
2159.000000	48.291197
2158.000000	48.276214
2157.000000	48.346832
2156.000000	48.558959
2155.000000	48.727936
2154.000000	48.966199
2153.000000	49.379272
2152.000000	49.440016
2151.000000	49.370570
2150.000000	49.530836
2149.000000	49.761483
2148.000000	50.087313
2147.000000	50.163146
2146.000000	50.159909
2145.000000	50.175903
2144.000000	50.497370
2143.000000	50.604711
2142.000000	50.744942
2141.000000	51.037649
2140.000000	51.057221
2139.000000	51.227530
2138.000000	51.570592
2137.000000	51.547373
2136.000000	51.488353
2135.000000	51.679314
2134.000000	51.881122
2133.000000	51.838580
2132.000000	51.990252
2131.000000	52.234950
2130.000000	52.205907
2129.000000	52.399433
2128.000000	52.318293
2127.000000	52.211283
2126.000000	52.275439
2125.000000	52.430004
2124.000000	52.500088
2123.000000	52.553866
2122.000000	52.553473
2121.000000	52.753283
2120.000000	52.689163
2119.000000	52.858919
2118.000000	52.947483
2117.000000	52.886234
2116.000000	52.994268
2115.000000	52.991883
2114.000000	52.916811
2113.000000	53.022113
2112.000000	52.883476
2111.000000	53.033818
2110.000000	52.901726
2109.000000	52.888398
2108.000000	52.938623
2107.000000	53.024303
2106.000000	53.213409
2105.000000	52.981564
2104.000000	53.158142
2103.000000	53.123701
2102.000000	53.312660
2101.000000	53.190609
2100.000000	53.237923
2099.000000	53.260790
2098.000000	53.139828
2097.000000	53.135162
2096.000000	53.179987
2095.000000	53.047392
2094.000000	53.122786
2093.000000	53.220880
2092.000000	53.212454
2091.000000	53.174384
2090.000000	53.050964
2089.000000	53.002809
2088.000000	53.015474
2087.000000	52.983918
2086.000000	52.994813
2085.000000	53.042576
2084.000000	52.979428
2083.000000	52.866469
2082.000000	52.849936
2081.000000	52.773234
2080.000000	52.682756
2079.000000	52.632592
2078.000000	52.547263
2077.000000	52.486495
2076.000000	52.338086
2075.000000	52.219836
2074.000000	52.164679
2073.000000	52.082586
2072.000000	52.001787
2071.000000	51.813577
2070.000000	51.669158
2069.000000	51.527423
2068.000000	51.325380
2067.000000	51.274962
2066.000000	51.168228
2065.000000	51.027612
2064.000000	50.920771
2063.000000	50.723260
2062.000000	50.598517
2061.000000	50.409227
2060.000000	50.164825
2059.000000	50.075976
2058.000000	49.972481
2057.000000	49.805580
2056.000000	49.727093
2055.000000	49.607933
2054.000000	49.426845
2053.000000	49.196371
2052.000000	49.074777
2051.000000	48.926317
2050.000000	48.813651
2049.000000	48.771705
2048.000000	48.688953
2047.000000	48.589673
2046.000000	48.487619
2045.000000	48.411690
2044.000000	48.416011
2043.000000	48.445903
2042.000000	48.451112
2041.000000	48.437755
2040.000000	48.453120
2039.000000	48.474694
2038.000000	48.509303
2037.000000	48.604505
2036.000000	48.670956
2035.000000	48.753955
2034.000000	48.867542
2033.000000	48.930361
2032.000000	49.054337
2031.000000	49.184558
2030.000000	49.278132
2029.000000	49.356264
2028.000000	49.453868
2027.000000	49.612542
2026.000000	49.751595
2025.000000	49.808851
2024.000000	49.844042
2023.000000	49.942594
2022.000000	50.019445
2021.000000	50.000812
2020.000000	50.086709
2019.000000	50.135449
2018.000000	50.130599
2017.000000	50.167979
2016.000000	50.160709
2015.000000	50.153190
2014.000000	50.140412
2013.000000	50.113540
2012.000000	50.048036
2011.000000	49.990605
2010.000000	49.957283
2009.000000	49.905296
2008.000000	49.779293
2007.000000	49.665986
2006.000000	49.576586
2005.000000	49.493599
2004.000000	49.399527
2003.000000	49.336629
2002.000000	49.243570
2001.000000	49.078114
2000.000000	48.969951
1999.000000	48.906114
1998.000000	48.816163
1997.000000	48.683658
1996.000000	48.591886
1995.000000	48.471032
1994.000000	48.355104
1993.000000	48.260373
1992.000000	48.150886
1991.000000	48.019680
1990.000000	47.908825
1989.000000	47.774498
1988.000000	47.664709
1987.000000	47.553874
1986.000000	47.418090
1985.000000	47.289983
1984.000000	47.198259
1983.000000	47.076152
1982.000000	47.041884
1981.000000	46.920795
1980.000000	46.809002
1979.000000	46.675221
1978.000000	46.558503
1977.000000	46.436525
1976.000000	46.318316
1975.000000	46.245115
1974.000000	46.097839
1973.000000	46.048367
1972.000000	45.979570
1971.000000	45.849123
1970.000000	45.721979
1969.000000	45.682160
1968.000000	45.563445
1967.000000	45.520306
1966.000000	45.420340
1965.000000	45.347610
1964.000000	45.215612
1963.000000	45.120007
1962.000000	45.026622
1961.000000	44.880103
1960.000000	44.850793
1959.000000	44.747438
1958.000000	44.669410
1957.000000	44.623399
1956.000000	44.549969
1955.000000	44.464557
1954.000000	44.416223
1953.000000	44.288418
1952.000000	44.223788
1951.000000	44.266755
1950.000000	44.230697
1949.000000	44.159386
1948.000000	44.149169
1947.000000	44.139101
1946.000000	44.054799
1945.000000	44.092624
1944.000000	44.135003
1943.000000	44.148300
1942.000000	44.167174
1941.000000	44.230576
1940.000000	44.256516
1939.000000	44.248788
1938.000000	44.302294
1937.000000	44.422666
1936.000000	44.638328
1935.000000	44.741422
1934.000000	44.838225
1933.000000	44.912553
1932.000000	45.100199
1931.000000	45.280525
1930.000000	45.501749
1929.000000	45.697438
1928.000000	45.826426
1927.000000	46.130361
1926.000000	46.330217
1925.000000	46.570908
1924.000000	46.913565
1923.000000	47.177359
1922.000000	47.448647
1921.000000	47.698570
1920.000000	47.926628
1919.000000	48.273601
1918.000000	48.684573
1917.000000	49.002374
1916.000000	49.224451
1915.000000	49.715736
1914.000000	50.059969
1913.000000	50.562954
1912.000000	50.904945
1911.000000	51.320664
1910.000000	51.716139
1909.000000	52.138471
1908.000000	52.583187
1907.000000	53.017121
1906.000000	53.535706
1905.000000	54.042662
1904.000000	54.573217
1903.000000	55.013938
1902.000000	55.493937
1901.000000	56.064757
1900.000000	56.574251
1899.000000	57.107344
1898.000000	57.618694
1897.000000	58.034623
1896.000000	58.598736
1895.000000	59.122675
1894.000000	59.511704
1893.000000	60.053705
1892.000000	60.563151
1891.000000	60.963494
1890.000000	61.435258
1889.000000	61.950617
1888.000000	62.365738
1887.000000	62.741070
1886.000000	63.149662
1885.000000	63.523851
1884.000000	63.961639
1883.000000	64.289511
1882.000000	64.609704
1881.000000	64.974285
1880.000000	65.292123
1879.000000	65.546343
1878.000000	65.870243
1877.000000	66.100465
1876.000000	66.353650
1875.000000	66.659738
1874.000000	66.932683
1873.000000	67.121982
1872.000000	67.339761
1871.000000	67.505074
1870.000000	67.689912
1869.000000	67.851714
1868.000000	67.999680
1867.000000	68.104614
1866.000000	68.221163
1865.000000	68.352985
1864.000000	68.367525
1863.000000	68.463914
1862.000000	68.580446
1861.000000	68.622703
1860.000000	68.699797
1859.000000	68.791715
1858.000000	68.795492
1857.000000	68.864272
1856.000000	68.914187
1855.000000	68.936109
1854.000000	68.985002
1853.000000	68.981754
1852.000000	69.019760
1851.000000	69.067845
1850.000000	69.015681
1849.000000	69.029493
1848.000000	69.029769
1847.000000	69.038710
1846.000000	69.051661
1845.000000	69.037311
1844.000000	69.014033
1843.000000	68.981408
1842.000000	68.944948
1841.000000	68.943724
1840.000000	68.919752
1839.000000	68.912559
1838.000000	68.902530
1837.000000	68.867947
1836.000000	68.795437
1835.000000	68.767614
1834.000000	68.714605
1833.000000	68.658773
1832.000000	68.632886
1831.000000	68.604403
1830.000000	68.554202
1829.000000	68.536718
1828.000000	68.485515
1827.000000	68.459316
1826.000000	68.458368
1825.000000	68.424190
1824.000000	68.370329
1823.000000	68.336013
1822.000000	68.292566
1821.000000	68.283447
1820.000000	68.263666
1819.000000	68.211770
1818.000000	68.177831
1817.000000	68.159418
1816.000000	68.113219
1815.000000	68.042660
1814.000000	68.027099
1813.000000	68.031712
1812.000000	67.987572
1811.000000	67.948361
1810.000000	67.927623
1809.000000	67.895010
1808.000000	67.889919
1807.000000	67.846793
1806.000000	67.813944
1805.000000	67.794186
1804.000000	67.750243
1803.000000	67.714916
1802.000000	67.673325
1801.000000	67.653411
1800.000000	67.662411
1799.000000	67.626193
1798.000000	67.584935
1797.000000	67.576421
1796.000000	67.558776
1795.000000	67.532355
1794.000000	67.511301
1793.000000	67.486072
1792.000000	67.444892
1791.000000	67.444329
1790.000000	67.404931
1789.000000	67.367821
1788.000000	67.363644
1787.000000	67.372374
1786.000000	67.340185
1785.000000	67.321957
1784.000000	67.302129
1783.000000	67.265570
1782.000000	67.247563
1781.000000	67.227744
1780.000000	67.171454
1779.000000	67.128040
1778.000000	67.086211
1777.000000	67.062715
1776.000000	67.026151
1775.000000	66.965253
1774.000000	66.911778
1773.000000	66.880024
1772.000000	66.848977
1771.000000	66.797898
1770.000000	66.748529
1769.000000	66.712805
1768.000000	66.651199
1767.000000	66.615550
1766.000000	66.542078
1765.000000	66.493853
1764.000000	66.480707
1763.000000	66.419873
1762.000000	66.363565
1761.000000	66.317661
1760.000000	66.289017
1759.000000	66.235496
1758.000000	66.197394
1757.000000	66.122145
1756.000000	66.071369
1755.000000	66.057363
1754.000000	66.008547
1753.000000	65.956676
1752.000000	65.924674
1751.000000	65.890257
1750.000000	65.823084
1749.000000	65.791801
1748.000000	65.723223
1747.000000	65.657166
1746.000000	65.630571
1745.000000	65.574604
1744.000000	65.531530
1743.000000	65.499121
1742.000000	65.430363
1741.000000	65.413225
1740.000000	65.342672
1739.000000	65.267835
1738.000000	65.287483
1737.000000	65.274485
1736.000000	65.242951
1735.000000	65.220696
1734.000000	65.179965
1733.000000	65.224635
1732.000000	65.212858
1731.000000	65.222703
1730.000000	65.251078
1729.000000	65.296865
1728.000000	65.333134
1727.000000	65.347106
1726.000000	65.456749
1725.000000	65.536723
1724.000000	65.580990
1723.000000	65.643773
1722.000000	65.786957
1721.000000	65.855778
1720.000000	65.971376
1719.000000	66.105927
1718.000000	66.190749
1717.000000	66.267426
1716.000000	66.339844
1715.000000	66.429421
1714.000000	66.538171
1713.000000	66.608023
1712.000000	66.675518
1711.000000	66.741235
1710.000000	66.828339
1709.000000	66.889940
1708.000000	66.960980
1707.000000	66.990592
1706.000000	67.031081
1705.000000	67.072954
1704.000000	67.096919
1703.000000	67.111169
1702.000000	67.121653
1701.000000	67.164038
1700.000000	67.150302
1699.000000	67.183708
1698.000000	67.228611
1697.000000	67.231899
1696.000000	67.268641
1695.000000	67.287954
1694.000000	67.357778
1693.000000	67.403502
1692.000000	67.455769
1691.000000	67.521701
1690.000000	67.601815
1689.000000	67.697371
1688.000000	67.762594
1687.000000	67.878523
1686.000000	67.992077
1685.000000	68.128684
1684.000000	68.278766
1683.000000	68.420447
1682.000000	68.572771
1681.000000	68.718326
1680.000000	68.854225
1679.000000	69.047026
1678.000000	69.192009
1677.000000	69.381198
1676.000000	69.543143
1675.000000	69.712997
1674.000000	69.897625
1673.000000	70.069475
1672.000000	70.184032
1671.000000	70.363869
1670.000000	70.512681
1669.000000	70.654130
1668.000000	70.770995
1667.000000	70.919832
1666.000000	70.985632
1665.000000	71.086627
1664.000000	71.169236
1663.000000	71.272111
1662.000000	71.361065
1661.000000	71.450066
1660.000000	71.502736
1659.000000	71.548691
1658.000000	71.604120
1657.000000	71.644541
1656.000000	71.697664
1655.000000	71.721502
1654.000000	71.734505
1653.000000	71.762736
1652.000000	71.820699
1651.000000	71.795977
1650.000000	71.809402
1649.000000	71.809890
1648.000000	71.781919
1647.000000	71.779585
1646.000000	71.780598
1645.000000	71.772568
1644.000000	71.747337
1643.000000	71.725804
1642.000000	71.693712
1641.000000	71.679298
1640.000000	71.678310
1639.000000	71.658598
1638.000000	71.619867
1637.000000	71.606114
1636.000000	71.564480
1635.000000	71.542524
1634.000000	71.513353
1633.000000	71.463619
1632.000000	71.412959
1631.000000	71.352473
1630.000000	71.316802
1629.000000	71.299019
1628.000000	71.243299
1627.000000	71.225842
1626.000000	71.188786
1625.000000	71.137012
1624.000000	71.104105
1623.000000	71.055010
1622.000000	71.014114
1621.000000	70.959855
1620.000000	70.916596
1619.000000	70.880041
1618.000000	70.799304
1617.000000	70.750530
1616.000000	70.697066
1615.000000	70.637476
1614.000000	70.594944
1613.000000	70.538921
1612.000000	70.490653
1611.000000	70.430084
1610.000000	70.378673
1609.000000	70.346641
1608.000000	70.293291
1607.000000	70.213761
1606.000000	70.131492
1605.000000	70.082738
1604.000000	70.015533
1603.000000	69.949550
1602.000000	69.899237
1601.000000	69.852299
1600.000000	69.792193
1599.000000	69.726732
1598.000000	69.670054
1597.000000	69.622011
1596.000000	69.573292
1595.000000	69.511932
1594.000000	69.452177
1593.000000	69.414899
1592.000000	69.364631
1591.000000	69.296057
1590.000000	69.257584
1589.000000	69.212166
1588.000000	69.145643
1587.000000	69.109878
1586.000000	69.078507
1585.000000	69.024142
1584.000000	68.976836
1583.000000	68.948919
1582.000000	68.911383
1581.000000	68.870124
1580.000000	68.832184
1579.000000	68.789533
1578.000000	68.768743
1577.000000	68.712396
1576.000000	68.672545
1575.000000	68.625725
1574.000000	68.564480
1573.000000	68.535384
1572.000000	68.504461
1571.000000	68.472718
1570.000000	68.432625
1569.000000	68.373983
1568.000000	68.342142
1567.000000	68.305277
1566.000000	68.268230
1565.000000	68.257468
1564.000000	68.234029
1563.000000	68.205109
1562.000000	68.180160
1561.000000	68.150640
1560.000000	68.135577
1559.000000	68.125072
1558.000000	68.101697
1557.000000	68.095628
1556.000000	68.071671
1555.000000	68.054744
1554.000000	68.033407
1553.000000	68.010464
1552.000000	67.950270
1551.000000	67.936293
1550.000000	67.901231
1549.000000	67.857019
1548.000000	67.848192
1547.000000	67.800709
1546.000000	67.740949
1545.000000	67.667185
1544.000000	67.590927
1543.000000	67.530529
1542.000000	67.481321
1541.000000	67.397795
1540.000000	67.323952
1539.000000	67.240915
1538.000000	67.160887
1537.000000	67.064572
1536.000000	66.982323
1535.000000	66.894728
1534.000000	66.834346
1533.000000	66.769203
1532.000000	66.686485
1531.000000	66.610258
1530.000000	66.543528
1529.000000	66.449841
1528.000000	66.399193
1527.000000	66.341598
1526.000000	66.281317
1525.000000	66.238266
1524.000000	66.156115
1523.000000	66.116564
1522.000000	66.059515
1521.000000	66.021136
1520.000000	65.980565
1519.000000	65.959601
1518.000000	65.914819
1517.000000	65.893525
1516.000000	65.872719
1515.000000	65.828441
1514.000000	65.783962
1513.000000	65.791871
1512.000000	65.777949
1511.000000	65.752585
1510.000000	65.728798
1509.000000	65.730089
1508.000000	65.733365
1507.000000	65.702387
1506.000000	65.685397
1505.000000	65.696728
1504.000000	65.696899
1503.000000	65.712720
1502.000000	65.684914
1501.000000	65.682551
1500.000000	65.684688
1499.000000	65.693119
1498.000000	65.714111
1497.000000	65.700236
1496.000000	65.720941
1495.000000	65.739341
1494.000000	65.772597
1493.000000	65.801055
1492.000000	65.811052
1491.000000	65.853344
1490.000000	65.892515
1489.000000	65.912544
1488.000000	65.980875
1487.000000	65.991825
1486.000000	66.033782
1485.000000	66.085680
1484.000000	66.124589
1483.000000	66.172862
1482.000000	66.231412
1481.000000	66.303670
1480.000000	66.349882
1479.000000	66.364625
1478.000000	66.428282
1477.000000	66.482622
1476.000000	66.541757
1475.000000	66.601873
1474.000000	66.625243
1473.000000	66.661451
1472.000000	66.747715
1471.000000	66.768721
1470.000000	66.803996
1469.000000	66.853800
1468.000000	66.922717
1467.000000	66.983282
1466.000000	67.042990
1465.000000	67.079075
1464.000000	67.110840
1463.000000	67.168240
1462.000000	67.209229
1461.000000	67.273413
1460.000000	67.328612
1459.000000	67.377579
1458.000000	67.426354
1457.000000	67.491688
1456.000000	67.565802
1455.000000	67.601065
1454.000000	67.674257
1453.000000	67.736938
1452.000000	67.822128
1451.000000	67.876569
1450.000000	67.960354
1449.000000	67.999716
1448.000000	68.084134
1447.000000	68.173632
1446.000000	68.251777
1445.000000	68.348661
1444.000000	68.429377
1443.000000	68.500195
1442.000000	68.599605
1441.000000	68.666308
1440.000000	68.769672
1439.000000	68.869739
1438.000000	68.961364
1437.000000	69.075030
1436.000000	69.174262
1435.000000	69.292584
1434.000000	69.390847
1433.000000	69.512852
1432.000000	69.630104
1431.000000	69.738051
1430.000000	69.869854
1429.000000	70.013081
1428.000000	70.139192
1427.000000	70.261741
1426.000000	70.411604
1425.000000	70.554986
1424.000000	70.719560
1423.000000	70.868389
1422.000000	71.029380
1421.000000	71.189188
1420.000000	71.355067
1419.000000	71.503553
1418.000000	71.679609
1417.000000	71.849018
1416.000000	72.024392
1415.000000	72.203250
1414.000000	72.374437
1413.000000	72.563734
1412.000000	72.742787
1411.000000	72.907819
1410.000000	73.098566
1409.000000	73.288372
1408.000000	73.486983
1407.000000	73.660719
1406.000000	73.833344
1405.000000	74.006146
1404.000000	74.165908
1403.000000	74.345377
1402.000000	74.510187
1401.000000	74.679352
1400.000000	74.842496
1399.000000	74.999772
1398.000000	75.179515
1397.000000	75.316645
1396.000000	75.469465
1395.000000	75.641506
1394.000000	75.764048
1393.000000	75.887462
1392.000000	76.042627
1391.000000	76.169110
1390.000000	76.292490
1389.000000	76.405812
1388.000000	76.544493
1387.000000	76.641978
1386.000000	76.741680
1385.000000	76.864524
1384.000000	76.971240
1383.000000	77.069503
1382.000000	77.151625
1381.000000	77.230670
1380.000000	77.301287
1379.000000	77.366928
1378.000000	77.448550
1377.000000	77.526164
1376.000000	77.601613
1375.000000	77.662794
1374.000000	77.716714
1373.000000	77.773921
1372.000000	77.825906
1371.000000	77.877803
1370.000000	77.937307
1369.000000	77.979224
1368.000000	78.017265
1367.000000	78.078383
1366.000000	78.145342
1365.000000	78.184787
1364.000000	78.237763
1363.000000	78.305374
1362.000000	78.361144
1361.000000	78.413171
1360.000000	78.490154
1359.000000	78.546274
1358.000000	78.576829
1357.000000	78.632555
1356.000000	78.693163
1355.000000	78.749100
1354.000000	78.816841
1353.000000	78.887943
1352.000000	78.954643
1351.000000	79.036224
1350.000000	79.081963
1349.000000	79.126366
1348.000000	79.181599
1347.000000	79.252021
1346.000000	79.308132
1345.000000	79.366460
1344.000000	79.415544
1343.000000	79.467526
1342.000000	79.508301
1341.000000	79.544321
1340.000000	79.583828
1339.000000	79.629581
1338.000000	79.685816
1337.000000	79.746837
1336.000000	79.807634
1335.000000	79.883021
1334.000000	79.932136
1333.000000	79.961549
1332.000000	79.994403
1331.000000	80.014903
1330.000000	80.023802
1329.000000	80.060995
1328.000000	80.093785
1327.000000	80.106907
1326.000000	80.137256
1325.000000	80.187603
1324.000000	80.223043
1323.000000	80.222267
1322.000000	80.248127
1321.000000	80.273660
1320.000000	80.297318
1319.000000	80.308524
1318.000000	80.344727
1317.000000	80.387227
1316.000000	80.366902
1315.000000	80.390257
1314.000000	80.408240
1313.000000	80.440558
1312.000000	80.460024
1311.000000	80.502073
1310.000000	80.494820
1309.000000	80.512488
1308.000000	80.514955
1307.000000	80.526599
1306.000000	80.545238
1305.000000	80.555153
1304.000000	80.582006
1303.000000	80.591506
1302.000000	80.606523
1301.000000	80.605911
1300.000000	80.611949
1299.000000	80.626396
1298.000000	80.624098
1297.000000	80.642904
1296.000000	80.644036
1295.000000	80.653976
1294.000000	80.672671
1293.000000	80.661056
1292.000000	80.672949
1291.000000	80.664395
1290.000000	80.668127
1289.000000	80.646381
1288.000000	80.630969
1287.000000	80.646064
1286.000000	80.637653
1285.000000	80.655018
1284.000000	80.644367
1283.000000	80.680742
1282.000000	80.661186
1281.000000	80.656045
1280.000000	80.659512
1279.000000	80.644981
1278.000000	80.662892
1277.000000	80.659277
1276.000000	80.646815
1275.000000	80.686356
1274.000000	80.686225
1273.000000	80.670915
1272.000000	80.678758
1271.000000	80.662889
1270.000000	80.673461
1269.000000	80.697763
1268.000000	80.738615
1267.000000	80.749654
1266.000000	80.729966
1265.000000	80.759882
1264.000000	80.764502
1263.000000	80.774426
1262.000000	80.779182
1261.000000	80.817037
1260.000000	80.801893
1259.000000	80.808892
1258.000000	80.804682
1257.000000	80.814663
1256.000000	80.812102
1255.000000	80.819165
1254.000000	80.850542
1253.000000	80.848748
1252.000000	80.852516
1251.000000	80.852331
1250.000000	80.855580
1249.000000	80.867599
1248.000000	80.849373
1247.000000	80.847544
1246.000000	80.850387
1245.000000	80.825704
1244.000000	80.818952
1243.000000	80.828499
1242.000000	80.797996
1241.000000	80.794566
1240.000000	80.796011
1239.000000	80.747690
1238.000000	80.739483
1237.000000	80.734461
1236.000000	80.708999
1235.000000	80.693069
1234.000000	80.689117
1233.000000	80.651653
1232.000000	80.649110
1231.000000	80.619518
1230.000000	80.594778
1229.000000	80.588292
1228.000000	80.592394
1227.000000	80.564117
1226.000000	80.546706
1225.000000	80.519255
1224.000000	80.491308
1223.000000	80.470338
1222.000000	80.464546
1221.000000	80.464280
1220.000000	80.445330
1219.000000	80.408653
1218.000000	80.382001
1217.000000	80.367974
1216.000000	80.371492
1215.000000	80.324784
1214.000000	80.318483
1213.000000	80.290978
1212.000000	80.263303
1211.000000	80.240684
1210.000000	80.220669
1209.000000	80.213834
1208.000000	80.191100
1207.000000	80.141189
1206.000000	80.108240
1205.000000	80.108873
1204.000000	80.045264
1203.000000	80.042900
1202.000000	80.028882
1201.000000	80.032289
1200.000000	79.971880
1199.000000	79.950494
1198.000000	79.937808
1197.000000	79.920565
1196.000000	79.885034
1195.000000	79.857362
1194.000000	79.836111
1193.000000	79.840267
1192.000000	79.827238
1191.000000	79.819212
1190.000000	79.803597
1189.000000	79.802236
1188.000000	79.806311
1187.000000	79.811307
1186.000000	79.820706
1185.000000	79.825430
1184.000000	79.827636
1183.000000	79.837007
1182.000000	79.871267
1181.000000	79.905139
1180.000000	79.930430
1179.000000	79.952709
1178.000000	79.988597
1177.000000	80.009343
1176.000000	80.050825
1175.000000	80.115474
1174.000000	80.171113
1173.000000	80.224344
1172.000000	80.265451
1171.000000	80.313272
1170.000000	80.376519
1169.000000	80.433156
1168.000000	80.491272
1167.000000	80.562756
1166.000000	80.622870
1165.000000	80.690154
1164.000000	80.774271
1163.000000	80.823463
1162.000000	80.885620
1161.000000	80.965441
1160.000000	81.025694
1159.000000	81.085582
1158.000000	81.163223
1157.000000	81.219351
1156.000000	81.261051
1155.000000	81.325468
1154.000000	81.373833
1153.000000	81.416791
1152.000000	81.488621
1151.000000	81.547250
1150.000000	81.585736
1149.000000	81.644525
1148.000000	81.698896
1147.000000	81.742163
1146.000000	81.769348
1145.000000	81.797371
1144.000000	81.846975
1143.000000	81.905859
1142.000000	81.946520
1141.000000	81.969932
1140.000000	81.995633
1139.000000	82.040780
1138.000000	82.080114
1137.000000	82.118397
1136.000000	82.171224
1135.000000	82.203294
1134.000000	82.252863
1133.000000	82.282378
1132.000000	82.294930
1131.000000	82.309625
1130.000000	82.352486
1129.000000	82.393258
1128.000000	82.405678
1127.000000	82.428557
1126.000000	82.456367
1125.000000	82.464418
1124.000000	82.475861
1123.000000	82.498907
1122.000000	82.522116
1121.000000	82.535099
1120.000000	82.545452
1119.000000	82.572601
1118.000000	82.586306
1117.000000	82.584096
1116.000000	82.603055
1115.000000	82.617492
1114.000000	82.610966
1113.000000	82.615359
1112.000000	82.640841
1111.000000	82.640203
1110.000000	82.639518
1109.000000	82.644039
1108.000000	82.657595
1107.000000	82.665068
1106.000000	82.675891
1105.000000	82.677106
1104.000000	82.688046
1103.000000	82.691744
1102.000000	82.691553
1101.000000	82.681657
1100.000000	82.696249
1099.000000	82.680333
1098.000000	82.704543
1097.000000	82.712613
1096.000000	82.722943
1095.000000	82.728119
1094.000000	82.719388
1093.000000	82.717565
1092.000000	82.715884
1091.000000	82.723059
1090.000000	82.743411
1089.000000	82.736212
1088.000000	82.739757
1087.000000	82.719554
1086.000000	82.719115
1085.000000	82.730175
1084.000000	82.737318
1083.000000	82.729219
1082.000000	82.711642
1081.000000	82.715552
1080.000000	82.724230
1079.000000	82.742341
1078.000000	82.736671
1077.000000	82.733365
1076.000000	82.738586
1075.000000	82.703798
1074.000000	82.716615
1073.000000	82.721337
1072.000000	82.687107
1071.000000	82.706855
1070.000000	82.714023
1069.000000	82.725918
1068.000000	82.695591
1067.000000	82.703509
1066.000000	82.693526
1065.000000	82.701744
1064.000000	82.712119
1063.000000	82.682175
1062.000000	82.694788
1061.000000	82.688308
1060.000000	82.675521
1059.000000	82.670642
1058.000000	82.652838
1057.000000	82.642481
1056.000000	82.669941
1055.000000	82.656065
1054.000000	82.667630
1053.000000	82.644949
1052.000000	82.639696
1051.000000	82.646130
1050.000000	82.646405
1049.000000	82.653596
1048.000000	82.640529
1047.000000	82.619817
1046.000000	82.638318
1045.000000	82.647736
1044.000000	82.655084
1043.000000	82.643701
1042.000000	82.611332
1041.000000	82.628572
1040.000000	82.626228
1039.000000	82.609929
1038.000000	82.612060
1037.000000	82.606483
1036.000000	82.630151
1035.000000	82.615226
1034.000000	82.622314
1033.000000	82.632455
1032.000000	82.628862
1031.000000	82.628188
1030.000000	82.626042
1029.000000	82.638334
1028.000000	82.607179
1027.000000	82.603598
1026.000000	82.635474
1025.000000	82.609239
1024.000000	82.600128
1023.000000	82.597417
1022.000000	82.598435
1021.000000	82.604741
1020.000000	82.612854
1019.000000	82.612191
1018.000000	82.645455
1017.000000	82.625185
1016.000000	82.606830
1015.000000	82.637049
1014.000000	82.631028
1013.000000	82.656983
1012.000000	82.646335
1011.000000	82.644609
1010.000000	82.640876
1009.000000	82.659312
1008.000000	82.666506
1007.000000	82.683227
1006.000000	82.662116
1005.000000	82.685765
1004.000000	82.689120
1003.000000	82.682277
1002.000000	82.691135
1001.000000	82.686049
1000.000000	82.706176
999.000000	82.717886
998.000000	82.713396
997.000000	82.717683
996.000000	82.733590
995.000000	82.732263
994.000000	82.732835
993.000000	82.756156
992.000000	82.745784
991.000000	82.735962
990.000000	82.761069
989.000000	82.760465
988.000000	82.761252
987.000000	82.763582
986.000000	82.780196
985.000000	82.763635
984.000000	82.778329
983.000000	82.789681
982.000000	82.817706
981.000000	82.825161
980.000000	82.828120
979.000000	82.833067
978.000000	82.844649
977.000000	82.868832
976.000000	82.883102
975.000000	82.900778
974.000000	82.906809
973.000000	82.917523
972.000000	82.911929
971.000000	82.926502
970.000000	82.930745
969.000000	82.951983
968.000000	82.939451
967.000000	82.954605
966.000000	82.957962
965.000000	82.952700
964.000000	82.973257
963.000000	83.006310
962.000000	83.018875
961.000000	83.034645
960.000000	83.041104
959.000000	83.034424
958.000000	83.055757
957.000000	83.078850
956.000000	83.079756
955.000000	83.085016
954.000000	83.095068
953.000000	83.106053
952.000000	83.098417
951.000000	83.103685
950.000000	83.122142
949.000000	83.148752
948.000000	83.150482
947.000000	83.173282
946.000000	83.197059
945.000000	83.193463
944.000000	83.186001
943.000000	83.161679
942.000000	83.177129
941.000000	83.203738
940.000000	83.193741
939.000000	83.201661
938.000000	83.216957
937.000000	83.210420
936.000000	83.212461
935.000000	83.233914
934.000000	83.207814
933.000000	83.174490
932.000000	83.172290
931.000000	83.186807
930.000000	83.216577
929.000000	83.210496
928.000000	83.211344
927.000000	83.226261
926.000000	83.214291
925.000000	83.233623
924.000000	83.241788
923.000000	83.220111
922.000000	83.205254
921.000000	83.210862
920.000000	83.220090
919.000000	83.236750
918.000000	83.242571
917.000000	83.240911
916.000000	83.227733
915.000000	83.206755
914.000000	83.202304
913.000000	83.226047
912.000000	83.244032
911.000000	83.186102
910.000000	83.205050
909.000000	83.196249
908.000000	83.194716
907.000000	83.198389
906.000000	83.233282
905.000000	83.321646
904.000000	83.360715
903.000000	83.327816
902.000000	83.325395
901.000000	83.305646
900.000000	83.349273
899.000000	83.343487
898.000000	83.343890
897.000000	83.330352
896.000000	83.365243
895.000000	83.381263
894.000000	83.392919
893.000000	83.364526
892.000000	83.404261
891.000000	83.420136
890.000000	83.491675
889.000000	83.435922
888.000000	83.399029
887.000000	83.491663
886.000000	83.541981
885.000000	83.432984
884.000000	83.476249
883.000000	83.516487
882.000000	83.411730
881.000000	83.394453
880.000000	83.488682
879.000000	83.430355
878.000000	83.484184
877.000000	83.519235
876.000000	83.453522
875.000000	83.460067
874.000000	83.504886
873.000000	83.546427
872.000000	83.544320
871.000000	83.475931
870.000000	83.447911
869.000000	83.481595
868.000000	83.463103
867.000000	83.573622
866.000000	83.640356
865.000000	83.599068
864.000000	83.793677
863.000000	83.537286
862.000000	83.491364
861.000000	83.542146
860.000000	83.718516
859.000000	84.265825
858.000000	83.459831
857.000000	84.190198
856.000000	84.205514
855.000000	83.730271
854.000000	83.679111
853.000000	83.709187
852.000000	83.879942
851.000000	84.137087
850.000000	83.825239
849.000000	83.962359
848.000000	84.176185
847.000000	83.740459
846.000000	83.853831
845.000000	83.852528
844.000000	83.979775
843.000000	83.914688
842.000000	84.158470
841.000000	83.696896
840.000000	83.976850
839.000000	83.976956
838.000000	83.972885
837.000000	84.039893
836.000000	83.849915
835.000000	83.914958
834.000000	83.813081
833.000000	83.906339
832.000000	84.017623
831.000000	83.739589
830.000000	84.048787
829.000000	83.763644
828.000000	83.987864
827.000000	83.781268
826.000000	83.958850
825.000000	83.658762
824.000000	83.471164
823.000000	83.711880
822.000000	83.894498
821.000000	83.901220
820.000000	83.610135
819.000000	83.861634
818.000000	83.725534
817.000000	83.973002
816.000000	83.724536
815.000000	83.939854
814.000000	83.974510
813.000000	83.658204
812.000000	83.699901
811.000000	83.759487
810.000000	83.631440
809.000000	83.725939
808.000000	83.717407
807.000000	83.800284
806.000000	83.808587
805.000000	83.929398
804.000000	83.723653
803.000000	83.771458
802.000000	83.677434
801.000000	83.590528
800.000000	83.612928
799.000000	83.504424
798.000000	83.545732
797.000000	83.617666
796.000000	83.656733
795.000000	83.726631
794.000000	83.517740
793.000000	83.636729
792.000000	83.640769
791.000000	83.609400
790.000000	83.827622
789.000000	83.772028
788.000000	83.862390
787.000000	83.775070
786.000000	83.822491
785.000000	83.842260
784.000000	83.801751
783.000000	83.501189
782.000000	83.715637
781.000000	83.842233
780.000000	83.684666
779.000000	83.783213
778.000000	83.618666
777.000000	83.605326
776.000000	83.648949
775.000000	83.762685
774.000000	83.801155
773.000000	83.645955
772.000000	83.653701
771.000000	83.617168
770.000000	83.592682
769.000000	83.521534
768.000000	83.564936
767.000000	83.697318
766.000000	83.612312
765.000000	83.684838
764.000000	83.684658
763.000000	83.755088
762.000000	83.732904
761.000000	83.627223
760.000000	83.667270
759.000000	83.723021
758.000000	83.679690
757.000000	83.653408
756.000000	83.611848
755.000000	83.636018
754.000000	83.580332
753.000000	83.566564
752.000000	83.642623
751.000000	83.647271
750.000000	83.595108
749.000000	83.613860
748.000000	83.534863
747.000000	83.573063
746.000000	83.607157
745.000000	83.631742
744.000000	83.579988
743.000000	83.479913
742.000000	83.466162
741.000000	83.524663
740.000000	83.450099
739.000000	83.559597
738.000000	83.597051
737.000000	83.521656
736.000000	83.497973
735.000000	83.511908
734.000000	83.456506
733.000000	83.431604
732.000000	83.435769
731.000000	83.436412
730.000000	83.408148
729.000000	83.434712
728.000000	83.506374
727.000000	83.532302
726.000000	83.513205
725.000000	83.500445
724.000000	83.417252
723.000000	83.451538
722.000000	83.456999
721.000000	83.385934
720.000000	83.364353
719.000000	83.311396
718.000000	83.354764
717.000000	83.411912
716.000000	83.400368
715.000000	83.397041
714.000000	83.394808
713.000000	83.353205
712.000000	83.365499
711.000000	83.361037
710.000000	83.287170
709.000000	83.313458
708.000000	83.328172
707.000000	83.204943
706.000000	83.155363
705.000000	83.227075
704.000000	83.194414
703.000000	83.172588
702.000000	83.172214
701.000000	83.111151
700.000000	83.120551
699.000000	83.206457
698.000000	83.164485
697.000000	83.134552
696.000000	83.185133
695.000000	83.095576
694.000000	83.073213
693.000000	83.144030
692.000000	83.199501
691.000000	83.128579
690.000000	83.103063
689.000000	83.057214
688.000000	82.948546
687.000000	82.937813
686.000000	82.919205
685.000000	82.815292
684.000000	82.814708
683.000000	82.854608
682.000000	82.876056
681.000000	82.928979
680.000000	82.849588
679.000000	82.810033
678.000000	82.801746
677.000000	82.817888
676.000000	82.747144
675.000000	82.698452
674.000000	82.715436
673.000000	82.694212
672.000000	82.740091
671.000000	82.723922
670.000000	82.636681
669.000000	82.622700
668.000000	82.593303
667.000000	82.534388
666.000000	82.620554
665.000000	82.602873
664.000000	82.534904
663.000000	82.499352
662.000000	82.482519
661.000000	82.423702
660.000000	82.430686
659.000000	82.449088
658.000000	82.358197
657.000000	82.381206
656.000000	82.345801
655.000000	82.265620
654.000000	82.275386
653.000000	82.313238
652.000000	82.265570
651.000000	82.258772
650.000000	82.201517
649.000000	82.252393
648.000000	82.211805
647.000000	82.237202
646.000000	82.181724
645.000000	82.166467
644.000000	82.056919
643.000000	82.045368
642.000000	82.023644
641.000000	81.970369
640.000000	81.981805
639.000000	81.944793
638.000000	81.878798
637.000000	81.823193
636.000000	81.860706
635.000000	81.789408
634.000000	81.718091
633.000000	81.789881
632.000000	81.677830
631.000000	81.716264
630.000000	81.770983
629.000000	81.691004
628.000000	81.612816
627.000000	81.468442
626.000000	81.402933
625.000000	81.478401
624.000000	81.451471
623.000000	81.465962
622.000000	81.430162
621.000000	81.293212
620.000000	81.189566
619.000000	81.228987
618.000000	81.293750
617.000000	81.150280
616.000000	81.160019
615.000000	81.119290
614.000000	80.951120
613.000000	81.040833
612.000000	80.992779
611.000000	80.972937
610.000000	80.922348
609.000000	80.855549
608.000000	80.780980
607.000000	80.753485
606.000000	80.707058
605.000000	80.651316
604.000000	80.612629
603.000000	80.613275
602.000000	80.516184
601.000000	80.516169
600.000000	80.462884
599.000000	80.327821
598.000000	80.301289
597.000000	80.307550
596.000000	80.264638
595.000000	80.217785
594.000000	80.153914
593.000000	80.049086
592.000000	80.041115
591.000000	79.872161
590.000000	79.897538
589.000000	79.880396
588.000000	79.778387
587.000000	79.788088
586.000000	79.640207
585.000000	79.652165
584.000000	79.585828
583.000000	79.430556
582.000000	79.434238
581.000000	79.349915
580.000000	79.305964
579.000000	79.267402
578.000000	79.149605
577.000000	79.130031
576.000000	79.136173
575.000000	79.080772
574.000000	78.942741
573.000000	78.911819
572.000000	78.709044
571.000000	78.708675
570.000000	78.631356
569.000000	78.568868
568.000000	78.518657
567.000000	78.417959
566.000000	78.316873
565.000000	78.253964
564.000000	78.174092
563.000000	78.161915
562.000000	78.044043
561.000000	77.932064
560.000000	77.847936
559.000000	77.787720
558.000000	77.710795
557.000000	77.639028
556.000000	77.641653
555.000000	77.455925
554.000000	77.402612
553.000000	77.305867
552.000000	77.181661
551.000000	77.202295
550.000000	77.041827
549.000000	76.922623
548.000000	76.775027
547.000000	76.816212
546.000000	76.699720
545.000000	76.618603
544.000000	76.492454
543.000000	76.427129
542.000000	76.285744
541.000000	76.204752
540.000000	76.126319
539.000000	76.054149
538.000000	75.918456
537.000000	75.868728
536.000000	75.705159
535.000000	75.676648
534.000000	75.556968
533.000000	75.406456
532.000000	75.347330
531.000000	75.230858
530.000000	75.130857
529.000000	75.074313
528.000000	74.907312
527.000000	74.809682
526.000000	74.709446
525.000000	74.556650
524.000000	74.444975
523.000000	74.373302
522.000000	74.248321
521.000000	74.169153
520.000000	74.087532
519.000000	73.948264
518.000000	73.754136
517.000000	73.685180
516.000000	73.531639
515.000000	73.438431
514.000000	73.344163
513.000000	73.192716
512.000000	73.073657
511.000000	72.954553
510.000000	72.820389
509.000000	72.727930
508.000000	72.589223
507.000000	72.467838
506.000000	72.354015
505.000000	72.290498
504.000000	72.184603
503.000000	71.994648
502.000000	71.820976
501.000000	71.690003
500.000000	71.530979
499.000000	71.415201
498.000000	71.343049
497.000000	71.204057
496.000000	71.090580
495.000000	70.907934
494.000000	70.744957
493.000000	70.665795
492.000000	70.531009
491.000000	70.378035
490.000000	70.234374
489.000000	70.121814
488.000000	70.002838
487.000000	69.897796
486.000000	69.773385
485.000000	69.667319
484.000000	69.510822
483.000000	69.420671
482.000000	69.316514
481.000000	69.123636
480.000000	69.006253
479.000000	68.886457
478.000000	68.794428
477.000000	68.680221
476.000000	68.527366
475.000000	68.382221
474.000000	68.289413
473.000000	68.182611
472.000000	68.053354
471.000000	67.882788
470.000000	67.713472
469.000000	67.606266
468.000000	67.522572
467.000000	67.402247
466.000000	67.243782
465.000000	67.111232
464.000000	66.988275
463.000000	66.807347
462.000000	66.672548
461.000000	66.521262
460.000000	66.414525
459.000000	66.298047
458.000000	66.159102
457.000000	66.014263
456.000000	65.821537
455.000000	65.642043
454.000000	65.445871
453.000000	65.302009
452.000000	65.141793
451.000000	64.943203
450.000000	64.819404
449.000000	64.636126
448.000000	64.440103
447.000000	64.285795
446.000000	64.107729
445.000000	63.880330
444.000000	63.718406
443.000000	63.595791
442.000000	63.457651
441.000000	63.304726
440.000000	63.114514
439.000000	62.894271
438.000000	62.681928
437.000000	62.468918
436.000000	62.331307
435.000000	62.150577
434.000000	61.922636
433.000000	61.745796
432.000000	61.546743
431.000000	61.336084
430.000000	61.138853
429.000000	60.965421
428.000000	60.705075
427.000000	60.508030
426.000000	60.297786
425.000000	60.113290
424.000000	59.869007
423.000000	59.693169
422.000000	59.463890
421.000000	59.174123
420.000000	58.949265
419.000000	58.767736
418.000000	58.568217
417.000000	58.307930
416.000000	58.124190
415.000000	57.875443
414.000000	57.653687
413.000000	57.355151
412.000000	57.160067
411.000000	56.938608
410.000000	56.696248
409.000000	56.449724
408.000000	56.227497
407.000000	55.940195
406.000000	55.703747
405.000000	55.507577
404.000000	55.153890
403.000000	54.946687
402.000000	54.707518
401.000000	54.415651
400.000000	54.181433
399.000000	53.884107
398.000000	53.592718
397.000000	53.401650
396.000000	53.150256
395.000000	52.893812
394.000000	52.611937
393.000000	52.382720
392.000000	52.129547
391.000000	51.824122
390.000000	51.557646
389.000000	51.354635
388.000000	51.048362
387.000000	50.780942
386.000000	50.535112
385.000000	50.146081
384.000000	49.851405
383.000000	49.496925
382.000000	49.195926
381.000000	48.910168
380.000000	48.640498
379.000000	48.274746
378.000000	47.856435
377.000000	47.594041
376.000000	47.319379
375.000000	47.088862
374.000000	46.637677
373.000000	46.347681
372.000000	45.921228
371.000000	45.608608
370.000000	45.321486
369.000000	45.144124
368.000000	44.743722
367.000000	44.400024
366.000000	44.179152
365.000000	44.103775
364.000000	43.784026
363.000000	43.544719
362.000000	43.201600
361.000000	43.077366
360.000000	42.807977
359.000000	42.557405
358.000000	42.311583
357.000000	42.048845
356.000000	41.935138
355.000000	41.457409
354.000000	41.294599
353.000000	41.160097
352.000000	40.786617
351.000000	40.639284
350.000000	40.488882
349.000000	40.307802
348.000000	40.031976
347.000000	39.795911
346.000000	39.453634
345.000000	39.268962
344.000000	39.372155
343.000000	38.963480
342.000000	38.951168
341.000000	38.691850
340.000000	38.430368
339.000000	38.327350
338.000000	38.106625
337.000000	37.830861
336.000000	37.753174
335.000000	37.711195
334.000000	37.506238
333.000000	37.321148
332.000000	37.073022
331.000000	36.826429
330.000000	36.935484
329.000000	36.782260
328.000000	36.634985
327.000000	36.518103
326.000000	36.590938
325.000000	36.227285
324.000000	36.129442
323.000000	36.132923
322.000000	35.976015
321.000000	35.799493
320.000000	35.666491
319.000000	35.689395
318.000000	35.236759
317.000000	35.323981
316.000000	35.149710
315.000000	34.996272
314.000000	34.977102
313.000000	34.909932
312.000000	34.723173
311.000000	34.490896
310.000000	34.489139
309.000000	34.410992
308.000000	34.336961
307.000000	34.193274
306.000000	34.082970
305.000000	33.960156
304.000000	33.838804
303.000000	33.861824
302.000000	33.860975
301.000000	33.701797
300.000000	33.489686
299.000000	33.172356
298.000000	33.205923
297.000000	32.967588
296.000000	32.746216
295.000000	32.591212
294.000000	32.454455
293.000000	32.182800
292.000000	31.975876
291.000000	31.606350
290.000000	31.325541
289.000000	30.904049
288.000000	30.751703
287.000000	30.493929
286.000000	30.443856
285.000000	30.114084
284.000000	30.046923
283.000000	30.013622
282.000000	29.926108
281.000000	29.805393
280.000000	29.674148
279.000000	29.792460
278.000000	29.794749
277.000000	29.715276
276.000000	29.682499
275.000000	29.797419
274.000000	29.842454
273.000000	29.856668
272.000000	29.889154
271.000000	29.885855
270.000000	29.855249
269.000000	29.947926
268.000000	30.102054
267.000000	30.200139
266.000000	30.196174
265.000000	30.335447
264.000000	30.513221
263.000000	30.683874
262.000000	30.804651
261.000000	30.988467
260.000000	31.152501
259.000000	31.374966
258.000000	31.658616
257.000000	31.827685
256.000000	32.058832
255.000000	32.240942
254.000000	32.607931
253.000000	32.755720
252.000000	33.023477
251.000000	33.324516
250.000000	33.532259
249.000000	33.708729
248.000000	33.956432
247.000000	34.169700
246.000000	34.203599
245.000000	34.185441
244.000000	34.104451
243.000000	34.044436
242.000000	33.878751
241.000000	33.571979
240.000000	33.389864
239.000000	32.984864
238.000000	32.439448
237.000000	32.060550
236.000000	31.545093
235.000000	31.053620
234.000000	30.710047
233.000000	30.342639
232.000000	29.901398
231.000000	29.285565
230.000000	28.748659
229.000000	28.340014
228.000000	28.038311
227.000000	27.569067
226.000000	27.142281
225.000000	26.817361
224.000000	26.624642
223.000000	26.346747
222.000000	26.012232
221.000000	25.748937
220.000000	25.545498
219.000000	25.447160
218.000000	25.346972
217.000000	25.185702
216.000000	24.989548
215.000000	24.835258
214.000000	24.884273
213.000000	24.969193
212.000000	24.918094
211.000000	24.978247
210.000000	25.049922
209.000000	24.960936
208.000000	24.946609
207.000000	25.185413
206.000000	25.414001
205.000000	25.567105
204.000000	25.932806
203.000000	26.178206
202.000000	26.709981
201.000000	27.184820
200.000000	27.671415
