PE UV       SUBTECH     SPECTRUM    ASCII       PEDS        4.00        
   -1
RTms1482162.Sample.asc
18/03/22
11:19:39.00
18/03/22
11:19:39.00
Administrator

200.000000
1
Lambda 750
750N8071901
PerkinElmer UV WinLab 6.0.4.0738 / 1.61.00 Lambda 900

0
0
3350/servo 860.8/2
0
0
UV/VIS
1
1
1
CommonBeamDepol,150mm sphere / downward view
0
0
0
0
Program
Program
3350/servo 860.8/2
3350/0.2 860.8/0.2
3350/0.2 860.8/0.2
0
1
 
 
 
0
 
860.8
319.2
860.8
Front
100
on
 
 
0
0
0
 
0
 
 
 
0
 
 
0
0
0
0
0
 
 
 
 
0
0


0
0
#HDR
-1
-1
#GR
nm
%R
1.0
0.0
2350.000000
-1.000000
2151
8
72.616460
14.702708
#DATA
2350.000000	42.088876
2349.000000	42.072265
2348.000000	42.289317
2347.000000	42.606522
2346.000000	42.239074
2345.000000	42.280725
2344.000000	42.272640
2343.000000	41.754978
2342.000000	42.066347
2341.000000	42.326987
2340.000000	42.333584
2339.000000	42.466031
2338.000000	42.370851
2337.000000	42.406477
2336.000000	42.531537
2335.000000	42.516660
2334.000000	42.701206
2333.000000	42.856159
2332.000000	42.777299
2331.000000	43.009434
2330.000000	42.805174
2329.000000	42.588765
2328.000000	42.503132
2327.000000	42.436723
2326.000000	42.592162
2325.000000	42.343424
2324.000000	42.497165
2323.000000	42.326875
2322.000000	42.303640
2321.000000	42.355810
2320.000000	42.485721
2319.000000	42.326446
2318.000000	42.203047
2317.000000	42.212951
2316.000000	42.139065
2315.000000	42.105968
2314.000000	42.053867
2313.000000	41.870942
2312.000000	41.774588
2311.000000	41.896864
2310.000000	41.767216
2309.000000	41.765978
2308.000000	41.730008
2307.000000	41.572142
2306.000000	41.561655
2305.000000	41.576980
2304.000000	41.377680
2303.000000	41.260743
2302.000000	41.240267
2301.000000	41.222479
2300.000000	40.955521
2299.000000	40.847035
2298.000000	40.650828
2297.000000	40.592606
2296.000000	40.696378
2295.000000	40.494000
2294.000000	40.582524
2293.000000	40.280412
2292.000000	40.246832
2291.000000	40.364952
2290.000000	40.252816
2289.000000	40.327995
2288.000000	40.290895
2287.000000	40.137695
2286.000000	39.993244
2285.000000	39.904018
2284.000000	39.908406
2283.000000	39.975925
2282.000000	40.049678
2281.000000	40.092871
2280.000000	40.121135
2279.000000	40.168344
2278.000000	40.159314
2277.000000	40.106235
2276.000000	40.044145
2275.000000	40.164912
2274.000000	40.180375
2273.000000	40.141515
2272.000000	40.279357
2271.000000	40.253951
2270.000000	40.378017
2269.000000	40.308410
2268.000000	40.372845
2267.000000	40.432014
2266.000000	40.539042
2265.000000	40.744615
2264.000000	40.906694
2263.000000	40.966449
2262.000000	41.120797
2261.000000	41.367219
2260.000000	41.579673
2259.000000	41.673974
2258.000000	41.843164
2257.000000	42.020652
2256.000000	42.198468
2255.000000	42.446025
2254.000000	42.550742
2253.000000	42.792287
2252.000000	43.059107
2251.000000	43.200065
2250.000000	43.405984
2249.000000	43.586375
2248.000000	43.736551
2247.000000	43.929046
2246.000000	44.224694
2245.000000	44.477845
2244.000000	44.600723
2243.000000	44.839486
2242.000000	45.007758
2241.000000	45.104004
2240.000000	45.292494
2239.000000	45.409883
2238.000000	45.589937
2237.000000	45.710823
2236.000000	45.744233
2235.000000	45.833824
2234.000000	45.868962
2233.000000	45.864431
2232.000000	45.985926
2231.000000	46.210742
2230.000000	46.239150
2229.000000	46.266495
2228.000000	46.360375
2227.000000	46.315824
2226.000000	46.220182
2225.000000	46.218971
2224.000000	46.275695
2223.000000	46.203248
2222.000000	46.155017
2221.000000	46.164421
2220.000000	46.190301
2219.000000	46.167385
2218.000000	45.967228
2217.000000	45.927038
2216.000000	45.873861
2215.000000	45.868318
2214.000000	45.810721
2213.000000	45.775131
2212.000000	45.794130
2211.000000	45.819442
2210.000000	45.747513
2209.000000	45.559199
2208.000000	45.546184
2207.000000	45.568115
2206.000000	45.586907
2205.000000	45.406053
2204.000000	45.295382
2203.000000	45.208360
2202.000000	45.108126
2201.000000	45.039310
2200.000000	45.006866
2199.000000	44.940379
2198.000000	44.955481
2197.000000	44.772276
2196.000000	44.708691
2195.000000	44.596783
2194.000000	44.633299
2193.000000	44.499127
2192.000000	44.465021
2191.000000	44.379946
2190.000000	44.260324
2189.000000	44.254325
2188.000000	44.209722
2187.000000	44.195925
2186.000000	44.198184
2185.000000	44.014195
2184.000000	44.111158
2183.000000	44.159083
2182.000000	44.045535
2181.000000	43.906311
2180.000000	44.011404
2179.000000	43.994411
2178.000000	43.977928
2177.000000	43.958704
2176.000000	43.979799
2175.000000	44.143700
2174.000000	44.131972
2173.000000	44.089281
2172.000000	44.100890
2171.000000	44.266743
2170.000000	44.349382
2169.000000	44.374012
2168.000000	44.512837
2167.000000	44.654283
2166.000000	44.787827
2165.000000	44.961334
2164.000000	44.851296
2163.000000	44.884721
2162.000000	45.247939
2161.000000	45.084968
2160.000000	45.334599
2159.000000	45.635159
2158.000000	45.667279
2157.000000	45.747418
2156.000000	45.901555
2155.000000	46.185524
2154.000000	46.284803
2153.000000	46.438307
2152.000000	46.739761
2151.000000	46.877720
2150.000000	46.931045
2149.000000	47.032612
2148.000000	47.156739
2147.000000	47.418877
2146.000000	47.520908
2145.000000	47.715892
2144.000000	47.830240
2143.000000	47.741617
2142.000000	47.991077
2141.000000	48.236662
2140.000000	48.346319
2139.000000	48.477407
2138.000000	48.653951
2137.000000	48.704310
2136.000000	48.750522
2135.000000	48.898809
2134.000000	48.887976
2133.000000	48.971833
2132.000000	49.124983
2131.000000	49.361060
2130.000000	49.403933
2129.000000	49.511155
2128.000000	49.474892
2127.000000	49.532670
2126.000000	49.552583
2125.000000	49.611488
2124.000000	49.665580
2123.000000	49.705821
2122.000000	49.723401
2121.000000	49.842242
2120.000000	49.793553
2119.000000	49.827425
2118.000000	49.896687
2117.000000	49.820735
2116.000000	50.067386
2115.000000	50.137470
2114.000000	49.986409
2113.000000	49.950968
2112.000000	49.909580
2111.000000	50.061029
2110.000000	50.061037
2109.000000	50.160160
2108.000000	50.046550
2107.000000	50.125568
2106.000000	50.054816
2105.000000	50.163645
2104.000000	50.263899
2103.000000	50.291843
2102.000000	50.265583
2101.000000	50.231614
2100.000000	50.273062
2099.000000	50.275655
2098.000000	50.305092
2097.000000	50.258891
2096.000000	50.173369
2095.000000	50.096848
2094.000000	50.172493
2093.000000	50.242969
2092.000000	50.141076
2091.000000	50.100204
2090.000000	50.079140
2089.000000	50.088645
2088.000000	50.089554
2087.000000	50.082364
2086.000000	50.032023
2085.000000	50.009563
2084.000000	49.949843
2083.000000	49.856056
2082.000000	49.861032
2081.000000	49.805939
2080.000000	49.766860
2079.000000	49.657777
2078.000000	49.552812
2077.000000	49.483297
2076.000000	49.292750
2075.000000	49.164062
2074.000000	49.162868
2073.000000	49.103787
2072.000000	48.980589
2071.000000	48.869419
2070.000000	48.711724
2069.000000	48.618736
2068.000000	48.427444
2067.000000	48.272315
2066.000000	48.150985
2065.000000	47.997868
2064.000000	47.865108
2063.000000	47.731414
2062.000000	47.600203
2061.000000	47.416871
2060.000000	47.241023
2059.000000	47.110499
2058.000000	47.006987
2057.000000	46.859658
2056.000000	46.751044
2055.000000	46.623620
2054.000000	46.426529
2053.000000	46.257654
2052.000000	46.148934
2051.000000	46.039979
2050.000000	45.939259
2049.000000	45.898108
2048.000000	45.778795
2047.000000	45.654550
2046.000000	45.574563
2045.000000	45.556664
2044.000000	45.524955
2043.000000	45.527117
2042.000000	45.524270
2041.000000	45.537739
2040.000000	45.565705
2039.000000	45.533419
2038.000000	45.581055
2037.000000	45.702903
2036.000000	45.749483
2035.000000	45.810355
2034.000000	45.950936
2033.000000	46.028148
2032.000000	46.081282
2031.000000	46.218880
2030.000000	46.340322
2029.000000	46.438175
2028.000000	46.531426
2027.000000	46.646819
2026.000000	46.809720
2025.000000	46.891307
2024.000000	46.908600
2023.000000	46.924008
2022.000000	46.975495
2021.000000	47.016609
2020.000000	47.094623
2019.000000	47.122469
2018.000000	47.106070
2017.000000	47.167922
2016.000000	47.170461
2015.000000	47.150632
2014.000000	47.125593
2013.000000	47.068567
2012.000000	47.011498
2011.000000	46.974721
2010.000000	46.906349
2009.000000	46.819195
2008.000000	46.723531
2007.000000	46.626582
2006.000000	46.533574
2005.000000	46.459465
2004.000000	46.326040
2003.000000	46.204461
2002.000000	46.135326
2001.000000	45.997777
2000.000000	45.913119
1999.000000	45.821103
1998.000000	45.724874
1997.000000	45.594120
1996.000000	45.480873
1995.000000	45.365722
1994.000000	45.259296
1993.000000	45.168461
1992.000000	45.011831
1991.000000	44.895824
1990.000000	44.807343
1989.000000	44.688802
1988.000000	44.566445
1987.000000	44.467869
1986.000000	44.339566
1985.000000	44.212750
1984.000000	44.113741
1983.000000	44.006280
1982.000000	43.917911
1981.000000	43.792315
1980.000000	43.669358
1979.000000	43.518757
1978.000000	43.435639
1977.000000	43.352221
1976.000000	43.230950
1975.000000	43.175002
1974.000000	43.030290
1973.000000	42.960597
1972.000000	42.857463
1971.000000	42.791545
1970.000000	42.681264
1969.000000	42.568552
1968.000000	42.439605
1967.000000	42.383523
1966.000000	42.290694
1965.000000	42.157527
1964.000000	42.053470
1963.000000	42.009893
1962.000000	41.902178
1961.000000	41.822529
1960.000000	41.728107
1959.000000	41.647576
1958.000000	41.554124
1957.000000	41.476463
1956.000000	41.391002
1955.000000	41.324880
1954.000000	41.232419
1953.000000	41.192416
1952.000000	41.144137
1951.000000	41.087546
1950.000000	41.036136
1949.000000	40.972858
1948.000000	40.957954
1947.000000	40.905803
1946.000000	40.880641
1945.000000	40.900437
1944.000000	40.952864
1943.000000	40.968911
1942.000000	40.972556
1941.000000	41.039172
1940.000000	41.083720
1939.000000	41.170196
1938.000000	41.232011
1937.000000	41.277380
1936.000000	41.378193
1935.000000	41.534959
1934.000000	41.624563
1933.000000	41.741473
1932.000000	41.872477
1931.000000	42.009233
1930.000000	42.172392
1929.000000	42.405373
1928.000000	42.619100
1927.000000	42.827365
1926.000000	43.050366
1925.000000	43.311739
1924.000000	43.513130
1923.000000	43.803909
1922.000000	44.078938
1921.000000	44.348590
1920.000000	44.578405
1919.000000	44.913776
1918.000000	45.326701
1917.000000	45.632547
1916.000000	45.884536
1915.000000	46.253210
1914.000000	46.627621
1913.000000	47.131927
1912.000000	47.438842
1911.000000	47.823027
1910.000000	48.277973
1909.000000	48.589711
1908.000000	49.067966
1907.000000	49.552092
1906.000000	49.983399
1905.000000	50.391926
1904.000000	50.930385
1903.000000	51.435405
1902.000000	51.863757
1901.000000	52.377071
1900.000000	52.883695
1899.000000	53.369310
1898.000000	53.885732
1897.000000	54.297410
1896.000000	54.776432
1895.000000	55.252197
1894.000000	55.645379
1893.000000	56.157853
1892.000000	56.603195
1891.000000	57.052715
1890.000000	57.405228
1889.000000	57.850941
1888.000000	58.231708
1887.000000	58.576019
1886.000000	58.977636
1885.000000	59.303962
1884.000000	59.642167
1883.000000	59.932485
1882.000000	60.233263
1881.000000	60.556711
1880.000000	60.844062
1879.000000	61.069070
1878.000000	61.336264
1877.000000	61.588995
1876.000000	61.806293
1875.000000	62.036630
1874.000000	62.228538
1873.000000	62.462294
1872.000000	62.577571
1871.000000	62.715483
1870.000000	62.872064
1869.000000	63.045959
1868.000000	63.167203
1867.000000	63.263648
1866.000000	63.358868
1865.000000	63.409407
1864.000000	63.462478
1863.000000	63.564017
1862.000000	63.625485
1861.000000	63.696986
1860.000000	63.743896
1859.000000	63.724865
1858.000000	63.752651
1857.000000	63.837842
1856.000000	63.874914
1855.000000	63.901896
1854.000000	63.921727
1853.000000	63.959539
1852.000000	63.983865
1851.000000	63.982025
1850.000000	64.006677
1849.000000	63.999947
1848.000000	63.979901
1847.000000	63.984213
1846.000000	63.944378
1845.000000	63.944844
1844.000000	63.941414
1843.000000	63.926379
1842.000000	63.911122
1841.000000	63.892477
1840.000000	63.870713
1839.000000	63.859124
1838.000000	63.829060
1837.000000	63.796395
1836.000000	63.773433
1835.000000	63.734880
1834.000000	63.676832
1833.000000	63.653542
1832.000000	63.621610
1831.000000	63.569333
1830.000000	63.528319
1829.000000	63.497396
1828.000000	63.463760
1827.000000	63.435526
1826.000000	63.424203
1825.000000	63.406544
1824.000000	63.371674
1823.000000	63.343109
1822.000000	63.302304
1821.000000	63.284763
1820.000000	63.257635
1819.000000	63.234900
1818.000000	63.224496
1817.000000	63.181547
1816.000000	63.153871
1815.000000	63.133809
1814.000000	63.083307
1813.000000	63.048204
1812.000000	63.013182
1811.000000	62.989913
1810.000000	62.977320
1809.000000	62.953536
1808.000000	62.933956
1807.000000	62.897954
1806.000000	62.874066
1805.000000	62.859009
1804.000000	62.832631
1803.000000	62.808083
1802.000000	62.781161
1801.000000	62.759127
1800.000000	62.738939
1799.000000	62.707404
1798.000000	62.676099
1797.000000	62.662790
1796.000000	62.654190
1795.000000	62.644809
1794.000000	62.635727
1793.000000	62.595790
1792.000000	62.580485
1791.000000	62.580310
1790.000000	62.555711
1789.000000	62.530628
1788.000000	62.506309
1787.000000	62.511311
1786.000000	62.490953
1785.000000	62.461180
1784.000000	62.443889
1783.000000	62.428059
1782.000000	62.372044
1781.000000	62.349708
1780.000000	62.325154
1779.000000	62.300099
1778.000000	62.268916
1777.000000	62.228408
1776.000000	62.210260
1775.000000	62.171620
1774.000000	62.134037
1773.000000	62.105831
1772.000000	62.074879
1771.000000	62.027666
1770.000000	61.966564
1769.000000	61.917639
1768.000000	61.868870
1767.000000	61.813969
1766.000000	61.788120
1765.000000	61.758792
1764.000000	61.723871
1763.000000	61.670748
1762.000000	61.637216
1761.000000	61.603845
1760.000000	61.562208
1759.000000	61.521217
1758.000000	61.479492
1757.000000	61.451499
1756.000000	61.402784
1755.000000	61.371665
1754.000000	61.329178
1753.000000	61.253689
1752.000000	61.229379
1751.000000	61.194255
1750.000000	61.173608
1749.000000	61.155376
1748.000000	61.099754
1747.000000	61.018869
1746.000000	60.963970
1745.000000	60.938393
1744.000000	60.889665
1743.000000	60.842338
1742.000000	60.758161
1741.000000	60.753225
1740.000000	60.718458
1739.000000	60.647812
1738.000000	60.643904
1737.000000	60.657916
1736.000000	60.615441
1735.000000	60.596650
1734.000000	60.595562
1733.000000	60.610502
1732.000000	60.564650
1731.000000	60.582889
1730.000000	60.609687
1729.000000	60.618074
1728.000000	60.691308
1727.000000	60.740090
1726.000000	60.787730
1725.000000	60.843688
1724.000000	60.917463
1723.000000	60.961871
1722.000000	61.043912
1721.000000	61.142855
1720.000000	61.226456
1719.000000	61.316917
1718.000000	61.386568
1717.000000	61.477356
1716.000000	61.551639
1715.000000	61.593758
1714.000000	61.686170
1713.000000	61.764799
1712.000000	61.826396
1711.000000	61.889924
1710.000000	61.986107
1709.000000	62.023441
1708.000000	62.074186
1707.000000	62.078002
1706.000000	62.073441
1705.000000	62.114706
1704.000000	62.158085
1703.000000	62.161752
1702.000000	62.208617
1701.000000	62.232686
1700.000000	62.248167
1699.000000	62.208618
1698.000000	62.247486
1697.000000	62.265038
1696.000000	62.327404
1695.000000	62.346853
1694.000000	62.379782
1693.000000	62.430550
1692.000000	62.459015
1691.000000	62.521315
1690.000000	62.597242
1689.000000	62.655834
1688.000000	62.729327
1687.000000	62.826899
1686.000000	62.917029
1685.000000	63.023967
1684.000000	63.119377
1683.000000	63.278767
1682.000000	63.376893
1681.000000	63.505596
1680.000000	63.632304
1679.000000	63.767383
1678.000000	63.925445
1677.000000	64.027967
1676.000000	64.169116
1675.000000	64.324642
1674.000000	64.472004
1673.000000	64.572866
1672.000000	64.704063
1671.000000	64.832006
1670.000000	64.966887
1669.000000	65.076555
1668.000000	65.181366
1667.000000	65.300273
1666.000000	65.318642
1665.000000	65.418636
1664.000000	65.493845
1663.000000	65.556873
1662.000000	65.635596
1661.000000	65.680077
1660.000000	65.720276
1659.000000	65.766110
1658.000000	65.826494
1657.000000	65.858001
1656.000000	65.896625
1655.000000	65.925339
1654.000000	65.912669
1653.000000	65.934624
1652.000000	65.969132
1651.000000	65.959565
1650.000000	65.965802
1649.000000	65.969792
1648.000000	65.948002
1647.000000	65.952696
1646.000000	65.951154
1645.000000	65.921450
1644.000000	65.921456
1643.000000	65.908525
1642.000000	65.888216
1641.000000	65.892615
1640.000000	65.873073
1639.000000	65.847680
1638.000000	65.821331
1637.000000	65.811292
1636.000000	65.775388
1635.000000	65.751234
1634.000000	65.713130
1633.000000	65.705588
1632.000000	65.674995
1631.000000	65.625489
1630.000000	65.598848
1629.000000	65.574136
1628.000000	65.526465
1627.000000	65.494110
1626.000000	65.455152
1625.000000	65.415508
1624.000000	65.388588
1623.000000	65.368572
1622.000000	65.341952
1621.000000	65.281590
1620.000000	65.247132
1619.000000	65.216503
1618.000000	65.168556
1617.000000	65.134112
1616.000000	65.074527
1615.000000	65.024787
1614.000000	64.968928
1613.000000	64.925360
1612.000000	64.896304
1611.000000	64.850632
1610.000000	64.791704
1609.000000	64.743415
1608.000000	64.707055
1607.000000	64.659414
1606.000000	64.601533
1605.000000	64.558612
1604.000000	64.514998
1603.000000	64.455567
1602.000000	64.409940
1601.000000	64.367775
1600.000000	64.313635
1599.000000	64.258019
1598.000000	64.204566
1597.000000	64.162597
1596.000000	64.122035
1595.000000	64.072604
1594.000000	64.031683
1593.000000	64.002029
1592.000000	63.959688
1591.000000	63.914066
1590.000000	63.885034
1589.000000	63.831892
1588.000000	63.788825
1587.000000	63.766279
1586.000000	63.720025
1585.000000	63.675426
1584.000000	63.643674
1583.000000	63.601773
1582.000000	63.566899
1581.000000	63.521832
1580.000000	63.501365
1579.000000	63.472745
1578.000000	63.436684
1577.000000	63.393588
1576.000000	63.343166
1575.000000	63.311437
1574.000000	63.265874
1573.000000	63.238021
1572.000000	63.205856
1571.000000	63.173292
1570.000000	63.132616
1569.000000	63.084940
1568.000000	63.067729
1567.000000	63.049094
1566.000000	63.006516
1565.000000	62.971077
1564.000000	62.962041
1563.000000	62.950237
1562.000000	62.928160
1561.000000	62.906188
1560.000000	62.879838
1559.000000	62.868083
1558.000000	62.847938
1557.000000	62.832299
1556.000000	62.822544
1555.000000	62.800064
1554.000000	62.781963
1553.000000	62.752419
1552.000000	62.723490
1551.000000	62.703632
1550.000000	62.656441
1549.000000	62.633137
1548.000000	62.605372
1547.000000	62.536455
1546.000000	62.496697
1545.000000	62.447134
1544.000000	62.382613
1543.000000	62.311690
1542.000000	62.257262
1541.000000	62.210152
1540.000000	62.136933
1539.000000	62.069631
1538.000000	62.005412
1537.000000	61.918764
1536.000000	61.838520
1535.000000	61.772700
1534.000000	61.697573
1533.000000	61.640646
1532.000000	61.578450
1531.000000	61.502701
1530.000000	61.431972
1529.000000	61.360343
1528.000000	61.318269
1527.000000	61.258733
1526.000000	61.210371
1525.000000	61.159568
1524.000000	61.109174
1523.000000	61.050798
1522.000000	61.003788
1521.000000	60.966324
1520.000000	60.925668
1519.000000	60.904299
1518.000000	60.867383
1517.000000	60.881418
1516.000000	60.881542
1515.000000	60.883140
1514.000000	60.876763
1513.000000	60.862184
1512.000000	60.821484
1511.000000	60.779160
1510.000000	60.757214
1509.000000	60.752379
1508.000000	60.726208
1507.000000	60.736943
1506.000000	60.759768
1505.000000	60.727103
1504.000000	60.711294
1503.000000	60.699367
1502.000000	60.677041
1501.000000	60.664261
1500.000000	60.677989
1499.000000	60.681422
1498.000000	60.685547
1497.000000	60.677372
1496.000000	60.691574
1495.000000	60.713730
1494.000000	60.715771
1493.000000	60.746449
1492.000000	60.741901
1491.000000	60.764350
1490.000000	60.819826
1489.000000	60.831771
1488.000000	60.864170
1487.000000	60.886311
1486.000000	60.929043
1485.000000	60.988110
1484.000000	60.995375
1483.000000	61.035822
1482.000000	61.078162
1481.000000	61.114420
1480.000000	61.157739
1479.000000	61.184395
1478.000000	61.224287
1477.000000	61.281247
1476.000000	61.334253
1475.000000	61.380247
1474.000000	61.407436
1473.000000	61.438881
1472.000000	61.477654
1471.000000	61.490219
1470.000000	61.530429
1469.000000	61.567650
1468.000000	61.593104
1467.000000	61.663308
1466.000000	61.726970
1465.000000	61.737540
1464.000000	61.777202
1463.000000	61.802879
1462.000000	61.848689
1461.000000	61.918175
1460.000000	61.950621
1459.000000	61.988230
1458.000000	62.016970
1457.000000	62.060751
1456.000000	62.152396
1455.000000	62.174171
1454.000000	62.228858
1453.000000	62.276676
1452.000000	62.340968
1451.000000	62.385886
1450.000000	62.445234
1449.000000	62.475029
1448.000000	62.534582
1447.000000	62.621276
1446.000000	62.694596
1445.000000	62.771014
1444.000000	62.819537
1443.000000	62.881778
1442.000000	62.933852
1441.000000	63.003444
1440.000000	63.082244
1439.000000	63.161968
1438.000000	63.251129
1437.000000	63.334210
1436.000000	63.408225
1435.000000	63.504413
1434.000000	63.570887
1433.000000	63.669651
1432.000000	63.752895
1431.000000	63.845047
1430.000000	63.943201
1429.000000	64.048520
1428.000000	64.160511
1427.000000	64.263339
1426.000000	64.380156
1425.000000	64.498780
1424.000000	64.635549
1423.000000	64.739745
1422.000000	64.877403
1421.000000	64.999579
1420.000000	65.098375
1419.000000	65.222879
1418.000000	65.376876
1417.000000	65.527979
1416.000000	65.672497
1415.000000	65.784480
1414.000000	65.936538
1413.000000	66.095352
1412.000000	66.226016
1411.000000	66.360671
1410.000000	66.514442
1409.000000	66.668795
1408.000000	66.811222
1407.000000	66.947872
1406.000000	67.072929
1405.000000	67.219722
1404.000000	67.356404
1403.000000	67.487465
1402.000000	67.614826
1401.000000	67.734278
1400.000000	67.865935
1399.000000	67.983365
1398.000000	68.106971
1397.000000	68.223235
1396.000000	68.336899
1395.000000	68.447306
1394.000000	68.546082
1393.000000	68.648398
1392.000000	68.752005
1391.000000	68.854039
1390.000000	68.947738
1389.000000	69.024608
1388.000000	69.121269
1387.000000	69.215502
1386.000000	69.300171
1385.000000	69.390031
1384.000000	69.458044
1383.000000	69.518071
1382.000000	69.583606
1381.000000	69.636372
1380.000000	69.686435
1379.000000	69.744750
1378.000000	69.797255
1377.000000	69.843712
1376.000000	69.891882
1375.000000	69.928544
1374.000000	69.967066
1373.000000	69.988807
1372.000000	70.019401
1371.000000	70.063558
1370.000000	70.102498
1369.000000	70.123370
1368.000000	70.148201
1367.000000	70.200814
1366.000000	70.232841
1365.000000	70.252092
1364.000000	70.292492
1363.000000	70.322840
1362.000000	70.348364
1361.000000	70.384733
1360.000000	70.443762
1359.000000	70.485740
1358.000000	70.505843
1357.000000	70.541237
1356.000000	70.577931
1355.000000	70.619556
1354.000000	70.660358
1353.000000	70.714083
1352.000000	70.754721
1351.000000	70.777982
1350.000000	70.804671
1349.000000	70.847685
1348.000000	70.891749
1347.000000	70.936687
1346.000000	70.946214
1345.000000	70.980244
1344.000000	71.019173
1343.000000	71.063244
1342.000000	71.087485
1341.000000	71.104853
1340.000000	71.156365
1339.000000	71.180179
1338.000000	71.195855
1337.000000	71.227722
1336.000000	71.252449
1335.000000	71.289054
1334.000000	71.319164
1333.000000	71.332588
1332.000000	71.365561
1331.000000	71.396839
1330.000000	71.393512
1329.000000	71.409887
1328.000000	71.424009
1327.000000	71.460866
1326.000000	71.488887
1325.000000	71.494530
1324.000000	71.529573
1323.000000	71.523296
1322.000000	71.542710
1321.000000	71.539655
1320.000000	71.552555
1319.000000	71.595873
1318.000000	71.602640
1317.000000	71.610063
1316.000000	71.599622
1315.000000	71.593872
1314.000000	71.599708
1313.000000	71.655755
1312.000000	71.665778
1311.000000	71.698695
1310.000000	71.679944
1309.000000	71.641861
1308.000000	71.673952
1307.000000	71.686475
1306.000000	71.697424
1305.000000	71.719647
1304.000000	71.728484
1303.000000	71.713433
1302.000000	71.726671
1301.000000	71.720419
1300.000000	71.738345
1299.000000	71.737322
1298.000000	71.714901
1297.000000	71.733320
1296.000000	71.734656
1295.000000	71.730324
1294.000000	71.739289
1293.000000	71.738994
1292.000000	71.753341
1291.000000	71.733958
1290.000000	71.760821
1289.000000	71.745962
1288.000000	71.712861
1287.000000	71.712885
1286.000000	71.718777
1285.000000	71.708184
1284.000000	71.728722
1283.000000	71.725700
1282.000000	71.697920
1281.000000	71.697224
1280.000000	71.708144
1279.000000	71.706003
1278.000000	71.695473
1277.000000	71.704149
1276.000000	71.691889
1275.000000	71.718830
1274.000000	71.724286
1273.000000	71.724239
1272.000000	71.718301
1271.000000	71.703407
1270.000000	71.720896
1269.000000	71.709129
1268.000000	71.757492
1267.000000	71.765301
1266.000000	71.728081
1265.000000	71.749461
1264.000000	71.753793
1263.000000	71.765578
1262.000000	71.748841
1261.000000	71.776991
1260.000000	71.753584
1259.000000	71.785693
1258.000000	71.787734
1257.000000	71.781676
1256.000000	71.772995
1255.000000	71.775569
1254.000000	71.805934
1253.000000	71.793374
1252.000000	71.781088
1251.000000	71.812342
1250.000000	71.796918
1249.000000	71.810287
1248.000000	71.791741
1247.000000	71.773415
1246.000000	71.780595
1245.000000	71.785199
1244.000000	71.752437
1243.000000	71.749372
1242.000000	71.742201
1241.000000	71.738701
1240.000000	71.741818
1239.000000	71.711257
1238.000000	71.703227
1237.000000	71.686470
1236.000000	71.685703
1235.000000	71.658821
1234.000000	71.641229
1233.000000	71.625763
1232.000000	71.617069
1231.000000	71.587120
1230.000000	71.580973
1229.000000	71.564682
1228.000000	71.570957
1227.000000	71.557593
1226.000000	71.543000
1225.000000	71.536230
1224.000000	71.519908
1223.000000	71.505944
1222.000000	71.514540
1221.000000	71.516583
1220.000000	71.482145
1219.000000	71.459877
1218.000000	71.451880
1217.000000	71.436033
1216.000000	71.439586
1215.000000	71.406868
1214.000000	71.410144
1213.000000	71.389826
1212.000000	71.355371
1211.000000	71.360240
1210.000000	71.317966
1209.000000	71.337298
1208.000000	71.306546
1207.000000	71.256618
1206.000000	71.270768
1205.000000	71.249415
1204.000000	71.219884
1203.000000	71.218601
1202.000000	71.176405
1201.000000	71.172546
1200.000000	71.132522
1199.000000	71.118151
1198.000000	71.089449
1197.000000	71.083286
1196.000000	71.058561
1195.000000	71.031174
1194.000000	71.017912
1193.000000	71.017008
1192.000000	70.999111
1191.000000	70.984002
1190.000000	70.964748
1189.000000	70.956498
1188.000000	70.953880
1187.000000	70.945595
1186.000000	70.953063
1185.000000	70.954872
1184.000000	70.947859
1183.000000	70.950043
1182.000000	70.969155
1181.000000	70.991376
1180.000000	71.005866
1179.000000	71.017538
1178.000000	71.038645
1177.000000	71.057668
1176.000000	71.070695
1175.000000	71.115133
1174.000000	71.147289
1173.000000	71.185018
1172.000000	71.215205
1171.000000	71.239572
1170.000000	71.276487
1169.000000	71.303482
1168.000000	71.355990
1167.000000	71.408867
1166.000000	71.449381
1165.000000	71.483360
1164.000000	71.522717
1163.000000	71.553689
1162.000000	71.597963
1161.000000	71.654811
1160.000000	71.695197
1159.000000	71.736772
1158.000000	71.778380
1157.000000	71.806870
1156.000000	71.832671
1155.000000	71.863406
1154.000000	71.885681
1153.000000	71.911388
1152.000000	71.969692
1151.000000	72.003342
1150.000000	72.023475
1149.000000	72.064815
1148.000000	72.097178
1147.000000	72.129735
1146.000000	72.138478
1145.000000	72.149509
1144.000000	72.187757
1143.000000	72.214853
1142.000000	72.229607
1141.000000	72.251567
1140.000000	72.279417
1139.000000	72.301951
1138.000000	72.306646
1137.000000	72.325652
1136.000000	72.353642
1135.000000	72.366609
1134.000000	72.403355
1133.000000	72.418216
1132.000000	72.429633
1131.000000	72.437281
1130.000000	72.456132
1129.000000	72.489968
1128.000000	72.513439
1127.000000	72.522576
1126.000000	72.529265
1125.000000	72.534438
1124.000000	72.524300
1123.000000	72.525310
1122.000000	72.542749
1121.000000	72.558952
1120.000000	72.563644
1119.000000	72.566393
1118.000000	72.575796
1117.000000	72.571563
1116.000000	72.584888
1115.000000	72.602634
1114.000000	72.603358
1113.000000	72.602218
1112.000000	72.611392
1111.000000	72.602622
1110.000000	72.605731
1109.000000	72.606440
1108.000000	72.597053
1107.000000	72.606435
1106.000000	72.609274
1105.000000	72.608815
1104.000000	72.616460
1103.000000	72.606015
1102.000000	72.573306
1101.000000	72.596370
1100.000000	72.607030
1099.000000	72.595999
1098.000000	72.601846
1097.000000	72.598724
1096.000000	72.601759
1095.000000	72.605116
1094.000000	72.595546
1093.000000	72.590546
1092.000000	72.577859
1091.000000	72.601843
1090.000000	72.611251
1089.000000	72.595432
1088.000000	72.603624
1087.000000	72.568706
1086.000000	72.562567
1085.000000	72.582258
1084.000000	72.588694
1083.000000	72.566814
1082.000000	72.563860
1081.000000	72.569886
1080.000000	72.557935
1079.000000	72.582969
1078.000000	72.558904
1077.000000	72.548232
1076.000000	72.545573
1075.000000	72.561192
1074.000000	72.556007
1073.000000	72.531837
1072.000000	72.509249
1071.000000	72.527325
1070.000000	72.528772
1069.000000	72.530002
1068.000000	72.537196
1067.000000	72.534733
1066.000000	72.487804
1065.000000	72.513669
1064.000000	72.516791
1063.000000	72.495599
1062.000000	72.505600
1061.000000	72.497608
1060.000000	72.501825
1059.000000	72.474373
1058.000000	72.469142
1057.000000	72.466104
1056.000000	72.465221
1055.000000	72.458695
1054.000000	72.461981
1053.000000	72.445402
1052.000000	72.431853
1051.000000	72.444019
1050.000000	72.442046
1049.000000	72.423305
1048.000000	72.416499
1047.000000	72.420548
1046.000000	72.428180
1045.000000	72.412277
1044.000000	72.417752
1043.000000	72.384413
1042.000000	72.385834
1041.000000	72.393856
1040.000000	72.409108
1039.000000	72.393106
1038.000000	72.370351
1037.000000	72.371702
1036.000000	72.380625
1035.000000	72.379530
1034.000000	72.359457
1033.000000	72.385501
1032.000000	72.369396
1031.000000	72.351463
1030.000000	72.374116
1029.000000	72.379701
1028.000000	72.355560
1027.000000	72.351637
1026.000000	72.364176
1025.000000	72.360021
1024.000000	72.336103
1023.000000	72.346816
1022.000000	72.357532
1021.000000	72.348257
1020.000000	72.327179
1019.000000	72.343617
1018.000000	72.351745
1017.000000	72.338760
1016.000000	72.330954
1015.000000	72.331661
1014.000000	72.319124
1013.000000	72.347633
1012.000000	72.344888
1011.000000	72.339520
1010.000000	72.336970
1009.000000	72.329408
1008.000000	72.318957
1007.000000	72.336945
1006.000000	72.344127
1005.000000	72.342243
1004.000000	72.344643
1003.000000	72.327576
1002.000000	72.315489
1001.000000	72.311861
1000.000000	72.353903
999.000000	72.348500
998.000000	72.344887
997.000000	72.334619
996.000000	72.338200
995.000000	72.347277
994.000000	72.347732
993.000000	72.358097
992.000000	72.370337
991.000000	72.376352
990.000000	72.374132
989.000000	72.363464
988.000000	72.365714
987.000000	72.360004
986.000000	72.364195
985.000000	72.367924
984.000000	72.362628
983.000000	72.365881
982.000000	72.384436
981.000000	72.382730
980.000000	72.384491
979.000000	72.376713
978.000000	72.385117
977.000000	72.394115
976.000000	72.390930
975.000000	72.397272
974.000000	72.402333
973.000000	72.394303
972.000000	72.409150
971.000000	72.399542
970.000000	72.388236
969.000000	72.406404
968.000000	72.408810
967.000000	72.407548
966.000000	72.401016
965.000000	72.403962
964.000000	72.421634
963.000000	72.437947
962.000000	72.431044
961.000000	72.422814
960.000000	72.413284
959.000000	72.410526
958.000000	72.438143
957.000000	72.443035
956.000000	72.443870
955.000000	72.428117
954.000000	72.416171
953.000000	72.417445
952.000000	72.414794
951.000000	72.425258
950.000000	72.435841
949.000000	72.432330
948.000000	72.448485
947.000000	72.455331
946.000000	72.429012
945.000000	72.425812
944.000000	72.431218
943.000000	72.402195
942.000000	72.403071
941.000000	72.431318
940.000000	72.419457
939.000000	72.412430
938.000000	72.425151
937.000000	72.411554
936.000000	72.406607
935.000000	72.410683
934.000000	72.413842
933.000000	72.402346
932.000000	72.379807
931.000000	72.382405
930.000000	72.399408
929.000000	72.389096
928.000000	72.389453
927.000000	72.401700
926.000000	72.377453
925.000000	72.392140
924.000000	72.387055
923.000000	72.372514
922.000000	72.352611
921.000000	72.341523
920.000000	72.353326
919.000000	72.373705
918.000000	72.347549
917.000000	72.340320
916.000000	72.333986
915.000000	72.326167
914.000000	72.339261
913.000000	72.329715
912.000000	72.359195
911.000000	72.350462
910.000000	72.321132
909.000000	72.320978
908.000000	72.334273
907.000000	72.285856
906.000000	72.323300
905.000000	72.354197
904.000000	72.355327
903.000000	72.354798
902.000000	72.321699
901.000000	72.302227
900.000000	72.328729
899.000000	72.349591
898.000000	72.342267
897.000000	72.381505
896.000000	72.360854
895.000000	72.326085
894.000000	72.286634
893.000000	72.336716
892.000000	72.344422
891.000000	72.325857
890.000000	72.372905
889.000000	72.350620
888.000000	72.371488
887.000000	72.376693
886.000000	72.331782
885.000000	72.278041
884.000000	72.304081
883.000000	72.265615
882.000000	72.233224
881.000000	72.268977
880.000000	72.282520
879.000000	72.278878
878.000000	72.261413
877.000000	72.260723
876.000000	72.309038
875.000000	72.336829
874.000000	72.298187
873.000000	72.350419
872.000000	72.288356
871.000000	72.171257
870.000000	72.235811
869.000000	72.303812
868.000000	72.211758
867.000000	72.198255
866.000000	72.297284
865.000000	72.322491
864.000000	72.203227
863.000000	72.230382
862.000000	72.241087
861.000000	72.137062
860.000000	72.357178
859.000000	72.563241
858.000000	71.553183
857.000000	72.038321
856.000000	72.107787
855.000000	72.566497
854.000000	72.355778
853.000000	72.113806
852.000000	72.578818
851.000000	72.479765
850.000000	71.902854
849.000000	71.958569
848.000000	71.859116
847.000000	71.910292
846.000000	71.800797
845.000000	71.921366
844.000000	72.364513
843.000000	72.210982
842.000000	72.419752
841.000000	72.081865
840.000000	71.981157
839.000000	72.003376
838.000000	72.009893
837.000000	72.188025
836.000000	71.988171
835.000000	72.024786
834.000000	71.751649
833.000000	71.687482
832.000000	71.843649
831.000000	71.774742
830.000000	71.873155
829.000000	71.798125
828.000000	71.980549
827.000000	71.908592
826.000000	72.008951
825.000000	71.669991
824.000000	71.761086
823.000000	71.817464
822.000000	71.810331
821.000000	71.876992
820.000000	71.661249
819.000000	71.648598
818.000000	71.486926
817.000000	71.598973
816.000000	71.692555
815.000000	71.674685
814.000000	71.751650
813.000000	71.573723
812.000000	71.627985
811.000000	71.577384
810.000000	71.517464
809.000000	71.705707
808.000000	71.493007
807.000000	71.610820
806.000000	71.573585
805.000000	71.663971
804.000000	71.545574
803.000000	71.629085
802.000000	71.509222
801.000000	71.536301
800.000000	71.535955
799.000000	71.356513
798.000000	71.494799
797.000000	71.535801
796.000000	71.441993
795.000000	71.411099
794.000000	71.238427
793.000000	71.215710
792.000000	71.247160
791.000000	71.311732
790.000000	71.445685
789.000000	71.462424
788.000000	71.447355
787.000000	71.389709
786.000000	71.370703
785.000000	71.326566
784.000000	71.363894
783.000000	71.214231
782.000000	71.255174
781.000000	71.274526
780.000000	71.266258
779.000000	71.107019
778.000000	71.137662
777.000000	71.038681
776.000000	71.150243
775.000000	71.119517
774.000000	71.179000
773.000000	71.130081
772.000000	71.086907
771.000000	71.145866
770.000000	71.112615
769.000000	71.020057
768.000000	70.968025
767.000000	71.045623
766.000000	71.074554
765.000000	71.105161
764.000000	70.986859
763.000000	70.992955
762.000000	70.933608
761.000000	70.935188
760.000000	70.920122
759.000000	70.959846
758.000000	70.924444
757.000000	70.931470
756.000000	70.921832
755.000000	70.822181
754.000000	70.762873
753.000000	70.835409
752.000000	70.888709
751.000000	70.813734
750.000000	70.749141
749.000000	70.726093
748.000000	70.698352
747.000000	70.711116
746.000000	70.705744
745.000000	70.713427
744.000000	70.638887
743.000000	70.551318
742.000000	70.500130
741.000000	70.592834
740.000000	70.532350
739.000000	70.520494
738.000000	70.468560
737.000000	70.402180
736.000000	70.399438
735.000000	70.416532
734.000000	70.381204
733.000000	70.387596
732.000000	70.359189
731.000000	70.310946
730.000000	70.293452
729.000000	70.269229
728.000000	70.295417
727.000000	70.265441
726.000000	70.211497
725.000000	70.186038
724.000000	70.169437
723.000000	70.155416
722.000000	70.137298
721.000000	70.125255
720.000000	70.066849
719.000000	69.972415
718.000000	69.946520
717.000000	69.949799
716.000000	69.937350
715.000000	69.920761
714.000000	69.959820
713.000000	69.944049
712.000000	69.887108
711.000000	69.861284
710.000000	69.848174
709.000000	69.818481
708.000000	69.724407
707.000000	69.614187
706.000000	69.612246
705.000000	69.630261
704.000000	69.549843
703.000000	69.483356
702.000000	69.501397
701.000000	69.497950
700.000000	69.502776
699.000000	69.504098
698.000000	69.427797
697.000000	69.375167
696.000000	69.360901
695.000000	69.279593
694.000000	69.250120
693.000000	69.286446
692.000000	69.293041
691.000000	69.260257
690.000000	69.197242
689.000000	69.092794
688.000000	69.015873
687.000000	68.961953
686.000000	68.954590
685.000000	68.856880
684.000000	68.824663
683.000000	68.804486
682.000000	68.773404
681.000000	68.801889
680.000000	68.766641
679.000000	68.710158
678.000000	68.688750
677.000000	68.644205
676.000000	68.479848
675.000000	68.481922
674.000000	68.480047
673.000000	68.378701
672.000000	68.394049
671.000000	68.452901
670.000000	68.344287
669.000000	68.254081
668.000000	68.235401
667.000000	68.180449
666.000000	68.169118
665.000000	68.142261
664.000000	68.055779
663.000000	68.037149
662.000000	68.036100
661.000000	67.974697
660.000000	67.908431
659.000000	67.859210
658.000000	67.809637
657.000000	67.813811
656.000000	67.724996
655.000000	67.640738
654.000000	67.606420
653.000000	67.530026
652.000000	67.557415
651.000000	67.481157
650.000000	67.426417
649.000000	67.456965
648.000000	67.358625
647.000000	67.303898
646.000000	67.286307
645.000000	67.244464
644.000000	67.152033
643.000000	67.103471
642.000000	67.056117
641.000000	66.993894
640.000000	66.974498
639.000000	66.929871
638.000000	66.887223
637.000000	66.853490
636.000000	66.800984
635.000000	66.687216
634.000000	66.622880
633.000000	66.672935
632.000000	66.551248
631.000000	66.491560
630.000000	66.453286
629.000000	66.373207
628.000000	66.326436
627.000000	66.267847
626.000000	66.175514
625.000000	66.151989
624.000000	66.152941
623.000000	66.040518
622.000000	65.996430
621.000000	65.883636
620.000000	65.817744
619.000000	65.802005
618.000000	65.729656
617.000000	65.631297
616.000000	65.605712
615.000000	65.532196
614.000000	65.414272
613.000000	65.434307
612.000000	65.350899
611.000000	65.316060
610.000000	65.181806
609.000000	65.163391
608.000000	65.034267
607.000000	64.981491
606.000000	64.901525
605.000000	64.857475
604.000000	64.748036
603.000000	64.776979
602.000000	64.645826
601.000000	64.588634
600.000000	64.536868
599.000000	64.445557
598.000000	64.360897
597.000000	64.389669
596.000000	64.311088
595.000000	64.149830
594.000000	64.079690
593.000000	63.971441
592.000000	63.955544
591.000000	63.829519
590.000000	63.737417
589.000000	63.691222
588.000000	63.635488
587.000000	63.562671
586.000000	63.447942
585.000000	63.330668
584.000000	63.247812
583.000000	63.169010
582.000000	63.135736
581.000000	63.037162
580.000000	62.901659
579.000000	62.846757
578.000000	62.727681
577.000000	62.656591
576.000000	62.599533
575.000000	62.534574
574.000000	62.407269
573.000000	62.321413
572.000000	62.177483
571.000000	62.132213
570.000000	61.978161
569.000000	61.912951
568.000000	61.828749
567.000000	61.680516
566.000000	61.632631
565.000000	61.524537
564.000000	61.426487
563.000000	61.359171
562.000000	61.228270
561.000000	61.109139
560.000000	61.019776
559.000000	60.918890
558.000000	60.810666
557.000000	60.707051
556.000000	60.589202
555.000000	60.456807
554.000000	60.343984
553.000000	60.263005
552.000000	60.127399
551.000000	60.084533
550.000000	59.952405
549.000000	59.775632
548.000000	59.652089
547.000000	59.609143
546.000000	59.469505
545.000000	59.392092
544.000000	59.237552
543.000000	59.165544
542.000000	58.971086
541.000000	58.855951
540.000000	58.719403
539.000000	58.647739
538.000000	58.535125
537.000000	58.396191
536.000000	58.242222
535.000000	58.153910
534.000000	58.005900
533.000000	57.868166
532.000000	57.771005
531.000000	57.613251
530.000000	57.492774
529.000000	57.393847
528.000000	57.214697
527.000000	57.067466
526.000000	56.977095
525.000000	56.814283
524.000000	56.667725
523.000000	56.541207
522.000000	56.388411
521.000000	56.269258
520.000000	56.145074
519.000000	55.988969
518.000000	55.801165
517.000000	55.706152
516.000000	55.520117
515.000000	55.391583
514.000000	55.254606
513.000000	55.090942
512.000000	54.935309
511.000000	54.801566
510.000000	54.654960
509.000000	54.509474
508.000000	54.352755
507.000000	54.215321
506.000000	54.057355
505.000000	53.911829
504.000000	53.793603
503.000000	53.606686
502.000000	53.425818
501.000000	53.281857
500.000000	53.121045
499.000000	53.003456
498.000000	52.856371
497.000000	52.672272
496.000000	52.522872
495.000000	52.381060
494.000000	52.227709
493.000000	52.078588
492.000000	51.907578
491.000000	51.744133
490.000000	51.553694
489.000000	51.386211
488.000000	51.259851
487.000000	51.094630
486.000000	50.943407
485.000000	50.773443
484.000000	50.621126
483.000000	50.505993
482.000000	50.347820
481.000000	50.134182
480.000000	50.008331
479.000000	49.864420
478.000000	49.701384
477.000000	49.554482
476.000000	49.379578
475.000000	49.225579
474.000000	49.071556
473.000000	48.895308
472.000000	48.731334
471.000000	48.557614
470.000000	48.385391
469.000000	48.236813
468.000000	48.089685
467.000000	47.921696
466.000000	47.740458
465.000000	47.570647
464.000000	47.426439
463.000000	47.264892
462.000000	47.068071
461.000000	46.870309
460.000000	46.691396
459.000000	46.520597
458.000000	46.344167
457.000000	46.151165
456.000000	45.946097
455.000000	45.757521
454.000000	45.536756
453.000000	45.344813
452.000000	45.132122
451.000000	44.918935
450.000000	44.753497
449.000000	44.513874
448.000000	44.268004
447.000000	44.108033
446.000000	43.899947
445.000000	43.669734
444.000000	43.439085
443.000000	43.251263
442.000000	43.080507
441.000000	42.900165
440.000000	42.675145
439.000000	42.440402
438.000000	42.216945
437.000000	42.018752
436.000000	41.813649
435.000000	41.607177
434.000000	41.370815
433.000000	41.175384
432.000000	40.971317
431.000000	40.778092
430.000000	40.549918
429.000000	40.321586
428.000000	40.123773
427.000000	39.930345
426.000000	39.690181
425.000000	39.443801
424.000000	39.248261
423.000000	39.040994
422.000000	38.793165
421.000000	38.556672
420.000000	38.338394
419.000000	38.097477
418.000000	37.852800
417.000000	37.636328
416.000000	37.426250
415.000000	37.162295
414.000000	36.965747
413.000000	36.727018
412.000000	36.462497
411.000000	36.207473
410.000000	35.981055
409.000000	35.764350
408.000000	35.512513
407.000000	35.282936
406.000000	35.052439
405.000000	34.820430
404.000000	34.507579
403.000000	34.305810
402.000000	34.052458
401.000000	33.835771
400.000000	33.604661
399.000000	33.333365
398.000000	33.061612
397.000000	32.889305
396.000000	32.593325
395.000000	32.337128
394.000000	32.093639
393.000000	31.899523
392.000000	31.652427
391.000000	31.384523
390.000000	31.177476
389.000000	30.925844
388.000000	30.663882
387.000000	30.479417
386.000000	30.242772
385.000000	29.884182
384.000000	29.635147
383.000000	29.348029
382.000000	29.122916
381.000000	28.854429
380.000000	28.595031
379.000000	28.368344
378.000000	27.951983
377.000000	27.746873
376.000000	27.598698
375.000000	27.321650
374.000000	27.175927
373.000000	26.783738
372.000000	26.515243
371.000000	26.245048
370.000000	25.935703
369.000000	25.787389
368.000000	25.510825
367.000000	25.213640
366.000000	25.071986
365.000000	24.932229
364.000000	24.664595
363.000000	24.407793
362.000000	24.210133
361.000000	23.987028
360.000000	23.821897
359.000000	23.615952
358.000000	23.393816
357.000000	23.157301
356.000000	22.961338
355.000000	22.722189
354.000000	22.538913
353.000000	22.381900
352.000000	22.171263
351.000000	22.029276
350.000000	21.826801
349.000000	21.615485
348.000000	21.433649
347.000000	21.175503
346.000000	21.014979
345.000000	20.888090
344.000000	20.792165
343.000000	20.508051
342.000000	20.416980
341.000000	20.228737
340.000000	20.080817
339.000000	19.947027
338.000000	19.664291
337.000000	19.623294
336.000000	19.520005
335.000000	19.228526
334.000000	19.063696
333.000000	19.055632
332.000000	18.822893
331.000000	18.698326
330.000000	18.542961
329.000000	18.459598
328.000000	18.207131
327.000000	18.064836
326.000000	17.993765
325.000000	17.652849
324.000000	17.726033
323.000000	17.656600
322.000000	17.499104
321.000000	17.372285
320.000000	17.354578
319.000000	17.174673
318.000000	17.013583
317.000000	17.112693
316.000000	16.985850
315.000000	16.846871
314.000000	16.710713
313.000000	16.632597
312.000000	16.564681
311.000000	16.573398
310.000000	16.469473
309.000000	16.403698
308.000000	16.306971
307.000000	16.259754
306.000000	16.158650
305.000000	16.121080
304.000000	16.106769
303.000000	16.083169
302.000000	15.993156
301.000000	15.906760
300.000000	15.845657
299.000000	15.805304
298.000000	15.742374
297.000000	15.665452
296.000000	15.581502
295.000000	15.549259
294.000000	15.476459
293.000000	15.307539
292.000000	15.208424
291.000000	15.174538
290.000000	15.075673
289.000000	14.997555
288.000000	14.901871
287.000000	14.828387
286.000000	14.803949
285.000000	14.756981
284.000000	14.728249
283.000000	14.702708
282.000000	14.773479
281.000000	14.735846
280.000000	14.770550
279.000000	14.804326
278.000000	14.863545
277.000000	14.915220
276.000000	14.966792
275.000000	15.046011
274.000000	15.158736
273.000000	15.182518
272.000000	15.290191
271.000000	15.369760
270.000000	15.447949
269.000000	15.547289
268.000000	15.679848
267.000000	15.725627
266.000000	15.849797
265.000000	15.946894
264.000000	16.112044
263.000000	16.272051
262.000000	16.359143
261.000000	16.519662
260.000000	16.723660
259.000000	16.840436
258.000000	16.986012
257.000000	17.192364
256.000000	17.341716
255.000000	17.449995
254.000000	17.661316
253.000000	17.831558
252.000000	17.987766
251.000000	18.162947
250.000000	18.268790
249.000000	18.415650
248.000000	18.594567
247.000000	18.644933
246.000000	18.663648
245.000000	18.625546
244.000000	18.571013
243.000000	18.504711
242.000000	18.406862
241.000000	18.260145
240.000000	18.090150
239.000000	17.869625
238.000000	17.531426
237.000000	17.331001
236.000000	17.056852
235.000000	16.837213
234.000000	16.735379
233.000000	16.520876
232.000000	16.320974
231.000000	16.125006
230.000000	15.866318
229.000000	15.607285
228.000000	15.499255
227.000000	15.417336
226.000000	15.244027
225.000000	15.106057
224.000000	15.067532
223.000000	14.997769
222.000000	15.022600
221.000000	15.050658
220.000000	15.018584
219.000000	15.088857
218.000000	15.148367
217.000000	15.137184
216.000000	15.217752
215.000000	15.325261
214.000000	15.419790
213.000000	15.633072
212.000000	15.808066
211.000000	15.866316
210.000000	15.931374
209.000000	16.121942
208.000000	16.389320
207.000000	16.682430
206.000000	16.960609
205.000000	17.226681
204.000000	17.617132
203.000000	18.048692
202.000000	18.648834
201.000000	19.156123
200.000000	19.687273
