PE UV       SUBTECH     SPECTRUM    ASCII       PEDS        4.00        
   -1
RTms499172.Sample.asc
18/03/22
12:16:35.00
18/03/22
12:16:35.00
Administrator

200.000000
1
Lambda 750
750N8071901
PerkinElmer UV WinLab 6.0.4.0738 / 1.61.00 Lambda 900

0
0
3350/servo 860.8/2
0
0
UV/VIS
1
1
1
CommonBeamDepol,150mm sphere / downward view
0
0
0
0
Program
Program
3350/servo 860.8/2
3350/0.2 860.8/0.2
3350/0.2 860.8/0.2
0
1
 
 
 
0
 
860.8
319.2
860.8
Front
100
on
 
 
0
0
0
 
0
 
 
 
0
 
 
0
0
0
0
0
 
 
 
 
0
0


0
0
#HDR
-1
-1
#GR
nm
%R
1.0
0.0
2350.000000
-1.000000
2151
8
55.392540
7.166816
#DATA
2350.000000	31.985839
2349.000000	31.903421
2348.000000	31.796218
2347.000000	32.621461
2346.000000	32.119480
2345.000000	32.188093
2344.000000	32.123655
2343.000000	32.080013
2342.000000	32.289242
2341.000000	32.510993
2340.000000	32.665378
2339.000000	32.881151
2338.000000	32.456395
2337.000000	32.505082
2336.000000	32.719488
2335.000000	32.759048
2334.000000	32.873752
2333.000000	32.966775
2332.000000	32.959445
2331.000000	32.772514
2330.000000	32.984816
2329.000000	32.945907
2328.000000	33.053494
2327.000000	32.683258
2326.000000	32.851132
2325.000000	32.634480
2324.000000	32.588033
2323.000000	32.457609
2322.000000	32.373753
2321.000000	32.574392
2320.000000	32.459515
2319.000000	32.243430
2318.000000	32.269728
2317.000000	32.259458
2316.000000	32.322065
2315.000000	32.233507
2314.000000	31.980484
2313.000000	31.908398
2312.000000	31.761639
2311.000000	31.994332
2310.000000	31.670650
2309.000000	31.929685
2308.000000	31.911798
2307.000000	31.645778
2306.000000	31.675774
2305.000000	31.670260
2304.000000	31.593711
2303.000000	31.512091
2302.000000	31.375486
2301.000000	31.344414
2300.000000	31.349309
2299.000000	31.287181
2298.000000	31.363878
2297.000000	31.366802
2296.000000	31.355395
2295.000000	31.309868
2294.000000	31.289585
2293.000000	31.078094
2292.000000	30.961745
2291.000000	30.948385
2290.000000	30.886724
2289.000000	30.819785
2288.000000	30.965175
2287.000000	31.120149
2286.000000	31.003404
2285.000000	30.895157
2284.000000	30.814658
2283.000000	30.771618
2282.000000	30.767575
2281.000000	30.871492
2280.000000	30.955342
2279.000000	30.987014
2278.000000	30.909530
2277.000000	30.954075
2276.000000	31.007022
2275.000000	31.062249
2274.000000	30.976631
2273.000000	31.044555
2272.000000	31.320434
2271.000000	31.270089
2270.000000	31.355128
2269.000000	31.461094
2268.000000	31.463805
2267.000000	31.569881
2266.000000	31.739041
2265.000000	31.936049
2264.000000	32.000813
2263.000000	32.047318
2262.000000	32.034201
2261.000000	32.194541
2260.000000	32.306992
2259.000000	32.477560
2258.000000	32.599444
2257.000000	32.861747
2256.000000	33.106443
2255.000000	33.238606
2254.000000	33.546887
2253.000000	33.541670
2252.000000	33.668053
2251.000000	33.989103
2250.000000	34.165087
2249.000000	34.378954
2248.000000	34.444991
2247.000000	34.653293
2246.000000	34.980920
2245.000000	35.118125
2244.000000	35.238368
2243.000000	35.447520
2242.000000	35.639473
2241.000000	35.762506
2240.000000	35.718624
2239.000000	35.731263
2238.000000	35.930946
2237.000000	36.038646
2236.000000	36.086937
2235.000000	36.235172
2234.000000	36.426678
2233.000000	36.533284
2232.000000	36.532244
2231.000000	36.604906
2230.000000	36.635792
2229.000000	36.672356
2228.000000	36.751131
2227.000000	36.705423
2226.000000	36.694468
2225.000000	36.657308
2224.000000	36.663567
2223.000000	36.708551
2222.000000	36.693871
2221.000000	36.664987
2220.000000	36.668543
2219.000000	36.723696
2218.000000	36.609696
2217.000000	36.558419
2216.000000	36.595508
2215.000000	36.528126
2214.000000	36.537725
2213.000000	36.526921
2212.000000	36.415143
2211.000000	36.320886
2210.000000	36.321726
2209.000000	36.341986
2208.000000	36.183470
2207.000000	36.080371
2206.000000	36.145421
2205.000000	36.115252
2204.000000	36.069922
2203.000000	35.852703
2202.000000	35.791033
2201.000000	35.784280
2200.000000	35.650218
2199.000000	35.697648
2198.000000	35.692714
2197.000000	35.514521
2196.000000	35.458847
2195.000000	35.456257
2194.000000	35.417511
2193.000000	35.293826
2192.000000	35.239413
2191.000000	35.284626
2190.000000	35.203696
2189.000000	35.169440
2188.000000	35.035305
2187.000000	35.013136
2186.000000	34.967841
2185.000000	34.935709
2184.000000	34.945056
2183.000000	34.990266
2182.000000	34.891471
2181.000000	34.667486
2180.000000	34.852078
2179.000000	34.905167
2178.000000	34.769130
2177.000000	34.880992
2176.000000	34.943675
2175.000000	34.887615
2174.000000	34.923399
2173.000000	34.860551
2172.000000	34.871512
2171.000000	35.063619
2170.000000	35.052323
2169.000000	35.170937
2168.000000	35.235329
2167.000000	35.289195
2166.000000	35.415628
2165.000000	35.537824
2164.000000	35.387349
2163.000000	35.482512
2162.000000	35.630476
2161.000000	35.532222
2160.000000	35.714177
2159.000000	35.928325
2158.000000	35.999903
2157.000000	36.089572
2156.000000	36.332077
2155.000000	36.353453
2154.000000	36.331834
2153.000000	36.645432
2152.000000	36.809345
2151.000000	36.859410
2150.000000	36.859772
2149.000000	37.115575
2148.000000	37.015876
2147.000000	37.184044
2146.000000	37.244394
2145.000000	37.429477
2144.000000	37.448992
2143.000000	37.643382
2142.000000	37.687294
2141.000000	37.883288
2140.000000	38.066192
2139.000000	38.036597
2138.000000	37.996064
2137.000000	38.376012
2136.000000	38.224775
2135.000000	38.353092
2134.000000	38.512821
2133.000000	38.486757
2132.000000	38.420402
2131.000000	38.792920
2130.000000	38.873839
2129.000000	38.744523
2128.000000	38.590238
2127.000000	38.579906
2126.000000	38.667619
2125.000000	38.773410
2124.000000	38.946235
2123.000000	38.789258
2122.000000	38.886680
2121.000000	38.823752
2120.000000	39.080474
2119.000000	38.987401
2118.000000	39.032382
2117.000000	39.129683
2116.000000	39.125019
2115.000000	39.221882
2114.000000	39.074729
2113.000000	39.216482
2112.000000	39.059266
2111.000000	38.995933
2110.000000	39.161295
2109.000000	39.179850
2108.000000	39.088166
2107.000000	39.208279
2106.000000	39.161913
2105.000000	39.289844
2104.000000	39.223123
2103.000000	39.238608
2102.000000	39.351875
2101.000000	39.311672
2100.000000	39.448470
2099.000000	39.318788
2098.000000	39.354679
2097.000000	39.303144
2096.000000	39.252777
2095.000000	39.196897
2094.000000	39.235809
2093.000000	39.176702
2092.000000	39.249315
2091.000000	39.243207
2090.000000	39.191183
2089.000000	39.243358
2088.000000	39.251960
2087.000000	39.241706
2086.000000	39.258711
2085.000000	39.225379
2084.000000	39.118587
2083.000000	38.993295
2082.000000	39.025673
2081.000000	38.938245
2080.000000	38.938182
2079.000000	38.903447
2078.000000	38.828308
2077.000000	38.777554
2076.000000	38.710746
2075.000000	38.681900
2074.000000	38.594424
2073.000000	38.481544
2072.000000	38.381770
2071.000000	38.258155
2070.000000	38.220902
2069.000000	38.118211
2068.000000	37.949919
2067.000000	37.892928
2066.000000	37.789550
2065.000000	37.674427
2064.000000	37.624593
2063.000000	37.495921
2062.000000	37.369706
2061.000000	37.224325
2060.000000	37.130765
2059.000000	37.019429
2058.000000	36.937565
2057.000000	36.796628
2056.000000	36.698448
2055.000000	36.669824
2054.000000	36.528284
2053.000000	36.419799
2052.000000	36.293472
2051.000000	36.193684
2050.000000	36.121980
2049.000000	36.029947
2048.000000	35.960603
2047.000000	35.907780
2046.000000	35.876978
2045.000000	35.826832
2044.000000	35.826610
2043.000000	35.899362
2042.000000	35.891309
2041.000000	35.853007
2040.000000	35.880863
2039.000000	35.893311
2038.000000	35.916984
2037.000000	35.955292
2036.000000	36.013709
2035.000000	36.108805
2034.000000	36.232674
2033.000000	36.316380
2032.000000	36.348666
2031.000000	36.427686
2030.000000	36.532942
2029.000000	36.589765
2028.000000	36.706227
2027.000000	36.795948
2026.000000	36.848255
2025.000000	36.925373
2024.000000	36.967279
2023.000000	37.045387
2022.000000	37.120585
2021.000000	37.123435
2020.000000	37.134810
2019.000000	37.132541
2018.000000	37.139255
2017.000000	37.162925
2016.000000	37.132693
2015.000000	37.112723
2014.000000	37.111811
2013.000000	37.129014
2012.000000	37.107408
2011.000000	37.044162
2010.000000	36.958635
2009.000000	36.889735
2008.000000	36.805687
2007.000000	36.726750
2006.000000	36.670308
2005.000000	36.598554
2004.000000	36.488746
2003.000000	36.379152
2002.000000	36.299905
2001.000000	36.217534
2000.000000	36.126584
1999.000000	36.029924
1998.000000	35.959691
1997.000000	35.881862
1996.000000	35.798053
1995.000000	35.699371
1994.000000	35.588885
1993.000000	35.440606
1992.000000	35.337095
1991.000000	35.238753
1990.000000	35.138507
1989.000000	35.016132
1988.000000	34.918669
1987.000000	34.855132
1986.000000	34.747463
1985.000000	34.632494
1984.000000	34.566022
1983.000000	34.484277
1982.000000	34.403886
1981.000000	34.303951
1980.000000	34.173141
1979.000000	34.051907
1978.000000	33.946326
1977.000000	33.841927
1976.000000	33.719818
1975.000000	33.642592
1974.000000	33.525220
1973.000000	33.475293
1972.000000	33.385246
1971.000000	33.228377
1970.000000	33.152665
1969.000000	33.110761
1968.000000	33.022644
1967.000000	32.937994
1966.000000	32.868402
1965.000000	32.776666
1964.000000	32.656923
1963.000000	32.594821
1962.000000	32.443443
1961.000000	32.374932
1960.000000	32.339400
1959.000000	32.201204
1958.000000	32.134137
1957.000000	32.079590
1956.000000	32.016657
1955.000000	31.940304
1954.000000	31.878795
1953.000000	31.772835
1952.000000	31.726976
1951.000000	31.725319
1950.000000	31.646748
1949.000000	31.633181
1948.000000	31.615753
1947.000000	31.483664
1946.000000	31.463768
1945.000000	31.520160
1944.000000	31.511504
1943.000000	31.528971
1942.000000	31.559460
1941.000000	31.545715
1940.000000	31.564116
1939.000000	31.653486
1938.000000	31.725177
1937.000000	31.787522
1936.000000	31.881779
1935.000000	31.905926
1934.000000	31.977584
1933.000000	32.164660
1932.000000	32.142919
1931.000000	32.329976
1930.000000	32.488108
1929.000000	32.533749
1928.000000	32.777831
1927.000000	32.922134
1926.000000	33.081867
1925.000000	33.245819
1924.000000	33.461470
1923.000000	33.698070
1922.000000	33.914516
1921.000000	34.199884
1920.000000	34.378679
1919.000000	34.618718
1918.000000	34.968962
1917.000000	35.242710
1916.000000	35.520848
1915.000000	35.817831
1914.000000	36.149552
1913.000000	36.575085
1912.000000	36.877714
1911.000000	37.174150
1910.000000	37.488249
1909.000000	37.843058
1908.000000	38.249615
1907.000000	38.662421
1906.000000	38.956585
1905.000000	39.387639
1904.000000	39.886111
1903.000000	40.293387
1902.000000	40.646809
1901.000000	41.111827
1900.000000	41.510156
1899.000000	41.882234
1898.000000	42.353077
1897.000000	42.749428
1896.000000	43.098215
1895.000000	43.492581
1894.000000	43.855950
1893.000000	44.255193
1892.000000	44.631098
1891.000000	44.950045
1890.000000	45.310061
1889.000000	45.682236
1888.000000	46.016961
1887.000000	46.285576
1886.000000	46.625399
1885.000000	46.977711
1884.000000	47.240695
1883.000000	47.466871
1882.000000	47.695057
1881.000000	47.968026
1880.000000	48.236591
1879.000000	48.450978
1878.000000	48.667264
1877.000000	48.846560
1876.000000	49.030794
1875.000000	49.185851
1874.000000	49.323163
1873.000000	49.429639
1872.000000	49.532952
1871.000000	49.646726
1870.000000	49.796077
1869.000000	49.866031
1868.000000	49.968023
1867.000000	50.033516
1866.000000	50.098237
1865.000000	50.212505
1864.000000	50.183035
1863.000000	50.241816
1862.000000	50.300393
1861.000000	50.350619
1860.000000	50.401723
1859.000000	50.427224
1858.000000	50.444635
1857.000000	50.515300
1856.000000	50.539295
1855.000000	50.548522
1854.000000	50.559031
1853.000000	50.627815
1852.000000	50.618812
1851.000000	50.613377
1850.000000	50.635100
1849.000000	50.620682
1848.000000	50.623717
1847.000000	50.603278
1846.000000	50.586057
1845.000000	50.609247
1844.000000	50.586554
1843.000000	50.541972
1842.000000	50.523577
1841.000000	50.512171
1840.000000	50.490690
1839.000000	50.469456
1838.000000	50.428588
1837.000000	50.394942
1836.000000	50.364005
1835.000000	50.339626
1834.000000	50.269560
1833.000000	50.236201
1832.000000	50.233441
1831.000000	50.196413
1830.000000	50.156212
1829.000000	50.122278
1828.000000	50.095120
1827.000000	50.071380
1826.000000	50.053726
1825.000000	50.020160
1824.000000	50.010207
1823.000000	49.987658
1822.000000	49.942753
1821.000000	49.929333
1820.000000	49.918753
1819.000000	49.870124
1818.000000	49.859596
1817.000000	49.846303
1816.000000	49.810515
1815.000000	49.790501
1814.000000	49.776345
1813.000000	49.761257
1812.000000	49.735466
1811.000000	49.724073
1810.000000	49.708142
1809.000000	49.697227
1808.000000	49.674559
1807.000000	49.633542
1806.000000	49.615749
1805.000000	49.592058
1804.000000	49.584475
1803.000000	49.568229
1802.000000	49.539328
1801.000000	49.528517
1800.000000	49.525124
1799.000000	49.506686
1798.000000	49.476397
1797.000000	49.477740
1796.000000	49.484676
1795.000000	49.464316
1794.000000	49.462691
1793.000000	49.452910
1792.000000	49.434774
1791.000000	49.433902
1790.000000	49.411553
1789.000000	49.399243
1788.000000	49.390569
1787.000000	49.397253
1786.000000	49.389813
1785.000000	49.391550
1784.000000	49.385811
1783.000000	49.365944
1782.000000	49.324114
1781.000000	49.301960
1780.000000	49.280366
1779.000000	49.252794
1778.000000	49.207733
1777.000000	49.195147
1776.000000	49.169888
1775.000000	49.135225
1774.000000	49.102253
1773.000000	49.052508
1772.000000	49.020887
1771.000000	48.986706
1770.000000	48.947123
1769.000000	48.909065
1768.000000	48.874249
1767.000000	48.841580
1766.000000	48.819321
1765.000000	48.776805
1764.000000	48.742837
1763.000000	48.695810
1762.000000	48.690591
1761.000000	48.675810
1760.000000	48.646539
1759.000000	48.608389
1758.000000	48.586634
1757.000000	48.566711
1756.000000	48.532092
1755.000000	48.494671
1754.000000	48.463432
1753.000000	48.436017
1752.000000	48.406383
1751.000000	48.399120
1750.000000	48.350332
1749.000000	48.334146
1748.000000	48.280483
1747.000000	48.232899
1746.000000	48.201130
1745.000000	48.131454
1744.000000	48.098460
1743.000000	48.068671
1742.000000	48.020517
1741.000000	48.011093
1740.000000	47.958748
1739.000000	47.924541
1738.000000	47.918352
1737.000000	47.893613
1736.000000	47.846058
1735.000000	47.834555
1734.000000	47.835807
1733.000000	47.809829
1732.000000	47.803874
1731.000000	47.795552
1730.000000	47.833675
1729.000000	47.847941
1728.000000	47.890371
1727.000000	47.940685
1726.000000	47.978919
1725.000000	48.014364
1724.000000	48.042068
1723.000000	48.103092
1722.000000	48.174930
1721.000000	48.283195
1720.000000	48.323713
1719.000000	48.422284
1718.000000	48.447256
1717.000000	48.504502
1716.000000	48.583061
1715.000000	48.641992
1714.000000	48.716063
1713.000000	48.775864
1712.000000	48.826430
1711.000000	48.876084
1710.000000	48.933187
1709.000000	48.960471
1708.000000	49.026457
1707.000000	49.044707
1706.000000	49.084403
1705.000000	49.112201
1704.000000	49.139224
1703.000000	49.154324
1702.000000	49.174106
1701.000000	49.196202
1700.000000	49.200593
1699.000000	49.190974
1698.000000	49.237678
1697.000000	49.289010
1696.000000	49.311651
1695.000000	49.317927
1694.000000	49.350563
1693.000000	49.398911
1692.000000	49.415678
1691.000000	49.471148
1690.000000	49.497803
1689.000000	49.564076
1688.000000	49.648003
1687.000000	49.697316
1686.000000	49.785038
1685.000000	49.852381
1684.000000	49.954527
1683.000000	50.028491
1682.000000	50.123641
1681.000000	50.233350
1680.000000	50.293430
1679.000000	50.397891
1678.000000	50.504397
1677.000000	50.608974
1676.000000	50.675301
1675.000000	50.801717
1674.000000	50.891619
1673.000000	50.976388
1672.000000	51.052717
1671.000000	51.166175
1670.000000	51.239809
1669.000000	51.339842
1668.000000	51.395958
1667.000000	51.457333
1666.000000	51.502208
1665.000000	51.576187
1664.000000	51.622295
1663.000000	51.634494
1662.000000	51.680807
1661.000000	51.731963
1660.000000	51.773009
1659.000000	51.804502
1658.000000	51.842851
1657.000000	51.867465
1656.000000	51.881718
1655.000000	51.886755
1654.000000	51.884011
1653.000000	51.898688
1652.000000	51.909426
1651.000000	51.893649
1650.000000	51.903702
1649.000000	51.923701
1648.000000	51.897121
1647.000000	51.875989
1646.000000	51.885530
1645.000000	51.848452
1644.000000	51.828982
1643.000000	51.824858
1642.000000	51.798348
1641.000000	51.783095
1640.000000	51.765098
1639.000000	51.753635
1638.000000	51.731763
1637.000000	51.706055
1636.000000	51.691925
1635.000000	51.665133
1634.000000	51.656023
1633.000000	51.617206
1632.000000	51.577732
1631.000000	51.563088
1630.000000	51.528380
1629.000000	51.519172
1628.000000	51.492880
1627.000000	51.450979
1626.000000	51.428961
1625.000000	51.403055
1624.000000	51.364933
1623.000000	51.338880
1622.000000	51.308921
1621.000000	51.270602
1620.000000	51.246918
1619.000000	51.215039
1618.000000	51.188871
1617.000000	51.155897
1616.000000	51.122027
1615.000000	51.073370
1614.000000	51.039784
1613.000000	51.019340
1612.000000	51.001377
1611.000000	50.957815
1610.000000	50.917302
1609.000000	50.888460
1608.000000	50.862854
1607.000000	50.807855
1606.000000	50.758391
1605.000000	50.735842
1604.000000	50.699105
1603.000000	50.658349
1602.000000	50.629666
1601.000000	50.591607
1600.000000	50.555430
1599.000000	50.526102
1598.000000	50.492912
1597.000000	50.463338
1596.000000	50.427562
1595.000000	50.388901
1594.000000	50.365035
1593.000000	50.350052
1592.000000	50.320348
1591.000000	50.283017
1590.000000	50.254100
1589.000000	50.211696
1588.000000	50.172648
1587.000000	50.150805
1586.000000	50.127067
1585.000000	50.096264
1584.000000	50.071770
1583.000000	50.044169
1582.000000	50.023075
1581.000000	49.992681
1580.000000	49.953295
1579.000000	49.939268
1578.000000	49.929552
1577.000000	49.887525
1576.000000	49.845191
1575.000000	49.826042
1574.000000	49.795265
1573.000000	49.774254
1572.000000	49.753813
1571.000000	49.732000
1570.000000	49.697897
1569.000000	49.658445
1568.000000	49.636149
1567.000000	49.614933
1566.000000	49.590844
1565.000000	49.565683
1564.000000	49.543764
1563.000000	49.526719
1562.000000	49.512729
1561.000000	49.486501
1560.000000	49.468379
1559.000000	49.472258
1558.000000	49.453555
1557.000000	49.422751
1556.000000	49.389136
1555.000000	49.381249
1554.000000	49.365546
1553.000000	49.348563
1552.000000	49.319534
1551.000000	49.300913
1550.000000	49.261558
1549.000000	49.244717
1548.000000	49.222175
1547.000000	49.166844
1546.000000	49.132784
1545.000000	49.099981
1544.000000	49.034790
1543.000000	48.986126
1542.000000	48.945830
1541.000000	48.892942
1540.000000	48.847278
1539.000000	48.793936
1538.000000	48.740724
1537.000000	48.686903
1536.000000	48.635940
1535.000000	48.580375
1534.000000	48.533606
1533.000000	48.499907
1532.000000	48.432730
1531.000000	48.386464
1530.000000	48.331582
1529.000000	48.274877
1528.000000	48.236704
1527.000000	48.191065
1526.000000	48.153197
1525.000000	48.112806
1524.000000	48.070592
1523.000000	48.038393
1522.000000	48.008980
1521.000000	47.977221
1520.000000	47.945101
1519.000000	47.902890
1518.000000	47.873106
1517.000000	47.861204
1516.000000	47.849917
1515.000000	47.840121
1514.000000	47.828570
1513.000000	47.833154
1512.000000	47.827634
1511.000000	47.800075
1510.000000	47.762075
1509.000000	47.724284
1508.000000	47.697395
1507.000000	47.681651
1506.000000	47.681859
1505.000000	47.648029
1504.000000	47.641999
1503.000000	47.626198
1502.000000	47.628516
1501.000000	47.614653
1500.000000	47.618123
1499.000000	47.609796
1498.000000	47.612276
1497.000000	47.616686
1496.000000	47.603163
1495.000000	47.617867
1494.000000	47.610998
1493.000000	47.624014
1492.000000	47.635609
1491.000000	47.630513
1490.000000	47.654881
1489.000000	47.664609
1488.000000	47.682711
1487.000000	47.693779
1486.000000	47.696089
1485.000000	47.730952
1484.000000	47.758059
1483.000000	47.777675
1482.000000	47.781136
1481.000000	47.832892
1480.000000	47.834295
1479.000000	47.841613
1478.000000	47.872367
1477.000000	47.874275
1476.000000	47.898851
1475.000000	47.923146
1474.000000	47.936553
1473.000000	47.954957
1472.000000	47.964909
1471.000000	47.975003
1470.000000	47.981554
1469.000000	48.007217
1468.000000	48.037215
1467.000000	48.085320
1466.000000	48.105747
1465.000000	48.091895
1464.000000	48.099360
1463.000000	48.122251
1462.000000	48.162883
1461.000000	48.195614
1460.000000	48.192622
1459.000000	48.218521
1458.000000	48.258370
1457.000000	48.289531
1456.000000	48.309714
1455.000000	48.309651
1454.000000	48.374213
1453.000000	48.403178
1452.000000	48.458764
1451.000000	48.476616
1450.000000	48.502013
1449.000000	48.530674
1448.000000	48.596311
1447.000000	48.634894
1446.000000	48.664464
1445.000000	48.724230
1444.000000	48.764515
1443.000000	48.805159
1442.000000	48.862969
1441.000000	48.913972
1440.000000	48.986415
1439.000000	49.059961
1438.000000	49.114580
1437.000000	49.179847
1436.000000	49.240063
1435.000000	49.309365
1434.000000	49.376995
1433.000000	49.453555
1432.000000	49.542048
1431.000000	49.621341
1430.000000	49.708349
1429.000000	49.802573
1428.000000	49.894484
1427.000000	49.982890
1426.000000	50.084027
1425.000000	50.184637
1424.000000	50.295717
1423.000000	50.399752
1422.000000	50.506650
1421.000000	50.623813
1420.000000	50.737547
1419.000000	50.820584
1418.000000	50.938551
1417.000000	51.064786
1416.000000	51.188640
1415.000000	51.300256
1414.000000	51.422463
1413.000000	51.547274
1412.000000	51.659308
1411.000000	51.770125
1410.000000	51.888180
1409.000000	52.004269
1408.000000	52.123737
1407.000000	52.231619
1406.000000	52.329564
1405.000000	52.450349
1404.000000	52.555539
1403.000000	52.655159
1402.000000	52.747752
1401.000000	52.851396
1400.000000	52.942523
1399.000000	53.014416
1398.000000	53.109548
1397.000000	53.202899
1396.000000	53.293468
1395.000000	53.370779
1394.000000	53.445201
1393.000000	53.523130
1392.000000	53.597285
1391.000000	53.662951
1390.000000	53.732703
1389.000000	53.788323
1388.000000	53.845531
1387.000000	53.908421
1386.000000	53.971001
1385.000000	54.023968
1384.000000	54.061205
1383.000000	54.106620
1382.000000	54.155488
1381.000000	54.183822
1380.000000	54.216664
1379.000000	54.260961
1378.000000	54.300381
1377.000000	54.326699
1376.000000	54.362815
1375.000000	54.397402
1374.000000	54.425464
1373.000000	54.449446
1372.000000	54.468530
1371.000000	54.507530
1370.000000	54.542989
1369.000000	54.546347
1368.000000	54.543109
1367.000000	54.582871
1366.000000	54.607051
1365.000000	54.607022
1364.000000	54.636967
1363.000000	54.647743
1362.000000	54.657479
1361.000000	54.668004
1360.000000	54.692675
1359.000000	54.726357
1358.000000	54.735824
1357.000000	54.741944
1356.000000	54.757259
1355.000000	54.779306
1354.000000	54.814488
1353.000000	54.842857
1352.000000	54.860448
1351.000000	54.880608
1350.000000	54.896531
1349.000000	54.928103
1348.000000	54.947095
1347.000000	54.967156
1346.000000	54.988000
1345.000000	55.020068
1344.000000	55.052863
1343.000000	55.078069
1342.000000	55.085806
1341.000000	55.093310
1340.000000	55.111293
1339.000000	55.121550
1338.000000	55.144698
1337.000000	55.172721
1336.000000	55.182490
1335.000000	55.218084
1334.000000	55.232970
1333.000000	55.230643
1332.000000	55.250502
1331.000000	55.232621
1330.000000	55.231384
1329.000000	55.275962
1328.000000	55.276792
1327.000000	55.280938
1326.000000	55.278340
1325.000000	55.294387
1324.000000	55.304486
1323.000000	55.281493
1322.000000	55.296364
1321.000000	55.315637
1320.000000	55.321116
1319.000000	55.328195
1318.000000	55.312914
1317.000000	55.311571
1316.000000	55.298309
1315.000000	55.318685
1314.000000	55.331752
1313.000000	55.337832
1312.000000	55.325812
1311.000000	55.342608
1310.000000	55.326947
1309.000000	55.346878
1308.000000	55.338093
1307.000000	55.346807
1306.000000	55.361899
1305.000000	55.360300
1304.000000	55.354903
1303.000000	55.351418
1302.000000	55.362867
1301.000000	55.359027
1300.000000	55.379709
1299.000000	55.392540
1298.000000	55.360821
1297.000000	55.364140
1296.000000	55.364749
1295.000000	55.351311
1294.000000	55.348203
1293.000000	55.363725
1292.000000	55.355203
1291.000000	55.340412
1290.000000	55.344901
1289.000000	55.320853
1288.000000	55.294297
1287.000000	55.292543
1286.000000	55.291275
1285.000000	55.294825
1284.000000	55.296075
1283.000000	55.302141
1282.000000	55.286551
1281.000000	55.285556
1280.000000	55.297995
1279.000000	55.273284
1278.000000	55.240224
1277.000000	55.251827
1276.000000	55.238642
1275.000000	55.249213
1274.000000	55.253433
1273.000000	55.233701
1272.000000	55.241783
1271.000000	55.207653
1270.000000	55.228162
1269.000000	55.229932
1268.000000	55.275334
1267.000000	55.258172
1266.000000	55.220761
1265.000000	55.203921
1264.000000	55.224658
1263.000000	55.203551
1262.000000	55.208305
1261.000000	55.250660
1260.000000	55.212687
1259.000000	55.208360
1258.000000	55.216933
1257.000000	55.192020
1256.000000	55.190904
1255.000000	55.192200
1254.000000	55.240476
1253.000000	55.219432
1252.000000	55.203204
1251.000000	55.199467
1250.000000	55.192544
1249.000000	55.199191
1248.000000	55.184512
1247.000000	55.173370
1246.000000	55.189009
1245.000000	55.180496
1244.000000	55.167131
1243.000000	55.154579
1242.000000	55.124486
1241.000000	55.113860
1240.000000	55.121472
1239.000000	55.086884
1238.000000	55.058793
1237.000000	55.064449
1236.000000	55.067412
1235.000000	55.060596
1234.000000	55.024851
1233.000000	55.010983
1232.000000	55.013394
1231.000000	55.000465
1230.000000	54.973456
1229.000000	54.945262
1228.000000	54.944997
1227.000000	54.931275
1226.000000	54.922524
1225.000000	54.910576
1224.000000	54.876541
1223.000000	54.825718
1222.000000	54.830523
1221.000000	54.810495
1220.000000	54.793499
1219.000000	54.770764
1218.000000	54.752632
1217.000000	54.739597
1216.000000	54.748230
1215.000000	54.736042
1214.000000	54.713360
1213.000000	54.681996
1212.000000	54.672493
1211.000000	54.672158
1210.000000	54.630042
1209.000000	54.610369
1208.000000	54.606275
1207.000000	54.585828
1206.000000	54.565524
1205.000000	54.561047
1204.000000	54.551652
1203.000000	54.530811
1202.000000	54.505968
1201.000000	54.525598
1200.000000	54.514574
1199.000000	54.481361
1198.000000	54.458416
1197.000000	54.453387
1196.000000	54.435808
1195.000000	54.433390
1194.000000	54.419247
1193.000000	54.422383
1192.000000	54.412751
1191.000000	54.408164
1190.000000	54.381254
1189.000000	54.345349
1188.000000	54.348854
1187.000000	54.349093
1186.000000	54.356212
1185.000000	54.353184
1184.000000	54.336150
1183.000000	54.326936
1182.000000	54.353435
1181.000000	54.378083
1180.000000	54.380670
1179.000000	54.383973
1178.000000	54.395003
1177.000000	54.407834
1176.000000	54.419295
1175.000000	54.440093
1174.000000	54.464145
1173.000000	54.482592
1172.000000	54.488966
1171.000000	54.512595
1170.000000	54.546839
1169.000000	54.559241
1168.000000	54.564263
1167.000000	54.600387
1166.000000	54.634678
1165.000000	54.645478
1164.000000	54.672295
1163.000000	54.692932
1162.000000	54.703428
1161.000000	54.723627
1160.000000	54.758739
1159.000000	54.781394
1158.000000	54.793811
1157.000000	54.816423
1156.000000	54.837138
1155.000000	54.858596
1154.000000	54.876007
1153.000000	54.895637
1152.000000	54.933666
1151.000000	54.950072
1150.000000	54.957965
1149.000000	54.977959
1148.000000	55.001937
1147.000000	55.010385
1146.000000	55.007821
1145.000000	55.024285
1144.000000	55.040624
1143.000000	55.033062
1142.000000	55.038340
1141.000000	55.047884
1140.000000	55.051455
1139.000000	55.066418
1138.000000	55.086322
1137.000000	55.095378
1136.000000	55.110852
1135.000000	55.120414
1134.000000	55.141350
1133.000000	55.150509
1132.000000	55.152986
1131.000000	55.160680
1130.000000	55.178099
1129.000000	55.163025
1128.000000	55.166259
1127.000000	55.157199
1126.000000	55.156961
1125.000000	55.155393
1124.000000	55.150151
1123.000000	55.150815
1122.000000	55.161864
1121.000000	55.167879
1120.000000	55.158639
1119.000000	55.161057
1118.000000	55.174537
1117.000000	55.161074
1116.000000	55.162979
1115.000000	55.164082
1114.000000	55.162195
1113.000000	55.161142
1112.000000	55.157811
1111.000000	55.142408
1110.000000	55.129518
1109.000000	55.122041
1108.000000	55.117418
1107.000000	55.111648
1106.000000	55.097061
1105.000000	55.100645
1104.000000	55.112947
1103.000000	55.095225
1102.000000	55.084196
1101.000000	55.085677
1100.000000	55.079232
1099.000000	55.061372
1098.000000	55.091813
1097.000000	55.067496
1096.000000	55.045092
1095.000000	55.054052
1094.000000	55.069870
1093.000000	55.054913
1092.000000	55.039635
1091.000000	55.046319
1090.000000	55.056088
1089.000000	55.003616
1088.000000	55.009289
1087.000000	55.001782
1086.000000	54.988175
1085.000000	54.988011
1084.000000	54.986886
1083.000000	54.957174
1082.000000	54.948894
1081.000000	54.942817
1080.000000	54.951749
1079.000000	54.951937
1078.000000	54.947599
1077.000000	54.942708
1076.000000	54.911844
1075.000000	54.900431
1074.000000	54.900539
1073.000000	54.888815
1072.000000	54.873874
1071.000000	54.885812
1070.000000	54.873966
1069.000000	54.849517
1068.000000	54.837345
1067.000000	54.841794
1066.000000	54.821504
1065.000000	54.839800
1064.000000	54.829803
1063.000000	54.811501
1062.000000	54.781881
1061.000000	54.771488
1060.000000	54.775219
1059.000000	54.778815
1058.000000	54.759891
1057.000000	54.756625
1056.000000	54.743428
1055.000000	54.729862
1054.000000	54.718789
1053.000000	54.698874
1052.000000	54.692588
1051.000000	54.688605
1050.000000	54.675808
1049.000000	54.669683
1048.000000	54.655573
1047.000000	54.649194
1046.000000	54.644141
1045.000000	54.639467
1044.000000	54.653940
1043.000000	54.631394
1042.000000	54.620496
1041.000000	54.600777
1040.000000	54.607860
1039.000000	54.600704
1038.000000	54.580319
1037.000000	54.555532
1036.000000	54.546730
1035.000000	54.562134
1034.000000	54.548793
1033.000000	54.527067
1032.000000	54.519720
1031.000000	54.514760
1030.000000	54.518537
1029.000000	54.499350
1028.000000	54.497625
1027.000000	54.485658
1026.000000	54.476342
1025.000000	54.468104
1024.000000	54.467693
1023.000000	54.457810
1022.000000	54.439790
1021.000000	54.429037
1020.000000	54.432091
1019.000000	54.415455
1018.000000	54.413808
1017.000000	54.423097
1016.000000	54.404431
1015.000000	54.385495
1014.000000	54.382643
1013.000000	54.387507
1012.000000	54.386663
1011.000000	54.377717
1010.000000	54.376484
1009.000000	54.360691
1008.000000	54.359324
1007.000000	54.348088
1006.000000	54.342299
1005.000000	54.335798
1004.000000	54.328380
1003.000000	54.321195
1002.000000	54.304402
1001.000000	54.292057
1000.000000	54.317646
999.000000	54.314477
998.000000	54.313284
997.000000	54.308997
996.000000	54.305245
995.000000	54.300951
994.000000	54.304711
993.000000	54.294916
992.000000	54.282888
991.000000	54.290561
990.000000	54.280161
989.000000	54.268830
988.000000	54.267506
987.000000	54.261600
986.000000	54.257366
985.000000	54.236801
984.000000	54.228313
983.000000	54.217005
982.000000	54.209633
981.000000	54.197943
980.000000	54.197698
979.000000	54.190626
978.000000	54.178887
977.000000	54.185253
976.000000	54.180208
975.000000	54.167593
974.000000	54.155311
973.000000	54.138030
972.000000	54.127088
971.000000	54.140667
970.000000	54.117530
969.000000	54.118859
968.000000	54.093066
967.000000	54.081067
966.000000	54.085423
965.000000	54.065280
964.000000	54.062273
963.000000	54.067731
962.000000	54.061731
961.000000	54.043496
960.000000	54.045872
959.000000	54.026430
958.000000	54.009415
957.000000	54.000443
956.000000	53.999960
955.000000	53.986959
954.000000	53.974453
953.000000	53.959404
952.000000	53.944012
951.000000	53.925380
950.000000	53.919948
949.000000	53.934008
948.000000	53.927284
947.000000	53.909221
946.000000	53.884227
945.000000	53.875079
944.000000	53.863966
943.000000	53.834000
942.000000	53.826522
941.000000	53.825084
940.000000	53.809486
939.000000	53.790610
938.000000	53.780083
937.000000	53.758916
936.000000	53.737643
935.000000	53.739998
934.000000	53.726722
933.000000	53.692326
932.000000	53.655985
931.000000	53.647932
930.000000	53.649750
929.000000	53.620015
928.000000	53.611405
927.000000	53.605507
926.000000	53.580229
925.000000	53.554796
924.000000	53.524322
923.000000	53.516482
922.000000	53.500080
921.000000	53.494341
920.000000	53.491649
919.000000	53.489330
918.000000	53.471856
917.000000	53.451827
916.000000	53.393465
915.000000	53.394787
914.000000	53.400151
913.000000	53.381704
912.000000	53.384442
911.000000	53.375582
910.000000	53.338602
909.000000	53.300626
908.000000	53.263446
907.000000	53.267239
906.000000	53.284124
905.000000	53.315170
904.000000	53.252320
903.000000	53.213897
902.000000	53.232682
901.000000	53.210251
900.000000	53.207015
899.000000	53.200871
898.000000	53.124174
897.000000	53.156081
896.000000	53.149433
895.000000	53.099470
894.000000	53.102518
893.000000	53.069667
892.000000	53.091188
891.000000	53.034594
890.000000	53.081901
889.000000	53.045970
888.000000	53.053427
887.000000	52.987141
886.000000	52.972832
885.000000	52.927733
884.000000	52.966141
883.000000	52.935493
882.000000	52.880891
881.000000	52.839101
880.000000	52.831577
879.000000	52.832571
878.000000	52.801323
877.000000	52.741528
876.000000	52.728089
875.000000	52.703313
874.000000	52.736215
873.000000	52.793640
872.000000	52.711913
871.000000	52.601415
870.000000	52.621031
869.000000	52.590400
868.000000	52.517171
867.000000	52.605954
866.000000	52.563780
865.000000	52.534871
864.000000	52.530101
863.000000	52.355694
862.000000	52.407583
861.000000	52.300581
860.000000	52.404034
859.000000	52.137460
858.000000	51.384538
857.000000	51.816985
856.000000	51.718171
855.000000	51.768350
854.000000	51.390931
853.000000	51.553095
852.000000	51.714175
851.000000	51.726933
850.000000	51.343913
849.000000	51.383234
848.000000	51.506420
847.000000	51.235564
846.000000	51.252006
845.000000	51.222918
844.000000	51.355206
843.000000	51.242471
842.000000	51.396480
841.000000	51.178632
840.000000	51.147919
839.000000	51.106696
838.000000	51.296015
837.000000	51.172658
836.000000	51.053851
835.000000	50.990230
834.000000	50.965325
833.000000	50.938480
832.000000	50.984891
831.000000	50.652638
830.000000	50.921228
829.000000	50.819999
828.000000	50.680939
827.000000	50.797122
826.000000	50.798740
825.000000	50.708204
824.000000	50.625645
823.000000	50.655218
822.000000	50.669137
821.000000	50.638360
820.000000	50.426711
819.000000	50.570054
818.000000	50.515728
817.000000	50.323585
816.000000	50.354554
815.000000	50.398252
814.000000	50.366227
813.000000	50.340036
812.000000	50.266518
811.000000	50.356038
810.000000	50.046306
809.000000	50.155562
808.000000	50.132524
807.000000	50.097164
806.000000	50.112128
805.000000	50.166007
804.000000	50.058186
803.000000	50.062972
802.000000	49.922513
801.000000	49.846142
800.000000	50.000309
799.000000	49.828615
798.000000	49.801053
797.000000	49.695488
796.000000	49.673124
795.000000	49.748523
794.000000	49.578504
793.000000	49.564763
792.000000	49.531675
791.000000	49.552697
790.000000	49.552594
789.000000	49.547775
788.000000	49.469048
787.000000	49.397874
786.000000	49.456399
785.000000	49.351407
784.000000	49.332499
783.000000	49.169614
782.000000	49.258069
781.000000	49.212097
780.000000	49.149838
779.000000	49.084604
778.000000	49.079164
777.000000	49.017177
776.000000	48.965082
775.000000	48.940674
774.000000	48.885005
773.000000	48.798244
772.000000	48.821654
771.000000	48.774325
770.000000	48.746594
769.000000	48.690144
768.000000	48.563276
767.000000	48.598697
766.000000	48.549159
765.000000	48.531129
764.000000	48.455935
763.000000	48.437798
762.000000	48.429917
761.000000	48.341248
760.000000	48.270786
759.000000	48.254797
758.000000	48.181299
757.000000	48.161926
756.000000	48.131882
755.000000	48.088442
754.000000	48.007868
753.000000	47.991779
752.000000	47.961052
751.000000	47.913066
750.000000	47.817354
749.000000	47.753991
748.000000	47.688401
747.000000	47.666441
746.000000	47.633883
745.000000	47.619617
744.000000	47.519947
743.000000	47.426780
742.000000	47.417677
741.000000	47.396486
740.000000	47.280963
739.000000	47.255098
738.000000	47.202665
737.000000	47.125424
736.000000	47.074536
735.000000	47.036156
734.000000	46.970114
733.000000	46.931124
732.000000	46.900335
731.000000	46.816154
730.000000	46.764854
729.000000	46.743272
728.000000	46.664662
727.000000	46.567179
726.000000	46.560807
725.000000	46.479535
724.000000	46.370182
723.000000	46.385563
722.000000	46.324640
721.000000	46.266536
720.000000	46.184966
719.000000	46.104793
718.000000	46.068669
717.000000	46.031415
716.000000	45.965897
715.000000	45.864193
714.000000	45.856873
713.000000	45.813027
712.000000	45.752847
711.000000	45.672569
710.000000	45.563201
709.000000	45.491507
708.000000	45.424887
707.000000	45.341296
706.000000	45.295225
705.000000	45.254310
704.000000	45.221245
703.000000	45.145313
702.000000	45.051115
701.000000	45.007040
700.000000	44.975104
699.000000	44.914929
698.000000	44.828350
697.000000	44.743551
696.000000	44.702614
695.000000	44.627312
694.000000	44.543814
693.000000	44.499338
692.000000	44.474765
691.000000	44.389260
690.000000	44.289764
689.000000	44.160174
688.000000	44.056145
687.000000	44.024217
686.000000	43.979955
685.000000	43.848921
684.000000	43.771109
683.000000	43.724622
682.000000	43.640349
681.000000	43.589817
680.000000	43.521940
679.000000	43.452381
678.000000	43.406286
677.000000	43.329627
676.000000	43.218370
675.000000	43.122348
674.000000	43.074506
673.000000	42.995538
672.000000	42.917616
671.000000	42.882741
670.000000	42.765191
669.000000	42.690595
668.000000	42.638203
667.000000	42.533778
666.000000	42.463859
665.000000	42.394953
664.000000	42.305216
663.000000	42.274553
662.000000	42.181173
661.000000	42.077895
660.000000	42.010751
659.000000	41.965589
658.000000	41.853537
657.000000	41.824592
656.000000	41.720366
655.000000	41.638364
654.000000	41.573128
653.000000	41.485384
652.000000	41.433669
651.000000	41.302442
650.000000	41.194378
649.000000	41.169083
648.000000	41.087062
647.000000	40.980514
646.000000	40.915288
645.000000	40.846156
644.000000	40.759186
643.000000	40.659062
642.000000	40.603921
641.000000	40.534233
640.000000	40.435216
639.000000	40.363521
638.000000	40.252021
637.000000	40.159114
636.000000	40.089202
635.000000	39.985476
634.000000	39.892289
633.000000	39.841757
632.000000	39.727983
631.000000	39.650519
630.000000	39.593847
629.000000	39.533035
628.000000	39.375297
627.000000	39.293780
626.000000	39.223632
625.000000	39.176584
624.000000	39.087409
623.000000	38.981007
622.000000	38.871434
621.000000	38.808022
620.000000	38.686012
619.000000	38.592668
618.000000	38.558602
617.000000	38.443915
616.000000	38.387026
615.000000	38.249207
614.000000	38.142409
613.000000	38.108049
612.000000	38.015935
611.000000	37.946789
610.000000	37.797310
609.000000	37.726248
608.000000	37.621483
607.000000	37.516218
606.000000	37.405586
605.000000	37.341150
604.000000	37.232202
603.000000	37.184756
602.000000	37.051224
601.000000	36.953707
600.000000	36.869613
599.000000	36.786226
598.000000	36.626182
597.000000	36.613990
596.000000	36.488287
595.000000	36.375330
594.000000	36.235559
593.000000	36.146649
592.000000	36.096926
591.000000	35.958786
590.000000	35.863412
589.000000	35.766875
588.000000	35.682373
587.000000	35.581804
586.000000	35.436520
585.000000	35.361233
584.000000	35.250835
583.000000	35.144441
582.000000	35.049899
581.000000	34.959841
580.000000	34.832974
579.000000	34.754397
578.000000	34.603377
577.000000	34.543619
576.000000	34.441176
575.000000	34.339545
574.000000	34.212042
573.000000	34.100159
572.000000	33.973790
571.000000	33.875997
570.000000	33.750393
569.000000	33.689182
568.000000	33.545014
567.000000	33.460837
566.000000	33.321565
565.000000	33.226230
564.000000	33.122420
563.000000	33.022864
562.000000	32.905453
561.000000	32.816207
560.000000	32.707969
559.000000	32.628494
558.000000	32.504146
557.000000	32.403359
556.000000	32.288308
555.000000	32.172116
554.000000	32.057045
553.000000	31.944598
552.000000	31.823335
551.000000	31.744927
550.000000	31.642313
549.000000	31.500957
548.000000	31.395037
547.000000	31.315143
546.000000	31.189338
545.000000	31.084385
544.000000	30.969513
543.000000	30.859374
542.000000	30.762095
541.000000	30.650292
540.000000	30.545300
539.000000	30.457323
538.000000	30.344953
537.000000	30.222740
536.000000	30.079009
535.000000	29.994506
534.000000	29.895254
533.000000	29.753846
532.000000	29.659402
531.000000	29.539147
530.000000	29.426635
529.000000	29.336197
528.000000	29.202962
527.000000	29.102410
526.000000	28.997410
525.000000	28.867606
524.000000	28.745705
523.000000	28.653954
522.000000	28.541661
521.000000	28.439040
520.000000	28.327423
519.000000	28.215722
518.000000	28.075038
517.000000	27.987467
516.000000	27.874719
515.000000	27.767987
514.000000	27.660186
513.000000	27.548195
512.000000	27.433365
511.000000	27.333380
510.000000	27.230811
509.000000	27.133597
508.000000	27.026139
507.000000	26.927168
506.000000	26.816176
505.000000	26.710515
504.000000	26.610974
503.000000	26.498236
502.000000	26.385086
501.000000	26.291875
500.000000	26.152065
499.000000	26.039727
498.000000	25.956095
497.000000	25.840339
496.000000	25.717608
495.000000	25.588227
494.000000	25.470485
493.000000	25.340997
492.000000	25.245561
491.000000	25.142329
490.000000	24.997464
489.000000	24.873357
488.000000	24.749505
487.000000	24.616887
486.000000	24.523315
485.000000	24.405517
484.000000	24.269184
483.000000	24.159924
482.000000	24.058476
481.000000	23.950159
480.000000	23.854312
479.000000	23.783291
478.000000	23.685577
477.000000	23.571869
476.000000	23.461620
475.000000	23.357695
474.000000	23.254047
473.000000	23.144650
472.000000	23.026244
471.000000	22.919992
470.000000	22.818616
469.000000	22.726926
468.000000	22.634891
467.000000	22.522559
466.000000	22.400033
465.000000	22.287605
464.000000	22.190519
463.000000	22.079235
462.000000	21.955569
461.000000	21.850329
460.000000	21.759963
459.000000	21.623035
458.000000	21.491220
457.000000	21.378322
456.000000	21.241725
455.000000	21.131252
454.000000	21.002602
453.000000	20.878165
452.000000	20.758256
451.000000	20.633410
450.000000	20.519015
449.000000	20.384895
448.000000	20.259962
447.000000	20.139480
446.000000	20.010020
445.000000	19.871291
444.000000	19.764866
443.000000	19.666609
442.000000	19.544007
441.000000	19.426425
440.000000	19.319653
439.000000	19.195551
438.000000	19.064603
437.000000	18.962884
436.000000	18.849249
435.000000	18.752325
434.000000	18.621405
433.000000	18.501345
432.000000	18.383582
431.000000	18.283154
430.000000	18.175051
429.000000	18.036667
428.000000	17.912527
427.000000	17.797360
426.000000	17.678916
425.000000	17.552926
424.000000	17.433414
423.000000	17.324458
422.000000	17.206737
421.000000	17.091126
420.000000	16.967085
419.000000	16.812679
418.000000	16.697871
417.000000	16.594892
416.000000	16.460354
415.000000	16.309951
414.000000	16.193616
413.000000	16.063485
412.000000	15.925363
411.000000	15.788414
410.000000	15.656585
409.000000	15.524455
408.000000	15.373357
407.000000	15.260301
406.000000	15.148708
405.000000	15.020388
404.000000	14.837217
403.000000	14.720938
402.000000	14.610159
401.000000	14.475430
400.000000	14.333585
399.000000	14.206936
398.000000	14.056529
397.000000	13.957599
396.000000	13.810436
395.000000	13.682438
394.000000	13.581634
393.000000	13.448921
392.000000	13.302332
391.000000	13.195021
390.000000	13.062869
389.000000	12.934568
388.000000	12.777038
387.000000	12.689514
386.000000	12.522646
385.000000	12.382969
384.000000	12.281320
383.000000	12.161730
382.000000	12.042073
381.000000	11.926881
380.000000	11.802896
379.000000	11.668932
378.000000	11.511907
377.000000	11.392125
376.000000	11.310976
375.000000	11.214511
374.000000	11.058677
373.000000	10.934466
372.000000	10.861047
371.000000	10.756743
370.000000	10.603211
369.000000	10.563106
368.000000	10.498294
367.000000	10.407690
366.000000	10.265565
365.000000	10.230496
364.000000	10.114251
363.000000	10.087414
362.000000	9.967174
361.000000	9.815081
360.000000	9.806729
359.000000	9.710666
358.000000	9.596786
357.000000	9.568549
356.000000	9.537446
355.000000	9.384752
354.000000	9.341120
353.000000	9.299607
352.000000	9.143290
351.000000	9.161426
350.000000	9.076434
349.000000	8.993722
348.000000	8.965516
347.000000	8.872071
346.000000	8.781701
345.000000	8.719912
344.000000	8.673512
343.000000	8.557242
342.000000	8.603631
341.000000	8.486006
340.000000	8.393701
339.000000	8.393429
338.000000	8.308036
337.000000	8.204016
336.000000	8.223902
335.000000	8.116395
334.000000	8.114121
333.000000	8.017691
332.000000	7.986552
331.000000	7.954140
330.000000	7.820619
329.000000	7.838852
328.000000	7.727009
327.000000	7.647492
326.000000	7.695525
325.000000	7.653066
324.000000	7.570602
323.000000	7.525769
322.000000	7.574686
321.000000	7.492580
320.000000	7.443225
319.000000	7.414191
318.000000	7.481178
317.000000	7.443957
316.000000	7.381265
315.000000	7.379437
314.000000	7.313945
313.000000	7.324179
312.000000	7.346044
311.000000	7.312742
310.000000	7.248409
309.000000	7.237639
308.000000	7.244101
307.000000	7.309510
306.000000	7.188121
305.000000	7.168690
304.000000	7.166816
303.000000	7.235899
302.000000	7.212768
301.000000	7.203216
300.000000	7.193586
299.000000	7.217666
298.000000	7.269012
297.000000	7.200864
296.000000	7.218723
295.000000	7.225820
294.000000	7.246865
293.000000	7.211408
292.000000	7.247656
291.000000	7.272125
290.000000	7.271601
289.000000	7.276806
288.000000	7.327831
287.000000	7.362297
286.000000	7.355827
285.000000	7.401336
284.000000	7.446402
283.000000	7.500392
282.000000	7.549572
281.000000	7.559139
280.000000	7.646998
279.000000	7.662136
278.000000	7.701643
277.000000	7.696546
276.000000	7.768297
275.000000	7.828995
274.000000	7.874977
273.000000	7.957954
272.000000	8.011165
271.000000	8.040445
270.000000	8.086021
269.000000	8.194782
268.000000	8.275747
267.000000	8.314499
266.000000	8.389752
265.000000	8.464886
264.000000	8.546928
263.000000	8.631150
262.000000	8.735719
261.000000	8.813204
260.000000	8.918032
259.000000	9.024543
258.000000	9.119477
257.000000	9.263068
256.000000	9.354521
255.000000	9.388059
254.000000	9.519250
253.000000	9.655153
252.000000	9.787994
251.000000	9.923134
250.000000	10.030232
249.000000	10.102230
248.000000	10.257152
247.000000	10.349426
246.000000	10.444033
245.000000	10.559022
244.000000	10.678462
243.000000	10.769479
242.000000	10.876335
241.000000	10.923615
240.000000	11.015836
239.000000	11.093022
238.000000	11.113651
237.000000	11.142762
236.000000	11.257504
235.000000	11.333865
234.000000	11.462139
233.000000	11.524149
232.000000	11.565018
231.000000	11.625462
230.000000	11.627926
229.000000	11.656728
228.000000	11.838074
227.000000	11.901522
226.000000	11.929343
225.000000	12.030495
224.000000	12.234379
223.000000	12.381663
222.000000	12.410732
221.000000	12.583178
220.000000	12.737187
219.000000	12.903806
218.000000	13.123232
217.000000	13.326150
216.000000	13.551531
215.000000	13.685186
214.000000	13.846294
213.000000	14.189459
212.000000	14.458864
211.000000	14.662324
210.000000	14.950363
209.000000	15.288586
208.000000	15.659972
207.000000	16.003313
206.000000	16.443712
205.000000	16.814888
204.000000	17.318044
203.000000	17.989152
202.000000	18.669035
201.000000	19.413315
200.000000	19.797914
