PE UV       SUBTECH     SPECTRUM    ASCII       PEDS        4.00        
   -1
RTms1482152.Sample.asc
18/03/22
10:11:10.00
18/03/22
10:11:10.00
Administrator

200.000000
1
Lambda 750
750N8071901
PerkinElmer UV WinLab 6.0.4.0738 / 1.61.00 Lambda 900

0
0
3350/servo 860.8/2
0
0
UV/VIS
1
1
1
CommonBeamDepol,150mm sphere / downward view
0
0
0
0
Program
Program
3350/servo 860.8/2
3350/0.2 860.8/0.2
3350/0.2 860.8/0.2
0
1
 
 
 
0
 
860.8
319.2
860.8
Front
100
on
 
 
0
0
0
 
0
 
 
 
0
 
 
0
0
0
0
0
 
 
 
 
0
0


0
0
#HDR
-1
-1
#GR
nm
%R
1.0
0.0
2350.000000
-1.000000
2151
8
83.553964
24.761096
#DATA
2350.000000	44.018895
2349.000000	43.755952
2348.000000	43.864630
2347.000000	44.387115
2346.000000	44.172776
2345.000000	44.138329
2344.000000	44.042607
2343.000000	43.957416
2342.000000	44.119937
2341.000000	44.282001
2340.000000	44.172369
2339.000000	44.394483
2338.000000	44.393168
2337.000000	44.380505
2336.000000	44.792250
2335.000000	44.778932
2334.000000	44.861037
2333.000000	44.869192
2332.000000	44.773562
2331.000000	44.606062
2330.000000	44.599472
2329.000000	44.675949
2328.000000	44.685818
2327.000000	44.568835
2326.000000	44.832127
2325.000000	44.663476
2324.000000	44.730529
2323.000000	44.430357
2322.000000	44.498045
2321.000000	44.417285
2320.000000	44.321621
2319.000000	44.303810
2318.000000	44.269352
2317.000000	44.462755
2316.000000	44.379256
2315.000000	44.138080
2314.000000	44.119737
2313.000000	43.963820
2312.000000	43.892457
2311.000000	43.895730
2310.000000	43.779628
2309.000000	43.530759
2308.000000	43.835861
2307.000000	43.600723
2306.000000	43.325974
2305.000000	43.426241
2304.000000	43.566813
2303.000000	43.392773
2302.000000	43.260393
2301.000000	43.180364
2300.000000	42.969311
2299.000000	42.897315
2298.000000	42.907173
2297.000000	42.803217
2296.000000	42.685349
2295.000000	42.760594
2294.000000	42.807604
2293.000000	42.456019
2292.000000	42.325524
2291.000000	42.345582
2290.000000	42.280704
2289.000000	42.235215
2288.000000	42.402616
2287.000000	42.235846
2286.000000	42.175378
2285.000000	42.128958
2284.000000	41.999080
2283.000000	42.007523
2282.000000	41.963693
2281.000000	42.070290
2280.000000	41.948827
2279.000000	41.942247
2278.000000	41.959545
2277.000000	41.968899
2276.000000	42.086120
2275.000000	42.067050
2274.000000	42.069382
2273.000000	42.188863
2272.000000	42.290363
2271.000000	42.240127
2270.000000	42.350709
2269.000000	42.438673
2268.000000	42.555070
2267.000000	42.648079
2266.000000	42.781666
2265.000000	43.044279
2264.000000	43.265947
2263.000000	43.198970
2262.000000	43.159154
2261.000000	43.429088
2260.000000	43.630902
2259.000000	43.843042
2258.000000	44.016630
2257.000000	44.132240
2256.000000	44.284191
2255.000000	44.476990
2254.000000	44.699912
2253.000000	44.840469
2252.000000	45.091197
2251.000000	45.408903
2250.000000	45.544823
2249.000000	45.726784
2248.000000	45.983550
2247.000000	46.212031
2246.000000	46.374897
2245.000000	46.522210
2244.000000	46.739416
2243.000000	47.122633
2242.000000	47.254323
2241.000000	47.303952
2240.000000	47.429444
2239.000000	47.426774
2238.000000	47.624312
2237.000000	47.824582
2236.000000	47.859712
2235.000000	47.914832
2234.000000	48.068956
2233.000000	48.140519
2232.000000	48.185614
2231.000000	48.288281
2230.000000	48.246553
2229.000000	48.344535
2228.000000	48.523999
2227.000000	48.379401
2226.000000	48.349355
2225.000000	48.338131
2224.000000	48.307743
2223.000000	48.314420
2222.000000	48.240794
2221.000000	48.233195
2220.000000	48.231534
2219.000000	48.197152
2218.000000	48.140072
2217.000000	48.056459
2216.000000	48.162867
2215.000000	48.157252
2214.000000	48.006674
2213.000000	48.036677
2212.000000	48.044413
2211.000000	47.988604
2210.000000	47.957665
2209.000000	47.842691
2208.000000	47.679370
2207.000000	47.717080
2206.000000	47.644986
2205.000000	47.569445
2204.000000	47.537029
2203.000000	47.397047
2202.000000	47.337162
2201.000000	47.267837
2200.000000	47.240686
2199.000000	47.213270
2198.000000	47.243681
2197.000000	47.145155
2196.000000	46.945067
2195.000000	46.877433
2194.000000	46.837845
2193.000000	46.699071
2192.000000	46.699710
2191.000000	46.489688
2190.000000	46.549747
2189.000000	46.491577
2188.000000	46.425942
2187.000000	46.420549
2186.000000	46.502882
2185.000000	46.305554
2184.000000	46.368359
2183.000000	46.317788
2182.000000	46.236470
2181.000000	46.105136
2180.000000	46.270696
2179.000000	46.242846
2178.000000	46.294176
2177.000000	46.249771
2176.000000	46.357747
2175.000000	46.456356
2174.000000	46.469610
2173.000000	46.461658
2172.000000	46.471328
2171.000000	46.537711
2170.000000	46.613506
2169.000000	46.818727
2168.000000	46.949510
2167.000000	46.845555
2166.000000	46.913047
2165.000000	47.225711
2164.000000	47.254028
2163.000000	47.180307
2162.000000	47.557719
2161.000000	47.514787
2160.000000	47.709248
2159.000000	47.896819
2158.000000	47.950932
2157.000000	48.209845
2156.000000	48.337912
2155.000000	48.442584
2154.000000	48.657133
2153.000000	49.023805
2152.000000	48.976159
2151.000000	49.244492
2150.000000	49.338869
2149.000000	49.427387
2148.000000	49.652817
2147.000000	49.750530
2146.000000	49.876379
2145.000000	50.017984
2144.000000	50.277418
2143.000000	50.234941
2142.000000	50.419546
2141.000000	50.748505
2140.000000	50.621624
2139.000000	50.756962
2138.000000	50.920779
2137.000000	51.036139
2136.000000	51.139173
2135.000000	51.342320
2134.000000	51.439259
2133.000000	51.457512
2132.000000	51.497819
2131.000000	51.817611
2130.000000	51.900377
2129.000000	52.052301
2128.000000	51.898227
2127.000000	52.093288
2126.000000	51.996673
2125.000000	52.150816
2124.000000	52.241045
2123.000000	52.053094
2122.000000	52.300891
2121.000000	52.347865
2120.000000	52.323484
2119.000000	52.394579
2118.000000	52.488358
2117.000000	52.419376
2116.000000	52.465693
2115.000000	52.565829
2114.000000	52.627904
2113.000000	52.674691
2112.000000	52.592735
2111.000000	52.671391
2110.000000	52.540660
2109.000000	52.539150
2108.000000	52.611963
2107.000000	52.815951
2106.000000	52.740157
2105.000000	52.720197
2104.000000	52.714314
2103.000000	52.881670
2102.000000	52.663321
2101.000000	52.612383
2100.000000	52.789281
2099.000000	52.813344
2098.000000	52.806080
2097.000000	52.702953
2096.000000	52.692712
2095.000000	52.698437
2094.000000	52.773043
2093.000000	52.792064
2092.000000	52.818231
2091.000000	52.737921
2090.000000	52.578753
2089.000000	52.663103
2088.000000	52.655439
2087.000000	52.629369
2086.000000	52.602951
2085.000000	52.597334
2084.000000	52.573411
2083.000000	52.492003
2082.000000	52.450105
2081.000000	52.318199
2080.000000	52.296097
2079.000000	52.196519
2078.000000	52.113292
2077.000000	52.076333
2076.000000	51.970333
2075.000000	51.797082
2074.000000	51.706203
2073.000000	51.663556
2072.000000	51.566989
2071.000000	51.418403
2070.000000	51.353596
2069.000000	51.135134
2068.000000	50.975687
2067.000000	50.898858
2066.000000	50.711939
2065.000000	50.565177
2064.000000	50.354228
2063.000000	50.244836
2062.000000	50.168724
2061.000000	49.957816
2060.000000	49.758713
2059.000000	49.656489
2058.000000	49.544335
2057.000000	49.363160
2056.000000	49.242971
2055.000000	49.173272
2054.000000	48.973736
2053.000000	48.806137
2052.000000	48.729016
2051.000000	48.605139
2050.000000	48.502982
2049.000000	48.386557
2048.000000	48.295060
2047.000000	48.225583
2046.000000	48.138109
2045.000000	48.078338
2044.000000	48.095301
2043.000000	48.122450
2042.000000	48.049633
2041.000000	48.022569
2040.000000	48.107993
2039.000000	48.122033
2038.000000	48.138607
2037.000000	48.242426
2036.000000	48.308346
2035.000000	48.403220
2034.000000	48.523265
2033.000000	48.596298
2032.000000	48.692104
2031.000000	48.801477
2030.000000	48.917249
2029.000000	49.051867
2028.000000	49.175705
2027.000000	49.279725
2026.000000	49.364218
2025.000000	49.448283
2024.000000	49.519438
2023.000000	49.595218
2022.000000	49.661417
2021.000000	49.662185
2020.000000	49.746573
2019.000000	49.767482
2018.000000	49.741696
2017.000000	49.770883
2016.000000	49.772672
2015.000000	49.759984
2014.000000	49.743196
2013.000000	49.693197
2012.000000	49.650341
2011.000000	49.603844
2010.000000	49.562215
2009.000000	49.530241
2008.000000	49.400866
2007.000000	49.308755
2006.000000	49.226595
2005.000000	49.162876
2004.000000	49.041580
2003.000000	48.908638
2002.000000	48.830343
2001.000000	48.701861
2000.000000	48.579810
1999.000000	48.502047
1998.000000	48.389981
1997.000000	48.312788
1996.000000	48.232552
1995.000000	48.108817
1994.000000	47.975372
1993.000000	47.890219
1992.000000	47.775155
1991.000000	47.653143
1990.000000	47.513832
1989.000000	47.393387
1988.000000	47.309587
1987.000000	47.198645
1986.000000	47.078845
1985.000000	46.966032
1984.000000	46.854880
1983.000000	46.755427
1982.000000	46.675381
1981.000000	46.559546
1980.000000	46.395318
1979.000000	46.300768
1978.000000	46.255736
1977.000000	46.101452
1976.000000	45.987319
1975.000000	45.900262
1974.000000	45.785247
1973.000000	45.687805
1972.000000	45.597597
1971.000000	45.530184
1970.000000	45.418538
1969.000000	45.331672
1968.000000	45.223818
1967.000000	45.144592
1966.000000	45.095437
1965.000000	44.988262
1964.000000	44.837907
1963.000000	44.768076
1962.000000	44.677485
1961.000000	44.597503
1960.000000	44.542878
1959.000000	44.438804
1958.000000	44.365874
1957.000000	44.251466
1956.000000	44.134974
1955.000000	44.104061
1954.000000	44.049819
1953.000000	43.993367
1952.000000	43.963586
1951.000000	43.926223
1950.000000	43.905215
1949.000000	43.847918
1948.000000	43.794838
1947.000000	43.813496
1946.000000	43.747335
1945.000000	43.784988
1944.000000	43.754699
1943.000000	43.796332
1942.000000	43.880716
1941.000000	43.929191
1940.000000	43.947925
1939.000000	44.031390
1938.000000	44.126997
1937.000000	44.219145
1936.000000	44.325808
1935.000000	44.469918
1934.000000	44.547468
1933.000000	44.756964
1932.000000	44.816063
1931.000000	44.964076
1930.000000	45.241013
1929.000000	45.375634
1928.000000	45.613023
1927.000000	45.793381
1926.000000	46.106007
1925.000000	46.307452
1924.000000	46.561621
1923.000000	46.862886
1922.000000	47.161117
1921.000000	47.474243
1920.000000	47.711701
1919.000000	48.033454
1918.000000	48.375461
1917.000000	48.691377
1916.000000	49.034419
1915.000000	49.414827
1914.000000	49.836835
1913.000000	50.240106
1912.000000	50.672551
1911.000000	50.999992
1910.000000	51.451672
1909.000000	51.806298
1908.000000	52.283605
1907.000000	52.785828
1906.000000	53.181653
1905.000000	53.754136
1904.000000	54.245587
1903.000000	54.688765
1902.000000	55.234007
1901.000000	55.748687
1900.000000	56.262533
1899.000000	56.770164
1898.000000	57.298027
1897.000000	57.741936
1896.000000	58.299596
1895.000000	58.795133
1894.000000	59.213334
1893.000000	59.742931
1892.000000	60.243405
1891.000000	60.630022
1890.000000	61.118327
1889.000000	61.563403
1888.000000	61.972166
1887.000000	62.332157
1886.000000	62.770211
1885.000000	63.164049
1884.000000	63.559254
1883.000000	63.865514
1882.000000	64.209947
1881.000000	64.541231
1880.000000	64.877609
1879.000000	65.165894
1878.000000	65.421671
1877.000000	65.713805
1876.000000	65.971097
1875.000000	66.224884
1874.000000	66.478958
1873.000000	66.671228
1872.000000	66.882035
1871.000000	66.982433
1870.000000	67.141524
1869.000000	67.327695
1868.000000	67.519564
1867.000000	67.648983
1866.000000	67.744473
1865.000000	67.829124
1864.000000	67.888858
1863.000000	68.000661
1862.000000	68.086856
1861.000000	68.148210
1860.000000	68.209005
1859.000000	68.259371
1858.000000	68.273914
1857.000000	68.358099
1856.000000	68.359171
1855.000000	68.394332
1854.000000	68.461009
1853.000000	68.461491
1852.000000	68.431478
1851.000000	68.483980
1850.000000	68.514943
1849.000000	68.514227
1848.000000	68.508932
1847.000000	68.502665
1846.000000	68.482439
1845.000000	68.461421
1844.000000	68.457395
1843.000000	68.475439
1842.000000	68.456397
1841.000000	68.398098
1840.000000	68.379283
1839.000000	68.378153
1838.000000	68.326313
1837.000000	68.288773
1836.000000	68.248619
1835.000000	68.222528
1834.000000	68.171832
1833.000000	68.137761
1832.000000	68.120837
1831.000000	68.091801
1830.000000	68.022432
1829.000000	67.978576
1828.000000	67.946266
1827.000000	67.933766
1826.000000	67.920096
1825.000000	67.887021
1824.000000	67.854985
1823.000000	67.810332
1822.000000	67.776585
1821.000000	67.746157
1820.000000	67.717953
1819.000000	67.675801
1818.000000	67.644569
1817.000000	67.610703
1816.000000	67.572312
1815.000000	67.547933
1814.000000	67.511269
1813.000000	67.481728
1812.000000	67.447220
1811.000000	67.433819
1810.000000	67.417939
1809.000000	67.375289
1808.000000	67.334533
1807.000000	67.298097
1806.000000	67.276959
1805.000000	67.269864
1804.000000	67.260996
1803.000000	67.215432
1802.000000	67.148311
1801.000000	67.136708
1800.000000	67.143375
1799.000000	67.105100
1798.000000	67.064435
1797.000000	67.049532
1796.000000	67.019441
1795.000000	67.001200
1794.000000	66.999941
1793.000000	66.979939
1792.000000	66.945803
1791.000000	66.940769
1790.000000	66.908266
1789.000000	66.888457
1788.000000	66.873372
1787.000000	66.866276
1786.000000	66.848432
1785.000000	66.816264
1784.000000	66.787184
1783.000000	66.776058
1782.000000	66.737875
1781.000000	66.692207
1780.000000	66.661477
1779.000000	66.622679
1778.000000	66.582961
1777.000000	66.558003
1776.000000	66.501275
1775.000000	66.445483
1774.000000	66.422607
1773.000000	66.375089
1772.000000	66.318228
1771.000000	66.283083
1770.000000	66.214508
1769.000000	66.184690
1768.000000	66.147496
1767.000000	66.108996
1766.000000	66.049759
1765.000000	66.007872
1764.000000	65.995895
1763.000000	65.907763
1762.000000	65.850752
1761.000000	65.815728
1760.000000	65.787226
1759.000000	65.717318
1758.000000	65.712820
1757.000000	65.662959
1756.000000	65.605965
1755.000000	65.566494
1754.000000	65.515034
1753.000000	65.450252
1752.000000	65.420292
1751.000000	65.367043
1750.000000	65.347869
1749.000000	65.292508
1748.000000	65.219024
1747.000000	65.177412
1746.000000	65.142644
1745.000000	65.062929
1744.000000	65.029662
1743.000000	64.990124
1742.000000	64.937273
1741.000000	64.924001
1740.000000	64.847674
1739.000000	64.815212
1738.000000	64.787867
1737.000000	64.779002
1736.000000	64.732932
1735.000000	64.735122
1734.000000	64.710549
1733.000000	64.764586
1732.000000	64.737365
1731.000000	64.753951
1730.000000	64.752147
1729.000000	64.817205
1728.000000	64.873021
1727.000000	64.927195
1726.000000	64.993552
1725.000000	65.075560
1724.000000	65.131456
1723.000000	65.229991
1722.000000	65.303934
1721.000000	65.401904
1720.000000	65.493832
1719.000000	65.607530
1718.000000	65.682952
1717.000000	65.813918
1716.000000	65.889691
1715.000000	65.971410
1714.000000	66.056440
1713.000000	66.133347
1712.000000	66.197463
1711.000000	66.281618
1710.000000	66.387590
1709.000000	66.424230
1708.000000	66.455513
1707.000000	66.463501
1706.000000	66.518432
1705.000000	66.569215
1704.000000	66.583831
1703.000000	66.607924
1702.000000	66.624611
1701.000000	66.650828
1700.000000	66.685723
1699.000000	66.661208
1698.000000	66.699786
1697.000000	66.744682
1696.000000	66.796381
1695.000000	66.793122
1694.000000	66.826652
1693.000000	66.912618
1692.000000	66.967511
1691.000000	67.017268
1690.000000	67.098448
1689.000000	67.190990
1688.000000	67.304931
1687.000000	67.399417
1686.000000	67.507523
1685.000000	67.641062
1684.000000	67.768697
1683.000000	67.957471
1682.000000	68.089396
1681.000000	68.251830
1680.000000	68.394117
1679.000000	68.545835
1678.000000	68.724643
1677.000000	68.882156
1676.000000	69.077039
1675.000000	69.241256
1674.000000	69.418670
1673.000000	69.571818
1672.000000	69.725122
1671.000000	69.856514
1670.000000	70.014132
1669.000000	70.141254
1668.000000	70.255175
1667.000000	70.422090
1666.000000	70.488877
1665.000000	70.609694
1664.000000	70.674557
1663.000000	70.758256
1662.000000	70.848766
1661.000000	70.918054
1660.000000	70.984702
1659.000000	71.047136
1658.000000	71.100484
1657.000000	71.146408
1656.000000	71.194415
1655.000000	71.213602
1654.000000	71.200239
1653.000000	71.214721
1652.000000	71.264603
1651.000000	71.272336
1650.000000	71.292447
1649.000000	71.292192
1648.000000	71.262850
1647.000000	71.249165
1646.000000	71.258782
1645.000000	71.214418
1644.000000	71.216898
1643.000000	71.192098
1642.000000	71.156301
1641.000000	71.152081
1640.000000	71.137713
1639.000000	71.112550
1638.000000	71.089262
1637.000000	71.072861
1636.000000	71.008994
1635.000000	70.983667
1634.000000	70.962481
1633.000000	70.905436
1632.000000	70.876696
1631.000000	70.843982
1630.000000	70.816017
1629.000000	70.787171
1628.000000	70.721932
1627.000000	70.688924
1626.000000	70.647213
1625.000000	70.593641
1624.000000	70.556851
1623.000000	70.527673
1622.000000	70.478406
1621.000000	70.414120
1620.000000	70.377242
1619.000000	70.334794
1618.000000	70.283703
1617.000000	70.230834
1616.000000	70.169041
1615.000000	70.117842
1614.000000	70.055232
1613.000000	69.997916
1612.000000	69.962361
1611.000000	69.908859
1610.000000	69.849621
1609.000000	69.801304
1608.000000	69.740829
1607.000000	69.674378
1606.000000	69.600014
1605.000000	69.550159
1604.000000	69.488638
1603.000000	69.425839
1602.000000	69.378141
1601.000000	69.331091
1600.000000	69.273616
1599.000000	69.207442
1598.000000	69.159707
1597.000000	69.094022
1596.000000	69.039298
1595.000000	68.981844
1594.000000	68.934938
1593.000000	68.907433
1592.000000	68.858032
1591.000000	68.798135
1590.000000	68.740539
1589.000000	68.687933
1588.000000	68.643810
1587.000000	68.595503
1586.000000	68.561191
1585.000000	68.530724
1584.000000	68.482780
1583.000000	68.435359
1582.000000	68.391440
1581.000000	68.343173
1580.000000	68.313606
1579.000000	68.278976
1578.000000	68.248264
1577.000000	68.185140
1576.000000	68.135642
1575.000000	68.102377
1574.000000	68.050027
1573.000000	68.006237
1572.000000	67.985965
1571.000000	67.952574
1570.000000	67.908215
1569.000000	67.863963
1568.000000	67.833157
1567.000000	67.796123
1566.000000	67.777771
1565.000000	67.758217
1564.000000	67.723273
1563.000000	67.697173
1562.000000	67.685012
1561.000000	67.665140
1560.000000	67.633733
1559.000000	67.622132
1558.000000	67.608865
1557.000000	67.586877
1556.000000	67.563406
1555.000000	67.542040
1554.000000	67.524563
1553.000000	67.505473
1552.000000	67.469122
1551.000000	67.440698
1550.000000	67.404804
1549.000000	67.367452
1548.000000	67.366129
1547.000000	67.284903
1546.000000	67.221269
1545.000000	67.166621
1544.000000	67.095062
1543.000000	67.040561
1542.000000	66.971942
1541.000000	66.902698
1540.000000	66.823012
1539.000000	66.746742
1538.000000	66.658640
1537.000000	66.573532
1536.000000	66.497560
1535.000000	66.416795
1534.000000	66.329275
1533.000000	66.265971
1532.000000	66.198345
1531.000000	66.109290
1530.000000	66.040777
1529.000000	65.959518
1528.000000	65.909405
1527.000000	65.844085
1526.000000	65.791878
1525.000000	65.717843
1524.000000	65.661046
1523.000000	65.605658
1522.000000	65.561239
1521.000000	65.549338
1520.000000	65.517010
1519.000000	65.498263
1518.000000	65.463425
1517.000000	65.469649
1516.000000	65.424243
1515.000000	65.371302
1514.000000	65.338324
1513.000000	65.327924
1512.000000	65.312874
1511.000000	65.279129
1510.000000	65.276060
1509.000000	65.264375
1508.000000	65.257209
1507.000000	65.237629
1506.000000	65.229516
1505.000000	65.206017
1504.000000	65.214014
1503.000000	65.227071
1502.000000	65.206236
1501.000000	65.202300
1500.000000	65.190869
1499.000000	65.211022
1498.000000	65.221603
1497.000000	65.200877
1496.000000	65.219773
1495.000000	65.238915
1494.000000	65.264251
1493.000000	65.294090
1492.000000	65.311526
1491.000000	65.339495
1490.000000	65.384545
1489.000000	65.408034
1488.000000	65.465821
1487.000000	65.492148
1486.000000	65.531479
1485.000000	65.577529
1484.000000	65.637897
1483.000000	65.675467
1482.000000	65.728250
1481.000000	65.790934
1480.000000	65.838583
1479.000000	65.873413
1478.000000	65.937051
1477.000000	66.008929
1476.000000	66.051601
1475.000000	66.100023
1474.000000	66.151728
1473.000000	66.202199
1472.000000	66.245776
1471.000000	66.271284
1470.000000	66.313999
1469.000000	66.377230
1468.000000	66.406689
1467.000000	66.470459
1466.000000	66.530838
1465.000000	66.566875
1464.000000	66.627045
1463.000000	66.668123
1462.000000	66.709098
1461.000000	66.782610
1460.000000	66.846834
1459.000000	66.885190
1458.000000	66.908935
1457.000000	66.977556
1456.000000	67.061582
1455.000000	67.103306
1454.000000	67.177743
1453.000000	67.231112
1452.000000	67.300728
1451.000000	67.349709
1450.000000	67.439439
1449.000000	67.501054
1448.000000	67.558043
1447.000000	67.651806
1446.000000	67.731804
1445.000000	67.830408
1444.000000	67.895668
1443.000000	67.973500
1442.000000	68.043990
1441.000000	68.121238
1440.000000	68.223142
1439.000000	68.303746
1438.000000	68.406428
1437.000000	68.517324
1436.000000	68.619355
1435.000000	68.744261
1434.000000	68.836546
1433.000000	68.936038
1432.000000	69.059110
1431.000000	69.175115
1430.000000	69.278935
1429.000000	69.412471
1428.000000	69.541537
1427.000000	69.666815
1426.000000	69.807932
1425.000000	69.946909
1424.000000	70.107819
1423.000000	70.265310
1422.000000	70.415837
1421.000000	70.572532
1420.000000	70.729306
1419.000000	70.893150
1418.000000	71.086109
1417.000000	71.262544
1416.000000	71.444327
1415.000000	71.603709
1414.000000	71.791294
1413.000000	71.967338
1412.000000	72.153146
1411.000000	72.328642
1410.000000	72.529268
1409.000000	72.709729
1408.000000	72.880418
1407.000000	73.056993
1406.000000	73.237883
1405.000000	73.432657
1404.000000	73.606891
1403.000000	73.788657
1402.000000	73.957578
1401.000000	74.117459
1400.000000	74.285801
1399.000000	74.443356
1398.000000	74.598566
1397.000000	74.744968
1396.000000	74.891740
1395.000000	75.021615
1394.000000	75.155381
1393.000000	75.292042
1392.000000	75.449819
1391.000000	75.595613
1390.000000	75.729308
1389.000000	75.855724
1388.000000	75.986853
1387.000000	76.080770
1386.000000	76.173288
1385.000000	76.303024
1384.000000	76.423362
1383.000000	76.510423
1382.000000	76.589220
1381.000000	76.659137
1380.000000	76.732594
1379.000000	76.814796
1378.000000	76.872170
1377.000000	76.934022
1376.000000	76.994178
1375.000000	77.045589
1374.000000	77.110458
1373.000000	77.159597
1372.000000	77.219894
1371.000000	77.271375
1370.000000	77.310154
1369.000000	77.358223
1368.000000	77.402365
1367.000000	77.462322
1366.000000	77.504912
1365.000000	77.553368
1364.000000	77.611522
1363.000000	77.658661
1362.000000	77.720627
1361.000000	77.783264
1360.000000	77.857467
1359.000000	77.916740
1358.000000	77.940008
1357.000000	77.971851
1356.000000	78.050173
1355.000000	78.117706
1354.000000	78.169772
1353.000000	78.232016
1352.000000	78.311353
1351.000000	78.380118
1350.000000	78.416869
1349.000000	78.460001
1348.000000	78.529320
1347.000000	78.602240
1346.000000	78.626869
1345.000000	78.687349
1344.000000	78.754824
1343.000000	78.816260
1342.000000	78.856887
1341.000000	78.891496
1340.000000	78.939049
1339.000000	78.983355
1338.000000	79.024905
1337.000000	79.081178
1336.000000	79.120279
1335.000000	79.174513
1334.000000	79.204214
1333.000000	79.255085
1332.000000	79.292849
1331.000000	79.313645
1330.000000	79.339651
1329.000000	79.379061
1328.000000	79.386394
1327.000000	79.434708
1326.000000	79.471654
1325.000000	79.493621
1324.000000	79.544019
1323.000000	79.532638
1322.000000	79.565556
1321.000000	79.569890
1320.000000	79.581598
1319.000000	79.637189
1318.000000	79.662229
1317.000000	79.687557
1316.000000	79.657047
1315.000000	79.669880
1314.000000	79.700536
1313.000000	79.724514
1312.000000	79.748449
1311.000000	79.791782
1310.000000	79.781241
1309.000000	79.796806
1308.000000	79.796152
1307.000000	79.821324
1306.000000	79.843835
1305.000000	79.838621
1304.000000	79.870852
1303.000000	79.895151
1302.000000	79.895538
1301.000000	79.887573
1300.000000	79.911527
1299.000000	79.921429
1298.000000	79.901676
1297.000000	79.930234
1296.000000	79.926254
1295.000000	79.941942
1294.000000	79.930015
1293.000000	79.942045
1292.000000	79.922286
1291.000000	79.933165
1290.000000	79.928615
1289.000000	79.926017
1288.000000	79.899738
1287.000000	79.891022
1286.000000	79.898063
1285.000000	79.917702
1284.000000	79.922693
1283.000000	79.915835
1282.000000	79.902489
1281.000000	79.905135
1280.000000	79.929131
1279.000000	79.909947
1278.000000	79.912305
1277.000000	79.925193
1276.000000	79.924034
1275.000000	79.963620
1274.000000	79.950188
1273.000000	79.945095
1272.000000	79.956966
1271.000000	79.955841
1270.000000	79.956627
1269.000000	79.987521
1268.000000	80.019695
1267.000000	80.021297
1266.000000	79.981387
1265.000000	80.019445
1264.000000	80.022159
1263.000000	80.040668
1262.000000	80.031717
1261.000000	80.073889
1260.000000	80.073507
1259.000000	80.090208
1258.000000	80.092780
1257.000000	80.099137
1256.000000	80.128852
1255.000000	80.101780
1254.000000	80.138347
1253.000000	80.133407
1252.000000	80.127199
1251.000000	80.146275
1250.000000	80.146951
1249.000000	80.155082
1248.000000	80.130846
1247.000000	80.113481
1246.000000	80.122054
1245.000000	80.119696
1244.000000	80.091415
1243.000000	80.078310
1242.000000	80.080976
1241.000000	80.055779
1240.000000	80.066014
1239.000000	80.027188
1238.000000	80.002976
1237.000000	79.999150
1236.000000	79.980123
1235.000000	79.951305
1234.000000	79.931560
1233.000000	79.917522
1232.000000	79.907071
1231.000000	79.890209
1230.000000	79.866780
1229.000000	79.848502
1228.000000	79.852786
1227.000000	79.844611
1226.000000	79.800104
1225.000000	79.793248
1224.000000	79.778060
1223.000000	79.761668
1222.000000	79.768566
1221.000000	79.766526
1220.000000	79.732386
1219.000000	79.708807
1218.000000	79.695123
1217.000000	79.679386
1216.000000	79.692249
1215.000000	79.631012
1214.000000	79.622830
1213.000000	79.604999
1212.000000	79.574239
1211.000000	79.561342
1210.000000	79.533578
1209.000000	79.511290
1208.000000	79.473390
1207.000000	79.418985
1206.000000	79.422826
1205.000000	79.406117
1204.000000	79.345002
1203.000000	79.330828
1202.000000	79.302377
1201.000000	79.313156
1200.000000	79.258776
1199.000000	79.235573
1198.000000	79.212976
1197.000000	79.199243
1196.000000	79.161041
1195.000000	79.131750
1194.000000	79.119553
1193.000000	79.093805
1192.000000	79.084897
1191.000000	79.071787
1190.000000	79.041916
1189.000000	79.042290
1188.000000	79.046423
1187.000000	79.044762
1186.000000	79.047644
1185.000000	79.064364
1184.000000	79.066377
1183.000000	79.072115
1182.000000	79.104943
1181.000000	79.137044
1180.000000	79.152867
1179.000000	79.181376
1178.000000	79.225898
1177.000000	79.257779
1176.000000	79.295612
1175.000000	79.354693
1174.000000	79.405130
1173.000000	79.468495
1172.000000	79.509843
1171.000000	79.562618
1170.000000	79.628806
1169.000000	79.682963
1168.000000	79.760272
1167.000000	79.827626
1166.000000	79.885462
1165.000000	79.953353
1164.000000	80.030784
1163.000000	80.089628
1162.000000	80.146445
1161.000000	80.212292
1160.000000	80.284622
1159.000000	80.361746
1158.000000	80.423227
1157.000000	80.477387
1156.000000	80.526690
1155.000000	80.583336
1154.000000	80.632986
1153.000000	80.681882
1152.000000	80.744200
1151.000000	80.795619
1150.000000	80.847800
1149.000000	80.909521
1148.000000	80.965939
1147.000000	80.998736
1146.000000	81.015698
1145.000000	81.062338
1144.000000	81.120592
1143.000000	81.152003
1142.000000	81.185359
1141.000000	81.223472
1140.000000	81.276022
1139.000000	81.314579
1138.000000	81.349097
1137.000000	81.388390
1136.000000	81.417440
1135.000000	81.431572
1134.000000	81.485232
1133.000000	81.521070
1132.000000	81.540116
1131.000000	81.577663
1130.000000	81.610815
1129.000000	81.638294
1128.000000	81.669168
1127.000000	81.707279
1126.000000	81.729402
1125.000000	81.742841
1124.000000	81.752193
1123.000000	81.758676
1122.000000	81.775414
1121.000000	81.804038
1120.000000	81.801397
1119.000000	81.812119
1118.000000	81.825238
1117.000000	81.832820
1116.000000	81.847512
1115.000000	81.856234
1114.000000	81.872142
1113.000000	81.893727
1112.000000	81.891682
1111.000000	81.894091
1110.000000	81.884113
1109.000000	81.906272
1108.000000	81.920254
1107.000000	81.929496
1106.000000	81.919673
1105.000000	81.925888
1104.000000	81.939837
1103.000000	81.939376
1102.000000	81.947481
1101.000000	81.942679
1100.000000	81.948158
1099.000000	81.949928
1098.000000	81.965780
1097.000000	81.958187
1096.000000	81.958314
1095.000000	81.966664
1094.000000	81.978095
1093.000000	81.954073
1092.000000	81.957358
1091.000000	81.960952
1090.000000	81.982285
1089.000000	81.964888
1088.000000	81.992070
1087.000000	81.979544
1086.000000	81.967477
1085.000000	81.964340
1084.000000	81.977229
1083.000000	81.982151
1082.000000	81.971836
1081.000000	81.979441
1080.000000	81.993884
1079.000000	81.991505
1078.000000	81.993856
1077.000000	81.975747
1076.000000	81.963661
1075.000000	81.970196
1074.000000	81.977530
1073.000000	81.965626
1072.000000	81.953333
1071.000000	81.958646
1070.000000	81.973080
1069.000000	81.976914
1068.000000	81.979537
1067.000000	81.968115
1066.000000	81.955176
1065.000000	81.947237
1064.000000	81.952384
1063.000000	81.942273
1062.000000	81.953281
1061.000000	81.938343
1060.000000	81.937028
1059.000000	81.926623
1058.000000	81.911978
1057.000000	81.913747
1056.000000	81.913072
1055.000000	81.918021
1054.000000	81.912258
1053.000000	81.917735
1052.000000	81.901109
1051.000000	81.895985
1050.000000	81.922818
1049.000000	81.892762
1048.000000	81.914898
1047.000000	81.865203
1046.000000	81.892732
1045.000000	81.898911
1044.000000	81.899744
1043.000000	81.887371
1042.000000	81.856507
1041.000000	81.873477
1040.000000	81.904670
1039.000000	81.899178
1038.000000	81.879323
1037.000000	81.904432
1036.000000	81.899707
1035.000000	81.890009
1034.000000	81.900980
1033.000000	81.915125
1032.000000	81.889249
1031.000000	81.883849
1030.000000	81.908888
1029.000000	81.910794
1028.000000	81.895266
1027.000000	81.907805
1026.000000	81.902331
1025.000000	81.913688
1024.000000	81.905491
1023.000000	81.918610
1022.000000	81.926234
1021.000000	81.924810
1020.000000	81.924128
1019.000000	81.937585
1018.000000	81.955349
1017.000000	81.942495
1016.000000	81.942888
1015.000000	81.954701
1014.000000	81.953530
1013.000000	81.978359
1012.000000	81.990488
1011.000000	81.979771
1010.000000	81.996391
1009.000000	81.987886
1008.000000	82.003253
1007.000000	82.019562
1006.000000	82.017841
1005.000000	82.028479
1004.000000	82.035665
1003.000000	82.039171
1002.000000	82.034932
1001.000000	82.041533
1000.000000	82.076919
999.000000	82.078035
998.000000	82.090270
997.000000	82.087907
996.000000	82.088320
995.000000	82.100543
994.000000	82.115190
993.000000	82.126339
992.000000	82.129937
991.000000	82.146507
990.000000	82.156608
989.000000	82.154944
988.000000	82.161389
987.000000	82.162824
986.000000	82.181109
985.000000	82.188711
984.000000	82.188753
983.000000	82.188283
982.000000	82.216365
981.000000	82.225220
980.000000	82.234109
979.000000	82.246807
978.000000	82.245474
977.000000	82.266136
976.000000	82.274208
975.000000	82.286063
974.000000	82.306272
973.000000	82.314643
972.000000	82.319760
971.000000	82.325758
970.000000	82.340288
969.000000	82.364752
968.000000	82.344124
967.000000	82.359890
966.000000	82.363001
965.000000	82.360444
964.000000	82.389059
963.000000	82.411468
962.000000	82.408979
961.000000	82.415028
960.000000	82.434192
959.000000	82.434240
958.000000	82.449866
957.000000	82.476884
956.000000	82.479750
955.000000	82.481780
954.000000	82.481540
953.000000	82.484276
952.000000	82.499830
951.000000	82.492922
950.000000	82.495916
949.000000	82.532017
948.000000	82.562371
947.000000	82.581699
946.000000	82.572421
945.000000	82.562238
944.000000	82.577112
943.000000	82.563012
942.000000	82.583613
941.000000	82.592537
940.000000	82.601735
939.000000	82.625745
938.000000	82.626975
937.000000	82.606881
936.000000	82.596386
935.000000	82.615843
934.000000	82.630010
933.000000	82.618623
932.000000	82.589611
931.000000	82.603778
930.000000	82.629844
929.000000	82.606494
928.000000	82.629655
927.000000	82.644562
926.000000	82.644619
925.000000	82.643903
924.000000	82.630607
923.000000	82.613312
922.000000	82.600811
921.000000	82.623317
920.000000	82.645084
919.000000	82.633611
918.000000	82.639273
917.000000	82.648597
916.000000	82.650060
915.000000	82.636828
914.000000	82.621886
913.000000	82.641289
912.000000	82.654698
911.000000	82.675380
910.000000	82.669657
909.000000	82.622155
908.000000	82.635990
907.000000	82.649918
906.000000	82.659968
905.000000	82.721038
904.000000	82.707519
903.000000	82.703674
902.000000	82.689868
901.000000	82.686246
900.000000	82.687363
899.000000	82.697073
898.000000	82.728273
897.000000	82.772013
896.000000	82.778313
895.000000	82.749361
894.000000	82.780206
893.000000	82.807451
892.000000	82.820616
891.000000	82.843561
890.000000	82.851469
889.000000	82.812833
888.000000	82.855593
887.000000	82.879105
886.000000	82.879838
885.000000	82.870374
884.000000	82.904707
883.000000	82.856589
882.000000	82.908705
881.000000	82.891944
880.000000	82.868369
879.000000	82.857782
878.000000	82.963377
877.000000	82.841707
876.000000	82.909884
875.000000	82.949505
874.000000	82.898893
873.000000	83.028433
872.000000	82.987588
871.000000	82.995043
870.000000	82.925717
869.000000	82.948319
868.000000	82.893377
867.000000	82.971421
866.000000	83.025509
865.000000	83.053641
864.000000	82.982417
863.000000	82.916410
862.000000	82.890468
861.000000	82.946362
860.000000	83.026688
859.000000	83.545383
858.000000	82.694716
857.000000	83.444276
856.000000	83.477865
855.000000	83.553964
854.000000	83.144433
853.000000	83.115062
852.000000	83.535331
851.000000	83.425354
850.000000	83.017553
849.000000	83.416744
848.000000	83.001062
847.000000	83.012900
846.000000	82.898760
845.000000	83.250185
844.000000	83.330921
843.000000	83.176687
842.000000	83.460740
841.000000	83.180727
840.000000	83.295943
839.000000	83.064493
838.000000	83.337782
837.000000	83.429029
836.000000	83.232722
835.000000	83.411920
834.000000	83.133577
833.000000	83.303862
832.000000	83.392960
831.000000	83.165105
830.000000	83.455518
829.000000	83.242857
828.000000	83.431715
827.000000	83.193280
826.000000	83.330642
825.000000	83.043520
824.000000	83.130087
823.000000	83.338550
822.000000	83.318865
821.000000	83.355213
820.000000	83.067455
819.000000	83.315787
818.000000	83.118832
817.000000	83.113976
816.000000	83.211044
815.000000	83.229199
814.000000	83.352435
813.000000	83.289919
812.000000	83.185796
811.000000	83.264804
810.000000	83.075244
809.000000	83.111882
808.000000	83.124813
807.000000	83.175068
806.000000	83.170098
805.000000	83.372127
804.000000	83.237858
803.000000	83.299586
802.000000	83.111023
801.000000	83.111918
800.000000	83.322065
799.000000	83.127951
798.000000	83.233138
797.000000	83.249476
796.000000	83.099935
795.000000	83.298690
794.000000	83.020266
793.000000	83.112428
792.000000	83.123753
791.000000	83.205999
790.000000	83.257139
789.000000	83.382110
788.000000	83.252681
787.000000	83.240064
786.000000	83.361488
785.000000	83.271118
784.000000	83.144172
783.000000	83.078261
782.000000	83.172991
781.000000	83.254990
780.000000	83.165325
779.000000	83.195460
778.000000	83.140188
777.000000	83.146084
776.000000	83.088212
775.000000	83.146490
774.000000	83.164769
773.000000	83.096292
772.000000	83.167987
771.000000	83.251586
770.000000	83.261120
769.000000	83.114860
768.000000	83.051446
767.000000	83.178270
766.000000	83.191535
765.000000	83.177845
764.000000	83.121222
763.000000	83.195523
762.000000	83.186043
761.000000	83.125916
760.000000	83.085275
759.000000	83.091805
758.000000	83.055897
757.000000	83.083989
756.000000	83.026476
755.000000	83.104852
754.000000	83.069064
753.000000	83.044524
752.000000	83.244326
751.000000	83.184743
750.000000	83.085077
749.000000	83.073925
748.000000	82.954771
747.000000	83.031138
746.000000	83.092697
745.000000	83.136719
744.000000	83.076778
743.000000	82.968536
742.000000	82.947796
741.000000	83.020819
740.000000	82.977385
739.000000	83.007008
738.000000	82.925542
737.000000	82.971979
736.000000	82.955571
735.000000	82.942564
734.000000	82.951366
733.000000	82.924965
732.000000	83.004622
731.000000	83.032681
730.000000	82.973276
729.000000	82.924222
728.000000	82.984427
727.000000	82.939132
726.000000	82.903626
725.000000	82.866460
724.000000	82.838057
723.000000	82.917451
722.000000	82.931999
721.000000	82.881570
720.000000	82.883718
719.000000	82.826058
718.000000	82.829740
717.000000	82.832558
716.000000	82.893698
715.000000	82.935947
714.000000	82.945400
713.000000	82.867229
712.000000	82.792568
711.000000	82.764406
710.000000	82.760506
709.000000	82.794765
708.000000	82.741751
707.000000	82.634558
706.000000	82.642939
705.000000	82.657011
704.000000	82.698101
703.000000	82.742670
702.000000	82.684818
701.000000	82.656811
700.000000	82.693577
699.000000	82.710536
698.000000	82.671864
697.000000	82.639666
696.000000	82.622820
695.000000	82.606853
694.000000	82.654794
693.000000	82.658183
692.000000	82.685515
691.000000	82.685811
690.000000	82.644181
689.000000	82.531334
688.000000	82.414213
687.000000	82.414390
686.000000	82.404538
685.000000	82.393615
684.000000	82.411597
683.000000	82.373949
682.000000	82.334344
681.000000	82.328577
680.000000	82.322973
679.000000	82.322332
678.000000	82.351465
677.000000	82.321927
676.000000	82.212799
675.000000	82.240732
674.000000	82.236227
673.000000	82.133922
672.000000	82.168565
671.000000	82.235246
670.000000	82.125707
669.000000	82.083775
668.000000	82.132927
667.000000	82.129092
666.000000	82.073673
665.000000	82.065641
664.000000	82.046337
663.000000	82.004590
662.000000	82.001172
661.000000	81.944160
660.000000	81.897391
659.000000	81.908791
658.000000	81.892614
657.000000	81.948721
656.000000	81.892112
655.000000	81.882064
654.000000	81.832815
653.000000	81.779632
652.000000	81.749690
651.000000	81.716459
650.000000	81.729986
649.000000	81.718080
648.000000	81.712303
647.000000	81.664622
646.000000	81.623008
645.000000	81.600158
644.000000	81.561579
643.000000	81.542084
642.000000	81.508659
641.000000	81.434391
640.000000	81.505091
639.000000	81.537110
638.000000	81.450797
637.000000	81.397333
636.000000	81.352854
635.000000	81.328030
634.000000	81.208729
633.000000	81.187463
632.000000	81.124434
631.000000	81.214678
630.000000	81.205888
629.000000	81.149147
628.000000	81.054297
627.000000	80.997604
626.000000	80.961304
625.000000	81.044234
624.000000	80.992138
623.000000	80.934442
622.000000	80.932192
621.000000	80.904773
620.000000	80.750725
619.000000	80.735636
618.000000	80.714871
617.000000	80.688806
616.000000	80.699993
615.000000	80.614058
614.000000	80.511988
613.000000	80.554459
612.000000	80.482571
611.000000	80.461361
610.000000	80.408222
609.000000	80.336771
608.000000	80.257296
607.000000	80.268579
606.000000	80.170814
605.000000	80.193332
604.000000	80.058995
603.000000	80.124453
602.000000	80.000056
601.000000	79.990566
600.000000	79.942100
599.000000	79.887231
598.000000	79.798362
597.000000	79.847431
596.000000	79.797019
595.000000	79.700945
594.000000	79.600803
593.000000	79.584944
592.000000	79.565614
591.000000	79.467931
590.000000	79.407106
589.000000	79.404525
588.000000	79.312344
587.000000	79.352233
586.000000	79.118775
585.000000	79.147388
584.000000	79.108541
583.000000	78.942541
582.000000	78.908818
581.000000	78.895564
580.000000	78.804410
579.000000	78.810301
578.000000	78.658280
577.000000	78.613877
576.000000	78.605270
575.000000	78.575075
574.000000	78.462126
573.000000	78.378786
572.000000	78.250153
571.000000	78.258370
570.000000	78.106243
569.000000	78.056158
568.000000	78.066138
567.000000	77.999296
566.000000	77.869410
565.000000	77.803042
564.000000	77.751579
563.000000	77.621544
562.000000	77.553485
561.000000	77.487689
560.000000	77.329589
559.000000	77.352973
558.000000	77.273136
557.000000	77.159503
556.000000	77.106705
555.000000	76.922709
554.000000	76.858390
553.000000	76.845247
552.000000	76.641539
551.000000	76.696167
550.000000	76.566907
549.000000	76.440925
548.000000	76.346933
547.000000	76.322271
546.000000	76.174327
545.000000	76.119799
544.000000	76.032019
543.000000	75.975968
542.000000	75.833166
541.000000	75.741377
540.000000	75.663335
539.000000	75.612762
538.000000	75.491254
537.000000	75.384324
536.000000	75.244295
535.000000	75.217708
534.000000	75.114267
533.000000	74.976869
532.000000	74.912639
531.000000	74.802564
530.000000	74.680676
529.000000	74.574789
528.000000	74.460215
527.000000	74.380452
526.000000	74.273815
525.000000	74.108440
524.000000	74.010215
523.000000	73.918411
522.000000	73.797291
521.000000	73.731541
520.000000	73.607172
519.000000	73.466041
518.000000	73.313936
517.000000	73.272798
516.000000	73.118281
515.000000	73.004883
514.000000	72.900145
513.000000	72.751908
512.000000	72.613138
511.000000	72.496397
510.000000	72.401677
509.000000	72.291939
508.000000	72.158371
507.000000	72.056209
506.000000	71.937373
505.000000	71.824981
504.000000	71.718912
503.000000	71.552445
502.000000	71.381720
501.000000	71.252065
500.000000	71.135065
499.000000	71.016582
498.000000	70.893095
497.000000	70.749804
496.000000	70.660349
495.000000	70.533345
494.000000	70.373907
493.000000	70.257331
492.000000	70.156195
491.000000	70.011334
490.000000	69.836393
489.000000	69.732115
488.000000	69.582105
487.000000	69.427414
486.000000	69.333896
485.000000	69.199081
484.000000	69.085026
483.000000	69.030194
482.000000	68.922986
481.000000	68.703022
480.000000	68.605727
479.000000	68.565285
478.000000	68.451202
477.000000	68.286960
476.000000	68.126127
475.000000	68.026557
474.000000	67.914020
473.000000	67.780425
472.000000	67.663416
471.000000	67.528142
470.000000	67.383527
469.000000	67.224516
468.000000	67.103394
467.000000	67.027128
466.000000	66.908664
465.000000	66.763656
464.000000	66.643101
463.000000	66.473923
462.000000	66.325584
461.000000	66.206486
460.000000	66.103156
459.000000	65.911614
458.000000	65.746663
457.000000	65.665017
456.000000	65.504613
455.000000	65.290191
454.000000	65.104157
453.000000	64.978333
452.000000	64.806224
451.000000	64.600908
450.000000	64.477211
449.000000	64.350052
448.000000	64.165648
447.000000	63.972070
446.000000	63.874517
445.000000	63.682323
444.000000	63.458249
443.000000	63.275975
442.000000	63.114673
441.000000	62.985968
440.000000	62.813834
439.000000	62.606204
438.000000	62.399980
437.000000	62.194634
436.000000	62.013578
435.000000	61.824927
434.000000	61.598770
433.000000	61.436823
432.000000	61.262950
431.000000	61.047800
430.000000	60.836857
429.000000	60.649613
428.000000	60.477665
427.000000	60.276479
426.000000	60.016865
425.000000	59.805291
424.000000	59.600576
423.000000	59.409206
422.000000	59.191777
421.000000	58.988237
420.000000	58.749629
419.000000	58.527816
418.000000	58.319628
417.000000	58.107073
416.000000	57.907661
415.000000	57.615539
414.000000	57.470402
413.000000	57.158788
412.000000	56.943144
411.000000	56.747203
410.000000	56.472394
409.000000	56.262223
408.000000	55.996900
407.000000	55.778691
406.000000	55.556284
405.000000	55.316159
404.000000	54.946419
403.000000	54.730092
402.000000	54.535814
401.000000	54.279323
400.000000	54.013885
399.000000	53.754987
398.000000	53.454688
397.000000	53.274948
396.000000	53.011546
395.000000	52.724921
394.000000	52.531381
393.000000	52.249561
392.000000	51.935757
391.000000	51.667061
390.000000	51.436392
389.000000	51.161912
388.000000	50.876610
387.000000	50.681858
386.000000	50.368711
385.000000	50.036449
384.000000	49.751834
383.000000	49.415283
382.000000	49.128229
381.000000	48.848998
380.000000	48.533308
379.000000	48.169985
378.000000	47.799376
377.000000	47.498414
376.000000	47.238027
375.000000	46.935839
374.000000	46.694135
373.000000	46.309815
372.000000	45.960678
371.000000	45.653762
370.000000	45.273654
369.000000	45.072608
368.000000	44.841362
367.000000	44.397180
366.000000	44.181714
365.000000	43.984298
364.000000	43.763982
363.000000	43.466876
362.000000	43.193052
361.000000	42.890002
360.000000	42.838780
359.000000	42.627629
358.000000	42.262006
357.000000	42.079954
356.000000	41.790435
355.000000	41.538950
354.000000	41.341510
353.000000	41.046974
352.000000	40.930403
351.000000	40.695803
350.000000	40.422571
349.000000	40.233031
348.000000	40.017002
347.000000	39.782838
346.000000	39.574761
345.000000	39.319154
344.000000	39.353534
343.000000	39.084679
342.000000	38.892746
341.000000	38.710809
340.000000	38.503984
339.000000	38.453757
338.000000	38.157063
337.000000	37.998097
336.000000	38.044749
335.000000	37.780773
334.000000	37.447828
333.000000	37.316502
332.000000	37.265713
331.000000	37.018902
330.000000	37.049968
329.000000	36.897699
328.000000	37.023169
327.000000	36.658982
326.000000	36.357089
325.000000	36.344866
324.000000	36.347426
323.000000	36.133207
322.000000	36.058953
321.000000	35.849718
320.000000	35.615086
319.000000	35.806464
318.000000	35.251286
317.000000	35.369458
316.000000	35.308572
315.000000	35.149417
314.000000	34.964316
313.000000	35.017361
312.000000	34.971022
311.000000	34.758568
310.000000	34.660326
309.000000	34.585353
308.000000	34.495884
307.000000	34.511870
306.000000	34.274234
305.000000	34.224948
304.000000	34.115227
303.000000	34.129583
302.000000	33.877508
301.000000	33.773475
300.000000	33.683773
299.000000	33.387422
298.000000	33.419156
297.000000	33.199590
296.000000	33.001554
295.000000	32.798399
294.000000	32.576066
293.000000	32.300448
292.000000	32.077560
291.000000	31.639404
290.000000	31.479834
289.000000	31.243001
288.000000	31.034691
287.000000	30.768692
286.000000	30.669896
285.000000	30.411968
284.000000	30.340905
283.000000	30.271828
282.000000	30.144326
281.000000	30.172341
280.000000	30.040218
279.000000	30.050860
278.000000	29.912483
277.000000	29.961864
276.000000	29.999588
275.000000	30.040424
274.000000	30.093549
273.000000	30.168264
272.000000	30.223791
271.000000	30.252708
270.000000	30.299979
269.000000	30.293334
268.000000	30.551974
267.000000	30.554646
266.000000	30.617179
265.000000	30.757933
264.000000	30.947157
263.000000	31.170720
262.000000	31.277642
261.000000	31.411294
260.000000	31.658794
259.000000	31.907322
258.000000	32.116584
257.000000	32.405131
256.000000	32.682149
255.000000	32.909334
254.000000	33.101559
253.000000	33.370866
252.000000	33.758712
251.000000	34.030248
250.000000	34.262849
249.000000	34.356598
248.000000	34.607275
247.000000	34.884686
246.000000	34.955047
245.000000	34.876043
244.000000	34.834785
243.000000	34.731676
242.000000	34.555930
241.000000	34.299861
240.000000	33.938604
239.000000	33.543564
238.000000	33.038941
237.000000	32.585171
236.000000	32.141290
235.000000	31.525790
234.000000	31.104599
233.000000	30.664217
232.000000	30.124261
231.000000	29.648452
230.000000	29.089784
229.000000	28.520340
228.000000	28.125305
227.000000	27.716236
226.000000	27.327559
225.000000	26.884906
224.000000	26.567125
223.000000	26.279646
222.000000	26.114766
221.000000	25.898507
220.000000	25.687853
219.000000	25.503760
218.000000	25.281838
217.000000	25.281426
216.000000	25.214433
215.000000	25.043359
214.000000	24.954781
213.000000	24.890557
212.000000	24.776142
211.000000	24.761096
210.000000	24.855386
209.000000	24.903016
208.000000	25.135523
207.000000	25.175988
206.000000	25.238737
205.000000	25.528396
204.000000	25.887093
203.000000	26.141627
202.000000	26.590026
201.000000	27.133747
200.000000	27.553162
