PE UV       SUBTECH     SPECTRUM    ASCII       PEDS        4.00        
   -1
blanc.Sample.asc
23/09/07
14:29:23.00
23/09/07
14:29:23.00
Administrator

250.000000
1
Lambda 750
750N8071901
PerkinElmer UV WinLab 6.0.4.0738 / 1.61.00 Lambda 900

0
0
3350/servo 860.8/2
0
0
UV/VIS
1
1
1
CommonBeamDepol,150mm sphere / downward view
0
0
0
0
Program
Program
3350/servo 860.8/2
3350/0.2 860.8/0.2
3350/0.2 860.8/0.2
0
1
 
 
 
0
 
860.8
319.2
860.8
Front
100
on
 
 
0
0
0
 
0
 
 
 
0
 
 
0
0
0
0
0
 
 
 
 
0
0


0
0
#HDR
-1
-1
#GR
nm
%R
1.0
0.0
2500.000000
-10.000000
226
8
100.891816
98.347453
#DATA
2500.000000	99.623692
2490.000000	98.393298
2480.000000	100.004284
2470.000000	100.096586
2460.000000	100.619669
2450.000000	100.175484
2440.000000	98.383734
2430.000000	99.812462
2420.000000	98.782437
2410.000000	100.758465
2400.000000	99.945051
2390.000000	98.347453
2380.000000	100.799650
2370.000000	100.709752
2360.000000	99.903883
2350.000000	100.891630
2340.000000	99.190411
2330.000000	99.995542
2320.000000	99.769002
2310.000000	99.570859
2300.000000	100.891816
2290.000000	99.152333
2280.000000	100.513449
2270.000000	100.070750
2260.000000	100.073621
2250.000000	99.804606
2240.000000	99.725771
2230.000000	99.442326
2220.000000	99.270980
2210.000000	99.991366
2200.000000	100.064779
2190.000000	100.747541
2180.000000	99.930827
2170.000000	100.707011
2160.000000	100.059135
2150.000000	99.710330
2140.000000	100.056822
2130.000000	100.094619
2120.000000	100.281710
2110.000000	99.896992
2100.000000	99.874016
2090.000000	99.843151
2080.000000	99.922984
2070.000000	100.118922
2060.000000	100.075855
2050.000000	99.995560
2040.000000	99.768809
2030.000000	99.828709
2020.000000	99.963443
2010.000000	99.920987
2000.000000	100.049601
1990.000000	99.898136
1980.000000	100.006973
1970.000000	100.166940
1960.000000	99.735588
1950.000000	99.853908
1940.000000	99.804451
1930.000000	99.953047
1920.000000	100.053013
1910.000000	99.764330
1900.000000	100.042858
1890.000000	100.123131
1880.000000	100.023520
1870.000000	99.971087
1860.000000	99.867112
1850.000000	99.925534
1840.000000	99.889440
1830.000000	99.932423
1820.000000	99.944021
1810.000000	99.849374
1800.000000	99.838793
1790.000000	99.869062
1780.000000	99.883576
1770.000000	99.953208
1760.000000	99.967977
1750.000000	99.864567
1740.000000	99.790899
1730.000000	99.993116
1720.000000	99.831082
1710.000000	99.978395
1700.000000	99.909407
1690.000000	99.943043
1680.000000	99.941597
1670.000000	99.881592
1660.000000	99.863906
1650.000000	99.891976
1640.000000	99.914872
1630.000000	99.860599
1620.000000	99.879616
1610.000000	99.938954
1600.000000	99.891586
1590.000000	99.871740
1580.000000	99.816901
1570.000000	99.923571
1560.000000	99.869256
1550.000000	99.843402
1540.000000	99.742607
1530.000000	99.895254
1520.000000	99.884638
1510.000000	99.916112
1500.000000	99.876822
1490.000000	99.855880
1480.000000	99.868884
1470.000000	99.863771
1460.000000	99.906866
1450.000000	99.791170
1440.000000	99.779987
1430.000000	99.879910
1420.000000	99.946456
1410.000000	99.844982
1400.000000	99.799018
1390.000000	99.886351
1380.000000	99.837246
1370.000000	99.867376
1360.000000	99.854961
1350.000000	99.796707
1340.000000	99.850013
1330.000000	99.837251
1320.000000	99.875595
1310.000000	99.866557
1300.000000	99.923140
1290.000000	99.884802
1280.000000	99.970718
1270.000000	99.935737
1260.000000	99.863859
1250.000000	99.894656
1240.000000	99.916187
1230.000000	99.910491
1220.000000	99.891700
1210.000000	99.852014
1200.000000	99.895446
1190.000000	99.855254
1180.000000	99.846696
1170.000000	99.877304
1160.000000	99.825405
1150.000000	99.850479
1140.000000	99.857659
1130.000000	99.877674
1120.000000	99.836805
1110.000000	99.826139
1100.000000	99.888058
1090.000000	99.815724
1080.000000	99.892713
1070.000000	99.808948
1060.000000	99.862534
1050.000000	99.824780
1040.000000	99.813545
1030.000000	99.773281
1020.000000	99.797844
1010.000000	99.779120
1000.000000	99.813159
990.000000	99.795364
980.000000	99.772438
970.000000	99.787594
960.000000	99.838946
950.000000	99.807534
940.000000	99.770536
930.000000	99.743406
920.000000	99.647435
910.000000	99.642708
900.000000	99.887191
890.000000	99.742231
880.000000	99.904511
870.000000	99.531864
860.000000	99.794825
850.000000	99.204355
840.000000	99.728476
830.000000	99.663817
820.000000	99.821801
810.000000	100.067993
800.000000	99.995840
790.000000	99.621183
780.000000	100.137672
770.000000	99.845118
760.000000	99.957260
750.000000	99.754563
740.000000	99.675738
730.000000	99.819414
720.000000	99.892458
710.000000	99.835287
700.000000	99.931732
690.000000	99.890593
680.000000	99.642181
670.000000	99.761310
660.000000	99.818125
650.000000	99.884509
640.000000	99.868187
630.000000	99.891437
620.000000	99.758263
610.000000	99.794194
600.000000	99.809754
590.000000	99.876926
580.000000	99.794658
570.000000	99.799502
560.000000	99.850184
550.000000	99.787871
540.000000	99.805303
530.000000	99.741543
520.000000	99.771488
510.000000	99.754130
500.000000	99.796770
490.000000	99.757517
480.000000	99.657089
470.000000	99.795496
460.000000	99.755057
450.000000	99.931277
440.000000	99.883687
430.000000	99.724098
420.000000	99.961795
410.000000	99.746027
400.000000	99.849430
390.000000	99.869675
380.000000	99.707946
370.000000	99.799800
360.000000	99.534969
350.000000	99.814399
340.000000	99.853417
330.000000	100.548261
320.000000	100.323249
310.000000	99.919037
300.000000	99.851934
290.000000	99.997761
280.000000	99.678746
270.000000	99.645656
260.000000	99.525563
250.000000	99.488868
