PE UV       SUBTECH     SPECTRUM    ASCII       PEDS        4.00        
   -1
Empty Chamber.Sample.asc
18/03/05
09:20:09.00
18/03/05
09:20:09.00
Administrator

200.000000
1
Lambda 750
750N8071901
PerkinElmer UV WinLab 6.0.4.0738 / 1.61.00 Lambda 900

0
0
3350/servo 860.8/2
0
0
UV/VIS
1
1
1
CommonBeamDepol,150mm sphere / downward view
0
0
0
0
Program
Program
3350/servo 860.8/2
3350/0.2 860.8/0.2
3350/0.2 860.8/0.2
0
1
 
 
 
0
 
860.8
319.2
860.8
Front
100
on
 
 
0
0
0
 
0
 
 
 
0
 
 
0
0
0
0
0
 
 
 
 
0
0


0
0
#HDR
-1
-1
#GR
nm
%T
1.0
0.0
2350.000000
-1.000000
2151
8
100.988348
99.179488
#DATA
2350.000000	99.747817
2349.000000	100.131374
2348.000000	100.032638
2347.000000	100.181476
2346.000000	100.045539
2345.000000	99.748792
2344.000000	100.132143
2343.000000	100.059726
2342.000000	99.874914
2341.000000	100.418717
2340.000000	100.101781
2339.000000	99.967189
2338.000000	100.010004
2337.000000	99.805774
2336.000000	99.752589
2335.000000	100.119553
2334.000000	99.439128
2333.000000	100.354651
2332.000000	100.184702
2331.000000	100.062890
2330.000000	100.020047
2329.000000	100.337155
2328.000000	99.834484
2327.000000	100.078492
2326.000000	100.074410
2325.000000	99.769474
2324.000000	99.854128
2323.000000	100.061949
2322.000000	100.012370
2321.000000	100.057082
2320.000000	99.794715
2319.000000	99.831088
2318.000000	100.139092
2317.000000	100.051994
2316.000000	99.849595
2315.000000	99.867849
2314.000000	99.686941
2313.000000	99.828644
2312.000000	100.066898
2311.000000	100.036929
2310.000000	99.965196
2309.000000	100.198467
2308.000000	99.858482
2307.000000	99.732783
2306.000000	100.278899
2305.000000	99.780764
2304.000000	100.053572
2303.000000	100.271399
2302.000000	99.976922
2301.000000	99.943178
2300.000000	99.988544
2299.000000	100.095630
2298.000000	100.019980
2297.000000	100.275593
2296.000000	100.158907
2295.000000	100.076699
2294.000000	99.914949
2293.000000	99.894438
2292.000000	99.926488
2291.000000	99.991798
2290.000000	99.996455
2289.000000	99.961056
2288.000000	100.106721
2287.000000	100.154784
2286.000000	100.259682
2285.000000	100.133556
2284.000000	99.996959
2283.000000	99.924384
2282.000000	99.973975
2281.000000	100.132369
2280.000000	100.103028
2279.000000	99.912304
2278.000000	100.007604
2277.000000	99.864168
2276.000000	99.939244
2275.000000	100.192183
2274.000000	99.986630
2273.000000	100.001115
2272.000000	100.019247
2271.000000	99.875778
2270.000000	100.075150
2269.000000	99.988953
2268.000000	100.000101
2267.000000	100.041230
2266.000000	99.958087
2265.000000	99.922929
2264.000000	100.000608
2263.000000	99.953805
2262.000000	99.891934
2261.000000	99.990793
2260.000000	99.943175
2259.000000	100.039861
2258.000000	100.235024
2257.000000	100.111001
2256.000000	99.797694
2255.000000	100.023824
2254.000000	100.163951
2253.000000	99.965617
2252.000000	100.121074
2251.000000	100.228809
2250.000000	100.032722
2249.000000	100.036602
2248.000000	99.975060
2247.000000	99.893776
2246.000000	99.982785
2245.000000	99.963966
2244.000000	99.935952
2243.000000	100.039603
2242.000000	99.930716
2241.000000	99.940820
2240.000000	100.146340
2239.000000	100.069202
2238.000000	100.002636
2237.000000	100.112864
2236.000000	99.894293
2235.000000	99.902092
2234.000000	100.032755
2233.000000	100.000304
2232.000000	100.045586
2231.000000	100.094431
2230.000000	100.064952
2229.000000	99.914522
2228.000000	99.978226
2227.000000	100.029585
2226.000000	100.182053
2225.000000	100.206911
2224.000000	100.071279
2223.000000	100.003749
2222.000000	100.010742
2221.000000	100.006387
2220.000000	100.004763
2219.000000	100.013484
2218.000000	99.856185
2217.000000	99.775861
2216.000000	99.835588
2215.000000	99.931773
2214.000000	100.009012
2213.000000	100.009221
2212.000000	99.907615
2211.000000	99.849427
2210.000000	100.027571
2209.000000	99.945576
2208.000000	100.043483
2207.000000	100.092749
2206.000000	100.013984
2205.000000	99.999494
2204.000000	100.076598
2203.000000	99.981766
2202.000000	100.003139
2201.000000	100.073424
2200.000000	100.045476
2199.000000	100.029559
2198.000000	100.142205
2197.000000	99.916138
2196.000000	99.925026
2195.000000	100.156055
2194.000000	99.905269
2193.000000	100.054466
2192.000000	100.133232
2191.000000	99.972458
2190.000000	100.020747
2189.000000	100.244017
2188.000000	99.994129
2187.000000	99.857344
2186.000000	99.937228
2185.000000	99.970505
2184.000000	99.913478
2183.000000	100.180450
2182.000000	99.881407
2181.000000	100.074282
2180.000000	100.229064
2179.000000	100.036795
2178.000000	99.949983
2177.000000	100.056294
2176.000000	100.040422
2175.000000	100.093782
2174.000000	100.057079
2173.000000	100.059492
2172.000000	100.079889
2171.000000	99.933094
2170.000000	99.988598
2169.000000	100.068646
2168.000000	100.033200
2167.000000	99.868871
2166.000000	100.246112
2165.000000	100.200317
2164.000000	100.023429
2163.000000	100.017048
2162.000000	99.990410
2161.000000	99.922510
2160.000000	100.077705
2159.000000	100.023307
2158.000000	100.050305
2157.000000	100.000101
2156.000000	99.637393
2155.000000	99.779260
2154.000000	99.983555
2153.000000	100.240141
2152.000000	99.798549
2151.000000	99.986483
2150.000000	100.204607
2149.000000	99.942932
2148.000000	100.180795
2147.000000	100.221670
2146.000000	99.967030
2145.000000	99.877031
2144.000000	100.230714
2143.000000	99.911631
2142.000000	99.911438
2141.000000	99.933130
2140.000000	99.822501
2139.000000	99.912740
2138.000000	100.223022
2137.000000	99.925739
2136.000000	99.953205
2135.000000	100.133705
2134.000000	100.088480
2133.000000	100.016736
2132.000000	100.061954
2131.000000	99.950438
2130.000000	100.242485
2129.000000	99.997175
2128.000000	99.963390
2127.000000	100.045313
2126.000000	99.953058
2125.000000	100.229677
2124.000000	100.226791
2123.000000	99.929457
2122.000000	99.984857
2121.000000	100.135648
2120.000000	100.174149
2119.000000	99.908367
2118.000000	100.134259
2117.000000	99.849957
2116.000000	99.947568
2115.000000	100.113066
2114.000000	100.112140
2113.000000	100.061558
2112.000000	100.084320
2111.000000	99.924876
2110.000000	99.869881
2109.000000	100.010708
2108.000000	99.993934
2107.000000	99.904643
2106.000000	100.063508
2105.000000	100.062945
2104.000000	99.791064
2103.000000	99.960799
2102.000000	100.053551
2101.000000	100.009094
2100.000000	100.115329
2099.000000	99.964743
2098.000000	100.132802
2097.000000	100.122983
2096.000000	99.940055
2095.000000	100.017795
2094.000000	100.136208
2093.000000	100.043399
2092.000000	99.986545
2091.000000	99.945524
2090.000000	99.995249
2089.000000	99.975221
2088.000000	99.997978
2087.000000	100.124164
2086.000000	100.039044
2085.000000	99.969059
2084.000000	99.965215
2083.000000	100.060698
2082.000000	100.026493
2081.000000	99.912851
2080.000000	100.042502
2079.000000	100.055454
2078.000000	99.943860
2077.000000	99.909228
2076.000000	99.866165
2075.000000	99.970154
2074.000000	99.886051
2073.000000	100.001618
2072.000000	100.070598
2071.000000	100.056966
2070.000000	100.135969
2069.000000	100.081662
2068.000000	100.099712
2067.000000	99.987043
2066.000000	99.987247
2065.000000	100.060547
2064.000000	100.065616
2063.000000	99.973588
2062.000000	99.944338
2061.000000	99.996863
2060.000000	99.997571
2059.000000	99.990992
2058.000000	100.029751
2057.000000	100.007085
2056.000000	100.002530
2055.000000	100.010324
2054.000000	100.028142
2053.000000	100.084647
2052.000000	100.060746
2051.000000	100.075728
2050.000000	100.074255
2049.000000	100.052063
2048.000000	100.090055
2047.000000	100.029777
2046.000000	100.033932
2045.000000	99.988359
2044.000000	99.930282
2043.000000	100.033919
2042.000000	99.998785
2041.000000	99.950895
2040.000000	99.959291
2039.000000	100.028875
2038.000000	100.049138
2037.000000	99.904948
2036.000000	99.933463
2035.000000	100.044907
2034.000000	100.086987
2033.000000	100.018147
2032.000000	100.007099
2031.000000	100.015610
2030.000000	99.925040
2029.000000	99.926746
2028.000000	99.999696
2027.000000	100.012163
2026.000000	100.023011
2025.000000	100.031533
2024.000000	100.019263
2023.000000	100.050696
2022.000000	100.080835
2021.000000	100.050322
2020.000000	100.034087
2019.000000	100.032247
2018.000000	100.018457
2017.000000	100.019576
2016.000000	100.028403
2015.000000	99.998985
2014.000000	99.934785
2013.000000	99.982351
2012.000000	100.019782
2011.000000	99.988941
2010.000000	99.981024
2009.000000	100.017052
2008.000000	100.002538
2007.000000	99.981026
2006.000000	100.022327
2005.000000	100.055625
2004.000000	100.029239
2003.000000	100.003045
2002.000000	100.048528
2001.000000	100.060412
2000.000000	99.991067
1999.000000	100.015738
1998.000000	100.012587
1997.000000	100.010352
1996.000000	100.009543
1995.000000	100.008328
1994.000000	100.003655
1993.000000	100.044995
1992.000000	100.041646
1991.000000	100.015033
1990.000000	100.058014
1989.000000	100.065537
1988.000000	100.042984
1987.000000	100.025705
1986.000000	100.003453
1985.000000	99.985173
1984.000000	99.997664
1983.000000	100.003453
1982.000000	100.027327
1981.000000	100.048664
1980.000000	99.989539
1979.000000	99.991164
1978.000000	100.009145
1977.000000	100.011379
1976.000000	99.981006
1975.000000	99.994616
1974.000000	100.047055
1973.000000	100.022561
1972.000000	100.048879
1971.000000	100.026416
1970.000000	99.993398
1969.000000	99.969939
1968.000000	100.007617
1967.000000	100.001828
1966.000000	100.022651
1965.000000	100.000711
1964.000000	100.003047
1963.000000	99.968516
1962.000000	99.951251
1961.000000	99.986191
1960.000000	100.007921
1959.000000	100.032504
1958.000000	99.987101
1957.000000	100.061351
1956.000000	100.033818
1955.000000	100.029858
1954.000000	100.026399
1953.000000	100.028519
1952.000000	99.986197
1951.000000	99.963675
1950.000000	100.013502
1949.000000	99.988123
1948.000000	100.019392
1947.000000	99.943676
1946.000000	100.019483
1945.000000	100.044860
1944.000000	100.066488
1943.000000	100.064561
1942.000000	100.041501
1941.000000	99.942200
1940.000000	99.925209
1939.000000	99.978000
1938.000000	99.990264
1937.000000	100.060733
1936.000000	100.009631
1935.000000	99.991282
1934.000000	99.979121
1933.000000	100.027387
1932.000000	99.951863
1931.000000	100.076970
1930.000000	100.055228
1929.000000	100.061027
1928.000000	100.070261
1927.000000	100.022305
1926.000000	100.107374
1925.000000	99.947639
1924.000000	100.000709
1923.000000	99.967485
1922.000000	99.979743
1921.000000	100.041663
1920.000000	99.908643
1919.000000	99.965051
1918.000000	99.958366
1917.000000	100.088459
1916.000000	99.901589
1915.000000	100.031009
1914.000000	100.080389
1913.000000	100.029493
1912.000000	100.026044
1911.000000	100.002837
1910.000000	100.060837
1909.000000	100.057488
1908.000000	100.021697
1907.000000	100.018051
1906.000000	100.028390
1905.000000	100.032337
1904.000000	100.023826
1903.000000	99.942705
1902.000000	100.030826
1901.000000	99.978916
1900.000000	99.977501
1899.000000	99.958324
1898.000000	99.967350
1897.000000	99.960547
1896.000000	100.014603
1895.000000	99.948189
1894.000000	100.001724
1893.000000	100.041086
1892.000000	99.969469
1891.000000	99.977177
1890.000000	100.038050
1889.000000	100.055805
1888.000000	100.018058
1887.000000	99.936869
1886.000000	99.970916
1885.000000	100.015098
1884.000000	100.014693
1883.000000	100.012462
1882.000000	99.983082
1881.000000	100.014382
1880.000000	100.046805
1879.000000	100.026235
1878.000000	100.089032
1877.000000	100.024306
1876.000000	99.979046
1875.000000	100.007796
1874.000000	99.996458
1873.000000	99.976220
1872.000000	99.956999
1871.000000	99.987146
1870.000000	99.944463
1869.000000	100.006882
1868.000000	99.966707
1867.000000	100.093183
1866.000000	100.057223
1865.000000	99.966797
1864.000000	99.984806
1863.000000	100.016809
1862.000000	100.053682
1861.000000	100.043453
1860.000000	100.007700
1859.000000	100.042761
1858.000000	100.010738
1857.000000	99.968007
1856.000000	99.971247
1855.000000	99.991493
1854.000000	100.003950
1853.000000	99.986937
1852.000000	100.000101
1851.000000	100.021269
1850.000000	99.974684
1849.000000	99.952013
1848.000000	100.011442
1847.000000	99.974483
1846.000000	99.946242
1845.000000	99.976813
1844.000000	99.988051
1843.000000	100.011442
1842.000000	99.984711
1841.000000	99.960408
1840.000000	99.987646
1839.000000	100.021269
1838.000000	100.016408
1837.000000	100.007090
1836.000000	100.029688
1835.000000	100.024019
1834.000000	99.992400
1833.000000	99.990678
1832.000000	99.999595
1831.000000	99.980134
1830.000000	99.980136
1829.000000	99.996249
1828.000000	100.028496
1827.000000	100.001622
1826.000000	99.963404
1825.000000	99.998682
1824.000000	100.004158
1823.000000	99.977392
1822.000000	100.004868
1821.000000	100.038641
1820.000000	100.043821
1819.000000	100.026984
1818.000000	100.020999
1817.000000	100.012985
1816.000000	100.012378
1815.000000	99.989549
1814.000000	99.957087
1813.000000	99.976361
1812.000000	99.996347
1811.000000	100.011569
1810.000000	100.024460
1809.000000	100.014818
1808.000000	100.025783
1807.000000	100.035635
1806.000000	100.009848
1805.000000	99.987413
1804.000000	99.974014
1803.000000	99.990762
1802.000000	100.008630
1801.000000	100.017768
1800.000000	100.028022
1799.000000	100.011067
1798.000000	100.002944
1797.000000	99.995736
1796.000000	99.992995
1795.000000	99.998680
1794.000000	99.996548
1793.000000	99.991368
1792.000000	100.032096
1791.000000	100.033723
1790.000000	99.986493
1789.000000	99.996445
1788.000000	99.987203
1787.000000	99.986188
1786.000000	99.988525
1785.000000	99.999086
1784.000000	100.007211
1783.000000	100.003656
1782.000000	99.985276
1781.000000	99.985886
1780.000000	99.971566
1779.000000	99.983242
1778.000000	100.011985
1777.000000	100.002335
1776.000000	100.034327
1775.000000	100.004773
1774.000000	99.990148
1773.000000	100.024892
1772.000000	99.997258
1771.000000	100.014015
1770.000000	100.002031
1769.000000	99.980203
1768.000000	100.006905
1767.000000	100.008022
1766.000000	100.023055
1765.000000	99.995735
1764.000000	100.016960
1763.000000	100.028645
1762.000000	99.990657
1761.000000	99.994618
1760.000000	99.985987
1759.000000	100.033618
1758.000000	100.010256
1757.000000	99.970250
1756.000000	100.016247
1755.000000	100.032804
1754.000000	99.990149
1753.000000	99.956850
1752.000000	99.961932
1751.000000	99.987816
1750.000000	99.986192
1749.000000	99.978275
1748.000000	99.991167
1747.000000	99.994822
1746.000000	99.991776
1745.000000	100.023255
1744.000000	99.998883
1743.000000	100.015031
1742.000000	99.981725
1741.000000	100.023557
1740.000000	99.995735
1739.000000	99.997055
1738.000000	99.995837
1737.000000	99.986195
1736.000000	100.002336
1735.000000	99.984162
1734.000000	99.986700
1733.000000	100.003249
1732.000000	99.980708
1731.000000	100.008428
1730.000000	99.978275
1729.000000	99.975536
1728.000000	100.021632
1727.000000	99.996344
1726.000000	100.039811
1725.000000	99.998274
1724.000000	100.030260
1723.000000	100.034934
1722.000000	99.998680
1721.000000	99.985178
1720.000000	99.984468
1719.000000	99.974411
1718.000000	100.000000
1717.000000	100.038586
1716.000000	100.010966
1715.000000	99.986395
1714.000000	100.011674
1713.000000	100.019897
1712.000000	99.990761
1711.000000	99.968942
1710.000000	100.001218
1709.000000	100.003147
1708.000000	99.995229
1707.000000	100.005380
1706.000000	100.023144
1705.000000	100.042838
1704.000000	99.969852
1703.000000	99.982537
1702.000000	99.959612
1701.000000	100.025284
1700.000000	99.986500
1699.000000	100.005989
1698.000000	100.018476
1697.000000	100.039702
1696.000000	99.989543
1695.000000	99.993300
1694.000000	100.042544
1693.000000	100.010863
1692.000000	99.977162
1691.000000	99.981019
1690.000000	99.998274
1689.000000	99.983761
1688.000000	99.990053
1687.000000	100.001421
1686.000000	100.026803
1685.000000	99.984168
1684.000000	99.990052
1683.000000	99.999899
1682.000000	100.012486
1681.000000	99.996448
1680.000000	99.974217
1679.000000	99.995939
1678.000000	99.987109
1677.000000	99.946018
1676.000000	100.019694
1675.000000	100.019696
1674.000000	99.999188
1673.000000	100.000914
1672.000000	100.012591
1671.000000	100.004772
1670.000000	99.990662
1669.000000	100.002841
1668.000000	99.958209
1667.000000	99.968148
1666.000000	100.005580
1665.000000	100.006494
1664.000000	99.997666
1663.000000	99.993101
1662.000000	100.017047
1661.000000	100.018670
1660.000000	100.012481
1659.000000	100.020289
1658.000000	100.025876
1657.000000	99.987522
1656.000000	100.013698
1655.000000	100.021307
1654.000000	100.002131
1653.000000	100.013191
1652.000000	100.012074
1651.000000	100.013595
1650.000000	100.026684
1649.000000	99.997463
1648.000000	99.999594
1647.000000	100.016234
1646.000000	100.007914
1645.000000	100.019177
1644.000000	100.005682
1643.000000	100.008321
1642.000000	99.993710
1641.000000	100.017350
1640.000000	99.990362
1639.000000	99.969263
1638.000000	99.994217
1637.000000	100.015930
1636.000000	100.030136
1635.000000	100.016743
1634.000000	100.008219
1633.000000	100.030443
1632.000000	100.040692
1631.000000	100.007306
1630.000000	99.975448
1629.000000	100.000609
1628.000000	100.019281
1627.000000	99.998580
1626.000000	99.999797
1625.000000	99.997666
1624.000000	100.006798
1623.000000	100.004058
1622.000000	99.987420
1621.000000	99.985798
1620.000000	100.006290
1619.000000	100.003957
1618.000000	100.010146
1617.000000	100.020395
1616.000000	100.016335
1615.000000	100.000406
1614.000000	100.010552
1613.000000	99.999188
1612.000000	99.985494
1611.000000	99.982148
1610.000000	99.998580
1609.000000	100.013392
1608.000000	99.997058
1607.000000	99.984376
1606.000000	100.000203
1605.000000	100.014103
1604.000000	100.008217
1603.000000	100.003753
1602.000000	100.007305
1601.000000	100.006087
1600.000000	99.996754
1599.000000	99.998783
1598.000000	99.997971
1597.000000	100.002232
1596.000000	99.987422
1595.000000	99.991683
1594.000000	100.003956
1593.000000	99.991276
1592.000000	100.015115
1591.000000	100.022724
1590.000000	100.007000
1589.000000	99.985290
1588.000000	99.990160
1587.000000	100.004869
1586.000000	99.989856
1585.000000	99.989146
1584.000000	100.007609
1583.000000	99.998681
1582.000000	99.984077
1581.000000	99.979006
1580.000000	99.985902
1579.000000	100.002536
1578.000000	100.007505
1577.000000	100.016433
1576.000000	100.009433
1575.000000	99.997971
1574.000000	100.003855
1573.000000	100.006999
1572.000000	100.012579
1571.000000	100.006188
1570.000000	100.007202
1569.000000	100.002739
1568.000000	100.004767
1567.000000	99.988236
1566.000000	99.997160
1565.000000	100.001826
1564.000000	99.997972
1563.000000	100.007404
1562.000000	100.002434
1561.000000	99.996755
1560.000000	100.012983
1559.000000	100.004057
1558.000000	99.991583
1557.000000	100.003752
1556.000000	100.010548
1555.000000	100.011563
1554.000000	100.024647
1553.000000	100.028502
1552.000000	100.009634
1551.000000	99.995437
1550.000000	99.994220
1549.000000	99.997363
1548.000000	99.998682
1547.000000	100.002028
1546.000000	100.010851
1545.000000	100.001623
1544.000000	100.001825
1543.000000	100.009533
1542.000000	100.013185
1541.000000	99.995335
1540.000000	99.988136
1539.000000	100.007099
1538.000000	100.007302
1537.000000	99.997769
1536.000000	99.970802
1535.000000	99.980432
1534.000000	100.010648
1533.000000	100.018966
1532.000000	100.017951
1531.000000	100.014502
1530.000000	100.008520
1529.000000	100.016127
1528.000000	100.012575
1527.000000	100.000608
1526.000000	99.999594
1525.000000	100.002840
1524.000000	99.992394
1523.000000	100.007708
1522.000000	100.010243
1521.000000	100.019981
1520.000000	100.005375
1519.000000	100.038349
1518.000000	99.995435
1517.000000	99.990872
1516.000000	100.005275
1515.000000	99.983567
1514.000000	99.996754
1513.000000	99.995943
1512.000000	100.004260
1511.000000	99.988438
1510.000000	100.006796
1509.000000	100.020296
1508.000000	99.998276
1507.000000	100.012985
1506.000000	100.006087
1505.000000	99.984785
1504.000000	99.997160
1503.000000	99.987928
1502.000000	99.997362
1501.000000	100.013087
1500.000000	100.012681
1499.000000	100.014708
1498.000000	100.008420
1497.000000	100.018160
1496.000000	100.002333
1495.000000	100.005072
1494.000000	100.024245
1493.000000	100.009839
1492.000000	100.008824
1491.000000	100.013084
1490.000000	99.989553
1489.000000	100.020490
1488.000000	100.001724
1487.000000	99.993306
1486.000000	99.999087
1485.000000	99.994828
1484.000000	99.999087
1483.000000	100.023327
1482.000000	99.996856
1481.000000	100.016426
1480.000000	99.987732
1479.000000	99.990368
1478.000000	100.021395
1477.000000	100.028294
1476.000000	100.010850
1475.000000	100.001724
1474.000000	99.973949
1473.000000	99.994627
1472.000000	100.019976
1471.000000	100.003346
1470.000000	100.002129
1469.000000	100.010038
1468.000000	99.999087
1467.000000	100.020992
1466.000000	100.015514
1465.000000	99.999392
1464.000000	100.003245
1463.000000	99.987932
1462.000000	99.992902
1461.000000	100.006084
1460.000000	100.015208
1459.000000	100.019065
1458.000000	100.016533
1457.000000	99.985502
1456.000000	100.007707
1455.000000	100.016223
1454.000000	100.020991
1453.000000	99.991078
1452.000000	100.022611
1451.000000	100.015512
1450.000000	100.013687
1449.000000	100.005374
1448.000000	100.004968
1447.000000	99.996756
1446.000000	99.988849
1445.000000	100.001318
1444.000000	100.015612
1443.000000	100.023419
1442.000000	100.000912
1441.000000	99.974256
1440.000000	100.001014
1439.000000	100.023318
1438.000000	100.022099
1437.000000	100.016220
1436.000000	100.017029
1435.000000	100.011049
1434.000000	99.999696
1433.000000	100.011049
1432.000000	100.013582
1431.000000	100.022707
1430.000000	99.987535
1429.000000	99.991691
1428.000000	100.001013
1427.000000	99.992198
1426.000000	99.994833
1425.000000	99.984702
1424.000000	100.004863
1423.000000	100.006281
1422.000000	100.001823
1421.000000	100.016308
1420.000000	100.007697
1419.000000	99.999392
1418.000000	99.995242
1417.000000	100.025918
1416.000000	100.043030
1415.000000	100.019335
1414.000000	100.004655
1413.000000	100.021653
1412.000000	100.017098
1411.000000	99.997775
1410.000000	99.993629
1409.000000	100.001821
1408.000000	100.010721
1407.000000	100.007482
1406.000000	99.999798
1405.000000	100.008895
1404.000000	100.004649
1403.000000	100.014150
1402.000000	100.004346
1401.000000	100.017889
1400.000000	100.017482
1399.000000	100.015156
1398.000000	100.010911
1397.000000	100.007274
1396.000000	100.027984
1395.000000	100.013231
1394.000000	99.993031
1393.000000	100.002828
1392.000000	99.996567
1391.000000	99.993740
1390.000000	99.995759
1389.000000	100.006160
1388.000000	100.026865
1387.000000	99.998889
1386.000000	99.987782
1385.000000	99.999293
1384.000000	100.014743
1383.000000	100.029690
1382.000000	100.020094
1381.000000	100.017570
1380.000000	100.014947
1379.000000	100.015756
1378.000000	100.031007
1377.000000	100.028888
1376.000000	100.012523
1375.000000	100.001212
1374.000000	99.993235
1373.000000	100.002323
1372.000000	100.017270
1371.000000	99.998182
1370.000000	99.986773
1369.000000	99.996264
1368.000000	100.000707
1367.000000	100.012924
1366.000000	100.006158
1365.000000	100.003130
1364.000000	99.993034
1363.000000	99.976178
1362.000000	99.986878
1361.000000	99.997476
1360.000000	100.006563
1359.000000	100.015656
1358.000000	100.021014
1357.000000	100.024348
1356.000000	100.006265
1355.000000	99.983932
1354.000000	99.997473
1353.000000	100.009707
1352.000000	100.016178
1351.000000	100.012137
1350.000000	99.994538
1349.000000	99.998078
1348.000000	99.997370
1347.000000	99.990388
1346.000000	100.010422
1345.000000	100.011334
1344.000000	100.011537
1343.000000	100.023073
1342.000000	100.006173
1341.000000	100.013864
1340.000000	100.003845
1339.000000	100.008400
1338.000000	100.000708
1337.000000	100.010929
1336.000000	100.003137
1335.000000	99.995447
1334.000000	99.993929
1333.000000	99.998786
1332.000000	100.036025
1331.000000	99.993322
1330.000000	99.987758
1329.000000	99.993019
1328.000000	100.006373
1327.000000	100.017203
1326.000000	100.020439
1325.000000	100.026813
1324.000000	100.017811
1323.000000	100.028437
1322.000000	100.027523
1321.000000	100.018418
1320.000000	100.010117
1319.000000	100.001619
1318.000000	99.989072
1317.000000	100.013255
1316.000000	100.006375
1315.000000	100.001721
1314.000000	100.003541
1313.000000	99.998988
1312.000000	99.999696
1311.000000	99.993524
1310.000000	100.032994
1309.000000	100.017513
1308.000000	99.992510
1307.000000	100.005870
1306.000000	99.983607
1305.000000	99.995749
1304.000000	99.994230
1303.000000	99.993117
1302.000000	99.993218
1301.000000	99.984717
1300.000000	100.020854
1299.000000	100.005567
1298.000000	100.001720
1297.000000	99.994838
1296.000000	99.998684
1295.000000	99.978546
1294.000000	100.001923
1293.000000	99.997267
1292.000000	99.986945
1291.000000	100.005567
1290.000000	100.005870
1289.000000	99.998482
1288.000000	100.004857
1287.000000	99.985533
1286.000000	100.005564
1285.000000	99.991098
1284.000000	99.998786
1283.000000	100.006778
1282.000000	99.998281
1281.000000	100.009003
1280.000000	99.997977
1279.000000	99.991506
1278.000000	100.004652
1277.000000	100.007483
1276.000000	100.013449
1275.000000	100.023665
1274.000000	100.012133
1273.000000	100.020018
1272.000000	99.978469
1271.000000	100.001314
1270.000000	99.994441
1269.000000	100.006065
1268.000000	100.010006
1267.000000	99.993632
1266.000000	100.027086
1265.000000	99.980295
1264.000000	99.991913
1263.000000	99.999697
1262.000000	99.988177
1261.000000	99.993836
1260.000000	100.000101
1259.000000	100.001617
1258.000000	99.992115
1257.000000	100.003133
1256.000000	100.028805
1255.000000	100.016171
1254.000000	100.026277
1253.000000	100.002223
1252.000000	100.008994
1251.000000	100.003840
1250.000000	100.007580
1249.000000	100.006064
1248.000000	99.993634
1247.000000	99.996766
1246.000000	99.991009
1245.000000	99.992321
1244.000000	100.017078
1243.000000	99.991513
1242.000000	99.979393
1241.000000	100.000606
1240.000000	99.996364
1239.000000	99.991818
1238.000000	100.000202
1237.000000	100.018078
1236.000000	100.001616
1235.000000	99.999293
1234.000000	99.970524
1233.000000	99.991723
1232.000000	99.989502
1231.000000	99.996972
1230.000000	100.022311
1229.000000	100.002523
1228.000000	99.990111
1227.000000	100.031987
1226.000000	100.021187
1225.000000	100.006859
1224.000000	100.025828
1223.000000	100.012103
1222.000000	99.990420
1221.000000	99.985984
1220.000000	99.984473
1219.000000	99.997883
1218.000000	99.999395
1217.000000	99.987601
1216.000000	100.015222
1215.000000	99.998387
1214.000000	100.009274
1213.000000	100.012401
1212.000000	100.004737
1211.000000	100.007358
1210.000000	100.003932
1209.000000	100.013505
1208.000000	100.009272
1207.000000	99.980952
1206.000000	99.984276
1205.000000	100.009977
1204.000000	100.017237
1203.000000	99.991635
1202.000000	100.016326
1201.000000	100.023281
1200.000000	100.026408
1199.000000	100.009677
1198.000000	100.008264
1197.000000	100.012496
1196.000000	100.008364
1195.000000	100.005039
1194.000000	100.003123
1193.000000	100.001108
1192.000000	100.002418
1191.000000	100.010478
1190.000000	100.010177
1189.000000	99.996171
1188.000000	99.994055
1187.000000	99.999295
1186.000000	100.000000
1185.000000	99.998489
1184.000000	99.990429
1183.000000	100.006448
1182.000000	100.007253
1181.000000	99.999093
1180.000000	100.001611
1179.000000	100.000806
1178.000000	100.003726
1177.000000	100.011379
1176.000000	100.012787
1175.000000	100.021750
1174.000000	100.028492
1173.000000	100.013286
1172.000000	100.007347
1171.000000	100.011473
1170.000000	100.004729
1169.000000	99.994466
1168.000000	99.999296
1167.000000	100.000704
1166.000000	99.990746
1165.000000	99.992658
1164.000000	100.008046
1163.000000	100.002715
1162.000000	99.991153
1161.000000	100.003016
1160.000000	100.011460
1159.000000	99.994372
1158.000000	99.973171
1157.000000	99.983521
1156.000000	100.007738
1155.000000	100.007335
1154.000000	100.000402
1153.000000	100.012255
1152.000000	100.019588
1151.000000	100.000502
1150.000000	99.995079
1149.000000	100.006025
1148.000000	100.007429
1147.000000	100.015659
1146.000000	100.008030
1145.000000	99.993377
1144.000000	99.993880
1143.000000	100.001405
1142.000000	100.011537
1141.000000	100.004113
1140.000000	100.007523
1139.000000	100.010029
1138.000000	100.020258
1137.000000	100.022864
1136.000000	100.004612
1135.000000	99.993284
1134.000000	100.008820
1133.000000	99.993887
1132.000000	99.986576
1131.000000	99.999299
1130.000000	100.011420
1129.000000	100.008113
1128.000000	100.001302
1127.000000	99.993391
1126.000000	99.997797
1125.000000	100.009912
1124.000000	100.006107
1123.000000	99.999199
1122.000000	100.004704
1121.000000	100.010709
1120.000000	100.032729
1119.000000	100.017614
1118.000000	100.010206
1117.000000	99.998199
1116.000000	99.993298
1115.000000	99.992699
1114.000000	100.007701
1113.000000	100.002700
1112.000000	100.006599
1111.000000	100.004199
1110.000000	99.983307
1109.000000	99.990605
1108.000000	100.017991
1107.000000	100.005397
1106.000000	100.014389
1105.000000	100.011190
1104.000000	99.993009
1103.000000	100.010887
1102.000000	99.993609
1101.000000	99.984426
1100.000000	99.998303
1099.000000	100.011579
1098.000000	100.001696
1097.000000	99.988726
1096.000000	99.994014
1095.000000	99.972172
1094.000000	99.980453
1093.000000	99.985542
1092.000000	100.002493
1091.000000	99.996511
1090.000000	100.008871
1089.000000	100.007175
1088.000000	99.994420
1087.000000	100.008967
1086.000000	100.024207
1085.000000	100.010954
1084.000000	100.016827
1083.000000	100.006471
1082.000000	100.009455
1081.000000	100.005076
1080.000000	100.004278
1079.000000	100.000895
1078.000000	100.012433
1077.000000	100.003778
1076.000000	100.004176
1075.000000	99.997217
1074.000000	99.992845
1073.000000	99.999702
1072.000000	100.013115
1071.000000	100.013311
1070.000000	100.006951
1069.000000	100.002680
1068.000000	100.011415
1067.000000	99.997519
1066.000000	100.005854
1065.000000	99.995239
1064.000000	99.990875
1063.000000	99.999802
1062.000000	100.002280
1061.000000	100.008524
1060.000000	99.994848
1059.000000	100.007431
1058.000000	100.029623
1057.000000	100.011291
1056.000000	99.989506
1055.000000	99.998614
1054.000000	100.026426
1053.000000	100.010787
1052.000000	100.018896
1051.000000	99.992780
1050.000000	100.052910
1049.000000	100.007611
1048.000000	100.019767
1047.000000	99.985675
1046.000000	100.000296
1045.000000	99.971070
1044.000000	99.967920
1043.000000	99.996052
1042.000000	100.008685
1041.000000	100.002861
1040.000000	100.005820
1039.000000	99.996845
1038.000000	100.002563
1037.000000	100.000394
1036.000000	99.994089
1035.000000	99.986605
1034.000000	100.006204
1033.000000	99.999212
1032.000000	100.005020
1031.000000	100.019977
1030.000000	99.980229
1029.000000	99.988202
1028.000000	99.995478
1027.000000	100.011695
1026.000000	100.012477
1025.000000	100.007563
1024.000000	100.016595
1023.000000	100.006969
1022.000000	100.009126
1021.000000	99.985387
1020.000000	100.004805
1019.000000	99.998726
1018.000000	100.018720
1017.000000	100.004311
1016.000000	99.996670
1015.000000	100.016448
1014.000000	99.998630
1013.000000	100.007143
1012.000000	100.039620
1011.000000	99.995112
1010.000000	100.001368
1009.000000	99.988569
1008.000000	100.020316
1007.000000	100.010057
1006.000000	100.018545
1005.000000	100.006146
1004.000000	99.989469
1003.000000	99.983137
1002.000000	99.996492
1001.000000	100.004676
1000.000000	100.002629
999.000000	100.015576
998.000000	100.010899
997.000000	100.006809
996.000000	100.010501
995.000000	99.999223
994.000000	100.000972
993.000000	100.007866
992.000000	99.995826
991.000000	100.002716
990.000000	99.997284
989.000000	100.017162
988.000000	100.001357
987.000000	99.988666
986.000000	100.003680
985.000000	100.014133
984.000000	99.994001
983.000000	99.999807
982.000000	99.998550
981.000000	99.994879
980.000000	100.002125
979.000000	99.991986
978.000000	100.008493
977.000000	100.032130
976.000000	100.010222
975.000000	100.015903
974.000000	100.005492
973.000000	100.001348
972.000000	100.004043
971.000000	100.017511
970.000000	100.010579
969.000000	100.011150
968.000000	100.015181
967.000000	100.012099
966.000000	100.014205
965.000000	100.001919
964.000000	99.992617
963.000000	100.004121
962.000000	100.002107
961.000000	100.007372
960.000000	100.008706
959.000000	100.008989
958.000000	100.004683
957.000000	100.013183
956.000000	100.013939
955.000000	100.001145
954.000000	100.000381
953.000000	100.002859
952.000000	99.995999
951.000000	100.007712
950.000000	100.021317
949.000000	100.027677
948.000000	100.023381
947.000000	100.003609
946.000000	100.000759
945.000000	100.014514
944.000000	100.011092
943.000000	100.010327
942.000000	99.998107
941.000000	99.982783
940.000000	99.991112
939.000000	99.989133
938.000000	99.991879
937.000000	100.004906
936.000000	100.015183
935.000000	99.988034
934.000000	99.997269
933.000000	100.023810
932.000000	99.991067
931.000000	99.987502
930.000000	100.003945
929.000000	100.004412
928.000000	99.994373
927.000000	99.998875
926.000000	99.995879
925.000000	99.971272
924.000000	99.969040
923.000000	99.987754
922.000000	99.963212
921.000000	99.975831
920.000000	100.010262
919.000000	100.013237
918.000000	100.002142
917.000000	99.980833
916.000000	99.960304
915.000000	99.978635
914.000000	100.005384
913.000000	100.029962
912.000000	100.010194
911.000000	99.996945
910.000000	99.984180
909.000000	99.981328
908.000000	99.982915
907.000000	99.986346
906.000000	99.959353
905.000000	99.967760
904.000000	100.020712
903.000000	100.055848
902.000000	100.011029
901.000000	100.018087
900.000000	99.991930
899.000000	100.018235
898.000000	99.987366
897.000000	100.025885
896.000000	99.985472
895.000000	99.999817
894.000000	99.998906
893.000000	99.971945
892.000000	99.969702
891.000000	99.938461
890.000000	99.954591
889.000000	99.951996
888.000000	99.957009
887.000000	100.030914
886.000000	99.992487
885.000000	99.984900
884.000000	100.073141
883.000000	100.053552
882.000000	99.934469
881.000000	99.991624
880.000000	100.029530
879.000000	99.983543
878.000000	99.959772
877.000000	99.974518
876.000000	99.960562
875.000000	99.974038
874.000000	100.118751
873.000000	99.883946
872.000000	99.986334
871.000000	99.958045
870.000000	99.940052
869.000000	100.014530
868.000000	99.979609
867.000000	100.040313
866.000000	99.998490
865.000000	99.992102
864.000000	100.084437
863.000000	100.039989
862.000000	99.867194
861.000000	99.866430
860.000000	99.900597
859.000000	99.726630
858.000000	99.941564
857.000000	100.238981
856.000000	100.102567
855.000000	99.493768
854.000000	99.676488
853.000000	99.704276
852.000000	99.438801
851.000000	100.070613
850.000000	99.548210
849.000000	100.199118
848.000000	99.906467
847.000000	99.961590
846.000000	99.844273
845.000000	99.895982
844.000000	99.867322
843.000000	99.727556
842.000000	99.827856
841.000000	99.979371
840.000000	100.291056
839.000000	100.208539
838.000000	100.111490
837.000000	100.103057
836.000000	99.977174
835.000000	99.786014
834.000000	100.149741
833.000000	100.017403
832.000000	99.940750
831.000000	100.030004
830.000000	99.930245
829.000000	99.961326
828.000000	99.828450
827.000000	99.844849
826.000000	99.936326
825.000000	99.559954
824.000000	100.077376
823.000000	100.017273
822.000000	100.133278
821.000000	100.013237
820.000000	100.068883
819.000000	99.824704
818.000000	100.004293
817.000000	99.917102
816.000000	100.105946
815.000000	99.937967
814.000000	99.951093
813.000000	99.894004
812.000000	100.196091
811.000000	99.926174
810.000000	100.032013
809.000000	99.976404
808.000000	99.935135
807.000000	100.079761
806.000000	100.150074
805.000000	99.912898
804.000000	100.043358
803.000000	100.044469
802.000000	100.133038
801.000000	99.897238
800.000000	100.209815
799.000000	100.066303
798.000000	100.165766
797.000000	99.993657
796.000000	100.049035
795.000000	99.973637
794.000000	99.794635
793.000000	99.913631
792.000000	99.734221
791.000000	99.903308
790.000000	100.010066
789.000000	100.028108
788.000000	99.962026
787.000000	99.829667
786.000000	99.940027
785.000000	99.921556
784.000000	99.806935
783.000000	99.975639
782.000000	99.994330
781.000000	100.030060
780.000000	99.969213
779.000000	99.973196
778.000000	99.994316
777.000000	100.050479
776.000000	100.014039
775.000000	99.933137
774.000000	99.997955
773.000000	99.959950
772.000000	99.896556
771.000000	100.178930
770.000000	100.016498
769.000000	99.994655
768.000000	99.977804
767.000000	100.006960
766.000000	99.880129
765.000000	100.040285
764.000000	99.953101
763.000000	99.919496
762.000000	99.970846
761.000000	99.939795
760.000000	100.040571
759.000000	100.117247
758.000000	100.005199
757.000000	99.952220
756.000000	99.973994
755.000000	99.997667
754.000000	100.016433
753.000000	100.120267
752.000000	99.939738
751.000000	99.993708
750.000000	100.062626
749.000000	100.040243
748.000000	99.937084
747.000000	99.992706
746.000000	100.098060
745.000000	100.114033
744.000000	100.150791
743.000000	100.082313
742.000000	99.962098
741.000000	100.085970
740.000000	100.089324
739.000000	99.959179
738.000000	100.006418
737.000000	99.982183
736.000000	99.991408
735.000000	99.953878
734.000000	99.923630
733.000000	100.007335
732.000000	100.030720
731.000000	99.984322
730.000000	99.979695
729.000000	99.927876
728.000000	99.938555
727.000000	100.023954
726.000000	100.065807
725.000000	99.876873
724.000000	99.881357
723.000000	100.023520
722.000000	100.033993
721.000000	100.003000
720.000000	99.926558
719.000000	99.935171
718.000000	99.949263
717.000000	99.957054
716.000000	99.929841
715.000000	100.020207
714.000000	100.108907
713.000000	100.069161
712.000000	100.006474
711.000000	99.982768
710.000000	99.945832
709.000000	99.891587
708.000000	99.926246
707.000000	100.002463
706.000000	100.059162
705.000000	99.981372
704.000000	99.936701
703.000000	99.976243
702.000000	100.041775
701.000000	99.970021
700.000000	99.901025
699.000000	100.044007
698.000000	99.975033
697.000000	99.817387
696.000000	99.961765
695.000000	99.993777
694.000000	100.003938
693.000000	100.000458
692.000000	99.940205
691.000000	99.948734
690.000000	99.962181
689.000000	100.034074
688.000000	99.987463
687.000000	99.985537
686.000000	100.069271
685.000000	100.010902
684.000000	99.940002
683.000000	99.970138
682.000000	99.938802
681.000000	99.917067
680.000000	99.998899
679.000000	100.064514
678.000000	100.013758
677.000000	99.990000
676.000000	99.996422
675.000000	99.912558
674.000000	99.941078
673.000000	99.935110
672.000000	99.971822
671.000000	99.975302
670.000000	99.903022
669.000000	99.870591
668.000000	99.915420
667.000000	100.045508
666.000000	100.061715
665.000000	100.021606
664.000000	99.958166
663.000000	100.011038
662.000000	100.048953
661.000000	99.944904
660.000000	99.984084
659.000000	100.014814
658.000000	99.995674
657.000000	100.020718
656.000000	100.010680
655.000000	99.925063
654.000000	99.992815
653.000000	99.989408
652.000000	100.021377
651.000000	99.908887
650.000000	99.954388
649.000000	99.973277
648.000000	100.038907
647.000000	99.947641
646.000000	99.861148
645.000000	99.905151
644.000000	99.988470
643.000000	99.981635
642.000000	99.881722
641.000000	99.949816
640.000000	99.986432
639.000000	99.952736
638.000000	99.984305
637.000000	99.959001
636.000000	99.968511
635.000000	99.994919
634.000000	99.989096
633.000000	99.985952
632.000000	99.899364
631.000000	100.044659
630.000000	100.026165
629.000000	100.013407
628.000000	99.999168
627.000000	100.011286
626.000000	100.060441
625.000000	99.979922
624.000000	99.985011
623.000000	99.946072
622.000000	100.010736
621.000000	99.904503
620.000000	99.906609
619.000000	99.926351
618.000000	99.929295
617.000000	100.017689
616.000000	100.020660
615.000000	99.966652
614.000000	99.990461
613.000000	100.035587
612.000000	100.027708
611.000000	100.013805
610.000000	100.018723
609.000000	99.970249
608.000000	100.054787
607.000000	99.995737
606.000000	99.989716
605.000000	99.958181
604.000000	99.974588
603.000000	100.032751
602.000000	100.071271
601.000000	100.037955
600.000000	100.061430
599.000000	99.978844
598.000000	99.942561
597.000000	100.041211
596.000000	100.076931
595.000000	100.019763
594.000000	100.030087
593.000000	100.054141
592.000000	99.962046
591.000000	99.958321
590.000000	99.951646
589.000000	99.933798
588.000000	100.022927
587.000000	99.959717
586.000000	99.973354
585.000000	99.970085
584.000000	99.892995
583.000000	99.877296
582.000000	100.014119
581.000000	100.024524
580.000000	99.978536
579.000000	100.005112
578.000000	99.988849
577.000000	100.006506
576.000000	100.050649
575.000000	100.032627
574.000000	99.909968
573.000000	100.003810
572.000000	99.928280
571.000000	99.939945
570.000000	100.076118
569.000000	99.990240
568.000000	99.965234
567.000000	100.037120
566.000000	99.983455
565.000000	100.019722
564.000000	99.950716
563.000000	100.091341
562.000000	100.038157
561.000000	99.954693
560.000000	99.923939
559.000000	99.859700
558.000000	100.027726
557.000000	100.044668
556.000000	100.011261
555.000000	100.024382
554.000000	99.957952
553.000000	99.932810
552.000000	100.003071
551.000000	99.965196
550.000000	99.975341
549.000000	99.963048
548.000000	99.963206
547.000000	99.928294
546.000000	99.959507
545.000000	99.951390
544.000000	99.994691
543.000000	100.028593
542.000000	100.009315
541.000000	100.014536
540.000000	99.922357
539.000000	99.941895
538.000000	100.026650
537.000000	100.001118
536.000000	99.923135
535.000000	99.929436
534.000000	100.000280
533.000000	99.900793
532.000000	99.878784
531.000000	99.968403
530.000000	100.013990
529.000000	100.007087
528.000000	99.982475
527.000000	99.959920
526.000000	99.981823
525.000000	99.968018
524.000000	99.979954
523.000000	100.021180
522.000000	99.988155
521.000000	99.960842
520.000000	100.007742
519.000000	99.977707
518.000000	99.946830
517.000000	99.996828
516.000000	99.985634
515.000000	99.988620
514.000000	100.037871
513.000000	100.024726
512.000000	99.943746
511.000000	99.951861
510.000000	100.005597
509.000000	100.001399
508.000000	100.028919
507.000000	99.981060
506.000000	99.961366
505.000000	99.973683
504.000000	99.980126
503.000000	99.995615
502.000000	100.035831
501.000000	100.041819
500.000000	99.960146
499.000000	100.014472
498.000000	100.023336
497.000000	99.989920
496.000000	99.944111
495.000000	99.884119
494.000000	99.927832
493.000000	100.072308
492.000000	100.083980
491.000000	100.093669
490.000000	100.014092
489.000000	100.029213
488.000000	99.980864
487.000000	99.971162
486.000000	99.956894
485.000000	99.980961
484.000000	100.017656
483.000000	99.981220
482.000000	99.987293
481.000000	100.008225
480.000000	99.957195
479.000000	99.942790
478.000000	99.967646
477.000000	99.965108
476.000000	100.012541
475.000000	100.077613
474.000000	100.031451
473.000000	99.973795
472.000000	99.963308
471.000000	99.977143
470.000000	100.035148
469.000000	99.994191
468.000000	99.980231
467.000000	99.991379
466.000000	100.020424
465.000000	100.004966
464.000000	99.948448
463.000000	99.993810
462.000000	99.968683
461.000000	99.971033
460.000000	99.987623
459.000000	99.984338
458.000000	100.000563
457.000000	99.977205
456.000000	99.977682
455.000000	99.997280
454.000000	100.061839
453.000000	100.056117
452.000000	100.075107
451.000000	100.058098
450.000000	100.023456
449.000000	100.015763
448.000000	99.961446
447.000000	99.960687
446.000000	100.023006
445.000000	100.046299
444.000000	100.010889
443.000000	99.999531
442.000000	99.930926
441.000000	99.911761
440.000000	99.947954
439.000000	99.932167
438.000000	99.985625
437.000000	99.995303
436.000000	100.039189
435.000000	100.024721
434.000000	99.979603
433.000000	100.018716
432.000000	100.024272
431.000000	99.925924
430.000000	99.916508
429.000000	99.975263
428.000000	99.970276
427.000000	99.931527
426.000000	99.992662
425.000000	100.003577
424.000000	99.974299
423.000000	100.011486
422.000000	99.936084
421.000000	99.960182
420.000000	100.036921
419.000000	100.029774
418.000000	99.961106
417.000000	99.940768
416.000000	99.893749
415.000000	99.929235
414.000000	99.963708
413.000000	99.954378
412.000000	99.928279
411.000000	99.889586
410.000000	99.847452
409.000000	100.001131
408.000000	99.869169
407.000000	100.017365
406.000000	100.066233
405.000000	99.871061
404.000000	99.937909
403.000000	100.006418
402.000000	99.908196
401.000000	99.936204
400.000000	99.982078
399.000000	100.065018
398.000000	100.109852
397.000000	100.056755
396.000000	99.959688
395.000000	99.981875
394.000000	100.131859
393.000000	99.924006
392.000000	99.965809
391.000000	100.013418
390.000000	99.987619
389.000000	99.837504
388.000000	99.921204
387.000000	99.998772
386.000000	99.905083
385.000000	99.850918
384.000000	100.003686
383.000000	100.088123
382.000000	100.039974
381.000000	100.085465
380.000000	99.977705
379.000000	99.790150
378.000000	100.307177
377.000000	100.055479
376.000000	100.298190
375.000000	99.991424
374.000000	100.083229
373.000000	99.961958
372.000000	99.953968
371.000000	99.763376
370.000000	99.751816
369.000000	99.836482
368.000000	100.072273
367.000000	99.739133
366.000000	99.991241
365.000000	99.886252
364.000000	99.790751
363.000000	100.107013
362.000000	100.206706
361.000000	100.136948
360.000000	100.300309
359.000000	99.944999
358.000000	99.909679
357.000000	100.032352
356.000000	99.935315
355.000000	100.136736
354.000000	99.780901
353.000000	99.945582
352.000000	99.850041
351.000000	100.078388
350.000000	100.086751
349.000000	100.031790
348.000000	99.889290
347.000000	99.941558
346.000000	100.045149
345.000000	100.079405
344.000000	99.853118
343.000000	100.236826
342.000000	99.910378
341.000000	99.875896
340.000000	99.943851
339.000000	100.091222
338.000000	100.106940
337.000000	100.169555
336.000000	100.276138
335.000000	100.423153
334.000000	100.084361
333.000000	100.311985
332.000000	99.899121
331.000000	100.224187
330.000000	99.757261
329.000000	99.952006
328.000000	99.888429
327.000000	100.255058
326.000000	100.153680
325.000000	100.545487
324.000000	99.964651
323.000000	99.378847
322.000000	100.164989
321.000000	99.889900
320.000000	99.639801
319.000000	100.086140
318.000000	99.950056
317.000000	99.978655
316.000000	100.006840
315.000000	100.178344
314.000000	100.097699
313.000000	99.978983
312.000000	100.009018
311.000000	99.837472
310.000000	100.148934
309.000000	100.076637
308.000000	99.730456
307.000000	99.856441
306.000000	99.898298
305.000000	99.667639
304.000000	100.028238
303.000000	99.958421
302.000000	100.053500
301.000000	99.788979
300.000000	100.012270
299.000000	99.997642
298.000000	99.962661
297.000000	100.185526
296.000000	99.926382
295.000000	99.905125
294.000000	99.820397
293.000000	99.623844
292.000000	99.795555
291.000000	100.136861
290.000000	100.064212
289.000000	100.006597
288.000000	100.073912
287.000000	100.158554
286.000000	100.070357
285.000000	99.855531
284.000000	99.853000
283.000000	100.152340
282.000000	99.729042
281.000000	99.648779
280.000000	99.756067
279.000000	99.660422
278.000000	99.881184
277.000000	99.790657
276.000000	100.177330
275.000000	100.055920
274.000000	99.791335
273.000000	99.880810
272.000000	100.206410
271.000000	100.062457
270.000000	99.757452
269.000000	99.967393
268.000000	99.879260
267.000000	99.964487
266.000000	100.027067
265.000000	100.245343
264.000000	100.207207
263.000000	99.995436
262.000000	99.807941
261.000000	99.726553
260.000000	99.964980
259.000000	100.228165
258.000000	100.071065
257.000000	99.727363
256.000000	99.810025
255.000000	99.888270
254.000000	100.159541
253.000000	100.317361
252.000000	100.209243
251.000000	100.164613
250.000000	100.013466
249.000000	99.928361
248.000000	100.208682
247.000000	100.021198
246.000000	99.752662
245.000000	99.896807
244.000000	100.022662
243.000000	99.966876
242.000000	99.970648
241.000000	100.074602
240.000000	99.798877
239.000000	99.780073
238.000000	100.109262
237.000000	100.165105
236.000000	99.863753
235.000000	99.784877
234.000000	100.051307
233.000000	100.086141
232.000000	99.932004
231.000000	99.619272
230.000000	99.995125
229.000000	100.046930
228.000000	99.883313
227.000000	99.886701
226.000000	99.909133
225.000000	99.957597
224.000000	99.967724
223.000000	100.132449
222.000000	100.344638
221.000000	100.034209
220.000000	100.132871
219.000000	100.269098
218.000000	100.304127
217.000000	100.130649
216.000000	99.903046
215.000000	100.038655
214.000000	100.222430
213.000000	100.150669
212.000000	99.873882
211.000000	99.539710
210.000000	99.595574
209.000000	99.684952
208.000000	99.431683
207.000000	99.326493
206.000000	99.648781
205.000000	99.802347
204.000000	99.470859
203.000000	99.179488
202.000000	99.914740
201.000000	100.482532
200.000000	100.988348
