PE UV       SUBTECH     SPECTRUM    ASCII       PEDS        4.00        
   -1
RDAgneauUK 42.Sample.asc
18/03/05
11:56:11.00
18/03/05
11:56:11.00
Administrator

200.000000
1
Lambda 750
750N8071901
PerkinElmer UV WinLab 6.0.4.0738 / 1.61.00 Lambda 900

0
0
3350/servo 860.8/2
0
0
UV/VIS
1
1
1
CommonBeamDepol,150mm sphere / downward view
0
0
0
0
Program
Program
3350/servo 860.8/2
3350/0.2 860.8/0.2
3350/0.2 860.8/0.2
0
1
 
 
 
0
 
860.8
319.2
860.8
Front
100
on
 
 
0
0
0
 
0
 
 
 
0
 
 
0
0
0
0
0
 
 
 
 
0
0


0
0
#HDR
-1
-1
#GR
nm
%R
1.0
0.0
2350.000000
-1.000000
2151
8
69.629638
16.907284
#DATA
2350.000000	41.554790
2349.000000	41.620496
2348.000000	41.686885
2347.000000	42.205140
2346.000000	42.030509
2345.000000	41.602911
2344.000000	41.699905
2343.000000	41.526192
2342.000000	41.607158
2341.000000	41.872223
2340.000000	42.055440
2339.000000	41.938012
2338.000000	42.320934
2337.000000	42.410366
2336.000000	42.038775
2335.000000	42.067909
2334.000000	41.861305
2333.000000	42.225515
2332.000000	42.415641
2331.000000	41.909473
2330.000000	41.969686
2329.000000	42.077815
2328.000000	41.991482
2327.000000	41.716741
2326.000000	41.922437
2325.000000	41.787991
2324.000000	42.078013
2323.000000	41.867647
2322.000000	41.796252
2321.000000	41.884731
2320.000000	42.182735
2319.000000	41.671861
2318.000000	41.526107
2317.000000	41.766204
2316.000000	41.628686
2315.000000	41.461912
2314.000000	41.206637
2313.000000	41.083074
2312.000000	41.118774
2311.000000	41.469321
2310.000000	41.196006
2309.000000	40.993956
2308.000000	40.981474
2307.000000	40.976339
2306.000000	40.982510
2305.000000	40.659831
2304.000000	40.717396
2303.000000	40.879810
2302.000000	40.704647
2301.000000	40.528430
2300.000000	40.230457
2299.000000	40.266059
2298.000000	40.222880
2297.000000	39.878966
2296.000000	40.032613
2295.000000	39.990983
2294.000000	39.623304
2293.000000	39.700312
2292.000000	39.578146
2291.000000	39.448435
2290.000000	39.535873
2289.000000	39.413533
2288.000000	39.487114
2287.000000	39.528899
2286.000000	39.359648
2285.000000	39.248171
2284.000000	39.247863
2283.000000	39.183046
2282.000000	39.068840
2281.000000	39.086372
2280.000000	39.313988
2279.000000	39.302794
2278.000000	39.116832
2277.000000	39.074359
2276.000000	39.094908
2275.000000	39.117357
2274.000000	39.261459
2273.000000	39.393903
2272.000000	39.412134
2271.000000	39.341288
2270.000000	39.334279
2269.000000	39.510397
2268.000000	39.741810
2267.000000	39.785807
2266.000000	39.780897
2265.000000	39.977375
2264.000000	40.038884
2263.000000	40.165794
2262.000000	40.190532
2261.000000	40.277414
2260.000000	40.408169
2259.000000	40.592471
2258.000000	40.849817
2257.000000	41.124974
2256.000000	41.252980
2255.000000	41.469445
2254.000000	41.768523
2253.000000	41.858706
2252.000000	42.016772
2251.000000	42.238943
2250.000000	42.494983
2249.000000	42.669876
2248.000000	42.794649
2247.000000	43.029549
2246.000000	43.267804
2245.000000	43.429094
2244.000000	43.609150
2243.000000	43.892718
2242.000000	44.071180
2241.000000	44.177447
2240.000000	44.234562
2239.000000	44.230027
2238.000000	44.331982
2237.000000	44.489863
2236.000000	44.585286
2235.000000	44.699328
2234.000000	44.815442
2233.000000	44.907289
2232.000000	44.920366
2231.000000	44.825434
2230.000000	44.886430
2229.000000	45.094091
2228.000000	45.265854
2227.000000	45.260318
2226.000000	45.137813
2225.000000	45.175326
2224.000000	45.273827
2223.000000	45.161555
2222.000000	45.189050
2221.000000	45.149776
2220.000000	45.143237
2219.000000	45.268096
2218.000000	45.086010
2217.000000	45.029055
2216.000000	45.045064
2215.000000	44.994043
2214.000000	44.949576
2213.000000	45.034838
2212.000000	44.879109
2211.000000	44.622909
2210.000000	44.677180
2209.000000	44.669075
2208.000000	44.659833
2207.000000	44.584339
2206.000000	44.365675
2205.000000	44.378506
2204.000000	44.281127
2203.000000	44.154696
2202.000000	44.064594
2201.000000	44.102745
2200.000000	44.043973
2199.000000	43.990760
2198.000000	43.851131
2197.000000	43.904327
2196.000000	43.690747
2195.000000	43.632338
2194.000000	43.582651
2193.000000	43.529932
2192.000000	43.464698
2191.000000	43.314324
2190.000000	43.312900
2189.000000	43.401006
2188.000000	43.264422
2187.000000	42.962085
2186.000000	43.048866
2185.000000	42.905484
2184.000000	42.941862
2183.000000	43.083628
2182.000000	42.923323
2181.000000	42.965154
2180.000000	42.892946
2179.000000	42.787062
2178.000000	42.714482
2177.000000	42.923573
2176.000000	42.726248
2175.000000	42.952484
2174.000000	43.003773
2173.000000	42.810406
2172.000000	43.066497
2171.000000	43.158012
2170.000000	43.118924
2169.000000	43.169351
2168.000000	43.272156
2167.000000	43.369204
2166.000000	43.476727
2165.000000	43.710924
2164.000000	43.853613
2163.000000	43.777652
2162.000000	43.886533
2161.000000	44.002543
2160.000000	44.223707
2159.000000	44.302436
2158.000000	44.420429
2157.000000	44.582745
2156.000000	44.584009
2155.000000	44.931992
2154.000000	45.118553
2153.000000	45.296498
2152.000000	45.465728
2151.000000	45.472427
2150.000000	45.691335
2149.000000	45.699885
2148.000000	45.829453
2147.000000	46.006817
2146.000000	46.263745
2145.000000	46.437783
2144.000000	46.576866
2143.000000	46.684085
2142.000000	47.011357
2141.000000	46.926226
2140.000000	47.014875
2139.000000	47.134598
2138.000000	47.466169
2137.000000	47.518765
2136.000000	47.550713
2135.000000	47.805582
2134.000000	47.749854
2133.000000	47.692038
2132.000000	48.009852
2131.000000	47.912939
2130.000000	48.129095
2129.000000	48.219364
2128.000000	48.073209
2127.000000	48.288870
2126.000000	48.251251
2125.000000	48.366545
2124.000000	48.422715
2123.000000	48.363999
2122.000000	48.576185
2121.000000	48.668369
2120.000000	48.627010
2119.000000	48.660475
2118.000000	48.746144
2117.000000	48.776381
2116.000000	48.703225
2115.000000	48.796906
2114.000000	48.750549
2113.000000	48.820094
2112.000000	48.941200
2111.000000	48.772521
2110.000000	48.839376
2109.000000	48.940897
2108.000000	48.855711
2107.000000	49.006381
2106.000000	49.001417
2105.000000	48.955088
2104.000000	48.954313
2103.000000	49.126513
2102.000000	49.151820
2101.000000	49.083906
2100.000000	49.007425
2099.000000	49.026594
2098.000000	49.184629
2097.000000	49.020032
2096.000000	48.977603
2095.000000	49.082732
2094.000000	49.036124
2093.000000	48.982296
2092.000000	49.062117
2091.000000	48.884907
2090.000000	48.929907
2089.000000	49.029454
2088.000000	48.897303
2087.000000	48.909337
2086.000000	48.886488
2085.000000	48.800116
2084.000000	48.715898
2083.000000	48.691146
2082.000000	48.609989
2081.000000	48.518120
2080.000000	48.494815
2079.000000	48.459624
2078.000000	48.235279
2077.000000	48.199517
2076.000000	48.110339
2075.000000	48.070458
2074.000000	47.970496
2073.000000	47.829108
2072.000000	47.742437
2071.000000	47.652260
2070.000000	47.533218
2069.000000	47.428295
2068.000000	47.309249
2067.000000	47.160101
2066.000000	47.010080
2065.000000	46.908672
2064.000000	46.711093
2063.000000	46.469697
2062.000000	46.376278
2061.000000	46.250755
2060.000000	46.084361
2059.000000	45.951176
2058.000000	45.819537
2057.000000	45.679070
2056.000000	45.551642
2055.000000	45.346940
2054.000000	45.138471
2053.000000	45.051507
2052.000000	44.931078
2051.000000	44.824252
2050.000000	44.720271
2049.000000	44.613454
2048.000000	44.537718
2047.000000	44.457544
2046.000000	44.370796
2045.000000	44.320280
2044.000000	44.284062
2043.000000	44.277694
2042.000000	44.279220
2041.000000	44.259163
2040.000000	44.326212
2039.000000	44.387832
2038.000000	44.380199
2037.000000	44.353351
2036.000000	44.459512
2035.000000	44.578612
2034.000000	44.699762
2033.000000	44.800322
2032.000000	44.895064
2031.000000	45.013796
2030.000000	45.128552
2029.000000	45.258704
2028.000000	45.369893
2027.000000	45.478014
2026.000000	45.617900
2025.000000	45.695905
2024.000000	45.760426
2023.000000	45.884832
2022.000000	45.990726
2021.000000	46.075109
2020.000000	46.119596
2019.000000	46.131825
2018.000000	46.203188
2017.000000	46.254715
2016.000000	46.253638
2015.000000	46.259264
2014.000000	46.223212
2013.000000	46.216974
2012.000000	46.186464
2011.000000	46.141390
2010.000000	46.088574
2009.000000	46.066507
2008.000000	46.021281
2007.000000	45.939948
2006.000000	45.882702
2005.000000	45.839821
2004.000000	45.770134
2003.000000	45.691505
2002.000000	45.609748
2001.000000	45.529273
2000.000000	45.429446
1999.000000	45.333756
1998.000000	45.187940
1997.000000	45.068223
1996.000000	45.039734
1995.000000	44.972325
1994.000000	44.839221
1993.000000	44.750233
1992.000000	44.678193
1991.000000	44.568028
1990.000000	44.452279
1989.000000	44.354375
1988.000000	44.259187
1987.000000	44.160902
1986.000000	44.050377
1985.000000	43.955955
1984.000000	43.884427
1983.000000	43.766855
1982.000000	43.657625
1981.000000	43.571626
1980.000000	43.436635
1979.000000	43.308040
1978.000000	43.246756
1977.000000	43.145301
1976.000000	43.059184
1975.000000	42.926050
1974.000000	42.837092
1973.000000	42.764808
1972.000000	42.660525
1971.000000	42.517564
1970.000000	42.366406
1969.000000	42.318723
1968.000000	42.215824
1967.000000	42.139601
1966.000000	42.054940
1965.000000	41.965067
1964.000000	41.793798
1963.000000	41.737895
1962.000000	41.629952
1961.000000	41.502276
1960.000000	41.397524
1959.000000	41.300548
1958.000000	41.254154
1957.000000	41.158665
1956.000000	41.041541
1955.000000	40.979960
1954.000000	40.968756
1953.000000	40.850707
1952.000000	40.777327
1951.000000	40.682991
1950.000000	40.644168
1949.000000	40.685369
1948.000000	40.683285
1947.000000	40.596810
1946.000000	40.541180
1945.000000	40.556080
1944.000000	40.583715
1943.000000	40.592742
1942.000000	40.590678
1941.000000	40.576279
1940.000000	40.614463
1939.000000	40.694194
1938.000000	40.826774
1937.000000	40.942670
1936.000000	41.020985
1935.000000	41.024066
1934.000000	41.149576
1933.000000	41.353819
1932.000000	41.438871
1931.000000	41.631537
1930.000000	41.792391
1929.000000	41.983961
1928.000000	42.114858
1927.000000	42.377416
1926.000000	42.619204
1925.000000	42.752652
1924.000000	43.075624
1923.000000	43.237598
1922.000000	43.566653
1921.000000	43.923680
1920.000000	44.130221
1919.000000	44.451367
1918.000000	44.751221
1917.000000	45.014049
1916.000000	45.249273
1915.000000	45.708576
1914.000000	46.093474
1913.000000	46.366324
1912.000000	46.765094
1911.000000	47.051379
1910.000000	47.467133
1909.000000	47.890434
1908.000000	48.327801
1907.000000	48.627454
1906.000000	49.047676
1905.000000	49.457929
1904.000000	49.983018
1903.000000	50.359029
1902.000000	50.741288
1901.000000	51.238866
1900.000000	51.611988
1899.000000	52.076096
1898.000000	52.513189
1897.000000	52.886570
1896.000000	53.308441
1895.000000	53.703552
1894.000000	54.116165
1893.000000	54.500689
1892.000000	54.911881
1891.000000	55.216968
1890.000000	55.660663
1889.000000	55.940408
1888.000000	56.301949
1887.000000	56.612244
1886.000000	56.918130
1885.000000	57.175862
1884.000000	57.502381
1883.000000	57.798332
1882.000000	58.103410
1881.000000	58.308984
1880.000000	58.630415
1879.000000	58.836304
1878.000000	59.081747
1877.000000	59.325865
1876.000000	59.451055
1875.000000	59.650164
1874.000000	59.771675
1873.000000	59.881325
1872.000000	60.018071
1871.000000	60.255791
1870.000000	60.322987
1869.000000	60.429958
1868.000000	60.539213
1867.000000	60.653033
1866.000000	60.730310
1865.000000	60.807028
1864.000000	60.861074
1863.000000	60.857969
1862.000000	60.918593
1861.000000	60.975323
1860.000000	61.021445
1859.000000	61.102414
1858.000000	61.109259
1857.000000	61.080761
1856.000000	61.127445
1855.000000	61.180070
1854.000000	61.209775
1853.000000	61.258594
1852.000000	61.263728
1851.000000	61.266325
1850.000000	61.215124
1849.000000	61.219155
1848.000000	61.246518
1847.000000	61.238649
1846.000000	61.203176
1845.000000	61.208612
1844.000000	61.217616
1843.000000	61.169418
1842.000000	61.159815
1841.000000	61.153791
1840.000000	61.127730
1839.000000	61.095216
1838.000000	61.120322
1837.000000	61.057658
1836.000000	61.028172
1835.000000	60.986229
1834.000000	60.919564
1833.000000	60.912829
1832.000000	60.870927
1831.000000	60.814810
1830.000000	60.786845
1829.000000	60.793381
1828.000000	60.752408
1827.000000	60.698327
1826.000000	60.680666
1825.000000	60.667082
1824.000000	60.631679
1823.000000	60.586644
1822.000000	60.553961
1821.000000	60.531627
1820.000000	60.498621
1819.000000	60.473942
1818.000000	60.464951
1817.000000	60.437795
1816.000000	60.397409
1815.000000	60.372333
1814.000000	60.352538
1813.000000	60.313035
1812.000000	60.285205
1811.000000	60.273104
1810.000000	60.254807
1809.000000	60.246229
1808.000000	60.217612
1807.000000	60.181100
1806.000000	60.162943
1805.000000	60.114909
1804.000000	60.096066
1803.000000	60.098919
1802.000000	60.061344
1801.000000	60.036450
1800.000000	59.993116
1799.000000	59.972344
1798.000000	59.975532
1797.000000	59.959087
1796.000000	59.931678
1795.000000	59.918415
1794.000000	59.923539
1793.000000	59.886875
1792.000000	59.854431
1791.000000	59.833601
1790.000000	59.795733
1789.000000	59.787217
1788.000000	59.786517
1787.000000	59.760650
1786.000000	59.733754
1785.000000	59.731307
1784.000000	59.685435
1783.000000	59.665957
1782.000000	59.649276
1781.000000	59.623600
1780.000000	59.602902
1779.000000	59.579896
1778.000000	59.513481
1777.000000	59.490221
1776.000000	59.475448
1775.000000	59.396874
1774.000000	59.356125
1773.000000	59.343570
1772.000000	59.292022
1771.000000	59.252094
1770.000000	59.189901
1769.000000	59.132350
1768.000000	59.105674
1767.000000	59.084000
1766.000000	59.037565
1765.000000	58.965839
1764.000000	58.942431
1763.000000	58.903866
1762.000000	58.849030
1761.000000	58.794801
1760.000000	58.720217
1759.000000	58.721032
1758.000000	58.675136
1757.000000	58.628014
1756.000000	58.582446
1755.000000	58.552258
1754.000000	58.506600
1753.000000	58.462268
1752.000000	58.405264
1751.000000	58.360603
1750.000000	58.348165
1749.000000	58.345084
1748.000000	58.268615
1747.000000	58.192294
1746.000000	58.140994
1745.000000	58.106312
1744.000000	58.075706
1743.000000	58.046510
1742.000000	57.963847
1741.000000	57.953837
1740.000000	57.880311
1739.000000	57.873791
1738.000000	57.830846
1737.000000	57.792896
1736.000000	57.782316
1735.000000	57.769981
1734.000000	57.763745
1733.000000	57.773649
1732.000000	57.810490
1731.000000	57.817188
1730.000000	57.794544
1729.000000	57.846595
1728.000000	57.901926
1727.000000	57.922935
1726.000000	57.994051
1725.000000	58.021482
1724.000000	58.080570
1723.000000	58.175369
1722.000000	58.248077
1721.000000	58.305577
1720.000000	58.359939
1719.000000	58.459239
1718.000000	58.535612
1717.000000	58.558459
1716.000000	58.658934
1715.000000	58.717395
1714.000000	58.798240
1713.000000	58.860224
1712.000000	58.934239
1711.000000	58.955650
1710.000000	59.017450
1709.000000	59.051080
1708.000000	59.065143
1707.000000	59.112283
1706.000000	59.160074
1705.000000	59.183686
1704.000000	59.184065
1703.000000	59.195683
1702.000000	59.209828
1701.000000	59.249346
1700.000000	59.256237
1699.000000	59.266327
1698.000000	59.311728
1697.000000	59.333109
1696.000000	59.368734
1695.000000	59.368919
1694.000000	59.413812
1693.000000	59.444424
1692.000000	59.447924
1691.000000	59.510836
1690.000000	59.554067
1689.000000	59.608729
1688.000000	59.656760
1687.000000	59.759003
1686.000000	59.860929
1685.000000	59.980799
1684.000000	60.074528
1683.000000	60.153120
1682.000000	60.307240
1681.000000	60.432642
1680.000000	60.510181
1679.000000	60.656180
1678.000000	60.780799
1677.000000	60.875102
1676.000000	61.051634
1675.000000	61.168694
1674.000000	61.298132
1673.000000	61.447428
1672.000000	61.566074
1671.000000	61.661910
1670.000000	61.793057
1669.000000	61.908995
1668.000000	61.967651
1667.000000	62.066776
1666.000000	62.142256
1665.000000	62.250209
1664.000000	62.312378
1663.000000	62.351367
1662.000000	62.426130
1661.000000	62.472591
1660.000000	62.545332
1659.000000	62.564304
1658.000000	62.612485
1657.000000	62.624031
1656.000000	62.661612
1655.000000	62.698432
1654.000000	62.727863
1653.000000	62.736179
1652.000000	62.755373
1651.000000	62.724857
1650.000000	62.733551
1649.000000	62.717292
1648.000000	62.716694
1647.000000	62.718351
1646.000000	62.716874
1645.000000	62.724904
1644.000000	62.693174
1643.000000	62.675758
1642.000000	62.662382
1641.000000	62.659198
1640.000000	62.620522
1639.000000	62.612752
1638.000000	62.591915
1637.000000	62.608226
1636.000000	62.555377
1635.000000	62.522945
1634.000000	62.505822
1633.000000	62.485020
1632.000000	62.449148
1631.000000	62.426638
1630.000000	62.399191
1629.000000	62.374119
1628.000000	62.343685
1627.000000	62.293974
1626.000000	62.254388
1625.000000	62.228042
1624.000000	62.205592
1623.000000	62.161888
1622.000000	62.140514
1621.000000	62.100920
1620.000000	62.063970
1619.000000	62.029398
1618.000000	61.989611
1617.000000	61.953172
1616.000000	61.917909
1615.000000	61.877100
1614.000000	61.833248
1613.000000	61.807681
1612.000000	61.761278
1611.000000	61.720055
1610.000000	61.687410
1609.000000	61.639483
1608.000000	61.602307
1607.000000	61.554359
1606.000000	61.511020
1605.000000	61.473932
1604.000000	61.423261
1603.000000	61.371461
1602.000000	61.334307
1601.000000	61.281319
1600.000000	61.230736
1599.000000	61.185627
1598.000000	61.146636
1597.000000	61.114887
1596.000000	61.064085
1595.000000	61.035043
1594.000000	60.999040
1593.000000	60.955196
1592.000000	60.930890
1591.000000	60.878025
1590.000000	60.839568
1589.000000	60.795931
1588.000000	60.756327
1587.000000	60.732853
1586.000000	60.693918
1585.000000	60.656622
1584.000000	60.629587
1583.000000	60.604265
1582.000000	60.566073
1581.000000	60.520425
1580.000000	60.495491
1579.000000	60.475268
1578.000000	60.440954
1577.000000	60.405196
1576.000000	60.370348
1575.000000	60.336978
1574.000000	60.305927
1573.000000	60.270125
1572.000000	60.233027
1571.000000	60.200721
1570.000000	60.172200
1569.000000	60.150319
1568.000000	60.129578
1567.000000	60.083910
1566.000000	60.079368
1565.000000	60.051885
1564.000000	60.014258
1563.000000	60.012779
1562.000000	59.997688
1561.000000	59.965418
1560.000000	59.955026
1559.000000	59.923894
1558.000000	59.915162
1557.000000	59.890712
1556.000000	59.882224
1555.000000	59.874493
1554.000000	59.846882
1553.000000	59.838927
1552.000000	59.816442
1551.000000	59.774390
1550.000000	59.748609
1549.000000	59.729904
1548.000000	59.695497
1547.000000	59.654813
1546.000000	59.623556
1545.000000	59.577646
1544.000000	59.522279
1543.000000	59.471525
1542.000000	59.420659
1541.000000	59.352848
1540.000000	59.293651
1539.000000	59.215240
1538.000000	59.160658
1537.000000	59.096920
1536.000000	59.023108
1535.000000	58.963794
1534.000000	58.909726
1533.000000	58.851325
1532.000000	58.785165
1531.000000	58.702123
1530.000000	58.646761
1529.000000	58.568590
1528.000000	58.507927
1527.000000	58.452396
1526.000000	58.405949
1525.000000	58.372727
1524.000000	58.302977
1523.000000	58.261056
1522.000000	58.231199
1521.000000	58.174405
1520.000000	58.123652
1519.000000	58.121212
1518.000000	58.101371
1517.000000	58.036379
1516.000000	58.028679
1515.000000	58.001605
1514.000000	57.943952
1513.000000	57.930769
1512.000000	57.911052
1511.000000	57.883186
1510.000000	57.884263
1509.000000	57.894416
1508.000000	57.846153
1507.000000	57.838766
1506.000000	57.811555
1505.000000	57.800691
1504.000000	57.806349
1503.000000	57.811926
1502.000000	57.810229
1501.000000	57.794916
1500.000000	57.788865
1499.000000	57.792409
1498.000000	57.788056
1497.000000	57.838688
1496.000000	57.825827
1495.000000	57.856305
1494.000000	57.870331
1493.000000	57.911494
1492.000000	57.926926
1491.000000	57.969218
1490.000000	57.990464
1489.000000	58.029521
1488.000000	58.099533
1487.000000	58.123557
1486.000000	58.166494
1485.000000	58.207336
1484.000000	58.250561
1483.000000	58.327375
1482.000000	58.351393
1481.000000	58.427768
1480.000000	58.478428
1479.000000	58.508469
1478.000000	58.562204
1477.000000	58.647043
1476.000000	58.688644
1475.000000	58.718472
1474.000000	58.754292
1473.000000	58.814494
1472.000000	58.886387
1471.000000	58.908943
1470.000000	58.949614
1469.000000	59.015365
1468.000000	59.060236
1467.000000	59.094458
1466.000000	59.135124
1465.000000	59.169870
1464.000000	59.203734
1463.000000	59.256063
1462.000000	59.301662
1461.000000	59.331568
1460.000000	59.377329
1459.000000	59.422538
1458.000000	59.485381
1457.000000	59.497563
1456.000000	59.539959
1455.000000	59.591629
1454.000000	59.640920
1453.000000	59.685215
1452.000000	59.740489
1451.000000	59.804204
1450.000000	59.845511
1449.000000	59.911022
1448.000000	59.988765
1447.000000	60.026622
1446.000000	60.073656
1445.000000	60.122935
1444.000000	60.199263
1443.000000	60.266023
1442.000000	60.314183
1441.000000	60.395855
1440.000000	60.483294
1439.000000	60.554068
1438.000000	60.619027
1437.000000	60.679810
1436.000000	60.748134
1435.000000	60.849732
1434.000000	60.927528
1433.000000	61.011980
1432.000000	61.090299
1431.000000	61.187110
1430.000000	61.266589
1429.000000	61.351179
1428.000000	61.458376
1427.000000	61.551735
1426.000000	61.647462
1425.000000	61.761446
1424.000000	61.867350
1423.000000	61.995283
1422.000000	62.097536
1421.000000	62.217389
1420.000000	62.325687
1419.000000	62.433006
1418.000000	62.557376
1417.000000	62.674086
1416.000000	62.808461
1415.000000	62.921160
1414.000000	63.028833
1413.000000	63.163630
1412.000000	63.293934
1411.000000	63.406468
1410.000000	63.509554
1409.000000	63.640575
1408.000000	63.776544
1407.000000	63.879977
1406.000000	63.989584
1405.000000	64.116104
1404.000000	64.224175
1403.000000	64.329860
1402.000000	64.446935
1401.000000	64.549905
1400.000000	64.649875
1399.000000	64.743867
1398.000000	64.846363
1397.000000	64.952871
1396.000000	65.047785
1395.000000	65.127512
1394.000000	65.217352
1393.000000	65.318259
1392.000000	65.401293
1391.000000	65.480708
1390.000000	65.563615
1389.000000	65.627660
1388.000000	65.707280
1387.000000	65.782311
1386.000000	65.840391
1385.000000	65.891419
1384.000000	65.963570
1383.000000	66.033075
1382.000000	66.080008
1381.000000	66.131159
1380.000000	66.191533
1379.000000	66.249027
1378.000000	66.298855
1377.000000	66.358493
1376.000000	66.402337
1375.000000	66.417019
1374.000000	66.448494
1373.000000	66.503275
1372.000000	66.539214
1371.000000	66.568473
1370.000000	66.603189
1369.000000	66.641493
1368.000000	66.677975
1367.000000	66.710352
1366.000000	66.728383
1365.000000	66.753958
1364.000000	66.790600
1363.000000	66.822654
1362.000000	66.848429
1361.000000	66.886720
1360.000000	66.895812
1359.000000	66.938886
1358.000000	66.985990
1357.000000	67.006732
1356.000000	67.055017
1355.000000	67.076328
1354.000000	67.116313
1353.000000	67.149094
1352.000000	67.175624
1351.000000	67.229486
1350.000000	67.250758
1349.000000	67.275331
1348.000000	67.332579
1347.000000	67.361054
1346.000000	67.403231
1345.000000	67.444350
1344.000000	67.470931
1343.000000	67.500592
1342.000000	67.517438
1341.000000	67.560336
1340.000000	67.595798
1339.000000	67.636152
1338.000000	67.663735
1337.000000	67.681455
1336.000000	67.709463
1335.000000	67.724979
1334.000000	67.747269
1333.000000	67.776211
1332.000000	67.821844
1331.000000	67.856362
1330.000000	67.883817
1329.000000	67.892470
1328.000000	67.885541
1327.000000	67.923409
1326.000000	67.924834
1325.000000	67.941828
1324.000000	67.966645
1323.000000	67.956990
1322.000000	67.983102
1321.000000	67.988120
1320.000000	67.969640
1319.000000	67.994642
1318.000000	68.023852
1317.000000	68.007184
1316.000000	68.020864
1315.000000	68.052043
1314.000000	68.046390
1313.000000	68.058751
1312.000000	68.077980
1311.000000	68.058435
1310.000000	68.089680
1309.000000	68.108405
1308.000000	68.103668
1307.000000	68.116538
1306.000000	68.121273
1305.000000	68.121784
1304.000000	68.144231
1303.000000	68.142289
1302.000000	68.139461
1301.000000	68.162173
1300.000000	68.177507
1299.000000	68.172424
1298.000000	68.160731
1297.000000	68.168278
1296.000000	68.156982
1295.000000	68.174693
1294.000000	68.187804
1293.000000	68.174480
1292.000000	68.187343
1291.000000	68.201040
1290.000000	68.172489
1289.000000	68.192182
1288.000000	68.194776
1287.000000	68.164495
1286.000000	68.148151
1285.000000	68.146562
1284.000000	68.158350
1283.000000	68.158805
1282.000000	68.136705
1281.000000	68.165974
1280.000000	68.162873
1279.000000	68.162284
1278.000000	68.164906
1277.000000	68.157732
1276.000000	68.162183
1275.000000	68.176729
1274.000000	68.156353
1273.000000	68.158578
1272.000000	68.137966
1271.000000	68.136831
1270.000000	68.138353
1269.000000	68.140441
1268.000000	68.147812
1267.000000	68.171872
1266.000000	68.166837
1265.000000	68.158893
1264.000000	68.187856
1263.000000	68.207030
1262.000000	68.203416
1261.000000	68.203834
1260.000000	68.219261
1259.000000	68.201120
1258.000000	68.220516
1257.000000	68.217636
1256.000000	68.251668
1255.000000	68.237129
1254.000000	68.252711
1253.000000	68.236646
1252.000000	68.243174
1251.000000	68.239274
1250.000000	68.247471
1249.000000	68.248481
1248.000000	68.250613
1247.000000	68.244553
1246.000000	68.228767
1245.000000	68.240499
1244.000000	68.254963
1243.000000	68.241105
1242.000000	68.208426
1241.000000	68.217104
1240.000000	68.219600
1239.000000	68.208007
1238.000000	68.208595
1237.000000	68.175483
1236.000000	68.169911
1235.000000	68.150972
1234.000000	68.117469
1233.000000	68.100624
1232.000000	68.117023
1231.000000	68.120903
1230.000000	68.130120
1229.000000	68.098132
1228.000000	68.061765
1227.000000	68.060827
1226.000000	68.052938
1225.000000	68.032404
1224.000000	68.042789
1223.000000	68.019978
1222.000000	67.997060
1221.000000	67.984702
1220.000000	67.973297
1219.000000	67.960773
1218.000000	67.945931
1217.000000	67.907794
1216.000000	67.909904
1215.000000	67.860214
1214.000000	67.859260
1213.000000	67.871024
1212.000000	67.854663
1211.000000	67.835489
1210.000000	67.816088
1209.000000	67.777788
1208.000000	67.771685
1207.000000	67.752813
1206.000000	67.741662
1205.000000	67.727270
1204.000000	67.721288
1203.000000	67.682902
1202.000000	67.661533
1201.000000	67.658836
1200.000000	67.649128
1199.000000	67.626575
1198.000000	67.597205
1197.000000	67.611208
1196.000000	67.596285
1195.000000	67.575531
1194.000000	67.544198
1193.000000	67.541258
1192.000000	67.542077
1191.000000	67.516616
1190.000000	67.506061
1189.000000	67.500375
1188.000000	67.503743
1187.000000	67.515219
1186.000000	67.509955
1185.000000	67.507217
1184.000000	67.509611
1183.000000	67.525473
1182.000000	67.541696
1181.000000	67.550341
1180.000000	67.570777
1179.000000	67.596320
1178.000000	67.612288
1177.000000	67.636426
1176.000000	67.662295
1175.000000	67.702893
1174.000000	67.723651
1173.000000	67.739250
1172.000000	67.774901
1171.000000	67.804272
1170.000000	67.841208
1169.000000	67.872680
1168.000000	67.896139
1167.000000	67.946772
1166.000000	67.996411
1165.000000	68.027075
1164.000000	68.074488
1163.000000	68.116838
1162.000000	68.149874
1161.000000	68.182138
1160.000000	68.220262
1159.000000	68.269676
1158.000000	68.283764
1157.000000	68.307861
1156.000000	68.368414
1155.000000	68.405637
1154.000000	68.428751
1153.000000	68.465263
1152.000000	68.502863
1151.000000	68.530206
1150.000000	68.557484
1149.000000	68.598771
1148.000000	68.623150
1147.000000	68.648367
1146.000000	68.674405
1145.000000	68.683321
1144.000000	68.708346
1143.000000	68.742739
1142.000000	68.759217
1141.000000	68.790401
1140.000000	68.818942
1139.000000	68.828703
1138.000000	68.849427
1137.000000	68.878351
1136.000000	68.896388
1135.000000	68.921489
1134.000000	68.947766
1133.000000	68.951837
1132.000000	68.948259
1131.000000	68.969310
1130.000000	68.994688
1129.000000	69.000653
1128.000000	69.006207
1127.000000	69.026450
1126.000000	69.041318
1125.000000	69.065200
1124.000000	69.074754
1123.000000	69.082410
1122.000000	69.100281
1121.000000	69.103150
1120.000000	69.123707
1119.000000	69.139576
1118.000000	69.126998
1117.000000	69.116932
1116.000000	69.123047
1115.000000	69.128616
1114.000000	69.145206
1113.000000	69.131420
1112.000000	69.133383
1111.000000	69.138059
1110.000000	69.134981
1109.000000	69.138740
1108.000000	69.153363
1107.000000	69.147960
1106.000000	69.152851
1105.000000	69.163077
1104.000000	69.160986
1103.000000	69.168668
1102.000000	69.159891
1101.000000	69.171138
1100.000000	69.171764
1099.000000	69.163816
1098.000000	69.158242
1097.000000	69.161559
1096.000000	69.171229
1095.000000	69.171561
1094.000000	69.183865
1093.000000	69.177929
1092.000000	69.163857
1091.000000	69.180918
1090.000000	69.183139
1089.000000	69.175797
1088.000000	69.189804
1087.000000	69.197080
1086.000000	69.193888
1085.000000	69.173747
1084.000000	69.190406
1083.000000	69.170060
1082.000000	69.182252
1081.000000	69.195194
1080.000000	69.170811
1079.000000	69.172533
1078.000000	69.172787
1077.000000	69.145544
1076.000000	69.161765
1075.000000	69.169205
1074.000000	69.167381
1073.000000	69.162872
1072.000000	69.167692
1071.000000	69.159440
1070.000000	69.155896
1069.000000	69.158865
1068.000000	69.142930
1067.000000	69.133516
1066.000000	69.149237
1065.000000	69.156295
1064.000000	69.147914
1063.000000	69.156655
1062.000000	69.133140
1061.000000	69.135006
1060.000000	69.118103
1059.000000	69.128759
1058.000000	69.133927
1057.000000	69.132315
1056.000000	69.122543
1055.000000	69.105912
1054.000000	69.131787
1053.000000	69.133573
1052.000000	69.128214
1051.000000	69.096529
1050.000000	69.117455
1049.000000	69.123950
1048.000000	69.108692
1047.000000	69.114614
1046.000000	69.117936
1045.000000	69.094374
1044.000000	69.075793
1043.000000	69.078953
1042.000000	69.079735
1041.000000	69.057097
1040.000000	69.082585
1039.000000	69.084414
1038.000000	69.069115
1037.000000	69.078321
1036.000000	69.065850
1035.000000	69.064199
1034.000000	69.065652
1033.000000	69.061975
1032.000000	69.055931
1031.000000	69.067746
1030.000000	69.054675
1029.000000	69.041147
1028.000000	69.032903
1027.000000	69.062867
1026.000000	69.039436
1025.000000	69.039851
1024.000000	69.034933
1023.000000	69.044754
1022.000000	69.045902
1021.000000	69.018841
1020.000000	69.021072
1019.000000	69.037212
1018.000000	69.047906
1017.000000	69.050335
1016.000000	69.024848
1015.000000	69.033230
1014.000000	69.023110
1013.000000	69.023603
1012.000000	69.043762
1011.000000	69.032952
1010.000000	69.037319
1009.000000	69.034685
1008.000000	69.038708
1007.000000	69.040187
1006.000000	69.038484
1005.000000	69.035900
1004.000000	69.024748
1003.000000	69.031303
1002.000000	69.036809
1001.000000	69.040317
1000.000000	69.048092
999.000000	69.040707
998.000000	69.042072
997.000000	69.037936
996.000000	69.043417
995.000000	69.043290
994.000000	69.044381
993.000000	69.040738
992.000000	69.042015
991.000000	69.044117
990.000000	69.040451
989.000000	69.057959
988.000000	69.041272
987.000000	69.050424
986.000000	69.072680
985.000000	69.076978
984.000000	69.079068
983.000000	69.098847
982.000000	69.101319
981.000000	69.084849
980.000000	69.088118
979.000000	69.083092
978.000000	69.097539
977.000000	69.107177
976.000000	69.120105
975.000000	69.119855
974.000000	69.121040
973.000000	69.105651
972.000000	69.123594
971.000000	69.126283
970.000000	69.137255
969.000000	69.162486
968.000000	69.155428
967.000000	69.138262
966.000000	69.139425
965.000000	69.141495
964.000000	69.172917
963.000000	69.184072
962.000000	69.187935
961.000000	69.182877
960.000000	69.179055
959.000000	69.196666
958.000000	69.214683
957.000000	69.218454
956.000000	69.224997
955.000000	69.229734
954.000000	69.229236
953.000000	69.236371
952.000000	69.246618
951.000000	69.260158
950.000000	69.265328
949.000000	69.263985
948.000000	69.280272
947.000000	69.255053
946.000000	69.240516
945.000000	69.282286
944.000000	69.301705
943.000000	69.311420
942.000000	69.295881
941.000000	69.272865
940.000000	69.283130
939.000000	69.277568
938.000000	69.274612
937.000000	69.270268
936.000000	69.285247
935.000000	69.295014
934.000000	69.290327
933.000000	69.302951
932.000000	69.289816
931.000000	69.282374
930.000000	69.309518
929.000000	69.309246
928.000000	69.285993
927.000000	69.307504
926.000000	69.298277
925.000000	69.299418
924.000000	69.318664
923.000000	69.330943
922.000000	69.321246
921.000000	69.298697
920.000000	69.328185
919.000000	69.360382
918.000000	69.381556
917.000000	69.354016
916.000000	69.339159
915.000000	69.365069
914.000000	69.400627
913.000000	69.364462
912.000000	69.318445
911.000000	69.312105
910.000000	69.339608
909.000000	69.364406
908.000000	69.355202
907.000000	69.320698
906.000000	69.325769
905.000000	69.330324
904.000000	69.331460
903.000000	69.334093
902.000000	69.324307
901.000000	69.398797
900.000000	69.434970
899.000000	69.433558
898.000000	69.442087
897.000000	69.420181
896.000000	69.405334
895.000000	69.380827
894.000000	69.365473
893.000000	69.405406
892.000000	69.408364
891.000000	69.431726
890.000000	69.380317
889.000000	69.412412
888.000000	69.502786
887.000000	69.493248
886.000000	69.479191
885.000000	69.464781
884.000000	69.515953
883.000000	69.440130
882.000000	69.422801
881.000000	69.439473
880.000000	69.499784
879.000000	69.426611
878.000000	69.445569
877.000000	69.446752
876.000000	69.395149
875.000000	69.338434
874.000000	69.555429
873.000000	69.420007
872.000000	69.429449
871.000000	69.484808
870.000000	69.530085
869.000000	69.629638
868.000000	69.493240
867.000000	69.462317
866.000000	69.428199
865.000000	69.405731
864.000000	69.530660
863.000000	69.551690
862.000000	69.535966
861.000000	69.370860
860.000000	69.483908
859.000000	69.067903
858.000000	69.305017
857.000000	69.001487
856.000000	68.995629
855.000000	68.841489
854.000000	68.625599
853.000000	68.758543
852.000000	68.960555
851.000000	69.162483
850.000000	69.260739
849.000000	69.227025
848.000000	69.334597
847.000000	68.853901
846.000000	69.218436
845.000000	68.854052
844.000000	69.053664
843.000000	68.892710
842.000000	69.153283
841.000000	69.101890
840.000000	69.024419
839.000000	68.989443
838.000000	69.025293
837.000000	69.121382
836.000000	69.052222
835.000000	68.992096
834.000000	69.026340
833.000000	68.990094
832.000000	69.064343
831.000000	69.024882
830.000000	68.950616
829.000000	69.038595
828.000000	68.964690
827.000000	69.100789
826.000000	69.052119
825.000000	69.033246
824.000000	69.152672
823.000000	69.102274
822.000000	69.025039
821.000000	69.083832
820.000000	69.058649
819.000000	69.098965
818.000000	68.952028
817.000000	68.973767
816.000000	69.038082
815.000000	68.985319
814.000000	69.090958
813.000000	69.190264
812.000000	69.074486
811.000000	69.151008
810.000000	69.162365
809.000000	69.089195
808.000000	69.089217
807.000000	69.105354
806.000000	69.119106
805.000000	69.024124
804.000000	69.123563
803.000000	69.106934
802.000000	69.054193
801.000000	69.072444
800.000000	69.274522
799.000000	69.034816
798.000000	69.124040
797.000000	69.153246
796.000000	69.053463
795.000000	69.037007
794.000000	69.029103
793.000000	69.162364
792.000000	69.071668
791.000000	69.070143
790.000000	69.054048
789.000000	68.993140
788.000000	69.032747
787.000000	69.231830
786.000000	69.181595
785.000000	69.098841
784.000000	69.014890
783.000000	69.066848
782.000000	69.060640
781.000000	69.124204
780.000000	69.182067
779.000000	69.158018
778.000000	69.167279
777.000000	69.172066
776.000000	69.184587
775.000000	69.283618
774.000000	69.169295
773.000000	69.067504
772.000000	69.095579
771.000000	69.043926
770.000000	69.057492
769.000000	69.030060
768.000000	69.126776
767.000000	69.084519
766.000000	69.094316
765.000000	69.181366
764.000000	69.061663
763.000000	69.117474
762.000000	69.131970
761.000000	69.119319
760.000000	69.217886
759.000000	69.362804
758.000000	69.243967
757.000000	69.190740
756.000000	69.176053
755.000000	69.175802
754.000000	69.194062
753.000000	69.186767
752.000000	69.113285
751.000000	69.164190
750.000000	69.229461
749.000000	69.223394
748.000000	69.138946
747.000000	69.152142
746.000000	69.219593
745.000000	69.177715
744.000000	69.193502
743.000000	69.264129
742.000000	69.177949
741.000000	69.161908
740.000000	69.176203
739.000000	69.129648
738.000000	69.167605
737.000000	69.149979
736.000000	69.137161
735.000000	69.147512
734.000000	69.212735
733.000000	69.217027
732.000000	69.181353
731.000000	69.158493
730.000000	69.163481
729.000000	69.195815
728.000000	69.178178
727.000000	69.183700
726.000000	69.144875
725.000000	69.026627
724.000000	69.066034
723.000000	69.138316
722.000000	69.148193
721.000000	69.205111
720.000000	69.215136
719.000000	69.198127
718.000000	69.151341
717.000000	69.183099
716.000000	69.186104
715.000000	69.167208
714.000000	69.216753
713.000000	69.221138
712.000000	69.249714
711.000000	69.292284
710.000000	69.296715
709.000000	69.225747
708.000000	69.160368
707.000000	69.147308
706.000000	69.170807
705.000000	69.213054
704.000000	69.192772
703.000000	69.260444
702.000000	69.309636
701.000000	69.187285
700.000000	69.154501
699.000000	69.257147
698.000000	69.242243
697.000000	69.153819
696.000000	69.203208
695.000000	69.213986
694.000000	69.259585
693.000000	69.289716
692.000000	69.232953
691.000000	69.142343
690.000000	69.133302
689.000000	69.137335
688.000000	69.093518
687.000000	69.120008
686.000000	69.198862
685.000000	69.161938
684.000000	69.151197
683.000000	69.171785
682.000000	69.122877
681.000000	69.109870
680.000000	69.217638
679.000000	69.242742
678.000000	69.200741
677.000000	69.192422
676.000000	69.206934
675.000000	69.179612
674.000000	69.204062
673.000000	69.228814
672.000000	69.143432
671.000000	69.186028
670.000000	69.230063
669.000000	69.201662
668.000000	69.165015
667.000000	69.269227
666.000000	69.288169
665.000000	69.246894
664.000000	69.242884
663.000000	69.262108
662.000000	69.237501
661.000000	69.236932
660.000000	69.232991
659.000000	69.226926
658.000000	69.230621
657.000000	69.223544
656.000000	69.255061
655.000000	69.233368
654.000000	69.267806
653.000000	69.228665
652.000000	69.245108
651.000000	69.188044
650.000000	69.216799
649.000000	69.284073
648.000000	69.245882
647.000000	69.235414
646.000000	69.213858
645.000000	69.180838
644.000000	69.266311
643.000000	69.284488
642.000000	69.243203
641.000000	69.229676
640.000000	69.261121
639.000000	69.257526
638.000000	69.253175
637.000000	69.266747
636.000000	69.254210
635.000000	69.276704
634.000000	69.258549
633.000000	69.293715
632.000000	69.272738
631.000000	69.358409
630.000000	69.285141
629.000000	69.274496
628.000000	69.330412
627.000000	69.363536
626.000000	69.388212
625.000000	69.310426
624.000000	69.283585
623.000000	69.295755
622.000000	69.283098
621.000000	69.254636
620.000000	69.230000
619.000000	69.227026
618.000000	69.263232
617.000000	69.309328
616.000000	69.345756
615.000000	69.296369
614.000000	69.315268
613.000000	69.313000
612.000000	69.350093
611.000000	69.276041
610.000000	69.280663
609.000000	69.261782
608.000000	69.284601
607.000000	69.259055
606.000000	69.238880
605.000000	69.344742
604.000000	69.274551
603.000000	69.280049
602.000000	69.287471
601.000000	69.334318
600.000000	69.286439
599.000000	69.314981
598.000000	69.264446
597.000000	69.311007
596.000000	69.313782
595.000000	69.236907
594.000000	69.314130
593.000000	69.297933
592.000000	69.194186
591.000000	69.232904
590.000000	69.213585
589.000000	69.250860
588.000000	69.220130
587.000000	69.233361
586.000000	69.249709
585.000000	69.239381
584.000000	69.169517
583.000000	69.213620
582.000000	69.197472
581.000000	69.247611
580.000000	69.235651
579.000000	69.294121
578.000000	69.215680
577.000000	69.242552
576.000000	69.235688
575.000000	69.234702
574.000000	69.166195
573.000000	69.209873
572.000000	69.165610
571.000000	69.203931
570.000000	69.192013
569.000000	69.158798
568.000000	69.203619
567.000000	69.231413
566.000000	69.110268
565.000000	69.173749
564.000000	69.116616
563.000000	69.169150
562.000000	69.168150
561.000000	69.193076
560.000000	69.063119
559.000000	69.015817
558.000000	69.094094
557.000000	69.141269
556.000000	69.151132
555.000000	69.116474
554.000000	69.057110
553.000000	69.069730
552.000000	69.015786
551.000000	69.049341
550.000000	69.007876
549.000000	69.040131
548.000000	69.053090
547.000000	69.000879
546.000000	68.979724
545.000000	69.024483
544.000000	69.025152
543.000000	68.998103
542.000000	68.996075
541.000000	69.009612
540.000000	68.897251
539.000000	68.904686
538.000000	68.981239
537.000000	68.940739
536.000000	68.916337
535.000000	68.929642
534.000000	68.870001
533.000000	68.855360
532.000000	68.867308
531.000000	68.865577
530.000000	68.860951
529.000000	68.842905
528.000000	68.807468
527.000000	68.816453
526.000000	68.828203
525.000000	68.809895
524.000000	68.755967
523.000000	68.789292
522.000000	68.740889
521.000000	68.727263
520.000000	68.728361
519.000000	68.718881
518.000000	68.687950
517.000000	68.694591
516.000000	68.658131
515.000000	68.643408
514.000000	68.653951
513.000000	68.640823
512.000000	68.583367
511.000000	68.543771
510.000000	68.520738
509.000000	68.539002
508.000000	68.531435
507.000000	68.532743
506.000000	68.485644
505.000000	68.480843
504.000000	68.442876
503.000000	68.421720
502.000000	68.422442
501.000000	68.420463
500.000000	68.402764
499.000000	68.408934
498.000000	68.342156
497.000000	68.321702
496.000000	68.272980
495.000000	68.224834
494.000000	68.201483
493.000000	68.245353
492.000000	68.201482
491.000000	68.188967
490.000000	68.111469
489.000000	68.110711
488.000000	68.098169
487.000000	68.036557
486.000000	67.977656
485.000000	67.996569
484.000000	68.079674
483.000000	68.029884
482.000000	67.918314
481.000000	67.902474
480.000000	67.891697
479.000000	67.875705
478.000000	67.831418
477.000000	67.814954
476.000000	67.834915
475.000000	67.819851
474.000000	67.750795
473.000000	67.682066
472.000000	67.665655
471.000000	67.678853
470.000000	67.674100
469.000000	67.631728
468.000000	67.586116
467.000000	67.528744
466.000000	67.469054
465.000000	67.440605
464.000000	67.422011
463.000000	67.448805
462.000000	67.394121
461.000000	67.313726
460.000000	67.268309
459.000000	67.235886
458.000000	67.195564
457.000000	67.113366
456.000000	67.053328
455.000000	67.025671
454.000000	67.009331
453.000000	66.923008
452.000000	66.920029
451.000000	66.845279
450.000000	66.786542
449.000000	66.727997
448.000000	66.617701
447.000000	66.596922
446.000000	66.563936
445.000000	66.493585
444.000000	66.399421
443.000000	66.350042
442.000000	66.241992
441.000000	66.196153
440.000000	66.197659
439.000000	66.089432
438.000000	66.049186
437.000000	65.960639
436.000000	65.900306
435.000000	65.798994
434.000000	65.693752
433.000000	65.693084
432.000000	65.638953
431.000000	65.413363
430.000000	65.339947
429.000000	65.232604
428.000000	65.126895
427.000000	65.054769
426.000000	65.007959
425.000000	64.933174
424.000000	64.818315
423.000000	64.680562
422.000000	64.542911
421.000000	64.443532
420.000000	64.335559
419.000000	64.229773
418.000000	64.048820
417.000000	63.939853
416.000000	63.887314
415.000000	63.804011
414.000000	63.712179
413.000000	63.614966
412.000000	63.403681
411.000000	63.159714
410.000000	63.086518
409.000000	62.997061
408.000000	62.798045
407.000000	62.729689
406.000000	62.542787
405.000000	62.345424
404.000000	62.244808
403.000000	62.086414
402.000000	61.928997
401.000000	61.822276
400.000000	61.625141
399.000000	61.446172
398.000000	61.403514
397.000000	61.252055
396.000000	60.940872
395.000000	60.854868
394.000000	60.775898
393.000000	60.540228
392.000000	60.368731
391.000000	60.232243
390.000000	60.050225
389.000000	59.826778
388.000000	59.684533
387.000000	59.501637
386.000000	59.301507
385.000000	59.084716
384.000000	58.911786
383.000000	58.741185
382.000000	58.581338
381.000000	58.363768
380.000000	58.167919
379.000000	57.838630
378.000000	57.619874
377.000000	57.481543
376.000000	57.488925
375.000000	57.200854
374.000000	56.839881
373.000000	56.665603
372.000000	56.377236
371.000000	56.067881
370.000000	55.910183
369.000000	55.611912
368.000000	55.404173
367.000000	55.171768
366.000000	54.961739
365.000000	54.555274
364.000000	54.307941
363.000000	54.186993
362.000000	53.942527
361.000000	53.495554
360.000000	53.332310
359.000000	53.051383
358.000000	52.849616
357.000000	52.493957
356.000000	52.193375
355.000000	52.066596
354.000000	51.788180
353.000000	51.570208
352.000000	51.222013
351.000000	50.928608
350.000000	50.548655
349.000000	50.411010
348.000000	50.110193
347.000000	50.004611
346.000000	49.577571
345.000000	49.414389
344.000000	48.929488
343.000000	48.718840
342.000000	48.174153
341.000000	48.032644
340.000000	47.588476
339.000000	47.082128
338.000000	46.864269
337.000000	46.613885
336.000000	46.260735
335.000000	45.629268
334.000000	45.147899
333.000000	44.726040
332.000000	44.131567
331.000000	43.696297
330.000000	43.104306
329.000000	42.642198
328.000000	41.916584
327.000000	41.695746
326.000000	41.365718
325.000000	40.983835
324.000000	40.366541
323.000000	39.918551
322.000000	39.645453
321.000000	39.175715
320.000000	39.113419
319.000000	38.678815
318.000000	38.552942
317.000000	38.214194
316.000000	37.938980
315.000000	37.814105
314.000000	37.596162
313.000000	37.386962
312.000000	37.206482
311.000000	36.873005
310.000000	36.586478
309.000000	36.465674
308.000000	36.229555
307.000000	35.974126
306.000000	35.683643
305.000000	35.722642
304.000000	35.470287
303.000000	35.098483
302.000000	34.842349
301.000000	34.579001
300.000000	34.435248
299.000000	33.976715
298.000000	33.679318
297.000000	33.314324
296.000000	32.694459
295.000000	32.166000
294.000000	31.469095
293.000000	30.614806
292.000000	29.622455
291.000000	28.633519
290.000000	27.595168
289.000000	26.643119
288.000000	25.745473
287.000000	24.997340
286.000000	24.584272
285.000000	24.353758
284.000000	24.069885
283.000000	23.957825
282.000000	23.799497
281.000000	23.771059
280.000000	23.910340
279.000000	23.881198
278.000000	23.994542
277.000000	24.062274
276.000000	24.261261
275.000000	24.614480
274.000000	24.792318
273.000000	25.084743
272.000000	25.484327
271.000000	25.543662
270.000000	25.551614
269.000000	25.680434
268.000000	25.964797
267.000000	26.155632
266.000000	26.412847
265.000000	26.695413
264.000000	26.860337
263.000000	27.233390
262.000000	27.529488
261.000000	27.767352
260.000000	27.971554
259.000000	28.201861
258.000000	28.578620
257.000000	28.866008
256.000000	29.063437
255.000000	29.234149
254.000000	29.377882
253.000000	29.350938
252.000000	29.215745
251.000000	29.135743
250.000000	28.761946
249.000000	28.077303
248.000000	27.420153
247.000000	26.485933
246.000000	25.429222
245.000000	24.419660
244.000000	23.240159
243.000000	21.975714
242.000000	20.909697
241.000000	19.946753
240.000000	19.044757
239.000000	18.388645
238.000000	17.893445
237.000000	17.523942
236.000000	17.265584
235.000000	17.127852
234.000000	17.085199
233.000000	17.042028
232.000000	16.976615
231.000000	16.967816
230.000000	16.983150
229.000000	16.922484
228.000000	16.907284
227.000000	16.963174
226.000000	17.040409
225.000000	17.040728
224.000000	17.193231
223.000000	17.393639
222.000000	17.555496
221.000000	17.740802
220.000000	17.927430
219.000000	18.152077
218.000000	18.410853
217.000000	18.608362
216.000000	18.843521
215.000000	19.130124
214.000000	19.409211
213.000000	19.609049
212.000000	19.778373
211.000000	20.119351
210.000000	20.574544
209.000000	20.897815
208.000000	21.147781
207.000000	21.379803
206.000000	21.755588
205.000000	22.230049
204.000000	22.681683
203.000000	23.057854
202.000000	23.662614
201.000000	24.214756
200.000000	24.581864
