PE UV       SUBTECH     SPECTRUM    ASCII       PEDS        4.00        
   -1
RDAgneauUK 22.Sample.asc
18/03/05
11:35:49.00
18/03/05
11:35:49.00
Administrator

200.000000
1
Lambda 750
750N8071901
PerkinElmer UV WinLab 6.0.4.0738 / 1.61.00 Lambda 900

0
0
3350/servo 860.8/2
0
0
UV/VIS
1
1
1
CommonBeamDepol,150mm sphere / downward view
0
0
0
0
Program
Program
3350/servo 860.8/2
3350/0.2 860.8/0.2
3350/0.2 860.8/0.2
0
1
 
 
 
0
 
860.8
319.2
860.8
Front
100
on
 
 
0
0
0
 
0
 
 
 
0
 
 
0
0
0
0
0
 
 
 
 
0
0


0
0
#HDR
-1
-1
#GR
nm
%R
1.0
0.0
2350.000000
-1.000000
2151
8
69.973149
18.111057
#DATA
2350.000000	41.601236
2349.000000	41.374700
2348.000000	41.324024
2347.000000	42.016882
2346.000000	41.703334
2345.000000	41.817451
2344.000000	41.275405
2343.000000	40.982078
2342.000000	41.297872
2341.000000	41.692063
2340.000000	41.564379
2339.000000	41.929911
2338.000000	41.917950
2337.000000	41.678151
2336.000000	41.887142
2335.000000	42.000243
2334.000000	41.883994
2333.000000	42.197378
2332.000000	41.875916
2331.000000	41.961645
2330.000000	41.756660
2329.000000	41.949813
2328.000000	41.943093
2327.000000	41.614246
2326.000000	41.782526
2325.000000	41.572030
2324.000000	41.688210
2323.000000	41.910434
2322.000000	41.582406
2321.000000	41.725811
2320.000000	41.337740
2319.000000	41.299185
2318.000000	41.274141
2317.000000	41.567552
2316.000000	41.246904
2315.000000	41.071235
2314.000000	40.926654
2313.000000	40.966778
2312.000000	41.097253
2311.000000	40.833406
2310.000000	40.756852
2309.000000	40.872259
2308.000000	40.630413
2307.000000	40.666392
2306.000000	40.519064
2305.000000	40.470123
2304.000000	40.619772
2303.000000	40.663056
2302.000000	40.444615
2301.000000	40.175752
2300.000000	39.851600
2299.000000	39.702226
2298.000000	39.787992
2297.000000	39.685260
2296.000000	39.725150
2295.000000	39.626534
2294.000000	39.481249
2293.000000	39.305820
2292.000000	39.388898
2291.000000	39.252286
2290.000000	39.290956
2289.000000	39.136777
2288.000000	39.217477
2287.000000	39.138037
2286.000000	38.923229
2285.000000	38.851863
2284.000000	38.761066
2283.000000	38.704348
2282.000000	38.639077
2281.000000	38.852244
2280.000000	38.925198
2279.000000	38.945218
2278.000000	38.948337
2277.000000	38.711061
2276.000000	38.742503
2275.000000	38.863984
2274.000000	38.844552
2273.000000	38.942678
2272.000000	39.015543
2271.000000	38.953638
2270.000000	38.976074
2269.000000	39.183441
2268.000000	39.279831
2267.000000	39.239788
2266.000000	39.401348
2265.000000	39.443853
2264.000000	39.573313
2263.000000	39.585220
2262.000000	39.804307
2261.000000	40.044010
2260.000000	40.202911
2259.000000	40.284105
2258.000000	40.551248
2257.000000	40.824916
2256.000000	40.886725
2255.000000	41.165617
2254.000000	41.305804
2253.000000	41.494997
2252.000000	41.638935
2251.000000	41.817127
2250.000000	42.051357
2249.000000	42.292402
2248.000000	42.543733
2247.000000	42.692649
2246.000000	42.838539
2245.000000	42.892324
2244.000000	43.185302
2243.000000	43.672624
2242.000000	43.781686
2241.000000	43.747783
2240.000000	43.817938
2239.000000	43.995976
2238.000000	44.122859
2237.000000	44.329947
2236.000000	44.458498
2235.000000	44.486585
2234.000000	44.620839
2233.000000	44.626109
2232.000000	44.650495
2231.000000	44.797571
2230.000000	44.849952
2229.000000	44.921819
2228.000000	44.938537
2227.000000	44.835996
2226.000000	44.896022
2225.000000	45.017202
2224.000000	45.063842
2223.000000	44.898799
2222.000000	44.947664
2221.000000	44.875447
2220.000000	44.895438
2219.000000	44.984822
2218.000000	44.784799
2217.000000	44.628561
2216.000000	44.734249
2215.000000	44.657866
2214.000000	44.648725
2213.000000	44.671259
2212.000000	44.579060
2211.000000	44.424541
2210.000000	44.483470
2209.000000	44.385809
2208.000000	44.308522
2207.000000	44.345524
2206.000000	44.128150
2205.000000	44.009314
2204.000000	43.960753
2203.000000	43.923633
2202.000000	43.868053
2201.000000	43.788085
2200.000000	43.760989
2199.000000	43.603762
2198.000000	43.507107
2197.000000	43.468527
2196.000000	43.381441
2195.000000	43.313641
2194.000000	43.289955
2193.000000	43.162942
2192.000000	43.071993
2191.000000	42.951110
2190.000000	43.076585
2189.000000	43.121913
2188.000000	42.876723
2187.000000	42.797001
2186.000000	42.769982
2185.000000	42.682554
2184.000000	42.625758
2183.000000	42.630933
2182.000000	42.604617
2181.000000	42.578158
2180.000000	42.538267
2179.000000	42.533947
2178.000000	42.551497
2177.000000	42.597530
2176.000000	42.604276
2175.000000	42.685185
2174.000000	42.714337
2173.000000	42.560619
2172.000000	42.634832
2171.000000	42.834985
2170.000000	42.906022
2169.000000	42.910415
2168.000000	43.070935
2167.000000	43.156144
2166.000000	43.105335
2165.000000	43.265517
2164.000000	43.517426
2163.000000	43.538680
2162.000000	43.750151
2161.000000	43.768862
2160.000000	43.959105
2159.000000	44.209105
2158.000000	43.958611
2157.000000	44.088897
2156.000000	44.538193
2155.000000	44.573718
2154.000000	44.678280
2153.000000	44.903530
2152.000000	45.200756
2151.000000	45.391528
2150.000000	45.480974
2149.000000	45.534730
2148.000000	45.804332
2147.000000	45.934272
2146.000000	45.871134
2145.000000	46.152334
2144.000000	46.468782
2143.000000	46.273475
2142.000000	46.531167
2141.000000	46.778587
2140.000000	46.811114
2139.000000	46.866477
2138.000000	47.204514
2137.000000	47.313941
2136.000000	47.332470
2135.000000	47.408911
2134.000000	47.671160
2133.000000	47.602609
2132.000000	47.933772
2131.000000	47.920595
2130.000000	48.034947
2129.000000	48.147939
2128.000000	48.032262
2127.000000	48.170694
2126.000000	48.010991
2125.000000	48.174154
2124.000000	48.274821
2123.000000	48.305668
2122.000000	48.435055
2121.000000	48.440909
2120.000000	48.533571
2119.000000	48.495576
2118.000000	48.606131
2117.000000	48.623920
2116.000000	48.663095
2115.000000	48.799935
2114.000000	48.674274
2113.000000	48.682221
2112.000000	48.853847
2111.000000	48.695074
2110.000000	48.621434
2109.000000	48.781991
2108.000000	48.720940
2107.000000	48.914560
2106.000000	48.970674
2105.000000	48.971051
2104.000000	48.835512
2103.000000	48.974660
2102.000000	48.981870
2101.000000	48.912034
2100.000000	48.919893
2099.000000	48.793939
2098.000000	48.923374
2097.000000	48.944382
2096.000000	49.007525
2095.000000	48.898510
2094.000000	48.826349
2093.000000	48.800809
2092.000000	48.893671
2091.000000	48.898955
2090.000000	48.847013
2089.000000	48.800168
2088.000000	48.828874
2087.000000	48.833948
2086.000000	48.761871
2085.000000	48.705877
2084.000000	48.541974
2083.000000	48.489830
2082.000000	48.539106
2081.000000	48.461200
2080.000000	48.381374
2079.000000	48.348209
2078.000000	48.289901
2077.000000	48.081655
2076.000000	48.014714
2075.000000	47.987495
2074.000000	47.925604
2073.000000	47.772973
2072.000000	47.600534
2071.000000	47.562207
2070.000000	47.492923
2069.000000	47.273369
2068.000000	47.171981
2067.000000	47.003397
2066.000000	46.803198
2065.000000	46.713970
2064.000000	46.557381
2063.000000	46.329742
2062.000000	46.221030
2061.000000	46.092570
2060.000000	45.897444
2059.000000	45.746022
2058.000000	45.652671
2057.000000	45.547495
2056.000000	45.380683
2055.000000	45.206447
2054.000000	45.076013
2053.000000	44.944686
2052.000000	44.794095
2051.000000	44.677657
2050.000000	44.581485
2049.000000	44.420292
2048.000000	44.306149
2047.000000	44.300858
2046.000000	44.234359
2045.000000	44.123185
2044.000000	44.121251
2043.000000	44.111640
2042.000000	44.104670
2041.000000	44.171078
2040.000000	44.172795
2039.000000	44.183276
2038.000000	44.217183
2037.000000	44.220643
2036.000000	44.289372
2035.000000	44.439838
2034.000000	44.567457
2033.000000	44.679477
2032.000000	44.805010
2031.000000	44.858807
2030.000000	44.959385
2029.000000	45.085650
2028.000000	45.220101
2027.000000	45.368448
2026.000000	45.497978
2025.000000	45.584982
2024.000000	45.660159
2023.000000	45.830891
2022.000000	45.910297
2021.000000	45.927289
2020.000000	46.000597
2019.000000	46.034069
2018.000000	46.073073
2017.000000	46.147300
2016.000000	46.190848
2015.000000	46.206813
2014.000000	46.205057
2013.000000	46.190907
2012.000000	46.184740
2011.000000	46.189582
2010.000000	46.143269
2009.000000	46.087518
2008.000000	46.047774
2007.000000	45.940050
2006.000000	45.836627
2005.000000	45.828351
2004.000000	45.733483
2003.000000	45.625831
2002.000000	45.543859
2001.000000	45.445814
2000.000000	45.350676
1999.000000	45.346955
1998.000000	45.249452
1997.000000	45.144240
1996.000000	45.063388
1995.000000	44.954451
1994.000000	44.809978
1993.000000	44.731849
1992.000000	44.630554
1991.000000	44.560207
1990.000000	44.486620
1989.000000	44.355899
1988.000000	44.245672
1987.000000	44.130320
1986.000000	44.003555
1985.000000	43.913709
1984.000000	43.823184
1983.000000	43.738313
1982.000000	43.649396
1981.000000	43.559333
1980.000000	43.442322
1979.000000	43.338307
1978.000000	43.226738
1977.000000	43.141136
1976.000000	43.006976
1975.000000	42.936717
1974.000000	42.831706
1973.000000	42.725377
1972.000000	42.591322
1971.000000	42.488811
1970.000000	42.387331
1969.000000	42.285920
1968.000000	42.220597
1967.000000	42.121117
1966.000000	42.009536
1965.000000	41.930424
1964.000000	41.797454
1963.000000	41.678482
1962.000000	41.555000
1961.000000	41.479430
1960.000000	41.436014
1959.000000	41.304407
1958.000000	41.236786
1957.000000	41.173597
1956.000000	41.085717
1955.000000	40.967570
1954.000000	40.914740
1953.000000	40.871614
1952.000000	40.816706
1951.000000	40.708459
1950.000000	40.657162
1949.000000	40.660906
1948.000000	40.651404
1947.000000	40.616396
1946.000000	40.560358
1945.000000	40.498330
1944.000000	40.456423
1943.000000	40.545235
1942.000000	40.595041
1941.000000	40.509251
1940.000000	40.542814
1939.000000	40.658203
1938.000000	40.809737
1937.000000	40.920364
1936.000000	40.972121
1935.000000	41.042312
1934.000000	41.126061
1933.000000	41.344386
1932.000000	41.404617
1931.000000	41.601317
1930.000000	41.787324
1929.000000	41.938241
1928.000000	42.203267
1927.000000	42.417566
1926.000000	42.587266
1925.000000	42.770275
1924.000000	43.094877
1923.000000	43.413645
1922.000000	43.583365
1921.000000	43.915063
1920.000000	44.151288
1919.000000	44.448834
1918.000000	44.753551
1917.000000	45.087714
1916.000000	45.358619
1915.000000	45.778093
1914.000000	46.218873
1913.000000	46.574701
1912.000000	46.855996
1911.000000	47.196173
1910.000000	47.582927
1909.000000	48.071618
1908.000000	48.420369
1907.000000	48.833014
1906.000000	49.157280
1905.000000	49.658032
1904.000000	50.138848
1903.000000	50.514891
1902.000000	50.971873
1901.000000	51.425079
1900.000000	51.797043
1899.000000	52.331628
1898.000000	52.762323
1897.000000	53.158380
1896.000000	53.565304
1895.000000	53.970818
1894.000000	54.365267
1893.000000	54.775607
1892.000000	55.143450
1891.000000	55.502100
1890.000000	55.923864
1889.000000	56.298779
1888.000000	56.612590
1887.000000	56.979579
1886.000000	57.258529
1885.000000	57.632761
1884.000000	57.871836
1883.000000	58.215775
1882.000000	58.418360
1881.000000	58.660422
1880.000000	58.948021
1879.000000	59.172192
1878.000000	59.366872
1877.000000	59.616427
1876.000000	59.741369
1875.000000	59.996112
1874.000000	60.142400
1873.000000	60.296202
1872.000000	60.438367
1871.000000	60.645167
1870.000000	60.730869
1869.000000	60.834453
1868.000000	60.929830
1867.000000	61.073168
1866.000000	61.150622
1865.000000	61.204044
1864.000000	61.243853
1863.000000	61.262895
1862.000000	61.316651
1861.000000	61.388781
1860.000000	61.460023
1859.000000	61.464258
1858.000000	61.495431
1857.000000	61.461735
1856.000000	61.487669
1855.000000	61.568437
1854.000000	61.564561
1853.000000	61.610797
1852.000000	61.625105
1851.000000	61.632763
1850.000000	61.604578
1849.000000	61.564885
1848.000000	61.583092
1847.000000	61.607931
1846.000000	61.584439
1845.000000	61.592967
1844.000000	61.584793
1843.000000	61.551259
1842.000000	61.525649
1841.000000	61.500093
1840.000000	61.483670
1839.000000	61.514723
1838.000000	61.492041
1837.000000	61.416024
1836.000000	61.370443
1835.000000	61.324627
1834.000000	61.272384
1833.000000	61.227563
1832.000000	61.173763
1831.000000	61.169864
1830.000000	61.139527
1829.000000	61.151068
1828.000000	61.129646
1827.000000	61.050906
1826.000000	61.033143
1825.000000	61.024760
1824.000000	60.993382
1823.000000	60.951421
1822.000000	60.902709
1821.000000	60.879906
1820.000000	60.866125
1819.000000	60.831123
1818.000000	60.786524
1817.000000	60.763432
1816.000000	60.753626
1815.000000	60.724718
1814.000000	60.651409
1813.000000	60.634146
1812.000000	60.633441
1811.000000	60.609815
1810.000000	60.586586
1809.000000	60.565739
1808.000000	60.544365
1807.000000	60.508009
1806.000000	60.487409
1805.000000	60.434057
1804.000000	60.389317
1803.000000	60.394235
1802.000000	60.375882
1801.000000	60.369575
1800.000000	60.350403
1799.000000	60.328912
1798.000000	60.280516
1797.000000	60.257155
1796.000000	60.260597
1795.000000	60.246135
1794.000000	60.245935
1793.000000	60.227671
1792.000000	60.208095
1791.000000	60.176719
1790.000000	60.157673
1789.000000	60.140941
1788.000000	60.113953
1787.000000	60.087563
1786.000000	60.074660
1785.000000	60.036783
1784.000000	60.030043
1783.000000	60.003859
1782.000000	59.957675
1781.000000	59.941328
1780.000000	59.915775
1779.000000	59.903272
1778.000000	59.856874
1777.000000	59.779107
1776.000000	59.754126
1775.000000	59.688211
1774.000000	59.662239
1773.000000	59.652643
1772.000000	59.561360
1771.000000	59.526805
1770.000000	59.483262
1769.000000	59.410933
1768.000000	59.391313
1767.000000	59.351972
1766.000000	59.320724
1765.000000	59.281575
1764.000000	59.272089
1763.000000	59.186661
1762.000000	59.112553
1761.000000	59.064025
1760.000000	59.010532
1759.000000	58.984695
1758.000000	58.909401
1757.000000	58.864795
1756.000000	58.820567
1755.000000	58.797225
1754.000000	58.781809
1753.000000	58.737414
1752.000000	58.674478
1751.000000	58.620319
1750.000000	58.587469
1749.000000	58.557055
1748.000000	58.469445
1747.000000	58.420326
1746.000000	58.386391
1745.000000	58.341500
1744.000000	58.298814
1743.000000	58.269543
1742.000000	58.189245
1741.000000	58.141986
1740.000000	58.137140
1739.000000	58.111013
1738.000000	58.032068
1737.000000	58.030327
1736.000000	58.026938
1735.000000	58.007748
1734.000000	58.013188
1733.000000	58.003635
1732.000000	57.960050
1731.000000	58.018843
1730.000000	57.987936
1729.000000	58.057126
1728.000000	58.131755
1727.000000	58.159847
1726.000000	58.190059
1725.000000	58.237664
1724.000000	58.296550
1723.000000	58.372279
1722.000000	58.457850
1721.000000	58.491455
1720.000000	58.598202
1719.000000	58.712793
1718.000000	58.753206
1717.000000	58.833534
1716.000000	58.888100
1715.000000	58.982185
1714.000000	59.070001
1713.000000	59.112181
1712.000000	59.160739
1711.000000	59.200259
1710.000000	59.263636
1709.000000	59.302650
1708.000000	59.313648
1707.000000	59.383229
1706.000000	59.418313
1705.000000	59.437769
1704.000000	59.477522
1703.000000	59.466970
1702.000000	59.446780
1701.000000	59.499442
1700.000000	59.496504
1699.000000	59.492593
1698.000000	59.544096
1697.000000	59.582287
1696.000000	59.591989
1695.000000	59.589802
1694.000000	59.643182
1693.000000	59.661777
1692.000000	59.687167
1691.000000	59.744293
1690.000000	59.814058
1689.000000	59.836984
1688.000000	59.973143
1687.000000	60.041371
1686.000000	60.156981
1685.000000	60.247914
1684.000000	60.364233
1683.000000	60.483903
1682.000000	60.576453
1681.000000	60.684558
1680.000000	60.827091
1679.000000	60.971480
1678.000000	61.095762
1677.000000	61.206302
1676.000000	61.372528
1675.000000	61.516118
1674.000000	61.626406
1673.000000	61.755037
1672.000000	61.882587
1671.000000	62.007202
1670.000000	62.114601
1669.000000	62.239892
1668.000000	62.335044
1667.000000	62.445451
1666.000000	62.516957
1665.000000	62.597453
1664.000000	62.644147
1663.000000	62.685056
1662.000000	62.777113
1661.000000	62.846808
1660.000000	62.907681
1659.000000	62.920585
1658.000000	62.981345
1657.000000	62.992890
1656.000000	63.042014
1655.000000	63.078098
1654.000000	63.083354
1653.000000	63.077415
1652.000000	63.096683
1651.000000	63.115044
1650.000000	63.110379
1649.000000	63.111265
1648.000000	63.111533
1647.000000	63.120454
1646.000000	63.115946
1645.000000	63.094755
1644.000000	63.061691
1643.000000	63.041151
1642.000000	63.025600
1641.000000	63.016251
1640.000000	63.003291
1639.000000	62.991836
1638.000000	62.957748
1637.000000	62.954429
1636.000000	62.928884
1635.000000	62.910864
1634.000000	62.889689
1633.000000	62.844345
1632.000000	62.816286
1631.000000	62.799535
1630.000000	62.748199
1629.000000	62.715146
1628.000000	62.684551
1627.000000	62.656872
1626.000000	62.628069
1625.000000	62.583669
1624.000000	62.568307
1623.000000	62.535561
1622.000000	62.501078
1621.000000	62.453640
1620.000000	62.428296
1619.000000	62.384391
1618.000000	62.362472
1617.000000	62.324548
1616.000000	62.274246
1615.000000	62.231362
1614.000000	62.206009
1613.000000	62.162192
1612.000000	62.098678
1611.000000	62.052040
1610.000000	62.021865
1609.000000	61.988803
1608.000000	61.948469
1607.000000	61.907622
1606.000000	61.848886
1605.000000	61.817582
1604.000000	61.779046
1603.000000	61.714038
1602.000000	61.651550
1601.000000	61.617238
1600.000000	61.578198
1599.000000	61.511158
1598.000000	61.465045
1597.000000	61.437878
1596.000000	61.384921
1595.000000	61.356580
1594.000000	61.323756
1593.000000	61.274318
1592.000000	61.242830
1591.000000	61.199098
1590.000000	61.172920
1589.000000	61.137105
1588.000000	61.081861
1587.000000	61.039308
1586.000000	61.002704
1585.000000	60.979517
1584.000000	60.953816
1583.000000	60.906855
1582.000000	60.864759
1581.000000	60.826815
1580.000000	60.801383
1579.000000	60.783695
1578.000000	60.755066
1577.000000	60.709605
1576.000000	60.652025
1575.000000	60.624419
1574.000000	60.604146
1573.000000	60.580419
1572.000000	60.547997
1571.000000	60.494073
1570.000000	60.475397
1569.000000	60.441523
1568.000000	60.405855
1567.000000	60.380546
1566.000000	60.360900
1565.000000	60.333827
1564.000000	60.303989
1563.000000	60.286105
1562.000000	60.261962
1561.000000	60.260126
1560.000000	60.246029
1559.000000	60.221765
1558.000000	60.196672
1557.000000	60.173871
1556.000000	60.174534
1555.000000	60.177865
1554.000000	60.148635
1553.000000	60.132266
1552.000000	60.092489
1551.000000	60.054552
1550.000000	60.053316
1549.000000	60.044276
1548.000000	60.007119
1547.000000	59.929336
1546.000000	59.873843
1545.000000	59.853293
1544.000000	59.798519
1543.000000	59.744941
1542.000000	59.676242
1541.000000	59.612058
1540.000000	59.562274
1539.000000	59.503342
1538.000000	59.444225
1537.000000	59.347494
1536.000000	59.272912
1535.000000	59.215637
1534.000000	59.159899
1533.000000	59.099913
1532.000000	59.023795
1531.000000	58.940145
1530.000000	58.895569
1529.000000	58.823583
1528.000000	58.747266
1527.000000	58.700240
1526.000000	58.640428
1525.000000	58.604728
1524.000000	58.549715
1523.000000	58.484988
1522.000000	58.450258
1521.000000	58.414991
1520.000000	58.368677
1519.000000	58.358308
1518.000000	58.305260
1517.000000	58.244502
1516.000000	58.233687
1515.000000	58.220306
1514.000000	58.175922
1513.000000	58.144167
1512.000000	58.116964
1511.000000	58.094648
1510.000000	58.089864
1509.000000	58.101740
1508.000000	58.066378
1507.000000	58.060017
1506.000000	58.038798
1505.000000	58.034599
1504.000000	58.021596
1503.000000	58.006902
1502.000000	58.008247
1501.000000	58.010597
1500.000000	58.011640
1499.000000	58.010598
1498.000000	58.021895
1497.000000	58.043212
1496.000000	58.058208
1495.000000	58.074006
1494.000000	58.091481
1493.000000	58.125106
1492.000000	58.115879
1491.000000	58.178569
1490.000000	58.231243
1489.000000	58.282295
1488.000000	58.305845
1487.000000	58.348614
1486.000000	58.402706
1485.000000	58.466632
1484.000000	58.503492
1483.000000	58.572305
1482.000000	58.616986
1481.000000	58.669602
1480.000000	58.728553
1479.000000	58.788193
1478.000000	58.860211
1477.000000	58.936371
1476.000000	58.957365
1475.000000	59.017351
1474.000000	59.051796
1473.000000	59.122697
1472.000000	59.180553
1471.000000	59.226276
1470.000000	59.248968
1469.000000	59.324115
1468.000000	59.376749
1467.000000	59.426370
1466.000000	59.464165
1465.000000	59.506371
1464.000000	59.559644
1463.000000	59.606938
1462.000000	59.647018
1461.000000	59.673673
1460.000000	59.725094
1459.000000	59.762663
1458.000000	59.832565
1457.000000	59.860922
1456.000000	59.915552
1455.000000	59.960092
1454.000000	60.011560
1453.000000	60.043110
1452.000000	60.106222
1451.000000	60.172842
1450.000000	60.220632
1449.000000	60.281595
1448.000000	60.344569
1447.000000	60.397255
1446.000000	60.449234
1445.000000	60.501735
1444.000000	60.584793
1443.000000	60.654717
1442.000000	60.707595
1441.000000	60.768540
1440.000000	60.858700
1439.000000	60.929786
1438.000000	61.004449
1437.000000	61.082579
1436.000000	61.162819
1435.000000	61.243955
1434.000000	61.317849
1433.000000	61.406600
1432.000000	61.492984
1431.000000	61.588834
1430.000000	61.664969
1429.000000	61.762497
1428.000000	61.862399
1427.000000	61.955905
1426.000000	62.069444
1425.000000	62.172376
1424.000000	62.278868
1423.000000	62.406918
1422.000000	62.501583
1421.000000	62.630973
1420.000000	62.739075
1419.000000	62.841980
1418.000000	62.960706
1417.000000	63.095151
1416.000000	63.231368
1415.000000	63.349051
1414.000000	63.473505
1413.000000	63.580307
1412.000000	63.696699
1411.000000	63.807325
1410.000000	63.919945
1409.000000	64.077825
1408.000000	64.206998
1407.000000	64.313324
1406.000000	64.425577
1405.000000	64.533274
1404.000000	64.637159
1403.000000	64.753142
1402.000000	64.868479
1401.000000	64.974389
1400.000000	65.078847
1399.000000	65.181971
1398.000000	65.280896
1397.000000	65.378701
1396.000000	65.465419
1395.000000	65.551523
1394.000000	65.650035
1393.000000	65.745284
1392.000000	65.821771
1391.000000	65.893877
1390.000000	65.984391
1389.000000	66.061393
1388.000000	66.138428
1387.000000	66.208987
1386.000000	66.270543
1385.000000	66.335889
1384.000000	66.407381
1383.000000	66.465400
1382.000000	66.506421
1381.000000	66.556873
1380.000000	66.614185
1379.000000	66.667172
1378.000000	66.716898
1377.000000	66.776361
1376.000000	66.819737
1375.000000	66.850107
1374.000000	66.880262
1373.000000	66.922155
1372.000000	66.964293
1371.000000	67.002416
1370.000000	67.028181
1369.000000	67.055452
1368.000000	67.094670
1367.000000	67.121694
1366.000000	67.148554
1365.000000	67.184325
1364.000000	67.213782
1363.000000	67.237117
1362.000000	67.271072
1361.000000	67.308116
1360.000000	67.338183
1359.000000	67.387567
1358.000000	67.431534
1357.000000	67.448028
1356.000000	67.476310
1355.000000	67.504719
1354.000000	67.558513
1353.000000	67.580428
1352.000000	67.601907
1351.000000	67.656709
1350.000000	67.684350
1349.000000	67.707784
1348.000000	67.759017
1347.000000	67.792378
1346.000000	67.834080
1345.000000	67.871292
1344.000000	67.899206
1343.000000	67.932296
1342.000000	67.970161
1341.000000	68.002971
1340.000000	68.018642
1339.000000	68.065280
1338.000000	68.091252
1337.000000	68.103123
1336.000000	68.132943
1335.000000	68.158449
1334.000000	68.185681
1333.000000	68.231191
1332.000000	68.291997
1331.000000	68.309885
1330.000000	68.326868
1329.000000	68.329737
1328.000000	68.326926
1327.000000	68.358233
1326.000000	68.356174
1325.000000	68.389761
1324.000000	68.413441
1323.000000	68.418358
1322.000000	68.434798
1321.000000	68.450181
1320.000000	68.441713
1319.000000	68.458614
1318.000000	68.476258
1317.000000	68.497913
1316.000000	68.512410
1315.000000	68.519840
1314.000000	68.529233
1313.000000	68.525613
1312.000000	68.550251
1311.000000	68.568231
1310.000000	68.583383
1309.000000	68.580256
1308.000000	68.581218
1307.000000	68.577146
1306.000000	68.581395
1305.000000	68.612131
1304.000000	68.625663
1303.000000	68.628382
1302.000000	68.639199
1301.000000	68.645066
1300.000000	68.660784
1299.000000	68.639110
1298.000000	68.649149
1297.000000	68.651181
1296.000000	68.638000
1295.000000	68.631199
1294.000000	68.656028
1293.000000	68.663129
1292.000000	68.656025
1291.000000	68.675633
1290.000000	68.665366
1289.000000	68.667910
1288.000000	68.663521
1287.000000	68.649496
1286.000000	68.646824
1285.000000	68.626080
1284.000000	68.610923
1283.000000	68.624230
1282.000000	68.619750
1281.000000	68.631576
1280.000000	68.637718
1279.000000	68.612263
1278.000000	68.625159
1277.000000	68.626945
1276.000000	68.629039
1275.000000	68.652655
1274.000000	68.630538
1273.000000	68.623754
1272.000000	68.618415
1271.000000	68.616733
1270.000000	68.625513
1269.000000	68.630362
1268.000000	68.637608
1267.000000	68.644800
1266.000000	68.647613
1265.000000	68.647083
1264.000000	68.693178
1263.000000	68.684976
1262.000000	68.690605
1261.000000	68.681315
1260.000000	68.683129
1259.000000	68.692045
1258.000000	68.710791
1257.000000	68.728000
1256.000000	68.717000
1255.000000	68.713957
1254.000000	68.716396
1253.000000	68.739445
1252.000000	68.729264
1251.000000	68.739977
1250.000000	68.742471
1249.000000	68.749027
1248.000000	68.740792
1247.000000	68.728287
1246.000000	68.723582
1245.000000	68.729230
1244.000000	68.747196
1243.000000	68.721307
1242.000000	68.696329
1241.000000	68.684357
1240.000000	68.694237
1239.000000	68.692943
1238.000000	68.686365
1237.000000	68.646226
1236.000000	68.636073
1235.000000	68.620082
1234.000000	68.611905
1233.000000	68.578486
1232.000000	68.583674
1231.000000	68.588646
1230.000000	68.588458
1229.000000	68.569658
1228.000000	68.528648
1227.000000	68.525401
1226.000000	68.508852
1225.000000	68.492884
1224.000000	68.505566
1223.000000	68.479890
1222.000000	68.455269
1221.000000	68.451047
1220.000000	68.425500
1219.000000	68.421222
1218.000000	68.407797
1217.000000	68.378459
1216.000000	68.365344
1215.000000	68.354008
1214.000000	68.327272
1213.000000	68.349527
1212.000000	68.326165
1211.000000	68.312466
1210.000000	68.311060
1209.000000	68.277767
1208.000000	68.251297
1207.000000	68.218118
1206.000000	68.212771
1205.000000	68.200833
1204.000000	68.193227
1203.000000	68.178657
1202.000000	68.171983
1201.000000	68.141684
1200.000000	68.131825
1199.000000	68.122624
1198.000000	68.094355
1197.000000	68.082319
1196.000000	68.061346
1195.000000	68.056618
1194.000000	68.033257
1193.000000	68.013984
1192.000000	68.007959
1191.000000	68.006758
1190.000000	67.999682
1189.000000	67.969664
1188.000000	67.963125
1187.000000	67.982994
1186.000000	67.970545
1185.000000	67.972614
1184.000000	67.969014
1183.000000	67.987786
1182.000000	68.002180
1181.000000	68.018719
1180.000000	68.041230
1179.000000	68.059804
1178.000000	68.084007
1177.000000	68.098043
1176.000000	68.115589
1175.000000	68.162050
1174.000000	68.190193
1173.000000	68.206967
1172.000000	68.234230
1171.000000	68.263280
1170.000000	68.302579
1169.000000	68.339021
1168.000000	68.375185
1167.000000	68.418739
1166.000000	68.463934
1165.000000	68.499185
1164.000000	68.546902
1163.000000	68.583938
1162.000000	68.611144
1161.000000	68.653559
1160.000000	68.700696
1159.000000	68.747192
1158.000000	68.783675
1157.000000	68.814799
1156.000000	68.844559
1155.000000	68.865441
1154.000000	68.891365
1153.000000	68.930365
1152.000000	68.975188
1151.000000	69.004972
1150.000000	69.040013
1149.000000	69.076618
1148.000000	69.090144
1147.000000	69.121650
1146.000000	69.154801
1145.000000	69.164472
1144.000000	69.181185
1143.000000	69.211074
1142.000000	69.242368
1141.000000	69.246919
1140.000000	69.264202
1139.000000	69.290141
1138.000000	69.316560
1137.000000	69.354575
1136.000000	69.375818
1135.000000	69.385992
1134.000000	69.417958
1133.000000	69.426822
1132.000000	69.421200
1131.000000	69.447722
1130.000000	69.487933
1129.000000	69.503261
1128.000000	69.489504
1127.000000	69.478954
1126.000000	69.499888
1125.000000	69.519950
1124.000000	69.532271
1123.000000	69.532923
1122.000000	69.545962
1121.000000	69.559521
1120.000000	69.575801
1119.000000	69.582418
1118.000000	69.582344
1117.000000	69.580283
1116.000000	69.586876
1115.000000	69.598683
1114.000000	69.601756
1113.000000	69.607236
1112.000000	69.604116
1111.000000	69.607318
1110.000000	69.603075
1109.000000	69.607795
1108.000000	69.616526
1107.000000	69.609967
1106.000000	69.610205
1105.000000	69.613669
1104.000000	69.601842
1103.000000	69.614622
1102.000000	69.617353
1101.000000	69.615499
1100.000000	69.620781
1099.000000	69.632350
1098.000000	69.606215
1097.000000	69.606037
1096.000000	69.620998
1095.000000	69.607335
1094.000000	69.630957
1093.000000	69.626237
1092.000000	69.634984
1091.000000	69.614952
1090.000000	69.617929
1089.000000	69.619071
1088.000000	69.626108
1087.000000	69.642516
1086.000000	69.630206
1085.000000	69.597369
1084.000000	69.622435
1083.000000	69.602496
1082.000000	69.606852
1081.000000	69.616765
1080.000000	69.610484
1079.000000	69.587082
1078.000000	69.592541
1077.000000	69.577022
1076.000000	69.595328
1075.000000	69.585576
1074.000000	69.575229
1073.000000	69.601619
1072.000000	69.582912
1071.000000	69.569290
1070.000000	69.569885
1069.000000	69.576112
1068.000000	69.576110
1067.000000	69.573040
1066.000000	69.561814
1065.000000	69.573123
1064.000000	69.551586
1063.000000	69.555098
1062.000000	69.524342
1061.000000	69.551798
1060.000000	69.520483
1059.000000	69.515482
1058.000000	69.526462
1057.000000	69.530657
1056.000000	69.515164
1055.000000	69.508235
1054.000000	69.521350
1053.000000	69.546643
1052.000000	69.514052
1051.000000	69.511621
1050.000000	69.533420
1049.000000	69.509861
1048.000000	69.498104
1047.000000	69.508296
1046.000000	69.491015
1045.000000	69.499299
1044.000000	69.469532
1043.000000	69.487910
1042.000000	69.495835
1041.000000	69.481398
1040.000000	69.495207
1039.000000	69.475785
1038.000000	69.467552
1037.000000	69.475790
1036.000000	69.465457
1035.000000	69.467635
1034.000000	69.478274
1033.000000	69.456424
1032.000000	69.485058
1031.000000	69.465706
1030.000000	69.458360
1029.000000	69.452405
1028.000000	69.434140
1027.000000	69.439383
1026.000000	69.435569
1025.000000	69.447058
1024.000000	69.435956
1023.000000	69.430594
1022.000000	69.435360
1021.000000	69.407420
1020.000000	69.428677
1019.000000	69.437847
1018.000000	69.440434
1017.000000	69.446959
1016.000000	69.429729
1015.000000	69.440118
1014.000000	69.420031
1013.000000	69.427797
1012.000000	69.455320
1011.000000	69.432324
1010.000000	69.432971
1009.000000	69.423629
1008.000000	69.443462
1007.000000	69.450089
1006.000000	69.438672
1005.000000	69.440295
1004.000000	69.425622
1003.000000	69.428908
1002.000000	69.451079
1001.000000	69.451161
1000.000000	69.441815
999.000000	69.445483
998.000000	69.437925
997.000000	69.461431
996.000000	69.454224
995.000000	69.447957
994.000000	69.437957
993.000000	69.449300
992.000000	69.451533
991.000000	69.442757
990.000000	69.465271
989.000000	69.460241
988.000000	69.459618
987.000000	69.476836
986.000000	69.457780
985.000000	69.493911
984.000000	69.475948
983.000000	69.479063
982.000000	69.482924
981.000000	69.490215
980.000000	69.495853
979.000000	69.503278
978.000000	69.524143
977.000000	69.539053
976.000000	69.526391
975.000000	69.518686
974.000000	69.526554
973.000000	69.527766
972.000000	69.524590
971.000000	69.524984
970.000000	69.541074
969.000000	69.538993
968.000000	69.551662
967.000000	69.551545
966.000000	69.570763
965.000000	69.573755
964.000000	69.570049
963.000000	69.586449
962.000000	69.603868
961.000000	69.603368
960.000000	69.597425
959.000000	69.593245
958.000000	69.588589
957.000000	69.591101
956.000000	69.601529
955.000000	69.619294
954.000000	69.623292
953.000000	69.632507
952.000000	69.649743
951.000000	69.652024
950.000000	69.660447
949.000000	69.668016
948.000000	69.664344
947.000000	69.653469
946.000000	69.667830
945.000000	69.694650
944.000000	69.709935
943.000000	69.701965
942.000000	69.673804
941.000000	69.666297
940.000000	69.680440
939.000000	69.678720
938.000000	69.688291
937.000000	69.679014
936.000000	69.675946
935.000000	69.663421
934.000000	69.671853
933.000000	69.703857
932.000000	69.677148
931.000000	69.666719
930.000000	69.695999
929.000000	69.720646
928.000000	69.712424
927.000000	69.680978
926.000000	69.689830
925.000000	69.699267
924.000000	69.703472
923.000000	69.720283
922.000000	69.714153
921.000000	69.680181
920.000000	69.719255
919.000000	69.768014
918.000000	69.749499
917.000000	69.695208
916.000000	69.663328
915.000000	69.727438
914.000000	69.777440
913.000000	69.754716
912.000000	69.741127
911.000000	69.735327
910.000000	69.741026
909.000000	69.743864
908.000000	69.762010
907.000000	69.738712
906.000000	69.733257
905.000000	69.763265
904.000000	69.794208
903.000000	69.787317
902.000000	69.742474
901.000000	69.797732
900.000000	69.813913
899.000000	69.761326
898.000000	69.766081
897.000000	69.764092
896.000000	69.783345
895.000000	69.904617
894.000000	69.778046
893.000000	69.738059
892.000000	69.780036
891.000000	69.719604
890.000000	69.751578
889.000000	69.806242
888.000000	69.859591
887.000000	69.911447
886.000000	69.884235
885.000000	69.839737
884.000000	69.973149
883.000000	69.948741
882.000000	69.786694
881.000000	69.839920
880.000000	69.930856
879.000000	69.868247
878.000000	69.784271
877.000000	69.911710
876.000000	69.915736
875.000000	69.860815
874.000000	69.966488
873.000000	69.810785
872.000000	69.830937
871.000000	69.909805
870.000000	69.853734
869.000000	69.966493
868.000000	69.871761
867.000000	69.915815
866.000000	69.900518
865.000000	69.924130
864.000000	69.862903
863.000000	69.852183
862.000000	69.910761
861.000000	69.910620
860.000000	69.767109
859.000000	69.348493
858.000000	69.720496
857.000000	69.533632
856.000000	69.598230
855.000000	68.918718
854.000000	68.987219
853.000000	69.143889
852.000000	69.602393
851.000000	69.635838
850.000000	69.423029
849.000000	69.530392
848.000000	69.567189
847.000000	69.408156
846.000000	69.726606
845.000000	69.519153
844.000000	69.578289
843.000000	69.112585
842.000000	69.588000
841.000000	69.719431
840.000000	69.729091
839.000000	69.517576
838.000000	69.474861
837.000000	69.482431
836.000000	69.453955
835.000000	69.709393
834.000000	69.680898
833.000000	69.490828
832.000000	69.360768
831.000000	69.541713
830.000000	69.616050
829.000000	69.701222
828.000000	69.403856
827.000000	69.497433
826.000000	69.588703
825.000000	69.355031
824.000000	69.554801
823.000000	69.400817
822.000000	69.525839
821.000000	69.602009
820.000000	69.536888
819.000000	69.348024
818.000000	69.501005
817.000000	69.476755
816.000000	69.566848
815.000000	69.330357
814.000000	69.444264
813.000000	69.438816
812.000000	69.565679
811.000000	69.412556
810.000000	69.514946
809.000000	69.550847
808.000000	69.558104
807.000000	69.518987
806.000000	69.508964
805.000000	69.422530
804.000000	69.634706
803.000000	69.642498
802.000000	69.575001
801.000000	69.515929
800.000000	69.572119
799.000000	69.528132
798.000000	69.656285
797.000000	69.527999
796.000000	69.542487
795.000000	69.565934
794.000000	69.507555
793.000000	69.602853
792.000000	69.524859
791.000000	69.411123
790.000000	69.575878
789.000000	69.685045
788.000000	69.531002
787.000000	69.541205
786.000000	69.540635
785.000000	69.426767
784.000000	69.640538
783.000000	69.550251
782.000000	69.568445
781.000000	69.597190
780.000000	69.610690
779.000000	69.574363
778.000000	69.574593
777.000000	69.591276
776.000000	69.596860
775.000000	69.520216
774.000000	69.526060
773.000000	69.619209
772.000000	69.618673
771.000000	69.719436
770.000000	69.649714
769.000000	69.583222
768.000000	69.548234
767.000000	69.648614
766.000000	69.463917
765.000000	69.626917
764.000000	69.601319
763.000000	69.578698
762.000000	69.596914
761.000000	69.608204
760.000000	69.567530
759.000000	69.697141
758.000000	69.674134
757.000000	69.623451
756.000000	69.580310
755.000000	69.586658
754.000000	69.640368
753.000000	69.655701
752.000000	69.534940
751.000000	69.609043
750.000000	69.700869
749.000000	69.672547
748.000000	69.550198
747.000000	69.544580
746.000000	69.573529
745.000000	69.584630
744.000000	69.586443
743.000000	69.628671
742.000000	69.599926
741.000000	69.666351
740.000000	69.704201
739.000000	69.592044
738.000000	69.602039
737.000000	69.624966
736.000000	69.601040
735.000000	69.619047
734.000000	69.588342
733.000000	69.585926
732.000000	69.649680
731.000000	69.604091
730.000000	69.552901
729.000000	69.541667
728.000000	69.578386
727.000000	69.603160
726.000000	69.618684
725.000000	69.614789
724.000000	69.639564
723.000000	69.657668
722.000000	69.664809
721.000000	69.660312
720.000000	69.632609
719.000000	69.621290
718.000000	69.573515
717.000000	69.648498
716.000000	69.673211
715.000000	69.644889
714.000000	69.659028
713.000000	69.648590
712.000000	69.666965
711.000000	69.650965
710.000000	69.667230
709.000000	69.619553
708.000000	69.566605
707.000000	69.596448
706.000000	69.677241
705.000000	69.628620
704.000000	69.615129
703.000000	69.654440
702.000000	69.622536
701.000000	69.617589
700.000000	69.672679
699.000000	69.730791
698.000000	69.662757
697.000000	69.602400
696.000000	69.674287
695.000000	69.665914
694.000000	69.655529
693.000000	69.694622
692.000000	69.693271
691.000000	69.641634
690.000000	69.654253
689.000000	69.674451
688.000000	69.568731
687.000000	69.578339
686.000000	69.675693
685.000000	69.661884
684.000000	69.605533
683.000000	69.622464
682.000000	69.611084
681.000000	69.616447
680.000000	69.661956
679.000000	69.705899
678.000000	69.648799
677.000000	69.622770
676.000000	69.678004
675.000000	69.636826
674.000000	69.607703
673.000000	69.647522
672.000000	69.649628
671.000000	69.645457
670.000000	69.663433
669.000000	69.646647
668.000000	69.634202
667.000000	69.735803
666.000000	69.769106
665.000000	69.670552
664.000000	69.599804
663.000000	69.665737
662.000000	69.652958
661.000000	69.622876
660.000000	69.660712
659.000000	69.671240
658.000000	69.633837
657.000000	69.677049
656.000000	69.638615
655.000000	69.641103
654.000000	69.717880
653.000000	69.700422
652.000000	69.693851
651.000000	69.652637
650.000000	69.634587
649.000000	69.691092
648.000000	69.756931
647.000000	69.688299
646.000000	69.605354
645.000000	69.592682
644.000000	69.676237
643.000000	69.717967
642.000000	69.669079
641.000000	69.688066
640.000000	69.662615
639.000000	69.667575
638.000000	69.635211
637.000000	69.682097
636.000000	69.680465
635.000000	69.710063
634.000000	69.758388
633.000000	69.691774
632.000000	69.638966
631.000000	69.700332
630.000000	69.719966
629.000000	69.759361
628.000000	69.719870
627.000000	69.714336
626.000000	69.731144
625.000000	69.714387
624.000000	69.716402
623.000000	69.719408
622.000000	69.677191
621.000000	69.732304
620.000000	69.745734
619.000000	69.686685
618.000000	69.673118
617.000000	69.660614
616.000000	69.724306
615.000000	69.711185
614.000000	69.701463
613.000000	69.709279
612.000000	69.731710
611.000000	69.723089
610.000000	69.678843
609.000000	69.657162
608.000000	69.653647
607.000000	69.649845
606.000000	69.648774
605.000000	69.679108
604.000000	69.719534
603.000000	69.672409
602.000000	69.739785
601.000000	69.717577
600.000000	69.741131
599.000000	69.667493
598.000000	69.636176
597.000000	69.691378
596.000000	69.643593
595.000000	69.668915
594.000000	69.708045
593.000000	69.677662
592.000000	69.568530
591.000000	69.610247
590.000000	69.604036
589.000000	69.638787
588.000000	69.573039
587.000000	69.619762
586.000000	69.591645
585.000000	69.649921
584.000000	69.561158
583.000000	69.541634
582.000000	69.568101
581.000000	69.620109
580.000000	69.633338
579.000000	69.633587
578.000000	69.596852
577.000000	69.564979
576.000000	69.603987
575.000000	69.595177
574.000000	69.556334
573.000000	69.569909
572.000000	69.547433
571.000000	69.615208
570.000000	69.542213
569.000000	69.510519
568.000000	69.498014
567.000000	69.547072
566.000000	69.449169
565.000000	69.526610
564.000000	69.489218
563.000000	69.508842
562.000000	69.492860
561.000000	69.496458
560.000000	69.457465
559.000000	69.424909
558.000000	69.446248
557.000000	69.484932
556.000000	69.488036
555.000000	69.451499
554.000000	69.402146
553.000000	69.424294
552.000000	69.439368
551.000000	69.420831
550.000000	69.369391
549.000000	69.370652
548.000000	69.426340
547.000000	69.383996
546.000000	69.330574
545.000000	69.338955
544.000000	69.356649
543.000000	69.332562
542.000000	69.301336
541.000000	69.326711
540.000000	69.266010
539.000000	69.242982
538.000000	69.290421
537.000000	69.260886
536.000000	69.216063
535.000000	69.211990
534.000000	69.235888
533.000000	69.193967
532.000000	69.185302
531.000000	69.170177
530.000000	69.197265
529.000000	69.183169
528.000000	69.128131
527.000000	69.109970
526.000000	69.081659
525.000000	69.071995
524.000000	69.035311
523.000000	69.063041
522.000000	69.012758
521.000000	69.026171
520.000000	69.014054
519.000000	68.978656
518.000000	68.957440
517.000000	68.977852
516.000000	68.929406
515.000000	68.914019
514.000000	68.915786
513.000000	68.893956
512.000000	68.818177
511.000000	68.816838
510.000000	68.788728
509.000000	68.811890
508.000000	68.783402
507.000000	68.750601
506.000000	68.741525
505.000000	68.732817
504.000000	68.678288
503.000000	68.689480
502.000000	68.700505
501.000000	68.693590
500.000000	68.625742
499.000000	68.610988
498.000000	68.597456
497.000000	68.570541
496.000000	68.490097
495.000000	68.455476
494.000000	68.445154
493.000000	68.509827
492.000000	68.489856
491.000000	68.419077
490.000000	68.393773
489.000000	68.376896
488.000000	68.348332
487.000000	68.322879
486.000000	68.256350
485.000000	68.242210
484.000000	68.300794
483.000000	68.299157
482.000000	68.226920
481.000000	68.184928
480.000000	68.116378
479.000000	68.055093
478.000000	68.046396
477.000000	68.024961
476.000000	68.011991
475.000000	67.993147
474.000000	67.934166
473.000000	67.904993
472.000000	67.863812
471.000000	67.867420
470.000000	67.852279
469.000000	67.788677
468.000000	67.753541
467.000000	67.748761
466.000000	67.670018
465.000000	67.615458
464.000000	67.628594
463.000000	67.616298
462.000000	67.527735
461.000000	67.450969
460.000000	67.420016
459.000000	67.392791
458.000000	67.368288
457.000000	67.308387
456.000000	67.234125
455.000000	67.204923
454.000000	67.174955
453.000000	67.101868
452.000000	67.052782
451.000000	66.982499
450.000000	66.895941
449.000000	66.865452
448.000000	66.780827
447.000000	66.716457
446.000000	66.738409
445.000000	66.682256
444.000000	66.569043
443.000000	66.510764
442.000000	66.390652
441.000000	66.322879
440.000000	66.305603
439.000000	66.200294
438.000000	66.123599
437.000000	66.032218
436.000000	65.986296
435.000000	65.934536
434.000000	65.828635
433.000000	65.729011
432.000000	65.641869
431.000000	65.555310
430.000000	65.487563
429.000000	65.383939
428.000000	65.351140
427.000000	65.202907
426.000000	65.088397
425.000000	64.987399
424.000000	64.839592
423.000000	64.743170
422.000000	64.618876
421.000000	64.545289
420.000000	64.463841
419.000000	64.361025
418.000000	64.178121
417.000000	64.061707
416.000000	63.951460
415.000000	63.819841
414.000000	63.708974
413.000000	63.632122
412.000000	63.452877
411.000000	63.267773
410.000000	63.169152
409.000000	63.110209
408.000000	62.876186
407.000000	62.860872
406.000000	62.686104
405.000000	62.456926
404.000000	62.363139
403.000000	62.247724
402.000000	62.097320
401.000000	61.892395
400.000000	61.717959
399.000000	61.588003
398.000000	61.481912
397.000000	61.282746
396.000000	61.203610
395.000000	60.945869
394.000000	60.831288
393.000000	60.599229
392.000000	60.450997
391.000000	60.389195
390.000000	60.241332
389.000000	60.012407
388.000000	59.777201
387.000000	59.673225
386.000000	59.524774
385.000000	59.279024
384.000000	59.149591
383.000000	59.021250
382.000000	58.726587
381.000000	58.548405
380.000000	58.207407
379.000000	58.006038
378.000000	57.750392
377.000000	57.733600
376.000000	57.644949
375.000000	57.206980
374.000000	56.913695
373.000000	56.800255
372.000000	56.639781
371.000000	56.241279
370.000000	56.034746
369.000000	55.714934
368.000000	55.632582
367.000000	55.128698
366.000000	54.955053
365.000000	54.658296
364.000000	54.448537
363.000000	54.338320
362.000000	54.085008
361.000000	53.814848
360.000000	53.543816
359.000000	53.388065
358.000000	53.148333
357.000000	52.706411
356.000000	52.532032
355.000000	52.354259
354.000000	52.093377
353.000000	51.823280
352.000000	51.610457
351.000000	51.321770
350.000000	50.989553
349.000000	50.651597
348.000000	50.432172
347.000000	50.215887
346.000000	49.902176
345.000000	49.700868
344.000000	49.135105
343.000000	49.118449
342.000000	48.618226
341.000000	48.367669
340.000000	48.041146
339.000000	47.633122
338.000000	47.077397
337.000000	46.694289
336.000000	46.592213
335.000000	46.117876
334.000000	45.561520
333.000000	45.035672
332.000000	44.411047
331.000000	44.445471
330.000000	43.331375
329.000000	43.141481
328.000000	42.748492
327.000000	42.197207
326.000000	42.030252
325.000000	41.621963
324.000000	40.872958
323.000000	40.379180
322.000000	40.446410
321.000000	39.716273
320.000000	39.494182
319.000000	39.224118
318.000000	39.178317
317.000000	38.780596
316.000000	38.690164
315.000000	38.393370
314.000000	38.327635
313.000000	38.062046
312.000000	37.792813
311.000000	37.649820
310.000000	37.456901
309.000000	37.213540
308.000000	36.994452
307.000000	36.729263
306.000000	36.610903
305.000000	36.275357
304.000000	36.175189
303.000000	36.021791
302.000000	35.835265
301.000000	35.461812
300.000000	35.372277
299.000000	34.961591
298.000000	34.679274
297.000000	34.328344
296.000000	33.885832
295.000000	33.313088
294.000000	32.729811
293.000000	31.919010
292.000000	31.065629
291.000000	30.205301
290.000000	29.345395
289.000000	28.426609
288.000000	27.559840
287.000000	26.796887
286.000000	26.327350
285.000000	26.087293
284.000000	25.986548
283.000000	25.904113
282.000000	25.838438
281.000000	25.814472
280.000000	25.809924
279.000000	25.757947
278.000000	25.883212
277.000000	25.975098
276.000000	26.255265
275.000000	26.532848
274.000000	26.822440
273.000000	27.186131
272.000000	27.474233
271.000000	27.506597
270.000000	27.581919
269.000000	27.709900
268.000000	27.944055
267.000000	28.288743
266.000000	28.612359
265.000000	28.839173
264.000000	29.061146
263.000000	29.449440
262.000000	29.777579
261.000000	30.016449
260.000000	30.242854
259.000000	30.556238
258.000000	31.009082
257.000000	31.366651
256.000000	31.687900
255.000000	31.844076
254.000000	32.012110
253.000000	32.090732
252.000000	31.954128
251.000000	31.846607
250.000000	31.496928
249.000000	31.009783
248.000000	30.258669
247.000000	29.358295
246.000000	28.308809
245.000000	27.076475
244.000000	25.810364
243.000000	24.514560
242.000000	23.360319
241.000000	22.185978
240.000000	21.094356
239.000000	20.304830
238.000000	19.708082
237.000000	19.161592
236.000000	18.816869
235.000000	18.561476
234.000000	18.402861
233.000000	18.359359
232.000000	18.176963
231.000000	18.111057
230.000000	18.224708
229.000000	18.199115
228.000000	18.167318
227.000000	18.217839
226.000000	18.324133
225.000000	18.579909
224.000000	18.795475
223.000000	18.918093
222.000000	19.111847
221.000000	19.325838
220.000000	19.616357
219.000000	19.880511
218.000000	20.137561
217.000000	20.472979
216.000000	20.779889
215.000000	21.206924
214.000000	21.586015
213.000000	21.944142
212.000000	22.336541
211.000000	22.678697
210.000000	23.086665
209.000000	23.536466
208.000000	24.084014
207.000000	24.594634
206.000000	25.269550
205.000000	25.966573
204.000000	26.499299
203.000000	27.110430
202.000000	27.952372
201.000000	28.731445
200.000000	29.461485
