PE UV       SUBTECH     SPECTRUM    ASCII       PEDS        4.00        
   -1
RDAgneauUK 32.Sample.asc
18/03/05
11:46:05.00
18/03/05
11:46:05.00
Administrator

200.000000
1
Lambda 750
750N8071901
PerkinElmer UV WinLab 6.0.4.0738 / 1.61.00 Lambda 900

0
0
3350/servo 860.8/2
0
0
UV/VIS
1
1
1
CommonBeamDepol,150mm sphere / downward view
0
0
0
0
Program
Program
3350/servo 860.8/2
3350/0.2 860.8/0.2
3350/0.2 860.8/0.2
0
1
 
 
 
0
 
860.8
319.2
860.8
Front
100
on
 
 
0
0
0
 
0
 
 
 
0
 
 
0
0
0
0
0
 
 
 
 
0
0


0
0
#HDR
-1
-1
#GR
nm
%R
1.0
0.0
2350.000000
-1.000000
2151
8
73.021572
17.373390
#DATA
2350.000000	41.309055
2349.000000	41.184501
2348.000000	41.359794
2347.000000	41.737027
2346.000000	41.375350
2345.000000	41.193077
2344.000000	41.312190
2343.000000	41.269370
2342.000000	40.776645
2341.000000	41.326979
2340.000000	41.305873
2339.000000	41.469651
2338.000000	41.326915
2337.000000	41.588065
2336.000000	41.414903
2335.000000	41.800987
2334.000000	41.458146
2333.000000	41.953353
2332.000000	41.785084
2331.000000	41.587540
2330.000000	41.605496
2329.000000	41.523310
2328.000000	41.632003
2327.000000	41.634400
2326.000000	41.544919
2325.000000	41.525601
2324.000000	41.625100
2323.000000	41.472226
2322.000000	41.343007
2321.000000	41.364023
2320.000000	41.170864
2319.000000	41.369396
2318.000000	41.273939
2317.000000	41.277478
2316.000000	41.042957
2315.000000	40.896418
2314.000000	40.871325
2313.000000	41.042082
2312.000000	40.710380
2311.000000	40.893670
2310.000000	40.990837
2309.000000	40.648236
2308.000000	40.495677
2307.000000	40.215191
2306.000000	40.293269
2305.000000	40.114067
2304.000000	40.103599
2303.000000	40.286525
2302.000000	40.036297
2301.000000	39.809704
2300.000000	39.675401
2299.000000	39.724966
2298.000000	39.367810
2297.000000	39.518646
2296.000000	39.520784
2295.000000	39.333820
2294.000000	38.991293
2293.000000	38.932097
2292.000000	38.885249
2291.000000	38.799332
2290.000000	38.690210
2289.000000	38.665300
2288.000000	38.612896
2287.000000	38.651589
2286.000000	38.525342
2285.000000	38.548243
2284.000000	38.581672
2283.000000	38.539654
2282.000000	38.487384
2281.000000	38.533282
2280.000000	38.473637
2279.000000	38.393597
2278.000000	38.292506
2277.000000	38.215066
2276.000000	38.513632
2275.000000	38.609800
2274.000000	38.589708
2273.000000	38.565729
2272.000000	38.682163
2271.000000	38.629263
2270.000000	38.751942
2269.000000	38.890133
2268.000000	39.030846
2267.000000	39.088038
2266.000000	39.129317
2265.000000	39.313511
2264.000000	39.563886
2263.000000	39.584612
2262.000000	39.690879
2261.000000	39.782177
2260.000000	39.940930
2259.000000	40.104427
2258.000000	40.252983
2257.000000	40.518573
2256.000000	40.652439
2255.000000	40.875475
2254.000000	41.136574
2253.000000	41.193564
2252.000000	41.432917
2251.000000	41.707692
2250.000000	41.989661
2249.000000	42.163333
2248.000000	42.286734
2247.000000	42.482428
2246.000000	42.734944
2245.000000	42.994354
2244.000000	43.192486
2243.000000	43.414143
2242.000000	43.611210
2241.000000	43.775853
2240.000000	43.845808
2239.000000	43.930522
2238.000000	44.017537
2237.000000	44.139002
2236.000000	44.238064
2235.000000	44.481619
2234.000000	44.634022
2233.000000	44.555054
2232.000000	44.604301
2231.000000	44.741540
2230.000000	44.821884
2229.000000	44.874523
2228.000000	44.941271
2227.000000	45.043091
2226.000000	44.998256
2225.000000	44.980485
2224.000000	45.021156
2223.000000	45.004793
2222.000000	44.924965
2221.000000	44.773157
2220.000000	44.785575
2219.000000	44.909898
2218.000000	44.907230
2217.000000	44.767661
2216.000000	44.798496
2215.000000	44.707771
2214.000000	44.617232
2213.000000	44.649777
2212.000000	44.517369
2211.000000	44.265159
2210.000000	44.321792
2209.000000	44.167507
2208.000000	44.131548
2207.000000	44.160533
2206.000000	44.004321
2205.000000	43.991893
2204.000000	44.013844
2203.000000	43.958885
2202.000000	43.768517
2201.000000	43.649441
2200.000000	43.577364
2199.000000	43.555375
2198.000000	43.535548
2197.000000	43.394377
2196.000000	43.252943
2195.000000	43.185959
2194.000000	43.093509
2193.000000	42.957528
2192.000000	42.948791
2191.000000	42.988475
2190.000000	42.821041
2189.000000	42.808757
2188.000000	42.740674
2187.000000	42.710013
2186.000000	42.632814
2185.000000	42.422755
2184.000000	42.431612
2183.000000	42.481451
2182.000000	42.386726
2181.000000	42.386684
2180.000000	42.458707
2179.000000	42.310853
2178.000000	42.304443
2177.000000	42.355272
2176.000000	42.348204
2175.000000	42.444059
2174.000000	42.526128
2173.000000	42.641524
2172.000000	42.576960
2171.000000	42.532343
2170.000000	42.592017
2169.000000	42.715987
2168.000000	42.766378
2167.000000	42.892472
2166.000000	43.077225
2165.000000	43.164650
2164.000000	43.238197
2163.000000	43.306669
2162.000000	43.493337
2161.000000	43.647884
2160.000000	43.720640
2159.000000	43.848092
2158.000000	43.915967
2157.000000	44.254252
2156.000000	44.272355
2155.000000	44.401674
2154.000000	44.756770
2153.000000	44.999929
2152.000000	44.954537
2151.000000	45.194324
2150.000000	45.556377
2149.000000	45.535839
2148.000000	45.589234
2147.000000	45.952131
2146.000000	45.865185
2145.000000	46.023620
2144.000000	46.326454
2143.000000	46.314385
2142.000000	46.597261
2141.000000	46.724305
2140.000000	46.750640
2139.000000	46.984333
2138.000000	47.352993
2137.000000	47.281957
2136.000000	47.543049
2135.000000	47.510704
2134.000000	47.721201
2133.000000	47.657355
2132.000000	47.683029
2131.000000	47.979929
2130.000000	48.182375
2129.000000	48.124837
2128.000000	48.033270
2127.000000	48.083399
2126.000000	48.279012
2125.000000	48.282880
2124.000000	48.535151
2123.000000	48.443322
2122.000000	48.581737
2121.000000	48.604939
2120.000000	48.690851
2119.000000	48.632521
2118.000000	48.688705
2117.000000	48.648507
2116.000000	48.698688
2115.000000	48.789436
2114.000000	48.824198
2113.000000	48.873565
2112.000000	48.813102
2111.000000	48.719409
2110.000000	48.822720
2109.000000	48.981204
2108.000000	48.973396
2107.000000	49.098404
2106.000000	49.017395
2105.000000	48.880624
2104.000000	48.904047
2103.000000	49.020731
2102.000000	49.084224
2101.000000	49.107752
2100.000000	49.167430
2099.000000	49.062558
2098.000000	49.094712
2097.000000	49.134115
2096.000000	49.080207
2095.000000	49.039053
2094.000000	49.124872
2093.000000	49.081335
2092.000000	49.011532
2091.000000	49.022664
2090.000000	48.956797
2089.000000	49.020048
2088.000000	48.974425
2087.000000	49.011643
2086.000000	48.849973
2085.000000	48.841473
2084.000000	48.724796
2083.000000	48.644813
2082.000000	48.578137
2081.000000	48.530858
2080.000000	48.497041
2079.000000	48.470856
2078.000000	48.292633
2077.000000	48.159286
2076.000000	48.123076
2075.000000	48.031404
2074.000000	47.946534
2073.000000	47.814847
2072.000000	47.657882
2071.000000	47.549964
2070.000000	47.460930
2069.000000	47.283590
2068.000000	47.148091
2067.000000	46.961893
2066.000000	46.774048
2065.000000	46.663852
2064.000000	46.496726
2063.000000	46.316384
2062.000000	46.212327
2061.000000	46.009074
2060.000000	45.791892
2059.000000	45.670013
2058.000000	45.578598
2057.000000	45.516625
2056.000000	45.313373
2055.000000	45.080631
2054.000000	44.897850
2053.000000	44.820855
2052.000000	44.679994
2051.000000	44.526404
2050.000000	44.480486
2049.000000	44.354858
2048.000000	44.288017
2047.000000	44.239277
2046.000000	44.116357
2045.000000	43.953726
2044.000000	43.934965
2043.000000	43.971103
2042.000000	43.974060
2041.000000	44.020423
2040.000000	44.002062
2039.000000	44.017625
2038.000000	44.066122
2037.000000	44.120833
2036.000000	44.223240
2035.000000	44.368778
2034.000000	44.472764
2033.000000	44.566742
2032.000000	44.695586
2031.000000	44.778322
2030.000000	44.883918
2029.000000	45.064373
2028.000000	45.194460
2027.000000	45.285945
2026.000000	45.425904
2025.000000	45.569773
2024.000000	45.658233
2023.000000	45.722403
2022.000000	45.815263
2021.000000	45.917347
2020.000000	46.011756
2019.000000	46.051004
2018.000000	46.087981
2017.000000	46.127927
2016.000000	46.153518
2015.000000	46.199812
2014.000000	46.197450
2013.000000	46.171534
2012.000000	46.143249
2011.000000	46.105576
2010.000000	46.069497
2009.000000	46.043263
2008.000000	46.024022
2007.000000	45.947761
2006.000000	45.855402
2005.000000	45.773640
2004.000000	45.735310
2003.000000	45.681354
2002.000000	45.535229
2001.000000	45.436168
2000.000000	45.407520
1999.000000	45.302381
1998.000000	45.171801
1997.000000	45.087912
1996.000000	45.020953
1995.000000	44.921139
1994.000000	44.796271
1993.000000	44.686956
1992.000000	44.571030
1991.000000	44.491339
1990.000000	44.423424
1989.000000	44.327652
1988.000000	44.201977
1987.000000	44.095471
1986.000000	43.956123
1985.000000	43.839677
1984.000000	43.785910
1983.000000	43.656242
1982.000000	43.539174
1981.000000	43.439553
1980.000000	43.290086
1979.000000	43.172042
1978.000000	43.072388
1977.000000	42.965973
1976.000000	42.840906
1975.000000	42.779354
1974.000000	42.663202
1973.000000	42.596515
1972.000000	42.494784
1971.000000	42.358153
1970.000000	42.248580
1969.000000	42.157655
1968.000000	42.044180
1967.000000	41.901848
1966.000000	41.811463
1965.000000	41.696357
1964.000000	41.659837
1963.000000	41.518116
1962.000000	41.447041
1961.000000	41.319305
1960.000000	41.234119
1959.000000	41.117001
1958.000000	41.043395
1957.000000	40.936927
1956.000000	40.838331
1955.000000	40.775320
1954.000000	40.699183
1953.000000	40.612307
1952.000000	40.589668
1951.000000	40.534647
1950.000000	40.437276
1949.000000	40.405204
1948.000000	40.415953
1947.000000	40.353450
1946.000000	40.300788
1945.000000	40.278294
1944.000000	40.268734
1943.000000	40.299477
1942.000000	40.339438
1941.000000	40.365257
1940.000000	40.421608
1939.000000	40.477639
1938.000000	40.611369
1937.000000	40.638700
1936.000000	40.773621
1935.000000	40.838663
1934.000000	41.013354
1933.000000	41.153183
1932.000000	41.142450
1931.000000	41.383793
1930.000000	41.607149
1929.000000	41.797938
1928.000000	42.014687
1927.000000	42.252100
1926.000000	42.450183
1925.000000	42.693607
1924.000000	42.952002
1923.000000	43.238206
1922.000000	43.501121
1921.000000	43.885463
1920.000000	44.084644
1919.000000	44.481454
1918.000000	44.737850
1917.000000	45.145369
1916.000000	45.249780
1915.000000	45.835449
1914.000000	46.152271
1913.000000	46.612302
1912.000000	46.971827
1911.000000	47.398621
1910.000000	47.806707
1909.000000	48.202005
1908.000000	48.645856
1907.000000	49.111590
1906.000000	49.490556
1905.000000	49.933350
1904.000000	50.468149
1903.000000	50.883098
1902.000000	51.408706
1901.000000	51.940027
1900.000000	52.341973
1899.000000	52.824237
1898.000000	53.336537
1897.000000	53.707885
1896.000000	54.219073
1895.000000	54.648209
1894.000000	55.117847
1893.000000	55.564652
1892.000000	55.980769
1891.000000	56.363581
1890.000000	56.807021
1889.000000	57.187400
1888.000000	57.598993
1887.000000	57.902428
1886.000000	58.295027
1885.000000	58.616982
1884.000000	58.981720
1883.000000	59.290185
1882.000000	59.585165
1881.000000	59.863921
1880.000000	60.144083
1879.000000	60.426809
1878.000000	60.650793
1877.000000	60.891595
1876.000000	61.062157
1875.000000	61.306404
1874.000000	61.486947
1873.000000	61.664995
1872.000000	61.826845
1871.000000	62.013800
1870.000000	62.132659
1869.000000	62.262383
1868.000000	62.333722
1867.000000	62.442963
1866.000000	62.576340
1865.000000	62.599773
1864.000000	62.698188
1863.000000	62.711880
1862.000000	62.804760
1861.000000	62.865257
1860.000000	62.915061
1859.000000	62.955003
1858.000000	62.960693
1857.000000	62.960931
1856.000000	63.009760
1855.000000	63.080994
1854.000000	63.142308
1853.000000	63.120266
1852.000000	63.143944
1851.000000	63.164750
1850.000000	63.165431
1849.000000	63.140865
1848.000000	63.146277
1847.000000	63.125359
1846.000000	63.099470
1845.000000	63.112869
1844.000000	63.091675
1843.000000	63.058471
1842.000000	63.052472
1841.000000	63.024021
1840.000000	62.982976
1839.000000	62.991911
1838.000000	62.940834
1837.000000	62.871370
1836.000000	62.878039
1835.000000	62.841185
1834.000000	62.783070
1833.000000	62.755126
1832.000000	62.717739
1831.000000	62.672991
1830.000000	62.611062
1829.000000	62.596620
1828.000000	62.578566
1827.000000	62.501774
1826.000000	62.466876
1825.000000	62.470781
1824.000000	62.434519
1823.000000	62.385183
1822.000000	62.354794
1821.000000	62.310546
1820.000000	62.273759
1819.000000	62.235703
1818.000000	62.200022
1817.000000	62.165499
1816.000000	62.139839
1815.000000	62.095805
1814.000000	62.049081
1813.000000	62.025423
1812.000000	61.993106
1811.000000	61.989744
1810.000000	61.969422
1809.000000	61.942431
1808.000000	61.926291
1807.000000	61.895344
1806.000000	61.852376
1805.000000	61.804035
1804.000000	61.768178
1803.000000	61.758943
1802.000000	61.734241
1801.000000	61.724616
1800.000000	61.709697
1799.000000	61.667364
1798.000000	61.633654
1797.000000	61.608207
1796.000000	61.580435
1795.000000	61.572956
1794.000000	61.571666
1793.000000	61.540891
1792.000000	61.511835
1791.000000	61.498098
1790.000000	61.483060
1789.000000	61.458950
1788.000000	61.429181
1787.000000	61.386274
1786.000000	61.350139
1785.000000	61.322869
1784.000000	61.303356
1783.000000	61.283967
1782.000000	61.241842
1781.000000	61.209805
1780.000000	61.168893
1779.000000	61.132688
1778.000000	61.087644
1777.000000	61.033753
1776.000000	61.030214
1775.000000	60.957951
1774.000000	60.902944
1773.000000	60.888733
1772.000000	60.790242
1771.000000	60.719592
1770.000000	60.664322
1769.000000	60.606387
1768.000000	60.553062
1767.000000	60.525100
1766.000000	60.500382
1765.000000	60.453730
1764.000000	60.396952
1763.000000	60.353696
1762.000000	60.273779
1761.000000	60.239326
1760.000000	60.161435
1759.000000	60.104449
1758.000000	60.078596
1757.000000	60.013464
1756.000000	59.971974
1755.000000	59.934615
1754.000000	59.872185
1753.000000	59.801854
1752.000000	59.747374
1751.000000	59.719288
1750.000000	59.674133
1749.000000	59.598941
1748.000000	59.527104
1747.000000	59.482106
1746.000000	59.429099
1745.000000	59.361358
1744.000000	59.339917
1743.000000	59.296857
1742.000000	59.236328
1741.000000	59.194828
1740.000000	59.155622
1739.000000	59.119616
1738.000000	59.084167
1737.000000	59.042074
1736.000000	59.034773
1735.000000	59.001661
1734.000000	58.993904
1733.000000	58.981865
1732.000000	58.998342
1731.000000	59.021028
1730.000000	58.993470
1729.000000	59.044916
1728.000000	59.109365
1727.000000	59.171571
1726.000000	59.235303
1725.000000	59.289128
1724.000000	59.374521
1723.000000	59.435328
1722.000000	59.517480
1721.000000	59.598195
1720.000000	59.698452
1719.000000	59.795146
1718.000000	59.885649
1717.000000	59.960236
1716.000000	60.035761
1715.000000	60.103987
1714.000000	60.166488
1713.000000	60.234923
1712.000000	60.304106
1711.000000	60.404123
1710.000000	60.432231
1709.000000	60.475830
1708.000000	60.523281
1707.000000	60.576144
1706.000000	60.603837
1705.000000	60.634081
1704.000000	60.650336
1703.000000	60.685832
1702.000000	60.626771
1701.000000	60.711439
1700.000000	60.695101
1699.000000	60.684623
1698.000000	60.755069
1697.000000	60.781164
1696.000000	60.797606
1695.000000	60.761723
1694.000000	60.807699
1693.000000	60.890876
1692.000000	60.928755
1691.000000	60.988518
1690.000000	61.070458
1689.000000	61.109386
1688.000000	61.209032
1687.000000	61.303704
1686.000000	61.419871
1685.000000	61.519249
1684.000000	61.680699
1683.000000	61.791301
1682.000000	61.956321
1681.000000	62.101357
1680.000000	62.221613
1679.000000	62.365051
1678.000000	62.527761
1677.000000	62.661592
1676.000000	62.838736
1675.000000	62.996478
1674.000000	63.157435
1673.000000	63.317550
1672.000000	63.451036
1671.000000	63.561169
1670.000000	63.697862
1669.000000	63.858963
1668.000000	63.913858
1667.000000	64.077719
1666.000000	64.154966
1665.000000	64.253308
1664.000000	64.314760
1663.000000	64.383837
1662.000000	64.465561
1661.000000	64.531595
1660.000000	64.612679
1659.000000	64.619002
1658.000000	64.672927
1657.000000	64.705811
1656.000000	64.766858
1655.000000	64.797352
1654.000000	64.818501
1653.000000	64.841939
1652.000000	64.850104
1651.000000	64.835784
1650.000000	64.847397
1649.000000	64.849498
1648.000000	64.804610
1647.000000	64.834694
1646.000000	64.835110
1645.000000	64.826408
1644.000000	64.793881
1643.000000	64.779430
1642.000000	64.750983
1641.000000	64.714561
1640.000000	64.693744
1639.000000	64.691275
1638.000000	64.680693
1637.000000	64.680874
1636.000000	64.647669
1635.000000	64.605206
1634.000000	64.559912
1633.000000	64.524378
1632.000000	64.504227
1631.000000	64.471228
1630.000000	64.420701
1629.000000	64.375838
1628.000000	64.357220
1627.000000	64.308933
1626.000000	64.272147
1625.000000	64.235280
1624.000000	64.201692
1623.000000	64.184777
1622.000000	64.144006
1621.000000	64.074508
1620.000000	64.038801
1619.000000	64.007378
1618.000000	63.955480
1617.000000	63.911215
1616.000000	63.867108
1615.000000	63.828177
1614.000000	63.779541
1613.000000	63.716501
1612.000000	63.667700
1611.000000	63.615201
1610.000000	63.569771
1609.000000	63.537359
1608.000000	63.488545
1607.000000	63.437753
1606.000000	63.383283
1605.000000	63.335346
1604.000000	63.273201
1603.000000	63.201307
1602.000000	63.150718
1601.000000	63.108732
1600.000000	63.064930
1599.000000	63.001154
1598.000000	62.947740
1597.000000	62.912843
1596.000000	62.845979
1595.000000	62.796699
1594.000000	62.757738
1593.000000	62.706615
1592.000000	62.669843
1591.000000	62.634237
1590.000000	62.582412
1589.000000	62.516207
1588.000000	62.485240
1587.000000	62.447720
1586.000000	62.403301
1585.000000	62.369595
1584.000000	62.337467
1583.000000	62.296351
1582.000000	62.242973
1581.000000	62.196590
1580.000000	62.159942
1579.000000	62.128462
1578.000000	62.088901
1577.000000	62.047038
1576.000000	62.009589
1575.000000	61.969631
1574.000000	61.932941
1573.000000	61.895642
1572.000000	61.858496
1571.000000	61.828560
1570.000000	61.794287
1569.000000	61.757674
1568.000000	61.720297
1567.000000	61.681385
1566.000000	61.662985
1565.000000	61.640496
1564.000000	61.597381
1563.000000	61.581846
1562.000000	61.545201
1561.000000	61.515222
1560.000000	61.529934
1559.000000	61.499352
1558.000000	61.475838
1557.000000	61.471619
1556.000000	61.462642
1555.000000	61.458294
1554.000000	61.426444
1553.000000	61.406749
1552.000000	61.381451
1551.000000	61.342405
1550.000000	61.315241
1549.000000	61.281886
1548.000000	61.241232
1547.000000	61.191413
1546.000000	61.139067
1545.000000	61.086805
1544.000000	61.023955
1543.000000	60.974093
1542.000000	60.906487
1541.000000	60.837523
1540.000000	60.745979
1539.000000	60.672581
1538.000000	60.606586
1537.000000	60.519847
1536.000000	60.426735
1535.000000	60.354608
1534.000000	60.292520
1533.000000	60.224084
1532.000000	60.124863
1531.000000	60.052371
1530.000000	59.991419
1529.000000	59.901370
1528.000000	59.837676
1527.000000	59.761283
1526.000000	59.708666
1525.000000	59.673231
1524.000000	59.606741
1523.000000	59.556882
1522.000000	59.491803
1521.000000	59.436164
1520.000000	59.407295
1519.000000	59.389882
1518.000000	59.339620
1517.000000	59.272948
1516.000000	59.251422
1515.000000	59.223023
1514.000000	59.172878
1513.000000	59.146347
1512.000000	59.143485
1511.000000	59.100742
1510.000000	59.085921
1509.000000	59.089341
1508.000000	59.048314
1507.000000	59.020493
1506.000000	59.028519
1505.000000	59.007055
1504.000000	58.990206
1503.000000	58.993753
1502.000000	58.989009
1501.000000	58.984613
1500.000000	59.004795
1499.000000	58.992092
1498.000000	59.015888
1497.000000	59.019465
1496.000000	59.023840
1495.000000	59.059646
1494.000000	59.098421
1493.000000	59.117700
1492.000000	59.151118
1491.000000	59.207369
1490.000000	59.238374
1489.000000	59.307489
1488.000000	59.348767
1487.000000	59.392660
1486.000000	59.462362
1485.000000	59.499356
1484.000000	59.562270
1483.000000	59.643406
1482.000000	59.702077
1481.000000	59.765102
1480.000000	59.845545
1479.000000	59.905062
1478.000000	59.954189
1477.000000	60.035170
1476.000000	60.093494
1475.000000	60.154164
1474.000000	60.196911
1473.000000	60.244088
1472.000000	60.333490
1471.000000	60.383070
1470.000000	60.423982
1469.000000	60.485504
1468.000000	60.542505
1467.000000	60.614376
1466.000000	60.651958
1465.000000	60.701207
1464.000000	60.747432
1463.000000	60.785616
1462.000000	60.838326
1461.000000	60.894663
1460.000000	60.926656
1459.000000	61.005224
1458.000000	61.072507
1457.000000	61.107129
1456.000000	61.165536
1455.000000	61.206516
1454.000000	61.270421
1453.000000	61.328084
1452.000000	61.396578
1451.000000	61.442192
1450.000000	61.518754
1449.000000	61.572465
1448.000000	61.644991
1447.000000	61.707246
1446.000000	61.775567
1445.000000	61.834984
1444.000000	61.926089
1443.000000	61.998824
1442.000000	62.069385
1441.000000	62.128633
1440.000000	62.239076
1439.000000	62.315157
1438.000000	62.395091
1437.000000	62.492118
1436.000000	62.576150
1435.000000	62.669501
1434.000000	62.753453
1433.000000	62.852996
1432.000000	62.936588
1431.000000	63.046517
1430.000000	63.138095
1429.000000	63.256984
1428.000000	63.380501
1427.000000	63.486463
1426.000000	63.593746
1425.000000	63.721062
1424.000000	63.846120
1423.000000	63.987202
1422.000000	64.103081
1421.000000	64.259884
1420.000000	64.372677
1419.000000	64.509469
1418.000000	64.633045
1417.000000	64.778806
1416.000000	64.938184
1415.000000	65.077723
1414.000000	65.189350
1413.000000	65.339499
1412.000000	65.500391
1411.000000	65.624181
1410.000000	65.762959
1409.000000	65.912495
1408.000000	66.066870
1407.000000	66.187653
1406.000000	66.304097
1405.000000	66.451124
1404.000000	66.585640
1403.000000	66.711474
1402.000000	66.837433
1401.000000	66.955215
1400.000000	67.078898
1399.000000	67.193247
1398.000000	67.301712
1397.000000	67.417839
1396.000000	67.546522
1395.000000	67.648654
1394.000000	67.746086
1393.000000	67.862734
1392.000000	67.954357
1391.000000	68.036458
1390.000000	68.136438
1389.000000	68.236621
1388.000000	68.340932
1387.000000	68.410130
1386.000000	68.468660
1385.000000	68.553998
1384.000000	68.636737
1383.000000	68.704278
1382.000000	68.762079
1381.000000	68.829329
1380.000000	68.899733
1379.000000	68.968586
1378.000000	69.033048
1377.000000	69.084075
1376.000000	69.122055
1375.000000	69.160047
1374.000000	69.198442
1373.000000	69.246290
1372.000000	69.293292
1371.000000	69.325324
1370.000000	69.362864
1369.000000	69.405230
1368.000000	69.442980
1367.000000	69.476361
1366.000000	69.503003
1365.000000	69.540690
1364.000000	69.581563
1363.000000	69.621341
1362.000000	69.658343
1361.000000	69.697774
1360.000000	69.737546
1359.000000	69.782083
1358.000000	69.821510
1357.000000	69.852932
1356.000000	69.910294
1355.000000	69.939445
1354.000000	69.995157
1353.000000	70.035773
1352.000000	70.062133
1351.000000	70.112834
1350.000000	70.153816
1349.000000	70.178109
1348.000000	70.237824
1347.000000	70.270035
1346.000000	70.321325
1345.000000	70.364636
1344.000000	70.407226
1343.000000	70.452186
1342.000000	70.491408
1341.000000	70.534512
1340.000000	70.561678
1339.000000	70.609585
1338.000000	70.634292
1337.000000	70.645879
1336.000000	70.674533
1335.000000	70.701293
1334.000000	70.739261
1333.000000	70.783008
1332.000000	70.835437
1331.000000	70.876911
1330.000000	70.886324
1329.000000	70.890609
1328.000000	70.897843
1327.000000	70.926700
1326.000000	70.934195
1325.000000	70.966459
1324.000000	70.987760
1323.000000	71.003795
1322.000000	71.009183
1321.000000	71.023700
1320.000000	71.013936
1319.000000	71.033020
1318.000000	71.079593
1317.000000	71.069638
1316.000000	71.070818
1315.000000	71.101833
1314.000000	71.090666
1313.000000	71.091326
1312.000000	71.109989
1311.000000	71.127227
1310.000000	71.143896
1309.000000	71.166679
1308.000000	71.154703
1307.000000	71.171165
1306.000000	71.173639
1305.000000	71.177015
1304.000000	71.197313
1303.000000	71.224657
1302.000000	71.222409
1301.000000	71.221473
1300.000000	71.236406
1299.000000	71.217372
1298.000000	71.225235
1297.000000	71.229262
1296.000000	71.226874
1295.000000	71.228054
1294.000000	71.249781
1293.000000	71.251813
1292.000000	71.243337
1291.000000	71.250319
1290.000000	71.254742
1289.000000	71.240749
1288.000000	71.241516
1287.000000	71.215930
1286.000000	71.209088
1285.000000	71.222659
1284.000000	71.191216
1283.000000	71.206170
1282.000000	71.192048
1281.000000	71.199621
1280.000000	71.198337
1279.000000	71.192820
1278.000000	71.223548
1277.000000	71.224201
1276.000000	71.204381
1275.000000	71.220081
1274.000000	71.212567
1273.000000	71.214218
1272.000000	71.207863
1271.000000	71.199190
1270.000000	71.189569
1269.000000	71.207227
1268.000000	71.213937
1267.000000	71.214423
1266.000000	71.229065
1265.000000	71.216373
1264.000000	71.271139
1263.000000	71.258346
1262.000000	71.261455
1261.000000	71.255062
1260.000000	71.279882
1259.000000	71.281479
1258.000000	71.320769
1257.000000	71.299731
1256.000000	71.305235
1255.000000	71.299727
1254.000000	71.321948
1253.000000	71.311654
1252.000000	71.314130
1251.000000	71.327565
1250.000000	71.321157
1249.000000	71.329880
1248.000000	71.325374
1247.000000	71.319248
1246.000000	71.297269
1245.000000	71.299991
1244.000000	71.316286
1243.000000	71.283765
1242.000000	71.269083
1241.000000	71.261371
1240.000000	71.244794
1239.000000	71.252169
1238.000000	71.242283
1237.000000	71.216277
1236.000000	71.202084
1235.000000	71.189487
1234.000000	71.151113
1233.000000	71.130517
1232.000000	71.141625
1231.000000	71.128024
1230.000000	71.139103
1229.000000	71.112082
1228.000000	71.076071
1227.000000	71.064212
1226.000000	71.041852
1225.000000	71.027894
1224.000000	71.042614
1223.000000	71.018887
1222.000000	71.006779
1221.000000	70.975363
1220.000000	70.958739
1219.000000	70.949210
1218.000000	70.941053
1217.000000	70.902146
1216.000000	70.879339
1215.000000	70.854328
1214.000000	70.847764
1213.000000	70.874221
1212.000000	70.808459
1211.000000	70.795429
1210.000000	70.792367
1209.000000	70.758616
1208.000000	70.727157
1207.000000	70.709415
1206.000000	70.704183
1205.000000	70.672653
1204.000000	70.647469
1203.000000	70.623468
1202.000000	70.624261
1201.000000	70.590091
1200.000000	70.565166
1199.000000	70.571217
1198.000000	70.539890
1197.000000	70.501464
1196.000000	70.484198
1195.000000	70.473136
1194.000000	70.452253
1193.000000	70.434844
1192.000000	70.420695
1191.000000	70.413745
1190.000000	70.402494
1189.000000	70.373950
1188.000000	70.387093
1187.000000	70.385960
1186.000000	70.384634
1185.000000	70.383532
1184.000000	70.381587
1183.000000	70.392638
1182.000000	70.413801
1181.000000	70.430314
1180.000000	70.441033
1179.000000	70.476425
1178.000000	70.518035
1177.000000	70.537647
1176.000000	70.559468
1175.000000	70.608978
1174.000000	70.640292
1173.000000	70.650525
1172.000000	70.692405
1171.000000	70.734231
1170.000000	70.780194
1169.000000	70.825268
1168.000000	70.860252
1167.000000	70.910951
1166.000000	70.977674
1165.000000	71.016334
1164.000000	71.065069
1163.000000	71.119652
1162.000000	71.163007
1161.000000	71.212846
1160.000000	71.258991
1159.000000	71.292569
1158.000000	71.328345
1157.000000	71.378631
1156.000000	71.439640
1155.000000	71.474649
1154.000000	71.492750
1153.000000	71.534637
1152.000000	71.586138
1151.000000	71.621755
1150.000000	71.660533
1149.000000	71.695789
1148.000000	71.714226
1147.000000	71.752865
1146.000000	71.792259
1145.000000	71.810253
1144.000000	71.835826
1143.000000	71.870391
1142.000000	71.898093
1141.000000	71.928755
1140.000000	71.967661
1139.000000	71.981747
1138.000000	72.006234
1137.000000	72.040645
1136.000000	72.058101
1135.000000	72.076081
1134.000000	72.104900
1133.000000	72.114093
1132.000000	72.121905
1131.000000	72.150812
1130.000000	72.183250
1129.000000	72.201901
1128.000000	72.215835
1127.000000	72.230428
1126.000000	72.231584
1125.000000	72.250251
1124.000000	72.264859
1123.000000	72.271729
1122.000000	72.281401
1121.000000	72.296950
1120.000000	72.316688
1119.000000	72.322533
1118.000000	72.318624
1117.000000	72.305872
1116.000000	72.331436
1115.000000	72.336672
1114.000000	72.338157
1113.000000	72.340232
1112.000000	72.335528
1111.000000	72.345096
1110.000000	72.345768
1109.000000	72.353959
1108.000000	72.366321
1107.000000	72.349830
1106.000000	72.348532
1105.000000	72.353393
1104.000000	72.347051
1103.000000	72.361557
1102.000000	72.373112
1101.000000	72.353948
1100.000000	72.368589
1099.000000	72.376975
1098.000000	72.377778
1097.000000	72.352916
1096.000000	72.367107
1095.000000	72.365408
1094.000000	72.366566
1093.000000	72.379203
1092.000000	72.377193
1091.000000	72.363998
1090.000000	72.376184
1089.000000	72.362827
1088.000000	72.366882
1087.000000	72.384970
1086.000000	72.391459
1085.000000	72.377902
1084.000000	72.361674
1083.000000	72.362656
1082.000000	72.354610
1081.000000	72.367125
1080.000000	72.365822
1079.000000	72.371238
1078.000000	72.356548
1077.000000	72.327943
1076.000000	72.346329
1075.000000	72.347904
1074.000000	72.353340
1073.000000	72.350573
1072.000000	72.341210
1071.000000	72.346952
1070.000000	72.334047
1069.000000	72.310901
1068.000000	72.310488
1067.000000	72.318549
1066.000000	72.304187
1065.000000	72.288161
1064.000000	72.311635
1063.000000	72.315641
1062.000000	72.298939
1061.000000	72.274672
1060.000000	72.261146
1059.000000	72.289720
1058.000000	72.303232
1057.000000	72.287352
1056.000000	72.262321
1055.000000	72.247598
1054.000000	72.270659
1053.000000	72.292656
1052.000000	72.280114
1051.000000	72.248937
1050.000000	72.265869
1049.000000	72.255326
1048.000000	72.239304
1047.000000	72.232167
1046.000000	72.227617
1045.000000	72.231580
1044.000000	72.215148
1043.000000	72.209160
1042.000000	72.228709
1041.000000	72.203593
1040.000000	72.226519
1039.000000	72.203454
1038.000000	72.198351
1037.000000	72.200420
1036.000000	72.188517
1035.000000	72.185210
1034.000000	72.210443
1033.000000	72.185477
1032.000000	72.197414
1031.000000	72.183723
1030.000000	72.176937
1029.000000	72.172436
1028.000000	72.173894
1027.000000	72.178782
1026.000000	72.165959
1025.000000	72.173856
1024.000000	72.180566
1023.000000	72.157976
1022.000000	72.175891
1021.000000	72.135620
1020.000000	72.149440
1019.000000	72.159066
1018.000000	72.160787
1017.000000	72.179535
1016.000000	72.152636
1015.000000	72.148822
1014.000000	72.140155
1013.000000	72.152954
1012.000000	72.165417
1011.000000	72.147079
1010.000000	72.153077
1009.000000	72.170365
1008.000000	72.179073
1007.000000	72.182997
1006.000000	72.166299
1005.000000	72.164818
1004.000000	72.173916
1003.000000	72.174513
1002.000000	72.188520
1001.000000	72.192626
1000.000000	72.182295
999.000000	72.180687
998.000000	72.184758
997.000000	72.179323
996.000000	72.194624
995.000000	72.176541
994.000000	72.185217
993.000000	72.206295
992.000000	72.195470
991.000000	72.174738
990.000000	72.180042
989.000000	72.192731
988.000000	72.195104
987.000000	72.206088
986.000000	72.215552
985.000000	72.244003
984.000000	72.221986
983.000000	72.225398
982.000000	72.242912
981.000000	72.245349
980.000000	72.249146
979.000000	72.255924
978.000000	72.269371
977.000000	72.274749
976.000000	72.258048
975.000000	72.268282
974.000000	72.284894
973.000000	72.280520
972.000000	72.289595
971.000000	72.286064
970.000000	72.289627
969.000000	72.296519
968.000000	72.304643
967.000000	72.306920
966.000000	72.337223
965.000000	72.347757
964.000000	72.331178
963.000000	72.330453
962.000000	72.329846
961.000000	72.326026
960.000000	72.347684
959.000000	72.360026
958.000000	72.355608
957.000000	72.360687
956.000000	72.377880
955.000000	72.393918
954.000000	72.411340
953.000000	72.424521
952.000000	72.423700
951.000000	72.423645
950.000000	72.430657
949.000000	72.440211
948.000000	72.434011
947.000000	72.425567
946.000000	72.425913
945.000000	72.438428
944.000000	72.475962
943.000000	72.505514
942.000000	72.471405
941.000000	72.438389
940.000000	72.465112
939.000000	72.452287
938.000000	72.427960
937.000000	72.434935
936.000000	72.452987
935.000000	72.442586
934.000000	72.448927
933.000000	72.467848
932.000000	72.435113
931.000000	72.421129
930.000000	72.476694
929.000000	72.495696
928.000000	72.458576
927.000000	72.458271
926.000000	72.467316
925.000000	72.466767
924.000000	72.468492
923.000000	72.472865
922.000000	72.455256
921.000000	72.470572
920.000000	72.496203
919.000000	72.505292
918.000000	72.488166
917.000000	72.453487
916.000000	72.468171
915.000000	72.506377
914.000000	72.519477
913.000000	72.526475
912.000000	72.496298
911.000000	72.492056
910.000000	72.504693
909.000000	72.472724
908.000000	72.468647
907.000000	72.433981
906.000000	72.466496
905.000000	72.489683
904.000000	72.532858
903.000000	72.576131
902.000000	72.524247
901.000000	72.568149
900.000000	72.546297
899.000000	72.554821
898.000000	72.527861
897.000000	72.534405
896.000000	72.544369
895.000000	72.549218
894.000000	72.536100
893.000000	72.551672
892.000000	72.552607
891.000000	72.544293
890.000000	72.519235
889.000000	72.534020
888.000000	72.604105
887.000000	72.663055
886.000000	72.537879
885.000000	72.651142
884.000000	72.707646
883.000000	72.628526
882.000000	72.595169
881.000000	72.702135
880.000000	72.700591
879.000000	72.572376
878.000000	72.613757
877.000000	72.674180
876.000000	72.619510
875.000000	72.612916
874.000000	72.615092
873.000000	72.624669
872.000000	72.639838
871.000000	72.728660
870.000000	72.822061
869.000000	72.709826
868.000000	72.658621
867.000000	72.681475
866.000000	72.612047
865.000000	72.573452
864.000000	72.687859
863.000000	72.720478
862.000000	72.586351
861.000000	72.607035
860.000000	72.592149
859.000000	72.488016
858.000000	73.021572
857.000000	72.034742
856.000000	72.293582
855.000000	72.259021
854.000000	72.203331
853.000000	72.250412
852.000000	72.039838
851.000000	72.322233
850.000000	72.201094
849.000000	72.168126
848.000000	72.725695
847.000000	72.230645
846.000000	72.431683
845.000000	72.287719
844.000000	72.309478
843.000000	72.329694
842.000000	72.362461
841.000000	72.460678
840.000000	72.627486
839.000000	72.568004
838.000000	72.546338
837.000000	72.253966
836.000000	72.167587
835.000000	72.110395
834.000000	72.229307
833.000000	72.292547
832.000000	72.384357
831.000000	72.212723
830.000000	72.368161
829.000000	72.406275
828.000000	72.232818
827.000000	72.335386
826.000000	72.227070
825.000000	72.422136
824.000000	72.270861
823.000000	72.447715
822.000000	72.361280
821.000000	72.400656
820.000000	72.295370
819.000000	72.174570
818.000000	72.341740
817.000000	72.093504
816.000000	72.318641
815.000000	72.383039
814.000000	72.197262
813.000000	72.275289
812.000000	72.394270
811.000000	72.424260
810.000000	72.199915
809.000000	72.409093
808.000000	72.299712
807.000000	72.336326
806.000000	72.452102
805.000000	72.371720
804.000000	72.583105
803.000000	72.420678
802.000000	72.389191
801.000000	72.361353
800.000000	72.358797
799.000000	72.426559
798.000000	72.481165
797.000000	72.595355
796.000000	72.451673
795.000000	72.409920
794.000000	72.282453
793.000000	72.424882
792.000000	72.345469
791.000000	72.489826
790.000000	72.401267
789.000000	72.324856
788.000000	72.344882
787.000000	72.442439
786.000000	72.430908
785.000000	72.374030
784.000000	72.329471
783.000000	72.332494
782.000000	72.379536
781.000000	72.361953
780.000000	72.426686
779.000000	72.438806
778.000000	72.314330
777.000000	72.354405
776.000000	72.389837
775.000000	72.405625
774.000000	72.326466
773.000000	72.368744
772.000000	72.367769
771.000000	72.438507
770.000000	72.518170
769.000000	72.406575
768.000000	72.424988
767.000000	72.533779
766.000000	72.422245
765.000000	72.457618
764.000000	72.408495
763.000000	72.402689
762.000000	72.502390
761.000000	72.475938
760.000000	72.507980
759.000000	72.568117
758.000000	72.477259
757.000000	72.363058
756.000000	72.367511
755.000000	72.408997
754.000000	72.323058
753.000000	72.494477
752.000000	72.441083
751.000000	72.512858
750.000000	72.569807
749.000000	72.592901
748.000000	72.500965
747.000000	72.470130
746.000000	72.545434
745.000000	72.482701
744.000000	72.502881
743.000000	72.507821
742.000000	72.521092
741.000000	72.480067
740.000000	72.423395
739.000000	72.467479
738.000000	72.518429
737.000000	72.522732
736.000000	72.486153
735.000000	72.468148
734.000000	72.463991
733.000000	72.456439
732.000000	72.474318
731.000000	72.488561
730.000000	72.481347
729.000000	72.437961
728.000000	72.424431
727.000000	72.511798
726.000000	72.499932
725.000000	72.353408
724.000000	72.334873
723.000000	72.418612
722.000000	72.475112
721.000000	72.497436
720.000000	72.450486
719.000000	72.474502
718.000000	72.456723
717.000000	72.470648
716.000000	72.476650
715.000000	72.473563
714.000000	72.482414
713.000000	72.460055
712.000000	72.454869
711.000000	72.447839
710.000000	72.498844
709.000000	72.518247
708.000000	72.457852
707.000000	72.440610
706.000000	72.493805
705.000000	72.525711
704.000000	72.512897
703.000000	72.531105
702.000000	72.567071
701.000000	72.496733
700.000000	72.491131
699.000000	72.596716
698.000000	72.535839
697.000000	72.430071
696.000000	72.468840
695.000000	72.485567
694.000000	72.543460
693.000000	72.537846
692.000000	72.474042
691.000000	72.488621
690.000000	72.506527
689.000000	72.509700
688.000000	72.394750
687.000000	72.437255
686.000000	72.514413
685.000000	72.479153
684.000000	72.427824
683.000000	72.376189
682.000000	72.407668
681.000000	72.461455
680.000000	72.507457
679.000000	72.517422
678.000000	72.462532
677.000000	72.453282
676.000000	72.482220
675.000000	72.458190
674.000000	72.445213
673.000000	72.498536
672.000000	72.493045
671.000000	72.436737
670.000000	72.477723
669.000000	72.481055
668.000000	72.419842
667.000000	72.489292
666.000000	72.569561
665.000000	72.501009
664.000000	72.512805
663.000000	72.533545
662.000000	72.518553
661.000000	72.510745
660.000000	72.471396
659.000000	72.464560
658.000000	72.517377
657.000000	72.505539
656.000000	72.486641
655.000000	72.521761
654.000000	72.514027
653.000000	72.500111
652.000000	72.518809
651.000000	72.471982
650.000000	72.443188
649.000000	72.474795
648.000000	72.526166
647.000000	72.496594
646.000000	72.443026
645.000000	72.460933
644.000000	72.541479
643.000000	72.527133
642.000000	72.507944
641.000000	72.478995
640.000000	72.478615
639.000000	72.514200
638.000000	72.520048
637.000000	72.523342
636.000000	72.515027
635.000000	72.569528
634.000000	72.509398
633.000000	72.531054
632.000000	72.540878
631.000000	72.506079
630.000000	72.524279
629.000000	72.612058
628.000000	72.565565
627.000000	72.527214
626.000000	72.564747
625.000000	72.547204
624.000000	72.527770
623.000000	72.508584
622.000000	72.506557
621.000000	72.484678
620.000000	72.486285
619.000000	72.518017
618.000000	72.491423
617.000000	72.534163
616.000000	72.510339
615.000000	72.505868
614.000000	72.459841
613.000000	72.542909
612.000000	72.496161
611.000000	72.483580
610.000000	72.482413
609.000000	72.432419
608.000000	72.455007
607.000000	72.429397
606.000000	72.432790
605.000000	72.540963
604.000000	72.458064
603.000000	72.520335
602.000000	72.469631
601.000000	72.509331
600.000000	72.532573
599.000000	72.480820
598.000000	72.452267
597.000000	72.444564
596.000000	72.452923
595.000000	72.452932
594.000000	72.434347
593.000000	72.421110
592.000000	72.399125
591.000000	72.323120
590.000000	72.349351
589.000000	72.403016
588.000000	72.386836
587.000000	72.343597
586.000000	72.313764
585.000000	72.420860
584.000000	72.281020
583.000000	72.339780
582.000000	72.393149
581.000000	72.341847
580.000000	72.297377
579.000000	72.371624
578.000000	72.362531
577.000000	72.351664
576.000000	72.344720
575.000000	72.355348
574.000000	72.353461
573.000000	72.331608
572.000000	72.253824
571.000000	72.272243
570.000000	72.300963
569.000000	72.298353
568.000000	72.220539
567.000000	72.334414
566.000000	72.255561
565.000000	72.279260
564.000000	72.251513
563.000000	72.235678
562.000000	72.263647
561.000000	72.200096
560.000000	72.154287
559.000000	72.183121
558.000000	72.166347
557.000000	72.193111
556.000000	72.194529
555.000000	72.160268
554.000000	72.093313
553.000000	72.081570
552.000000	72.095689
551.000000	72.103991
550.000000	72.076241
549.000000	72.082672
548.000000	72.075973
547.000000	72.069259
546.000000	72.043260
545.000000	72.016397
544.000000	72.035454
543.000000	71.990075
542.000000	71.996896
541.000000	72.000205
540.000000	71.913889
539.000000	71.916295
538.000000	71.990398
537.000000	71.940670
536.000000	71.893567
535.000000	71.925007
534.000000	71.857671
533.000000	71.833981
532.000000	71.847762
531.000000	71.839535
530.000000	71.836954
529.000000	71.791802
528.000000	71.742097
527.000000	71.726270
526.000000	71.720526
525.000000	71.726089
524.000000	71.678359
523.000000	71.716275
522.000000	71.631370
521.000000	71.610338
520.000000	71.625589
519.000000	71.601600
518.000000	71.559432
517.000000	71.538680
516.000000	71.525642
515.000000	71.533567
514.000000	71.477237
513.000000	71.461028
512.000000	71.402210
511.000000	71.422028
510.000000	71.386170
509.000000	71.383097
508.000000	71.341228
507.000000	71.303682
506.000000	71.292219
505.000000	71.289320
504.000000	71.256994
503.000000	71.209872
502.000000	71.201576
501.000000	71.175353
500.000000	71.093245
499.000000	71.132093
498.000000	71.095101
497.000000	71.004231
496.000000	70.924106
495.000000	70.925729
494.000000	70.963836
493.000000	70.967447
492.000000	70.913986
491.000000	70.878098
490.000000	70.806557
489.000000	70.774615
488.000000	70.752703
487.000000	70.705567
486.000000	70.671477
485.000000	70.663530
484.000000	70.691264
483.000000	70.680855
482.000000	70.591874
481.000000	70.532607
480.000000	70.490579
479.000000	70.463324
478.000000	70.412927
477.000000	70.385926
476.000000	70.356848
475.000000	70.354316
474.000000	70.300209
473.000000	70.231593
472.000000	70.211270
471.000000	70.203574
470.000000	70.190823
469.000000	70.136082
468.000000	70.061236
467.000000	70.039262
466.000000	69.945267
465.000000	69.871400
464.000000	69.845138
463.000000	69.844266
462.000000	69.780985
461.000000	69.667946
460.000000	69.630182
459.000000	69.618994
458.000000	69.580951
457.000000	69.495732
456.000000	69.381551
455.000000	69.343005
454.000000	69.324405
453.000000	69.271460
452.000000	69.279813
451.000000	69.157473
450.000000	69.022365
449.000000	68.982716
448.000000	68.882992
447.000000	68.767886
446.000000	68.824947
445.000000	68.754731
444.000000	68.600560
443.000000	68.527394
442.000000	68.408630
441.000000	68.300369
440.000000	68.243510
439.000000	68.201638
438.000000	68.137646
437.000000	68.026400
436.000000	67.974028
435.000000	67.873099
434.000000	67.752063
433.000000	67.689783
432.000000	67.614884
431.000000	67.439261
430.000000	67.366789
429.000000	67.235044
428.000000	67.068251
427.000000	66.965043
426.000000	66.918328
425.000000	66.817419
424.000000	66.690704
423.000000	66.603054
422.000000	66.492302
421.000000	66.265918
420.000000	66.170400
419.000000	66.095085
418.000000	65.938702
417.000000	65.747046
416.000000	65.605225
415.000000	65.487758
414.000000	65.406612
413.000000	65.276411
412.000000	65.108104
411.000000	64.919832
410.000000	64.776700
409.000000	64.681456
408.000000	64.499789
407.000000	64.410345
406.000000	64.236545
405.000000	63.932842
404.000000	63.866711
403.000000	63.734811
402.000000	63.549106
401.000000	63.432459
400.000000	63.180970
399.000000	63.017831
398.000000	62.869463
397.000000	62.615695
396.000000	62.506538
395.000000	62.279552
394.000000	62.213207
393.000000	61.961080
392.000000	61.800305
391.000000	61.641880
390.000000	61.496759
389.000000	61.233720
388.000000	60.927432
387.000000	60.847040
386.000000	60.565458
385.000000	60.363292
384.000000	60.235688
383.000000	60.129310
382.000000	59.781984
381.000000	59.640916
380.000000	59.365211
379.000000	58.997568
378.000000	58.998688
377.000000	58.743239
376.000000	58.700352
375.000000	58.257456
374.000000	57.953303
373.000000	57.662781
372.000000	57.534261
371.000000	57.017764
370.000000	56.787394
369.000000	56.598098
368.000000	56.438044
367.000000	56.188621
366.000000	55.897513
365.000000	55.552754
364.000000	55.322116
363.000000	55.097123
362.000000	54.797602
361.000000	54.610443
360.000000	54.261582
359.000000	53.872074
358.000000	53.595420
357.000000	53.554534
356.000000	53.131217
355.000000	52.816530
354.000000	52.631208
353.000000	52.435904
352.000000	52.166735
351.000000	51.886482
350.000000	51.320955
349.000000	51.203686
348.000000	50.713739
347.000000	50.588842
346.000000	50.129804
345.000000	50.111252
344.000000	49.704591
343.000000	49.455790
342.000000	49.026788
341.000000	48.732261
340.000000	48.399293
339.000000	47.821390
338.000000	47.394737
337.000000	47.167407
336.000000	46.811030
335.000000	46.552708
334.000000	45.646163
333.000000	45.274647
332.000000	44.582804
331.000000	44.423891
330.000000	43.954316
329.000000	43.256722
328.000000	42.734334
327.000000	42.502035
326.000000	42.152292
325.000000	41.390173
324.000000	40.923684
323.000000	40.643386
322.000000	40.457698
321.000000	39.972109
320.000000	39.584043
319.000000	39.387287
318.000000	38.866754
317.000000	38.620038
316.000000	38.330454
315.000000	38.079043
314.000000	37.943128
313.000000	37.717702
312.000000	37.414075
311.000000	37.007585
310.000000	36.870175
309.000000	36.777198
308.000000	36.474416
307.000000	36.196970
306.000000	36.092051
305.000000	35.803009
304.000000	35.508031
303.000000	35.322843
302.000000	35.182316
301.000000	34.779589
300.000000	34.622314
299.000000	34.293094
298.000000	33.920137
297.000000	33.423563
296.000000	32.907302
295.000000	32.383101
294.000000	31.795741
293.000000	30.970327
292.000000	30.037752
291.000000	29.039953
290.000000	28.038901
289.000000	27.116675
288.000000	26.316523
287.000000	25.517253
286.000000	25.119682
285.000000	24.751968
284.000000	24.627902
283.000000	24.637258
282.000000	24.517578
281.000000	24.570783
280.000000	24.567498
279.000000	24.602528
278.000000	24.679711
277.000000	24.773450
276.000000	25.046415
275.000000	25.276892
274.000000	25.524759
273.000000	25.886314
272.000000	26.171554
271.000000	26.273653
270.000000	26.310560
269.000000	26.409121
268.000000	26.590592
267.000000	26.975071
266.000000	27.248774
265.000000	27.508512
264.000000	27.746360
263.000000	28.071925
262.000000	28.318524
261.000000	28.528769
260.000000	28.801203
259.000000	29.121873
258.000000	29.397434
257.000000	29.771354
256.000000	30.155895
255.000000	30.342360
254.000000	30.472275
253.000000	30.454578
252.000000	30.374554
251.000000	30.141540
250.000000	29.816231
249.000000	29.241958
248.000000	28.518179
247.000000	27.558481
246.000000	26.479881
245.000000	25.345107
244.000000	24.119202
243.000000	22.839499
242.000000	21.718744
241.000000	20.700144
240.000000	19.714740
239.000000	19.017433
238.000000	18.470530
237.000000	18.029249
236.000000	17.751848
235.000000	17.569660
234.000000	17.486858
233.000000	17.422934
232.000000	17.393792
231.000000	17.373390
230.000000	17.377998
229.000000	17.398982
228.000000	17.389825
227.000000	17.442889
226.000000	17.602404
225.000000	17.742080
224.000000	17.948184
223.000000	18.236022
222.000000	18.459957
221.000000	18.635733
220.000000	18.862056
219.000000	19.118949
218.000000	19.441315
217.000000	19.700244
216.000000	20.022279
215.000000	20.430016
214.000000	20.669650
213.000000	20.989687
212.000000	21.371166
211.000000	21.767222
210.000000	22.262435
209.000000	22.634038
208.000000	22.941553
207.000000	23.463125
206.000000	23.954108
205.000000	24.352127
204.000000	25.146279
203.000000	25.770753
202.000000	26.395763
201.000000	27.039535
200.000000	28.108789
