PE UV       SUBTECH     SPECTRUM    ASCII       PEDS        4.00        
   -1
RDAgneauUK 52.Sample.asc
18/03/05
12:06:12.00
18/03/05
12:06:12.00
Administrator

200.000000
1
Lambda 750
750N8071901
PerkinElmer UV WinLab 6.0.4.0738 / 1.61.00 Lambda 900

0
0
3350/servo 860.8/2
0
0
UV/VIS
1
1
1
CommonBeamDepol,150mm sphere / downward view
0
0
0
0
Program
Program
3350/servo 860.8/2
3350/0.2 860.8/0.2
3350/0.2 860.8/0.2
0
1
 
 
 
0
 
860.8
319.2
860.8
Front
100
on
 
 
0
0
0
 
0
 
 
 
0
 
 
0
0
0
0
0
 
 
 
 
0
0


0
0
#HDR
-1
-1
#GR
nm
%R
1.0
0.0
2350.000000
-1.000000
2151
8
72.538234
16.497788
#DATA
2350.000000	42.175726
2349.000000	42.558677
2348.000000	42.291552
2347.000000	43.260898
2346.000000	42.864588
2345.000000	42.596196
2344.000000	42.623489
2343.000000	42.372885
2342.000000	42.113052
2341.000000	42.846324
2340.000000	42.478681
2339.000000	42.911089
2338.000000	42.828806
2337.000000	42.662426
2336.000000	42.727374
2335.000000	43.185055
2334.000000	42.943721
2333.000000	43.275703
2332.000000	43.179662
2331.000000	43.334510
2330.000000	43.066206
2329.000000	43.033526
2328.000000	42.787682
2327.000000	42.849663
2326.000000	42.830951
2325.000000	42.802853
2324.000000	43.014332
2323.000000	42.654536
2322.000000	42.518809
2321.000000	42.403216
2320.000000	42.597955
2319.000000	42.346800
2318.000000	42.537613
2317.000000	42.547030
2316.000000	42.263403
2315.000000	42.519628
2314.000000	42.115165
2313.000000	42.091168
2312.000000	42.303858
2311.000000	42.073786
2310.000000	41.932057
2309.000000	42.002616
2308.000000	41.647357
2307.000000	41.527177
2306.000000	41.281982
2305.000000	41.311268
2304.000000	41.328763
2303.000000	41.392294
2302.000000	41.369656
2301.000000	41.333351
2300.000000	41.020107
2299.000000	40.926944
2298.000000	40.914969
2297.000000	40.876620
2296.000000	40.671995
2295.000000	40.563948
2294.000000	40.399599
2293.000000	40.435501
2292.000000	40.308001
2291.000000	40.329736
2290.000000	40.276499
2289.000000	40.153167
2288.000000	40.181303
2287.000000	40.247471
2286.000000	40.209266
2285.000000	40.090579
2284.000000	39.910506
2283.000000	39.883732
2282.000000	39.790951
2281.000000	39.930248
2280.000000	39.936418
2279.000000	39.866885
2278.000000	40.082382
2277.000000	39.947710
2276.000000	39.899293
2275.000000	40.023058
2274.000000	40.006543
2273.000000	40.291690
2272.000000	40.332549
2271.000000	40.257617
2270.000000	40.491041
2269.000000	40.408462
2268.000000	40.365285
2267.000000	40.435153
2266.000000	40.496156
2265.000000	40.671520
2264.000000	40.761618
2263.000000	40.874417
2262.000000	41.109295
2261.000000	41.198282
2260.000000	41.351037
2259.000000	41.608115
2258.000000	41.953792
2257.000000	42.161087
2256.000000	42.044291
2255.000000	42.186386
2254.000000	42.427679
2253.000000	42.631256
2252.000000	42.883776
2251.000000	43.065436
2250.000000	43.266339
2249.000000	43.635411
2248.000000	43.769218
2247.000000	43.898077
2246.000000	44.144158
2245.000000	44.345440
2244.000000	44.541837
2243.000000	44.817559
2242.000000	44.951921
2241.000000	45.077208
2240.000000	45.165808
2239.000000	45.278800
2238.000000	45.458490
2237.000000	45.561408
2236.000000	45.560059
2235.000000	45.623881
2234.000000	45.678935
2233.000000	45.667103
2232.000000	45.860559
2231.000000	46.099141
2230.000000	46.110586
2229.000000	46.110507
2228.000000	46.170027
2227.000000	46.164383
2226.000000	46.136519
2225.000000	46.055103
2224.000000	46.153815
2223.000000	46.096757
2222.000000	46.028531
2221.000000	46.032575
2220.000000	46.047476
2219.000000	46.103013
2218.000000	45.940489
2217.000000	45.820122
2216.000000	45.806218
2215.000000	45.829778
2214.000000	45.738919
2213.000000	45.731393
2212.000000	45.656988
2211.000000	45.586091
2210.000000	45.557846
2209.000000	45.627315
2208.000000	45.613320
2207.000000	45.440668
2206.000000	45.301182
2205.000000	45.257680
2204.000000	45.207499
2203.000000	44.982409
2202.000000	44.974898
2201.000000	44.926105
2200.000000	44.919561
2199.000000	44.933807
2198.000000	44.899196
2197.000000	44.549932
2196.000000	44.487435
2195.000000	44.446967
2194.000000	44.259030
2193.000000	44.129873
2192.000000	44.252032
2191.000000	44.283264
2190.000000	44.017088
2189.000000	44.098385
2188.000000	43.939908
2187.000000	43.876011
2186.000000	43.882689
2185.000000	43.754072
2184.000000	43.750852
2183.000000	44.006526
2182.000000	43.878934
2181.000000	43.917464
2180.000000	43.805558
2179.000000	43.680144
2178.000000	43.642779
2177.000000	43.689865
2176.000000	43.646249
2175.000000	43.766510
2174.000000	43.819347
2173.000000	43.929146
2172.000000	44.046378
2171.000000	44.013058
2170.000000	44.084148
2169.000000	44.136548
2168.000000	44.322463
2167.000000	44.352468
2166.000000	44.491710
2165.000000	44.476011
2164.000000	44.541235
2163.000000	44.712457
2162.000000	44.850797
2161.000000	44.910730
2160.000000	45.106018
2159.000000	45.375185
2158.000000	45.239624
2157.000000	45.513776
2156.000000	45.547772
2155.000000	45.848555
2154.000000	46.278861
2153.000000	46.373349
2152.000000	46.348364
2151.000000	46.421629
2150.000000	46.625039
2149.000000	46.662479
2148.000000	46.984040
2147.000000	47.219795
2146.000000	47.338736
2145.000000	47.335960
2144.000000	47.678718
2143.000000	47.610200
2142.000000	47.835317
2141.000000	48.011561
2140.000000	48.058534
2139.000000	48.114089
2138.000000	48.372175
2137.000000	48.485166
2136.000000	48.521714
2135.000000	48.807562
2134.000000	48.786093
2133.000000	48.563743
2132.000000	48.996475
2131.000000	49.134975
2130.000000	49.243131
2129.000000	49.296795
2128.000000	49.183626
2127.000000	49.376473
2126.000000	49.359071
2125.000000	49.370435
2124.000000	49.488280
2123.000000	49.457963
2122.000000	49.483231
2121.000000	49.538212
2120.000000	49.565132
2119.000000	49.621308
2118.000000	49.730271
2117.000000	49.686009
2116.000000	49.712634
2115.000000	49.798651
2114.000000	49.834164
2113.000000	49.935915
2112.000000	49.922403
2111.000000	49.855558
2110.000000	49.872051
2109.000000	49.884028
2108.000000	50.051259
2107.000000	49.966615
2106.000000	49.894777
2105.000000	50.011417
2104.000000	49.991421
2103.000000	50.002172
2102.000000	49.943468
2101.000000	49.980044
2100.000000	50.019912
2099.000000	50.006516
2098.000000	49.864821
2097.000000	49.984071
2096.000000	49.975031
2095.000000	49.944289
2094.000000	50.036329
2093.000000	49.958725
2092.000000	50.038292
2091.000000	50.024155
2090.000000	49.851549
2089.000000	49.898960
2088.000000	49.918381
2087.000000	49.870472
2086.000000	49.939158
2085.000000	49.832806
2084.000000	49.669545
2083.000000	49.617500
2082.000000	49.518125
2081.000000	49.381417
2080.000000	49.319459
2079.000000	49.326756
2078.000000	49.225772
2077.000000	49.194372
2076.000000	49.054563
2075.000000	48.933068
2074.000000	48.782702
2073.000000	48.735353
2072.000000	48.580812
2071.000000	48.511401
2070.000000	48.469917
2069.000000	48.249168
2068.000000	48.104818
2067.000000	48.004964
2066.000000	47.829207
2065.000000	47.579546
2064.000000	47.500815
2063.000000	47.291213
2062.000000	47.175691
2061.000000	47.060103
2060.000000	46.812091
2059.000000	46.697401
2058.000000	46.522015
2057.000000	46.409009
2056.000000	46.309972
2055.000000	46.133415
2054.000000	45.963084
2053.000000	45.839552
2052.000000	45.696380
2051.000000	45.536173
2050.000000	45.423114
2049.000000	45.352168
2048.000000	45.235666
2047.000000	45.167746
2046.000000	45.143026
2045.000000	45.081430
2044.000000	45.059362
2043.000000	45.082343
2042.000000	45.059432
2041.000000	45.100320
2040.000000	45.145751
2039.000000	45.149217
2038.000000	45.177347
2037.000000	45.162459
2036.000000	45.258866
2035.000000	45.402543
2034.000000	45.534961
2033.000000	45.629306
2032.000000	45.757067
2031.000000	45.809622
2030.000000	45.878862
2029.000000	46.045653
2028.000000	46.185841
2027.000000	46.325551
2026.000000	46.444476
2025.000000	46.530565
2024.000000	46.599166
2023.000000	46.680956
2022.000000	46.775034
2021.000000	46.806194
2020.000000	46.870619
2019.000000	46.906576
2018.000000	46.915626
2017.000000	46.939779
2016.000000	46.964922
2015.000000	46.972481
2014.000000	46.965526
2013.000000	46.970992
2012.000000	46.932078
2011.000000	46.909419
2010.000000	46.878358
2009.000000	46.815091
2008.000000	46.720545
2007.000000	46.590243
2006.000000	46.503181
2005.000000	46.457174
2004.000000	46.375836
2003.000000	46.316067
2002.000000	46.247725
2001.000000	46.144357
2000.000000	46.025291
1999.000000	45.948753
1998.000000	45.849037
1997.000000	45.741010
1996.000000	45.628233
1995.000000	45.509673
1994.000000	45.400620
1993.000000	45.335470
1992.000000	45.198768
1991.000000	45.110342
1990.000000	44.995540
1989.000000	44.883344
1988.000000	44.767878
1987.000000	44.631208
1986.000000	44.472488
1985.000000	44.397911
1984.000000	44.334969
1983.000000	44.220376
1982.000000	44.110808
1981.000000	44.049220
1980.000000	43.886437
1979.000000	43.794645
1978.000000	43.680846
1977.000000	43.554047
1976.000000	43.414584
1975.000000	43.320523
1974.000000	43.225730
1973.000000	43.088895
1972.000000	43.005521
1971.000000	42.909133
1970.000000	42.771385
1969.000000	42.691737
1968.000000	42.538188
1967.000000	42.441034
1966.000000	42.385265
1965.000000	42.279086
1964.000000	42.112298
1963.000000	42.012923
1962.000000	41.936870
1961.000000	41.810952
1960.000000	41.720373
1959.000000	41.636152
1958.000000	41.560085
1957.000000	41.465929
1956.000000	41.346001
1955.000000	41.295300
1954.000000	41.195583
1953.000000	41.101894
1952.000000	41.111032
1951.000000	41.016613
1950.000000	40.914711
1949.000000	40.905137
1948.000000	40.864823
1947.000000	40.866251
1946.000000	40.857676
1945.000000	40.795502
1944.000000	40.883368
1943.000000	40.845504
1942.000000	40.819087
1941.000000	40.913852
1940.000000	40.944639
1939.000000	41.066272
1938.000000	41.131425
1937.000000	41.230518
1936.000000	41.295722
1935.000000	41.333443
1934.000000	41.571114
1933.000000	41.728212
1932.000000	41.845043
1931.000000	42.039811
1930.000000	42.177265
1929.000000	42.322856
1928.000000	42.627066
1927.000000	42.830420
1926.000000	43.079525
1925.000000	43.279200
1924.000000	43.554205
1923.000000	43.752165
1922.000000	44.088885
1921.000000	44.455775
1920.000000	44.654156
1919.000000	44.994651
1918.000000	45.369547
1917.000000	45.656260
1916.000000	45.887935
1915.000000	46.284265
1914.000000	46.816875
1913.000000	47.223244
1912.000000	47.514398
1911.000000	47.902614
1910.000000	48.314193
1909.000000	48.695570
1908.000000	49.157969
1907.000000	49.654341
1906.000000	50.046894
1905.000000	50.466956
1904.000000	50.922763
1903.000000	51.457058
1902.000000	51.947243
1901.000000	52.374692
1900.000000	52.729819
1899.000000	53.254483
1898.000000	53.770012
1897.000000	54.195116
1896.000000	54.671448
1895.000000	55.086015
1894.000000	55.535214
1893.000000	55.962218
1892.000000	56.338417
1891.000000	56.737062
1890.000000	57.168238
1889.000000	57.550844
1888.000000	57.895938
1887.000000	58.184035
1886.000000	58.546855
1885.000000	58.903646
1884.000000	59.230691
1883.000000	59.513598
1882.000000	59.747857
1881.000000	60.023436
1880.000000	60.309521
1879.000000	60.595968
1878.000000	60.838479
1877.000000	61.102958
1876.000000	61.281816
1875.000000	61.521445
1874.000000	61.715879
1873.000000	61.830946
1872.000000	62.010687
1871.000000	62.220886
1870.000000	62.325876
1869.000000	62.465997
1868.000000	62.568193
1867.000000	62.714309
1866.000000	62.780216
1865.000000	62.793624
1864.000000	62.926093
1863.000000	62.935050
1862.000000	62.986874
1861.000000	63.019114
1860.000000	63.068650
1859.000000	63.126856
1858.000000	63.161275
1857.000000	63.166655
1856.000000	63.195541
1855.000000	63.250316
1854.000000	63.322486
1853.000000	63.307001
1852.000000	63.317341
1851.000000	63.351210
1850.000000	63.339703
1849.000000	63.301531
1848.000000	63.305451
1847.000000	63.287066
1846.000000	63.282103
1845.000000	63.305249
1844.000000	63.294806
1843.000000	63.265440
1842.000000	63.240807
1841.000000	63.239295
1840.000000	63.205856
1839.000000	63.226174
1838.000000	63.155560
1837.000000	63.082055
1836.000000	63.065994
1835.000000	63.054217
1834.000000	63.007915
1833.000000	62.967718
1832.000000	62.929562
1831.000000	62.882294
1830.000000	62.844258
1829.000000	62.835585
1828.000000	62.804199
1827.000000	62.743653
1826.000000	62.731057
1825.000000	62.710720
1824.000000	62.650913
1823.000000	62.623637
1822.000000	62.607304
1821.000000	62.572617
1820.000000	62.540841
1819.000000	62.502194
1818.000000	62.454643
1817.000000	62.441631
1816.000000	62.424427
1815.000000	62.379093
1814.000000	62.327662
1813.000000	62.300777
1812.000000	62.286550
1811.000000	62.270439
1810.000000	62.251978
1809.000000	62.223677
1808.000000	62.184730
1807.000000	62.146719
1806.000000	62.123543
1805.000000	62.078721
1804.000000	62.026410
1803.000000	62.018322
1802.000000	62.011721
1801.000000	61.993776
1800.000000	61.970022
1799.000000	61.943522
1798.000000	61.920465
1797.000000	61.890742
1796.000000	61.862453
1795.000000	61.860879
1794.000000	61.845626
1793.000000	61.826444
1792.000000	61.802424
1791.000000	61.768996
1790.000000	61.756952
1789.000000	61.721983
1788.000000	61.690805
1787.000000	61.661189
1786.000000	61.637325
1785.000000	61.632103
1784.000000	61.613432
1783.000000	61.565298
1782.000000	61.510739
1781.000000	61.485292
1780.000000	61.468260
1779.000000	61.471399
1778.000000	61.410825
1777.000000	61.341221
1776.000000	61.323313
1775.000000	61.283408
1774.000000	61.232824
1773.000000	61.185004
1772.000000	61.111478
1771.000000	61.098603
1770.000000	61.036279
1769.000000	60.974008
1768.000000	60.929683
1767.000000	60.913198
1766.000000	60.861237
1765.000000	60.814151
1764.000000	60.781351
1763.000000	60.727810
1762.000000	60.663732
1761.000000	60.619143
1760.000000	60.575533
1759.000000	60.541382
1758.000000	60.484372
1757.000000	60.433211
1756.000000	60.401302
1755.000000	60.364221
1754.000000	60.318308
1753.000000	60.262394
1752.000000	60.212204
1751.000000	60.181659
1750.000000	60.141572
1749.000000	60.077905
1748.000000	60.034358
1747.000000	59.982740
1746.000000	59.933600
1745.000000	59.873571
1744.000000	59.821778
1743.000000	59.792790
1742.000000	59.746925
1741.000000	59.716934
1740.000000	59.675678
1739.000000	59.636814
1738.000000	59.615953
1737.000000	59.569416
1736.000000	59.589514
1735.000000	59.497602
1734.000000	59.535531
1733.000000	59.542870
1732.000000	59.528250
1731.000000	59.557049
1730.000000	59.559027
1729.000000	59.574492
1728.000000	59.691910
1727.000000	59.697488
1726.000000	59.762698
1725.000000	59.802928
1724.000000	59.880505
1723.000000	59.992851
1722.000000	60.030542
1721.000000	60.102532
1720.000000	60.186549
1719.000000	60.338709
1718.000000	60.393537
1717.000000	60.465303
1716.000000	60.520087
1715.000000	60.615900
1714.000000	60.687982
1713.000000	60.717723
1712.000000	60.790306
1711.000000	60.844826
1710.000000	60.905720
1709.000000	60.936940
1708.000000	61.016433
1707.000000	61.021698
1706.000000	61.071692
1705.000000	61.087025
1704.000000	61.099099
1703.000000	61.130227
1702.000000	61.158417
1701.000000	61.183707
1700.000000	61.158989
1699.000000	61.201917
1698.000000	61.206000
1697.000000	61.265305
1696.000000	61.261984
1695.000000	61.273430
1694.000000	61.326446
1693.000000	61.328324
1692.000000	61.369787
1691.000000	61.444368
1690.000000	61.507904
1689.000000	61.582439
1688.000000	61.682032
1687.000000	61.748571
1686.000000	61.872781
1685.000000	61.940423
1684.000000	62.085312
1683.000000	62.200238
1682.000000	62.328671
1681.000000	62.479637
1680.000000	62.600443
1679.000000	62.743492
1678.000000	62.867896
1677.000000	62.981731
1676.000000	63.153743
1675.000000	63.300144
1674.000000	63.421455
1673.000000	63.559171
1672.000000	63.718300
1671.000000	63.815494
1670.000000	63.928261
1669.000000	64.080272
1668.000000	64.138534
1667.000000	64.265586
1666.000000	64.340337
1665.000000	64.421450
1664.000000	64.492718
1663.000000	64.540789
1662.000000	64.633290
1661.000000	64.701859
1660.000000	64.761028
1659.000000	64.769245
1658.000000	64.838432
1657.000000	64.862748
1656.000000	64.919668
1655.000000	64.926715
1654.000000	64.936592
1653.000000	64.946552
1652.000000	64.953288
1651.000000	64.947584
1650.000000	64.941959
1649.000000	64.954206
1648.000000	64.928580
1647.000000	64.913329
1646.000000	64.924605
1645.000000	64.910120
1644.000000	64.910565
1643.000000	64.875116
1642.000000	64.870094
1641.000000	64.876396
1640.000000	64.832426
1639.000000	64.806207
1638.000000	64.795434
1637.000000	64.775339
1636.000000	64.735541
1635.000000	64.701197
1634.000000	64.681881
1633.000000	64.661370
1632.000000	64.627012
1631.000000	64.590656
1630.000000	64.561015
1629.000000	64.514947
1628.000000	64.462352
1627.000000	64.439097
1626.000000	64.409120
1625.000000	64.381184
1624.000000	64.358040
1623.000000	64.320935
1622.000000	64.282794
1621.000000	64.222413
1620.000000	64.189462
1619.000000	64.143126
1618.000000	64.107871
1617.000000	64.080160
1616.000000	64.016563
1615.000000	63.959250
1614.000000	63.920468
1613.000000	63.882697
1612.000000	63.822503
1611.000000	63.764509
1610.000000	63.734919
1609.000000	63.702939
1608.000000	63.641944
1607.000000	63.599674
1606.000000	63.550389
1605.000000	63.495351
1604.000000	63.431665
1603.000000	63.381370
1602.000000	63.354233
1601.000000	63.306062
1600.000000	63.240234
1599.000000	63.175637
1598.000000	63.117443
1597.000000	63.091279
1596.000000	63.051789
1595.000000	62.998242
1594.000000	62.959101
1593.000000	62.916692
1592.000000	62.871817
1591.000000	62.826475
1590.000000	62.791188
1589.000000	62.741728
1588.000000	62.685186
1587.000000	62.651820
1586.000000	62.621298
1585.000000	62.596219
1584.000000	62.553248
1583.000000	62.498516
1582.000000	62.462246
1581.000000	62.430160
1580.000000	62.402545
1579.000000	62.373196
1578.000000	62.339115
1577.000000	62.288354
1576.000000	62.245824
1575.000000	62.221573
1574.000000	62.176182
1573.000000	62.126613
1572.000000	62.104994
1571.000000	62.073324
1570.000000	62.037027
1569.000000	62.000801
1568.000000	61.976391
1567.000000	61.943135
1566.000000	61.917845
1565.000000	61.910673
1564.000000	61.885895
1563.000000	61.857302
1562.000000	61.819515
1561.000000	61.808004
1560.000000	61.806838
1559.000000	61.787892
1558.000000	61.749032
1557.000000	61.733684
1556.000000	61.732232
1555.000000	61.718863
1554.000000	61.698884
1553.000000	61.675846
1552.000000	61.635085
1551.000000	61.595595
1550.000000	61.579185
1549.000000	61.555288
1548.000000	61.519896
1547.000000	61.460764
1546.000000	61.400205
1545.000000	61.360119
1544.000000	61.305570
1543.000000	61.248219
1542.000000	61.190062
1541.000000	61.123607
1540.000000	61.068853
1539.000000	60.985731
1538.000000	60.914798
1537.000000	60.835828
1536.000000	60.748115
1535.000000	60.675697
1534.000000	60.617126
1533.000000	60.563242
1532.000000	60.473935
1531.000000	60.410166
1530.000000	60.355857
1529.000000	60.279498
1528.000000	60.194148
1527.000000	60.148159
1526.000000	60.091520
1525.000000	60.046644
1524.000000	59.978825
1523.000000	59.933855
1522.000000	59.882053
1521.000000	59.851409
1520.000000	59.802013
1519.000000	59.800056
1518.000000	59.746791
1517.000000	59.691629
1516.000000	59.670567
1515.000000	59.627255
1514.000000	59.597566
1513.000000	59.574664
1512.000000	59.572452
1511.000000	59.531476
1510.000000	59.502398
1509.000000	59.515860
1508.000000	59.475882
1507.000000	59.466544
1506.000000	59.450642
1505.000000	59.429125
1504.000000	59.424352
1503.000000	59.419921
1502.000000	59.434652
1501.000000	59.422773
1500.000000	59.417274
1499.000000	59.412138
1498.000000	59.433552
1497.000000	59.444034
1496.000000	59.442855
1495.000000	59.464208
1494.000000	59.492330
1493.000000	59.517538
1492.000000	59.538357
1491.000000	59.565922
1490.000000	59.621449
1489.000000	59.665247
1488.000000	59.717979
1487.000000	59.743887
1486.000000	59.771294
1485.000000	59.839879
1484.000000	59.875036
1483.000000	59.944523
1482.000000	59.998195
1481.000000	60.054288
1480.000000	60.104288
1479.000000	60.142407
1478.000000	60.208899
1477.000000	60.267504
1476.000000	60.290624
1475.000000	60.331382
1474.000000	60.378657
1473.000000	60.438134
1472.000000	60.500904
1471.000000	60.553599
1470.000000	60.591248
1469.000000	60.635063
1468.000000	60.702536
1467.000000	60.739920
1466.000000	60.786413
1465.000000	60.824492
1464.000000	60.867996
1463.000000	60.911161
1462.000000	60.956149
1461.000000	60.990379
1460.000000	61.022672
1459.000000	61.095883
1458.000000	61.134884
1457.000000	61.167047
1456.000000	61.223132
1455.000000	61.284995
1454.000000	61.342419
1453.000000	61.401894
1452.000000	61.447783
1451.000000	61.524923
1450.000000	61.584147
1449.000000	61.630662
1448.000000	61.710798
1447.000000	61.762496
1446.000000	61.818042
1445.000000	61.881612
1444.000000	61.967856
1443.000000	62.030860
1442.000000	62.099897
1441.000000	62.177993
1440.000000	62.273139
1439.000000	62.356926
1438.000000	62.428747
1437.000000	62.516448
1436.000000	62.592673
1435.000000	62.688862
1434.000000	62.766528
1433.000000	62.867592
1432.000000	62.972569
1431.000000	63.073785
1430.000000	63.173160
1429.000000	63.263368
1428.000000	63.380197
1427.000000	63.480283
1426.000000	63.592227
1425.000000	63.697253
1424.000000	63.836191
1423.000000	63.989330
1422.000000	64.100853
1421.000000	64.244791
1420.000000	64.353638
1419.000000	64.478991
1418.000000	64.624541
1417.000000	64.769593
1416.000000	64.905076
1415.000000	65.039256
1414.000000	65.163747
1413.000000	65.303882
1412.000000	65.453650
1411.000000	65.585036
1410.000000	65.715023
1409.000000	65.880331
1408.000000	66.030156
1407.000000	66.141852
1406.000000	66.263763
1405.000000	66.397246
1404.000000	66.532981
1403.000000	66.669126
1402.000000	66.778512
1401.000000	66.904681
1400.000000	67.021903
1399.000000	67.141212
1398.000000	67.262714
1397.000000	67.369144
1396.000000	67.489443
1395.000000	67.595627
1394.000000	67.698717
1393.000000	67.804962
1392.000000	67.880238
1391.000000	67.973756
1390.000000	68.079486
1389.000000	68.159771
1388.000000	68.254177
1387.000000	68.337923
1386.000000	68.406560
1385.000000	68.470496
1384.000000	68.552923
1383.000000	68.628942
1382.000000	68.673222
1381.000000	68.733200
1380.000000	68.816011
1379.000000	68.888492
1378.000000	68.929220
1377.000000	68.976503
1376.000000	69.016518
1375.000000	69.046953
1374.000000	69.090601
1373.000000	69.141065
1372.000000	69.177352
1371.000000	69.207977
1370.000000	69.243919
1369.000000	69.277812
1368.000000	69.312732
1367.000000	69.349748
1366.000000	69.388723
1365.000000	69.430246
1364.000000	69.467994
1363.000000	69.491732
1362.000000	69.521264
1361.000000	69.561482
1360.000000	69.592445
1359.000000	69.654913
1358.000000	69.699667
1357.000000	69.718764
1356.000000	69.763362
1355.000000	69.792707
1354.000000	69.846949
1353.000000	69.889467
1352.000000	69.910871
1351.000000	69.947568
1350.000000	69.991180
1349.000000	70.022664
1348.000000	70.081008
1347.000000	70.112500
1346.000000	70.147185
1345.000000	70.184104
1344.000000	70.221525
1343.000000	70.264264
1342.000000	70.291558
1341.000000	70.334951
1340.000000	70.373174
1339.000000	70.415364
1338.000000	70.436829
1337.000000	70.463025
1336.000000	70.497956
1335.000000	70.511068
1334.000000	70.546210
1333.000000	70.587640
1332.000000	70.647923
1331.000000	70.681417
1330.000000	70.676991
1329.000000	70.691300
1328.000000	70.695816
1327.000000	70.727351
1326.000000	70.744984
1325.000000	70.767333
1324.000000	70.774026
1323.000000	70.807469
1322.000000	70.814702
1321.000000	70.823939
1320.000000	70.843965
1319.000000	70.841806
1318.000000	70.841095
1317.000000	70.846331
1316.000000	70.852465
1315.000000	70.881092
1314.000000	70.876159
1313.000000	70.873377
1312.000000	70.932761
1311.000000	70.919383
1310.000000	70.929635
1309.000000	70.943054
1308.000000	70.966233
1307.000000	70.959433
1306.000000	70.938772
1305.000000	70.959420
1304.000000	70.961254
1303.000000	70.995377
1302.000000	70.996682
1301.000000	70.993538
1300.000000	70.999222
1299.000000	70.992784
1298.000000	70.992260
1297.000000	70.997375
1296.000000	70.989047
1295.000000	70.997119
1294.000000	71.007167
1293.000000	71.021253
1292.000000	71.007832
1291.000000	71.017121
1290.000000	71.022776
1289.000000	71.012853
1288.000000	71.010281
1287.000000	70.983446
1286.000000	70.995717
1285.000000	70.992410
1284.000000	70.966649
1283.000000	70.976745
1282.000000	70.973788
1281.000000	71.002476
1280.000000	70.998690
1279.000000	70.980773
1278.000000	70.998731
1277.000000	70.994246
1276.000000	70.998002
1275.000000	70.995772
1274.000000	71.001358
1273.000000	71.001801
1272.000000	71.001654
1271.000000	70.977028
1270.000000	70.992987
1269.000000	71.009823
1268.000000	71.002494
1267.000000	71.023089
1266.000000	71.008436
1265.000000	71.005575
1264.000000	71.064017
1263.000000	71.054190
1262.000000	71.053584
1261.000000	71.042646
1260.000000	71.056235
1259.000000	71.054913
1258.000000	71.094939
1257.000000	71.079517
1256.000000	71.074186
1255.000000	71.082739
1254.000000	71.090510
1253.000000	71.107906
1252.000000	71.085840
1251.000000	71.082721
1250.000000	71.096801
1249.000000	71.082386
1248.000000	71.095896
1247.000000	71.087335
1246.000000	71.059661
1245.000000	71.076389
1244.000000	71.076688
1243.000000	71.056545
1242.000000	71.047254
1241.000000	71.045677
1240.000000	71.030859
1239.000000	71.036619
1238.000000	71.015822
1237.000000	70.991965
1236.000000	70.976577
1235.000000	70.965635
1234.000000	70.938419
1233.000000	70.929136
1232.000000	70.933787
1231.000000	70.930792
1230.000000	70.925884
1229.000000	70.898119
1228.000000	70.871740
1227.000000	70.878443
1226.000000	70.859547
1225.000000	70.837852
1224.000000	70.848706
1223.000000	70.830988
1222.000000	70.809237
1221.000000	70.789732
1220.000000	70.772414
1219.000000	70.763901
1218.000000	70.741022
1217.000000	70.725735
1216.000000	70.727424
1215.000000	70.701624
1214.000000	70.678522
1213.000000	70.695463
1212.000000	70.652837
1211.000000	70.632438
1210.000000	70.609903
1209.000000	70.590915
1208.000000	70.575484
1207.000000	70.548065
1206.000000	70.546341
1205.000000	70.503142
1204.000000	70.480244
1203.000000	70.461811
1202.000000	70.468858
1201.000000	70.429343
1200.000000	70.414380
1199.000000	70.399349
1198.000000	70.377533
1197.000000	70.361390
1196.000000	70.342412
1195.000000	70.332055
1194.000000	70.302231
1193.000000	70.289762
1192.000000	70.275912
1191.000000	70.273805
1190.000000	70.271104
1189.000000	70.242444
1188.000000	70.245823
1187.000000	70.261106
1186.000000	70.253843
1185.000000	70.252044
1184.000000	70.256762
1183.000000	70.268119
1182.000000	70.296337
1181.000000	70.313673
1180.000000	70.330647
1179.000000	70.346706
1178.000000	70.374727
1177.000000	70.399384
1176.000000	70.423641
1175.000000	70.477071
1174.000000	70.499947
1173.000000	70.523103
1172.000000	70.554124
1171.000000	70.591929
1170.000000	70.639418
1169.000000	70.676763
1168.000000	70.702816
1167.000000	70.744777
1166.000000	70.799034
1165.000000	70.849476
1164.000000	70.909877
1163.000000	70.948902
1162.000000	70.976609
1161.000000	71.025846
1160.000000	71.077836
1159.000000	71.111051
1158.000000	71.143856
1157.000000	71.188517
1156.000000	71.241364
1155.000000	71.265648
1154.000000	71.283293
1153.000000	71.338249
1152.000000	71.390256
1151.000000	71.431025
1150.000000	71.452257
1149.000000	71.478403
1148.000000	71.509038
1147.000000	71.536750
1146.000000	71.579464
1145.000000	71.595415
1144.000000	71.608486
1143.000000	71.641039
1142.000000	71.679190
1141.000000	71.707667
1140.000000	71.726023
1139.000000	71.755892
1138.000000	71.776679
1137.000000	71.798672
1136.000000	71.836332
1135.000000	71.850244
1134.000000	71.874164
1133.000000	71.888124
1132.000000	71.893499
1131.000000	71.913209
1130.000000	71.930918
1129.000000	71.942183
1128.000000	71.974387
1127.000000	71.979693
1126.000000	71.991686
1125.000000	72.010561
1124.000000	72.021885
1123.000000	72.036614
1122.000000	72.041095
1121.000000	72.049849
1120.000000	72.069072
1119.000000	72.086851
1118.000000	72.082297
1117.000000	72.068294
1116.000000	72.087968
1115.000000	72.080435
1114.000000	72.088530
1113.000000	72.098423
1112.000000	72.094563
1111.000000	72.099570
1110.000000	72.088181
1109.000000	72.098792
1108.000000	72.126243
1107.000000	72.102687
1106.000000	72.108914
1105.000000	72.116407
1104.000000	72.102054
1103.000000	72.116158
1102.000000	72.115471
1101.000000	72.112848
1100.000000	72.128907
1099.000000	72.141211
1098.000000	72.115920
1097.000000	72.115263
1096.000000	72.127656
1095.000000	72.105280
1094.000000	72.129207
1093.000000	72.125833
1092.000000	72.122336
1091.000000	72.101325
1090.000000	72.124102
1089.000000	72.129231
1088.000000	72.122476
1087.000000	72.129424
1086.000000	72.153974
1085.000000	72.121578
1084.000000	72.140930
1083.000000	72.121552
1082.000000	72.130366
1081.000000	72.135241
1080.000000	72.110616
1079.000000	72.112978
1078.000000	72.104596
1077.000000	72.100870
1076.000000	72.120451
1075.000000	72.094542
1074.000000	72.099330
1073.000000	72.117038
1072.000000	72.110002
1071.000000	72.107062
1070.000000	72.081622
1069.000000	72.074134
1068.000000	72.091714
1067.000000	72.083753
1066.000000	72.078947
1065.000000	72.067744
1064.000000	72.095021
1063.000000	72.086571
1062.000000	72.058627
1061.000000	72.059685
1060.000000	72.040882
1059.000000	72.064999
1058.000000	72.057626
1057.000000	72.059955
1056.000000	72.040272
1055.000000	72.036291
1054.000000	72.042523
1053.000000	72.042776
1052.000000	72.049007
1051.000000	72.033726
1050.000000	72.063722
1049.000000	72.031925
1048.000000	72.023645
1047.000000	72.025496
1046.000000	72.025026
1045.000000	71.995201
1044.000000	71.993256
1043.000000	72.007099
1042.000000	72.021843
1041.000000	72.009250
1040.000000	72.010886
1039.000000	71.986223
1038.000000	71.985234
1037.000000	71.982221
1036.000000	71.984772
1035.000000	71.983394
1034.000000	71.985520
1033.000000	71.980426
1032.000000	71.988658
1031.000000	71.969982
1030.000000	71.979029
1029.000000	71.952206
1028.000000	71.949783
1027.000000	71.970229
1026.000000	71.969563
1025.000000	71.962984
1024.000000	71.944018
1023.000000	71.951559
1022.000000	71.951675
1021.000000	71.922402
1020.000000	71.938431
1019.000000	71.941937
1018.000000	71.960749
1017.000000	71.959079
1016.000000	71.944613
1015.000000	71.947042
1014.000000	71.935236
1013.000000	71.924390
1012.000000	71.962622
1011.000000	71.948614
1010.000000	71.946747
1009.000000	71.943994
1008.000000	71.945147
1007.000000	71.947191
1006.000000	71.947757
1005.000000	71.951937
1004.000000	71.940471
1003.000000	71.947004
1002.000000	71.962917
1001.000000	71.954713
1000.000000	71.962792
999.000000	71.955812
998.000000	71.949271
997.000000	71.961351
996.000000	71.961266
995.000000	71.949718
994.000000	71.971475
993.000000	71.973511
992.000000	71.964066
991.000000	71.950824
990.000000	71.971803
989.000000	71.991057
988.000000	71.969408
987.000000	71.973896
986.000000	71.962627
985.000000	71.976438
984.000000	71.977104
983.000000	72.008643
982.000000	72.005171
981.000000	71.988601
980.000000	72.016928
979.000000	72.022176
978.000000	72.029816
977.000000	72.046171
976.000000	72.029880
975.000000	72.039760
974.000000	72.036807
973.000000	72.056798
972.000000	72.065418
971.000000	72.075072
970.000000	72.087669
969.000000	72.085533
968.000000	72.071937
967.000000	72.089428
966.000000	72.119731
965.000000	72.110810
964.000000	72.098096
963.000000	72.097690
962.000000	72.123316
961.000000	72.132631
960.000000	72.117500
959.000000	72.129461
958.000000	72.142945
957.000000	72.131616
956.000000	72.130805
955.000000	72.162739
954.000000	72.173781
953.000000	72.189661
952.000000	72.192799
951.000000	72.193629
950.000000	72.204358
949.000000	72.207094
948.000000	72.209708
947.000000	72.201143
946.000000	72.205232
945.000000	72.235898
944.000000	72.237907
943.000000	72.227812
942.000000	72.224126
941.000000	72.208327
940.000000	72.226745
939.000000	72.244388
938.000000	72.232310
937.000000	72.224807
936.000000	72.235241
935.000000	72.218338
934.000000	72.219466
933.000000	72.243303
932.000000	72.233595
931.000000	72.237978
930.000000	72.256263
929.000000	72.269863
928.000000	72.263508
927.000000	72.242247
926.000000	72.225510
925.000000	72.227213
924.000000	72.225953
923.000000	72.240944
922.000000	72.242556
921.000000	72.250715
920.000000	72.265591
919.000000	72.273092
918.000000	72.284312
917.000000	72.272424
916.000000	72.278709
915.000000	72.281673
914.000000	72.272631
913.000000	72.285569
912.000000	72.258777
911.000000	72.275677
910.000000	72.281827
909.000000	72.239133
908.000000	72.263072
907.000000	72.287201
906.000000	72.272845
905.000000	72.276713
904.000000	72.328318
903.000000	72.346482
902.000000	72.284835
901.000000	72.305192
900.000000	72.324086
899.000000	72.320060
898.000000	72.324346
897.000000	72.332357
896.000000	72.296473
895.000000	72.317265
894.000000	72.246187
893.000000	72.265018
892.000000	72.326693
891.000000	72.351041
890.000000	72.333241
889.000000	72.312059
888.000000	72.350061
887.000000	72.409670
886.000000	72.373147
885.000000	72.355933
884.000000	72.445732
883.000000	72.491258
882.000000	72.413358
881.000000	72.436522
880.000000	72.455074
879.000000	72.383258
878.000000	72.349136
877.000000	72.363909
876.000000	72.429936
875.000000	72.280777
874.000000	72.457027
873.000000	72.447595
872.000000	72.411271
871.000000	72.401677
870.000000	72.498412
869.000000	72.538234
868.000000	72.439843
867.000000	72.457663
866.000000	72.420295
865.000000	72.401835
864.000000	72.480185
863.000000	72.472741
862.000000	72.393644
861.000000	72.268469
860.000000	72.167258
859.000000	72.162147
858.000000	71.881839
857.000000	71.717021
856.000000	72.093337
855.000000	71.788752
854.000000	72.206867
853.000000	71.824289
852.000000	71.967617
851.000000	71.977950
850.000000	72.093373
849.000000	71.979186
848.000000	71.965829
847.000000	71.849810
846.000000	72.389984
845.000000	71.640248
844.000000	71.944349
843.000000	71.996932
842.000000	71.723021
841.000000	72.094473
840.000000	72.168638
839.000000	72.122546
838.000000	71.899397
837.000000	71.930815
836.000000	71.939329
835.000000	71.857686
834.000000	72.031350
833.000000	71.839628
832.000000	71.897279
831.000000	71.799065
830.000000	72.205927
829.000000	72.043479
828.000000	71.878246
827.000000	71.887113
826.000000	72.045695
825.000000	71.746442
824.000000	71.951191
823.000000	72.056672
822.000000	71.835173
821.000000	71.764572
820.000000	71.995825
819.000000	71.867956
818.000000	71.908586
817.000000	71.867483
816.000000	71.859979
815.000000	71.855932
814.000000	71.933357
813.000000	71.942396
812.000000	71.883959
811.000000	71.919840
810.000000	71.892766
809.000000	71.931739
808.000000	72.087212
807.000000	72.027285
806.000000	72.114963
805.000000	71.978225
804.000000	71.971527
803.000000	72.107373
802.000000	71.912436
801.000000	71.862223
800.000000	72.089286
799.000000	71.852783
798.000000	71.902175
797.000000	71.968036
796.000000	72.093526
795.000000	72.073025
794.000000	71.918572
793.000000	71.978481
792.000000	71.901622
791.000000	72.064858
790.000000	72.023271
789.000000	72.048377
788.000000	71.895817
787.000000	71.953979
786.000000	72.054885
785.000000	71.954129
784.000000	71.945818
783.000000	71.960176
782.000000	71.937908
781.000000	72.008410
780.000000	72.084656
779.000000	72.065951
778.000000	72.045570
777.000000	71.986118
776.000000	72.066060
775.000000	72.007739
774.000000	72.072765
773.000000	72.077095
772.000000	72.031087
771.000000	72.118627
770.000000	72.046604
769.000000	71.938837
768.000000	72.054786
767.000000	72.019919
766.000000	71.930454
765.000000	71.976604
764.000000	71.939411
763.000000	72.052706
762.000000	72.099510
761.000000	71.981328
760.000000	72.078090
759.000000	72.119044
758.000000	71.949746
757.000000	72.048228
756.000000	72.033291
755.000000	72.020124
754.000000	72.137710
753.000000	72.075429
752.000000	71.978025
751.000000	72.000680
750.000000	72.067986
749.000000	72.102694
748.000000	72.066762
747.000000	72.048696
746.000000	72.082623
745.000000	72.084170
744.000000	72.018672
743.000000	72.077844
742.000000	72.049392
741.000000	72.131039
740.000000	72.123721
739.000000	72.038769
738.000000	72.131542
737.000000	72.105264
736.000000	72.112807
735.000000	72.133444
734.000000	72.128831
733.000000	72.064993
732.000000	72.051121
731.000000	72.020760
730.000000	71.990584
729.000000	72.002950
728.000000	72.001385
727.000000	72.028552
726.000000	72.049995
725.000000	71.944406
724.000000	71.899760
723.000000	72.039474
722.000000	72.097194
721.000000	72.119692
720.000000	72.044465
719.000000	71.979509
718.000000	72.038822
717.000000	72.093324
716.000000	72.046234
715.000000	72.105199
714.000000	72.112349
713.000000	72.117984
712.000000	72.169195
711.000000	72.123166
710.000000	72.076168
709.000000	72.024509
708.000000	72.000288
707.000000	72.065627
706.000000	72.097569
705.000000	72.036182
704.000000	72.098487
703.000000	72.155566
702.000000	72.131222
701.000000	72.109386
700.000000	72.101446
699.000000	72.155826
698.000000	72.104168
697.000000	72.044646
696.000000	72.123717
695.000000	72.188858
694.000000	72.181587
693.000000	72.129460
692.000000	72.152177
691.000000	72.081333
690.000000	72.065701
689.000000	72.112267
688.000000	72.005373
687.000000	72.017462
686.000000	72.063329
685.000000	72.045811
684.000000	72.114185
683.000000	72.113476
682.000000	72.050285
681.000000	72.052930
680.000000	72.126889
679.000000	72.182649
678.000000	72.084273
677.000000	72.063942
676.000000	72.074277
675.000000	72.075665
674.000000	72.055155
673.000000	72.089740
672.000000	72.094697
671.000000	72.044422
670.000000	72.062261
669.000000	72.093196
668.000000	72.076378
667.000000	72.125684
666.000000	72.134611
665.000000	72.089855
664.000000	72.056129
663.000000	72.127708
662.000000	72.138246
661.000000	72.099691
660.000000	72.120038
659.000000	72.150991
658.000000	72.122903
657.000000	72.149273
656.000000	72.156946
655.000000	72.099757
654.000000	72.107155
653.000000	72.123773
652.000000	72.167647
651.000000	72.108820
650.000000	72.085754
649.000000	72.063907
648.000000	72.152583
647.000000	72.109526
646.000000	72.083319
645.000000	72.123568
644.000000	72.078698
643.000000	72.106113
642.000000	72.137701
641.000000	72.116914
640.000000	72.111824
639.000000	72.142921
638.000000	72.094067
637.000000	72.127752
636.000000	72.133465
635.000000	72.194554
634.000000	72.169518
633.000000	72.154529
632.000000	72.167350
631.000000	72.172016
630.000000	72.175439
629.000000	72.096866
628.000000	72.147252
627.000000	72.198987
626.000000	72.192938
625.000000	72.181270
624.000000	72.123635
623.000000	72.109536
622.000000	72.145228
621.000000	72.129527
620.000000	72.095320
619.000000	72.077694
618.000000	72.113002
617.000000	72.125178
616.000000	72.113446
615.000000	72.098278
614.000000	72.106801
613.000000	72.221975
612.000000	72.137156
611.000000	72.121771
610.000000	72.117693
609.000000	72.081156
608.000000	72.100608
607.000000	72.123585
606.000000	72.048283
605.000000	72.128802
604.000000	72.089223
603.000000	72.135583
602.000000	72.147981
601.000000	72.164398
600.000000	72.170582
599.000000	72.134153
598.000000	72.117747
597.000000	72.063080
596.000000	72.114667
595.000000	72.083555
594.000000	72.151586
593.000000	72.125239
592.000000	72.057909
591.000000	72.052993
590.000000	72.004006
589.000000	72.025025
588.000000	72.013693
587.000000	72.025974
586.000000	72.022705
585.000000	72.014315
584.000000	72.015781
583.000000	72.004897
582.000000	72.009887
581.000000	72.007156
580.000000	72.048916
579.000000	72.073522
578.000000	71.973833
577.000000	71.991129
576.000000	72.037943
575.000000	72.030195
574.000000	71.958212
573.000000	71.954193
572.000000	71.961836
571.000000	72.000785
570.000000	71.939146
569.000000	71.944680
568.000000	71.935347
567.000000	71.992427
566.000000	71.886636
565.000000	71.944167
564.000000	71.890628
563.000000	71.924263
562.000000	71.922278
561.000000	71.913647
560.000000	71.840279
559.000000	71.806291
558.000000	71.849083
557.000000	71.875131
556.000000	71.835662
555.000000	71.879592
554.000000	71.790511
553.000000	71.829374
552.000000	71.759578
551.000000	71.814020
550.000000	71.772699
549.000000	71.811907
548.000000	71.799599
547.000000	71.777684
546.000000	71.748077
545.000000	71.753421
544.000000	71.764314
543.000000	71.721651
542.000000	71.700391
541.000000	71.725690
540.000000	71.630034
539.000000	71.650537
538.000000	71.630432
537.000000	71.671770
536.000000	71.621512
535.000000	71.620381
534.000000	71.578270
533.000000	71.547726
532.000000	71.561167
531.000000	71.569327
530.000000	71.552308
529.000000	71.542455
528.000000	71.512226
527.000000	71.501634
526.000000	71.482823
525.000000	71.458115
524.000000	71.436590
523.000000	71.473317
522.000000	71.416860
521.000000	71.359259
520.000000	71.378884
519.000000	71.349473
518.000000	71.344325
517.000000	71.342282
516.000000	71.299611
515.000000	71.280493
514.000000	71.252433
513.000000	71.248575
512.000000	71.182606
511.000000	71.167713
510.000000	71.165472
509.000000	71.159842
508.000000	71.114635
507.000000	71.111296
506.000000	71.090089
505.000000	71.046399
504.000000	71.030353
503.000000	70.999770
502.000000	70.983325
501.000000	70.957206
500.000000	70.925428
499.000000	70.943110
498.000000	70.885727
497.000000	70.858624
496.000000	70.818766
495.000000	70.768703
494.000000	70.771513
493.000000	70.828717
492.000000	70.760131
491.000000	70.674323
490.000000	70.653413
489.000000	70.658509
488.000000	70.618753
487.000000	70.539821
486.000000	70.531244
485.000000	70.535203
484.000000	70.560573
483.000000	70.553412
482.000000	70.474056
481.000000	70.462601
480.000000	70.377023
479.000000	70.347222
478.000000	70.317735
477.000000	70.275544
476.000000	70.272990
475.000000	70.266123
474.000000	70.217743
473.000000	70.169357
472.000000	70.146029
471.000000	70.119267
470.000000	70.092314
469.000000	70.055124
468.000000	69.987127
467.000000	69.927192
466.000000	69.860946
465.000000	69.825484
464.000000	69.823767
463.000000	69.804503
462.000000	69.730540
461.000000	69.651165
460.000000	69.598678
459.000000	69.583449
458.000000	69.542578
457.000000	69.422283
456.000000	69.337946
455.000000	69.338878
454.000000	69.304136
453.000000	69.244997
452.000000	69.248080
451.000000	69.185068
450.000000	69.066837
449.000000	69.002326
448.000000	68.924922
447.000000	68.843416
446.000000	68.831990
445.000000	68.748533
444.000000	68.663640
443.000000	68.620616
442.000000	68.475170
441.000000	68.394428
440.000000	68.388280
439.000000	68.281966
438.000000	68.199657
437.000000	68.124752
436.000000	68.060394
435.000000	67.941433
434.000000	67.836565
433.000000	67.825498
432.000000	67.776699
431.000000	67.564382
430.000000	67.434955
429.000000	67.330792
428.000000	67.254965
427.000000	67.099637
426.000000	66.998860
425.000000	66.978589
424.000000	66.889720
423.000000	66.773179
422.000000	66.585587
421.000000	66.444673
420.000000	66.354251
419.000000	66.266286
418.000000	66.114996
417.000000	65.957230
416.000000	65.890256
415.000000	65.746506
414.000000	65.614186
413.000000	65.398385
412.000000	65.268038
411.000000	65.155356
410.000000	65.023942
409.000000	64.899831
408.000000	64.632599
407.000000	64.558139
406.000000	64.367219
405.000000	64.114281
404.000000	64.059494
403.000000	63.893572
402.000000	63.714598
401.000000	63.550802
400.000000	63.325479
399.000000	63.196088
398.000000	63.100784
397.000000	62.936490
396.000000	62.708005
395.000000	62.523671
394.000000	62.324554
393.000000	62.166405
392.000000	62.032179
391.000000	61.813572
390.000000	61.672177
389.000000	61.413588
388.000000	61.205436
387.000000	60.993118
386.000000	60.812430
385.000000	60.571195
384.000000	60.391452
383.000000	60.335812
382.000000	59.999338
381.000000	59.787832
380.000000	59.503040
379.000000	59.198269
378.000000	58.773626
377.000000	58.830461
376.000000	58.814706
375.000000	58.383735
374.000000	58.175216
373.000000	57.831519
372.000000	57.522964
371.000000	57.200383
370.000000	56.875144
369.000000	56.742329
368.000000	56.600965
367.000000	56.078501
366.000000	56.011942
365.000000	55.520483
364.000000	55.237100
363.000000	55.172550
362.000000	54.839603
361.000000	54.429511
360.000000	54.144623
359.000000	54.067539
358.000000	53.721775
357.000000	53.450235
356.000000	53.065592
355.000000	52.632242
354.000000	52.598968
353.000000	52.460194
352.000000	52.138041
351.000000	51.898151
350.000000	51.605927
349.000000	51.157788
348.000000	50.822193
347.000000	50.717772
346.000000	50.361007
345.000000	50.097233
344.000000	49.696791
343.000000	49.558000
342.000000	49.184144
341.000000	48.898173
340.000000	48.347847
339.000000	47.816974
338.000000	47.479668
337.000000	47.109948
336.000000	46.795380
335.000000	46.351915
334.000000	45.729395
333.000000	45.274459
332.000000	44.842878
331.000000	44.301855
330.000000	43.823047
329.000000	43.117625
328.000000	42.626889
327.000000	42.457157
326.000000	42.044565
325.000000	41.529887
324.000000	41.060673
323.000000	40.536058
322.000000	40.372382
321.000000	40.026409
320.000000	39.641980
319.000000	39.301053
318.000000	39.203711
317.000000	38.940312
316.000000	38.471939
315.000000	38.257293
314.000000	38.227684
313.000000	37.987360
312.000000	37.714943
311.000000	37.490012
310.000000	37.379760
309.000000	36.996120
308.000000	36.848793
307.000000	36.581670
306.000000	36.254098
305.000000	35.973321
304.000000	36.020636
303.000000	35.786425
302.000000	35.599561
301.000000	35.222686
300.000000	34.973040
299.000000	34.681518
298.000000	34.278915
297.000000	33.987788
296.000000	33.292832
295.000000	32.710638
294.000000	32.228847
293.000000	31.288627
292.000000	30.456345
291.000000	29.486662
290.000000	28.468113
289.000000	27.459237
288.000000	26.637121
287.000000	25.975213
286.000000	25.474296
285.000000	25.204153
284.000000	24.999882
283.000000	24.901182
282.000000	24.702438
281.000000	24.701533
280.000000	24.681688
279.000000	24.752417
278.000000	24.824539
277.000000	24.921317
276.000000	25.253332
275.000000	25.539037
274.000000	25.738224
273.000000	25.974863
272.000000	26.133681
271.000000	26.322241
270.000000	26.508098
269.000000	26.626243
268.000000	26.718958
267.000000	27.032165
266.000000	27.283420
265.000000	27.440828
264.000000	27.759521
263.000000	28.098914
262.000000	28.316733
261.000000	28.493115
260.000000	28.839535
259.000000	29.112404
258.000000	29.377520
257.000000	29.766592
256.000000	30.148675
255.000000	30.306921
254.000000	30.288181
253.000000	30.342872
252.000000	30.275216
251.000000	30.162781
250.000000	29.812369
249.000000	29.250965
248.000000	28.559537
247.000000	27.571137
246.000000	26.526494
245.000000	25.370030
244.000000	24.124521
243.000000	22.894777
242.000000	21.667939
241.000000	20.638047
240.000000	19.610395
239.000000	18.751178
238.000000	18.187153
237.000000	17.725618
236.000000	17.370504
235.000000	17.124563
234.000000	16.965941
233.000000	16.859045
232.000000	16.713936
231.000000	16.626842
230.000000	16.564775
229.000000	16.497788
228.000000	16.553406
227.000000	16.615428
226.000000	16.605841
225.000000	16.712905
224.000000	16.853374
223.000000	16.912491
222.000000	17.104501
221.000000	17.403442
220.000000	17.595684
219.000000	17.722536
218.000000	17.929986
217.000000	18.082517
216.000000	18.398813
215.000000	18.830359
214.000000	19.083154
213.000000	19.406625
212.000000	19.758010
211.000000	20.002852
210.000000	20.442738
209.000000	20.798546
208.000000	21.095456
207.000000	21.409220
206.000000	21.916329
205.000000	22.446701
204.000000	22.875977
203.000000	23.470570
202.000000	24.167199
201.000000	24.672688
200.000000	25.275322
