PE UV       SUBTECH     SPECTRUM    ASCII       PEDS        4.00        
   -1
RDAgneauUK 12.Sample.asc
18/03/05
11:25:41.00
18/03/05
11:25:41.00
Administrator

200.000000
1
Lambda 750
750N8071901
PerkinElmer UV WinLab 6.0.4.0738 / 1.61.00 Lambda 900

0
0
3350/servo 860.8/2
0
0
UV/VIS
1
1
1
CommonBeamDepol,150mm sphere / downward view
0
0
0
0
Program
Program
3350/servo 860.8/2
3350/0.2 860.8/0.2
3350/0.2 860.8/0.2
0
1
 
 
 
0
 
860.8
319.2
860.8
Front
100
on
 
 
0
0
0
 
0
 
 
 
0
 
 
0
0
0
0
0
 
 
 
 
0
0


0
0
#HDR
-1
-1
#GR
nm
%R
1.0
0.0
2350.000000
-1.000000
2151
8
72.100052
17.539579
#DATA
2350.000000	44.182813
2349.000000	44.414959
2348.000000	44.674754
2347.000000	45.138511
2346.000000	44.853748
2345.000000	44.481979
2344.000000	44.807298
2343.000000	44.424828
2342.000000	44.365918
2341.000000	45.239196
2340.000000	44.689164
2339.000000	44.945346
2338.000000	44.949925
2337.000000	45.004969
2336.000000	44.865557
2335.000000	45.021342
2334.000000	45.142941
2333.000000	45.442473
2332.000000	45.451167
2331.000000	45.230009
2330.000000	45.196169
2329.000000	44.850542
2328.000000	45.237225
2327.000000	45.186097
2326.000000	45.172293
2325.000000	44.890639
2324.000000	45.077920
2323.000000	44.891001
2322.000000	44.987934
2321.000000	44.496149
2320.000000	44.489086
2319.000000	44.508505
2318.000000	44.604559
2317.000000	44.557881
2316.000000	44.404600
2315.000000	44.370858
2314.000000	44.278660
2313.000000	44.401181
2312.000000	44.243806
2311.000000	44.106827
2310.000000	44.257709
2309.000000	44.188792
2308.000000	44.004167
2307.000000	43.729514
2306.000000	43.801495
2305.000000	43.688580
2304.000000	43.703745
2303.000000	43.837112
2302.000000	43.435538
2301.000000	43.362416
2300.000000	43.261418
2299.000000	43.275268
2298.000000	43.262836
2297.000000	43.017437
2296.000000	42.898921
2295.000000	42.910119
2294.000000	42.722710
2293.000000	42.644513
2292.000000	42.620391
2291.000000	42.508230
2290.000000	42.460900
2289.000000	42.282851
2288.000000	42.419701
2287.000000	42.563041
2286.000000	42.445001
2285.000000	42.227782
2284.000000	42.140363
2283.000000	42.156558
2282.000000	42.138243
2281.000000	42.305486
2280.000000	42.333149
2279.000000	42.097195
2278.000000	42.132705
2277.000000	42.149648
2276.000000	42.118554
2275.000000	42.260868
2274.000000	42.337717
2273.000000	42.362376
2272.000000	42.348123
2271.000000	42.373140
2270.000000	42.459139
2269.000000	42.460805
2268.000000	42.476179
2267.000000	42.606565
2266.000000	42.705211
2265.000000	42.772896
2264.000000	42.967935
2263.000000	43.055496
2262.000000	43.067941
2261.000000	43.379653
2260.000000	43.535662
2259.000000	43.748463
2258.000000	44.067084
2257.000000	44.236352
2256.000000	44.287467
2255.000000	44.426016
2254.000000	44.752337
2253.000000	44.821620
2252.000000	44.903166
2251.000000	45.224722
2250.000000	45.513138
2249.000000	45.731745
2248.000000	45.923651
2247.000000	46.033196
2246.000000	46.191852
2245.000000	46.410128
2244.000000	46.606639
2243.000000	46.886322
2242.000000	47.066003
2241.000000	47.081934
2240.000000	47.143022
2239.000000	47.345443
2238.000000	47.433756
2237.000000	47.544278
2236.000000	47.645615
2235.000000	47.798739
2234.000000	47.938417
2233.000000	47.879747
2232.000000	47.899078
2231.000000	48.134173
2230.000000	48.198167
2229.000000	48.256668
2228.000000	48.244722
2227.000000	48.253471
2226.000000	48.344787
2225.000000	48.212351
2224.000000	48.089607
2223.000000	48.135474
2222.000000	48.234649
2221.000000	48.244743
2220.000000	48.231960
2219.000000	48.256357
2218.000000	48.047347
2217.000000	48.002490
2216.000000	48.031806
2215.000000	48.025100
2214.000000	47.970038
2213.000000	48.020279
2212.000000	47.905228
2211.000000	47.645206
2210.000000	47.688961
2209.000000	47.673823
2208.000000	47.591753
2207.000000	47.603790
2206.000000	47.493119
2205.000000	47.382281
2204.000000	47.339278
2203.000000	47.252418
2202.000000	47.248026
2201.000000	47.138544
2200.000000	47.075059
2199.000000	47.017802
2198.000000	47.097654
2197.000000	46.892807
2196.000000	46.617466
2195.000000	46.693554
2194.000000	46.564162
2193.000000	46.395698
2192.000000	46.574117
2191.000000	46.440368
2190.000000	46.391570
2189.000000	46.503171
2188.000000	46.205262
2187.000000	46.018978
2186.000000	46.194325
2185.000000	46.044281
2184.000000	45.964997
2183.000000	46.077404
2182.000000	45.870263
2181.000000	45.906384
2180.000000	45.902054
2179.000000	45.932813
2178.000000	45.755217
2177.000000	45.940633
2176.000000	45.958578
2175.000000	45.903695
2174.000000	46.062908
2173.000000	46.008250
2172.000000	46.175009
2171.000000	46.243668
2170.000000	46.237082
2169.000000	46.179868
2168.000000	46.330538
2167.000000	46.604187
2166.000000	46.664146
2165.000000	46.660704
2164.000000	46.837483
2163.000000	46.722585
2162.000000	46.963961
2161.000000	47.002053
2160.000000	47.317294
2159.000000	47.348852
2158.000000	47.379956
2157.000000	47.784389
2156.000000	47.816455
2155.000000	47.789333
2154.000000	48.238603
2153.000000	48.477590
2152.000000	48.341806
2151.000000	48.685390
2150.000000	48.955463
2149.000000	48.905675
2148.000000	49.054104
2147.000000	49.155698
2146.000000	49.320241
2145.000000	49.533172
2144.000000	49.739790
2143.000000	49.748596
2142.000000	49.984383
2141.000000	50.072359
2140.000000	50.269518
2139.000000	50.379034
2138.000000	50.705882
2137.000000	50.518162
2136.000000	50.578486
2135.000000	50.848380
2134.000000	51.048851
2133.000000	50.837980
2132.000000	51.264963
2131.000000	51.238657
2130.000000	51.493707
2129.000000	51.337558
2128.000000	51.274560
2127.000000	51.543806
2126.000000	51.614385
2125.000000	51.723183
2124.000000	51.656182
2123.000000	51.590789
2122.000000	51.756651
2121.000000	51.795844
2120.000000	51.672398
2119.000000	51.737744
2118.000000	51.828242
2117.000000	51.785801
2116.000000	51.810807
2115.000000	52.016059
2114.000000	52.024327
2113.000000	51.944172
2112.000000	52.052036
2111.000000	52.151585
2110.000000	52.004530
2109.000000	51.972837
2108.000000	52.023990
2107.000000	52.187497
2106.000000	52.164583
2105.000000	52.072851
2104.000000	52.087438
2103.000000	52.113675
2102.000000	52.137956
2101.000000	52.180125
2100.000000	52.260584
2099.000000	52.071524
2098.000000	52.247264
2097.000000	52.125851
2096.000000	52.093821
2095.000000	52.178208
2094.000000	52.220102
2093.000000	52.168842
2092.000000	52.229301
2091.000000	52.185514
2090.000000	52.105563
2089.000000	52.188077
2088.000000	52.116396
2087.000000	52.074163
2086.000000	52.016783
2085.000000	51.937822
2084.000000	51.927013
2083.000000	51.883868
2082.000000	51.746956
2081.000000	51.716332
2080.000000	51.663152
2079.000000	51.651892
2078.000000	51.562212
2077.000000	51.428499
2076.000000	51.263346
2075.000000	51.193703
2074.000000	51.111336
2073.000000	51.021599
2072.000000	50.886873
2071.000000	50.816746
2070.000000	50.760536
2069.000000	50.592482
2068.000000	50.427850
2067.000000	50.306422
2066.000000	50.122925
2065.000000	49.972460
2064.000000	49.840820
2063.000000	49.671464
2062.000000	49.523024
2061.000000	49.385322
2060.000000	49.176837
2059.000000	49.026355
2058.000000	48.897103
2057.000000	48.819365
2056.000000	48.737499
2055.000000	48.574830
2054.000000	48.371325
2053.000000	48.267374
2052.000000	48.137570
2051.000000	48.042776
2050.000000	47.919431
2049.000000	47.769474
2048.000000	47.652959
2047.000000	47.594407
2046.000000	47.567183
2045.000000	47.499919
2044.000000	47.432111
2043.000000	47.421669
2042.000000	47.409282
2041.000000	47.464025
2040.000000	47.471914
2039.000000	47.532360
2038.000000	47.570918
2037.000000	47.570651
2036.000000	47.638801
2035.000000	47.771647
2034.000000	47.864758
2033.000000	47.985985
2032.000000	48.143600
2031.000000	48.214029
2030.000000	48.247705
2029.000000	48.366375
2028.000000	48.524128
2027.000000	48.632103
2026.000000	48.756233
2025.000000	48.920478
2024.000000	48.998186
2023.000000	49.046009
2022.000000	49.159908
2021.000000	49.264045
2020.000000	49.307513
2019.000000	49.318037
2018.000000	49.340146
2017.000000	49.361645
2016.000000	49.412217
2015.000000	49.469957
2014.000000	49.427974
2013.000000	49.388437
2012.000000	49.406907
2011.000000	49.410738
2010.000000	49.345127
2009.000000	49.291662
2008.000000	49.240899
2007.000000	49.186042
2006.000000	49.135195
2005.000000	49.082802
2004.000000	49.017332
2003.000000	48.924145
2002.000000	48.827246
2001.000000	48.737393
2000.000000	48.631483
1999.000000	48.555665
1998.000000	48.491394
1997.000000	48.414499
1996.000000	48.335716
1995.000000	48.235921
1994.000000	48.131259
1993.000000	48.014845
1992.000000	47.914498
1991.000000	47.824855
1990.000000	47.745981
1989.000000	47.627665
1988.000000	47.545661
1987.000000	47.466251
1986.000000	47.308128
1985.000000	47.208781
1984.000000	47.151564
1983.000000	47.030276
1982.000000	46.959429
1981.000000	46.879737
1980.000000	46.757900
1979.000000	46.634646
1978.000000	46.555069
1977.000000	46.456926
1976.000000	46.348083
1975.000000	46.265915
1974.000000	46.154432
1973.000000	46.049273
1972.000000	45.956940
1971.000000	45.885628
1970.000000	45.748743
1969.000000	45.627209
1968.000000	45.599025
1967.000000	45.462264
1966.000000	45.361742
1965.000000	45.216101
1964.000000	45.157041
1963.000000	45.060368
1962.000000	44.975473
1961.000000	44.796071
1960.000000	44.746971
1959.000000	44.657301
1958.000000	44.620715
1957.000000	44.525569
1956.000000	44.387755
1955.000000	44.326523
1954.000000	44.329226
1953.000000	44.237518
1952.000000	44.117223
1951.000000	44.071160
1950.000000	44.029667
1949.000000	44.007966
1948.000000	43.964878
1947.000000	43.916162
1946.000000	43.854093
1945.000000	43.963300
1944.000000	43.878174
1943.000000	43.928995
1942.000000	43.942540
1941.000000	43.937008
1940.000000	43.965373
1939.000000	44.033570
1938.000000	44.153485
1937.000000	44.258145
1936.000000	44.352494
1935.000000	44.418190
1934.000000	44.542658
1933.000000	44.714225
1932.000000	44.716419
1931.000000	44.923289
1930.000000	45.081049
1929.000000	45.268800
1928.000000	45.568514
1927.000000	45.746959
1926.000000	45.960483
1925.000000	46.049778
1924.000000	46.381714
1923.000000	46.684487
1922.000000	46.928647
1921.000000	47.202317
1920.000000	47.415320
1919.000000	47.708338
1918.000000	48.022249
1917.000000	48.370509
1916.000000	48.546357
1915.000000	48.986692
1914.000000	49.345635
1913.000000	49.764512
1912.000000	50.095310
1911.000000	50.432508
1910.000000	50.821610
1909.000000	51.201418
1908.000000	51.586120
1907.000000	51.991153
1906.000000	52.370292
1905.000000	52.788306
1904.000000	53.157003
1903.000000	53.589533
1902.000000	53.979917
1901.000000	54.506354
1900.000000	54.818836
1899.000000	55.299550
1898.000000	55.713195
1897.000000	56.166961
1896.000000	56.546152
1895.000000	56.925142
1894.000000	57.319497
1893.000000	57.704548
1892.000000	58.027660
1891.000000	58.470878
1890.000000	58.815329
1889.000000	59.174977
1888.000000	59.474710
1887.000000	59.732823
1886.000000	60.039482
1885.000000	60.328756
1884.000000	60.612448
1883.000000	60.905953
1882.000000	61.111291
1881.000000	61.383917
1880.000000	61.651266
1879.000000	61.839442
1878.000000	62.054031
1877.000000	62.313411
1876.000000	62.487916
1875.000000	62.708321
1874.000000	62.864083
1873.000000	62.918938
1872.000000	63.061125
1871.000000	63.235974
1870.000000	63.315030
1869.000000	63.470000
1868.000000	63.514781
1867.000000	63.626088
1866.000000	63.675228
1865.000000	63.697183
1864.000000	63.794764
1863.000000	63.904584
1862.000000	63.883872
1861.000000	63.924528
1860.000000	63.946110
1859.000000	63.958459
1858.000000	63.972214
1857.000000	63.979225
1856.000000	64.007917
1855.000000	64.103813
1854.000000	64.168077
1853.000000	64.172521
1852.000000	64.155660
1851.000000	64.132193
1850.000000	64.106661
1849.000000	64.126119
1848.000000	64.170174
1847.000000	64.162326
1846.000000	64.104462
1845.000000	64.105651
1844.000000	64.095587
1843.000000	64.046335
1842.000000	64.045378
1841.000000	64.031131
1840.000000	64.035001
1839.000000	64.023562
1838.000000	63.997144
1837.000000	63.913652
1836.000000	63.908095
1835.000000	63.877662
1834.000000	63.820254
1833.000000	63.823863
1832.000000	63.792158
1831.000000	63.735012
1830.000000	63.692924
1829.000000	63.691582
1828.000000	63.675498
1827.000000	63.604016
1826.000000	63.541745
1825.000000	63.566021
1824.000000	63.553195
1823.000000	63.488132
1822.000000	63.455191
1821.000000	63.444734
1820.000000	63.414411
1819.000000	63.380487
1818.000000	63.369146
1817.000000	63.318519
1816.000000	63.275655
1815.000000	63.263861
1814.000000	63.241724
1813.000000	63.235701
1812.000000	63.191742
1811.000000	63.170569
1810.000000	63.160336
1809.000000	63.136634
1808.000000	63.128751
1807.000000	63.084605
1806.000000	63.042218
1805.000000	63.015658
1804.000000	62.993764
1803.000000	62.981526
1802.000000	62.958278
1801.000000	62.935786
1800.000000	62.914867
1799.000000	62.876468
1798.000000	62.851965
1797.000000	62.832966
1796.000000	62.813577
1795.000000	62.809827
1794.000000	62.816976
1793.000000	62.796939
1792.000000	62.776166
1791.000000	62.744921
1790.000000	62.710649
1789.000000	62.707392
1788.000000	62.703276
1787.000000	62.670565
1786.000000	62.654560
1785.000000	62.618400
1784.000000	62.585403
1783.000000	62.582051
1782.000000	62.534539
1781.000000	62.511182
1780.000000	62.486392
1779.000000	62.474228
1778.000000	62.413682
1777.000000	62.358667
1776.000000	62.350785
1775.000000	62.278260
1774.000000	62.260550
1773.000000	62.239531
1772.000000	62.138254
1771.000000	62.055269
1770.000000	62.016891
1769.000000	61.983772
1768.000000	61.956278
1767.000000	61.927817
1766.000000	61.909879
1765.000000	61.853167
1764.000000	61.822630
1763.000000	61.783821
1762.000000	61.699442
1761.000000	61.663133
1760.000000	61.628953
1759.000000	61.585471
1758.000000	61.545726
1757.000000	61.457499
1756.000000	61.449134
1755.000000	61.436001
1754.000000	61.372024
1753.000000	61.300030
1752.000000	61.257082
1751.000000	61.226512
1750.000000	61.218997
1749.000000	61.155221
1748.000000	61.092017
1747.000000	61.041677
1746.000000	60.983720
1745.000000	60.959741
1744.000000	60.910305
1743.000000	60.889776
1742.000000	60.840104
1741.000000	60.783890
1740.000000	60.754584
1739.000000	60.711221
1738.000000	60.671809
1737.000000	60.645825
1736.000000	60.646192
1735.000000	60.636388
1734.000000	60.614622
1733.000000	60.581008
1732.000000	60.589286
1731.000000	60.628990
1730.000000	60.628619
1729.000000	60.651712
1728.000000	60.706284
1727.000000	60.762931
1726.000000	60.805707
1725.000000	60.833982
1724.000000	60.913899
1723.000000	60.991415
1722.000000	61.080729
1721.000000	61.137398
1720.000000	61.198174
1719.000000	61.312207
1718.000000	61.374385
1717.000000	61.454620
1716.000000	61.531994
1715.000000	61.571295
1714.000000	61.635848
1713.000000	61.711238
1712.000000	61.761588
1711.000000	61.813114
1710.000000	61.867925
1709.000000	61.906367
1708.000000	61.950762
1707.000000	61.979806
1706.000000	62.028922
1705.000000	62.046206
1704.000000	62.077223
1703.000000	62.084097
1702.000000	62.043918
1701.000000	62.094228
1700.000000	62.096915
1699.000000	62.084952
1698.000000	62.163896
1697.000000	62.171342
1696.000000	62.221706
1695.000000	62.195232
1694.000000	62.243114
1693.000000	62.285451
1692.000000	62.275399
1691.000000	62.340843
1690.000000	62.419952
1689.000000	62.469882
1688.000000	62.574033
1687.000000	62.643988
1686.000000	62.757586
1685.000000	62.824481
1684.000000	62.930270
1683.000000	63.065916
1682.000000	63.194578
1681.000000	63.317395
1680.000000	63.399009
1679.000000	63.541384
1678.000000	63.665098
1677.000000	63.745804
1676.000000	63.922937
1675.000000	64.074183
1674.000000	64.155046
1673.000000	64.299666
1672.000000	64.397224
1671.000000	64.538668
1670.000000	64.644226
1669.000000	64.755764
1668.000000	64.847150
1667.000000	64.971506
1666.000000	65.018613
1665.000000	65.080728
1664.000000	65.150067
1663.000000	65.217299
1662.000000	65.287057
1661.000000	65.342736
1660.000000	65.378168
1659.000000	65.397402
1658.000000	65.455601
1657.000000	65.465238
1656.000000	65.514166
1655.000000	65.536292
1654.000000	65.561643
1653.000000	65.565606
1652.000000	65.573915
1651.000000	65.568576
1650.000000	65.558235
1649.000000	65.565205
1648.000000	65.560910
1647.000000	65.583704
1646.000000	65.551369
1645.000000	65.539830
1644.000000	65.541061
1643.000000	65.518435
1642.000000	65.496593
1641.000000	65.498575
1640.000000	65.493268
1639.000000	65.460907
1638.000000	65.435996
1637.000000	65.444508
1636.000000	65.389509
1635.000000	65.364809
1634.000000	65.354131
1633.000000	65.336286
1632.000000	65.304665
1631.000000	65.258318
1630.000000	65.217638
1629.000000	65.200451
1628.000000	65.184270
1627.000000	65.144500
1626.000000	65.116812
1625.000000	65.085640
1624.000000	65.046133
1623.000000	65.019277
1622.000000	64.984645
1621.000000	64.942461
1620.000000	64.912840
1619.000000	64.874215
1618.000000	64.825389
1617.000000	64.806880
1616.000000	64.780983
1615.000000	64.739194
1614.000000	64.703024
1613.000000	64.667714
1612.000000	64.614267
1611.000000	64.561354
1610.000000	64.544428
1609.000000	64.516126
1608.000000	64.468491
1607.000000	64.419525
1606.000000	64.367659
1605.000000	64.319218
1604.000000	64.270961
1603.000000	64.228022
1602.000000	64.189189
1601.000000	64.136474
1600.000000	64.083983
1599.000000	64.049468
1598.000000	64.018198
1597.000000	63.979606
1596.000000	63.937005
1595.000000	63.897327
1594.000000	63.855441
1593.000000	63.821210
1592.000000	63.784204
1591.000000	63.723044
1590.000000	63.700754
1589.000000	63.676787
1588.000000	63.625371
1587.000000	63.606485
1586.000000	63.571801
1585.000000	63.537309
1584.000000	63.507165
1583.000000	63.467958
1582.000000	63.423213
1581.000000	63.396589
1580.000000	63.374075
1579.000000	63.339047
1578.000000	63.304170
1577.000000	63.278166
1576.000000	63.226874
1575.000000	63.189684
1574.000000	63.177141
1573.000000	63.147772
1572.000000	63.109957
1571.000000	63.074595
1570.000000	63.041968
1569.000000	63.028689
1568.000000	63.004719
1567.000000	62.964172
1566.000000	62.943164
1565.000000	62.939051
1564.000000	62.928093
1563.000000	62.919371
1562.000000	62.869512
1561.000000	62.839685
1560.000000	62.840920
1559.000000	62.817204
1558.000000	62.783297
1557.000000	62.778799
1556.000000	62.778642
1555.000000	62.775847
1554.000000	62.747767
1553.000000	62.727992
1552.000000	62.695056
1551.000000	62.668079
1550.000000	62.657779
1549.000000	62.626484
1548.000000	62.595208
1547.000000	62.556220
1546.000000	62.517570
1545.000000	62.467268
1544.000000	62.419050
1543.000000	62.361657
1542.000000	62.313409
1541.000000	62.244923
1540.000000	62.187152
1539.000000	62.112075
1538.000000	62.052413
1537.000000	61.981613
1536.000000	61.901025
1535.000000	61.845490
1534.000000	61.805624
1533.000000	61.752425
1532.000000	61.657047
1531.000000	61.598250
1530.000000	61.544516
1529.000000	61.479609
1528.000000	61.422279
1527.000000	61.358780
1526.000000	61.294847
1525.000000	61.285165
1524.000000	61.220017
1523.000000	61.175726
1522.000000	61.124808
1521.000000	61.095215
1520.000000	61.064560
1519.000000	61.038595
1518.000000	61.005227
1517.000000	60.964507
1516.000000	60.934799
1515.000000	60.900001
1514.000000	60.871122
1513.000000	60.837506
1512.000000	60.813101
1511.000000	60.791021
1510.000000	60.780636
1509.000000	60.794100
1508.000000	60.754731
1507.000000	60.738252
1506.000000	60.724315
1505.000000	60.716941
1504.000000	60.703457
1503.000000	60.731292
1502.000000	60.702297
1501.000000	60.721427
1500.000000	60.723593
1499.000000	60.707272
1498.000000	60.733311
1497.000000	60.741072
1496.000000	60.761774
1495.000000	60.778631
1494.000000	60.811517
1493.000000	60.825681
1492.000000	60.849571
1491.000000	60.889679
1490.000000	60.921489
1489.000000	60.984397
1488.000000	61.036694
1487.000000	61.042200
1486.000000	61.087142
1485.000000	61.129973
1484.000000	61.177719
1483.000000	61.276984
1482.000000	61.299391
1481.000000	61.380266
1480.000000	61.425578
1479.000000	61.469246
1478.000000	61.539234
1477.000000	61.600362
1476.000000	61.637471
1475.000000	61.694382
1474.000000	61.719912
1473.000000	61.779424
1472.000000	61.848127
1471.000000	61.891263
1470.000000	61.908184
1469.000000	61.976936
1468.000000	62.050127
1467.000000	62.057122
1466.000000	62.114746
1465.000000	62.157112
1464.000000	62.192064
1463.000000	62.234955
1462.000000	62.289412
1461.000000	62.291774
1460.000000	62.346003
1459.000000	62.403548
1458.000000	62.458504
1457.000000	62.488886
1456.000000	62.528279
1455.000000	62.570861
1454.000000	62.638090
1453.000000	62.676425
1452.000000	62.738951
1451.000000	62.778355
1450.000000	62.840397
1449.000000	62.875300
1448.000000	62.945718
1447.000000	62.991893
1446.000000	63.038037
1445.000000	63.104577
1444.000000	63.173917
1443.000000	63.251384
1442.000000	63.301828
1441.000000	63.353922
1440.000000	63.439403
1439.000000	63.497057
1438.000000	63.577816
1437.000000	63.661496
1436.000000	63.737286
1435.000000	63.814155
1434.000000	63.870901
1433.000000	63.962754
1432.000000	64.048253
1431.000000	64.141807
1430.000000	64.211220
1429.000000	64.303875
1428.000000	64.395981
1427.000000	64.480931
1426.000000	64.568307
1425.000000	64.672502
1424.000000	64.787788
1423.000000	64.910571
1422.000000	65.007906
1421.000000	65.122201
1420.000000	65.221733
1419.000000	65.328531
1418.000000	65.440109
1417.000000	65.581959
1416.000000	65.701179
1415.000000	65.803123
1414.000000	65.917585
1413.000000	66.029880
1412.000000	66.138786
1411.000000	66.254649
1410.000000	66.367015
1409.000000	66.502373
1408.000000	66.623345
1407.000000	66.732016
1406.000000	66.841785
1405.000000	66.942186
1404.000000	67.040265
1403.000000	67.154262
1402.000000	67.265546
1401.000000	67.366965
1400.000000	67.453099
1399.000000	67.545467
1398.000000	67.639559
1397.000000	67.739410
1396.000000	67.830703
1395.000000	67.911465
1394.000000	67.995859
1393.000000	68.077256
1392.000000	68.150257
1391.000000	68.240216
1390.000000	68.331023
1389.000000	68.394058
1388.000000	68.465560
1387.000000	68.523742
1386.000000	68.582458
1385.000000	68.643559
1384.000000	68.715906
1383.000000	68.779311
1382.000000	68.811960
1381.000000	68.865175
1380.000000	68.934878
1379.000000	68.975858
1378.000000	69.015676
1377.000000	69.073268
1376.000000	69.107310
1375.000000	69.130562
1374.000000	69.158759
1373.000000	69.203877
1372.000000	69.251481
1371.000000	69.294927
1370.000000	69.315104
1369.000000	69.328395
1368.000000	69.367860
1367.000000	69.399929
1366.000000	69.419615
1365.000000	69.450235
1364.000000	69.480915
1363.000000	69.513435
1362.000000	69.542966
1361.000000	69.579250
1360.000000	69.617689
1359.000000	69.654509
1358.000000	69.683603
1357.000000	69.698862
1356.000000	69.740322
1355.000000	69.763399
1354.000000	69.815710
1353.000000	69.854685
1352.000000	69.877403
1351.000000	69.914798
1350.000000	69.933024
1349.000000	69.957533
1348.000000	70.024251
1347.000000	70.063833
1346.000000	70.091330
1345.000000	70.120756
1344.000000	70.142286
1343.000000	70.178956
1342.000000	70.206559
1341.000000	70.250250
1340.000000	70.268955
1339.000000	70.313547
1338.000000	70.337642
1337.000000	70.345338
1336.000000	70.359326
1335.000000	70.388939
1334.000000	70.416092
1333.000000	70.461779
1332.000000	70.507565
1331.000000	70.530749
1330.000000	70.543438
1329.000000	70.552694
1328.000000	70.547305
1327.000000	70.574753
1326.000000	70.593211
1325.000000	70.611108
1324.000000	70.661492
1323.000000	70.668724
1322.000000	70.650983
1321.000000	70.663442
1320.000000	70.663877
1319.000000	70.689038
1318.000000	70.724528
1317.000000	70.710040
1316.000000	70.702310
1315.000000	70.737170
1314.000000	70.737640
1313.000000	70.742951
1312.000000	70.769500
1311.000000	70.779133
1310.000000	70.788345
1309.000000	70.809223
1308.000000	70.808737
1307.000000	70.830187
1306.000000	70.810257
1305.000000	70.834733
1304.000000	70.836745
1303.000000	70.867729
1302.000000	70.868736
1301.000000	70.855887
1300.000000	70.872379
1299.000000	70.855237
1298.000000	70.872432
1297.000000	70.887455
1296.000000	70.870437
1295.000000	70.857870
1294.000000	70.870526
1293.000000	70.878444
1292.000000	70.873533
1291.000000	70.882405
1290.000000	70.891510
1289.000000	70.878868
1288.000000	70.882368
1287.000000	70.847172
1286.000000	70.874008
1285.000000	70.872328
1284.000000	70.830189
1283.000000	70.857582
1282.000000	70.835832
1281.000000	70.858436
1280.000000	70.840813
1279.000000	70.840521
1278.000000	70.839346
1277.000000	70.850550
1276.000000	70.845821
1275.000000	70.860458
1274.000000	70.838275
1273.000000	70.838115
1272.000000	70.844570
1271.000000	70.829358
1270.000000	70.845121
1269.000000	70.853153
1268.000000	70.850482
1267.000000	70.857629
1266.000000	70.855117
1265.000000	70.860664
1264.000000	70.922094
1263.000000	70.891068
1262.000000	70.904224
1261.000000	70.908446
1260.000000	70.917580
1259.000000	70.901613
1258.000000	70.953215
1257.000000	70.941466
1256.000000	70.941985
1255.000000	70.936395
1254.000000	70.949928
1253.000000	70.961362
1252.000000	70.951331
1251.000000	70.944888
1250.000000	70.944198
1249.000000	70.950604
1248.000000	70.943214
1247.000000	70.957787
1246.000000	70.927218
1245.000000	70.939278
1244.000000	70.957343
1243.000000	70.933792
1242.000000	70.929268
1241.000000	70.909390
1240.000000	70.893488
1239.000000	70.897027
1238.000000	70.889460
1237.000000	70.841177
1236.000000	70.835395
1235.000000	70.821953
1234.000000	70.806784
1233.000000	70.774492
1232.000000	70.791460
1231.000000	70.783727
1230.000000	70.786969
1229.000000	70.771558
1228.000000	70.743895
1227.000000	70.724358
1226.000000	70.718405
1225.000000	70.695521
1224.000000	70.695860
1223.000000	70.672137
1222.000000	70.659291
1221.000000	70.641913
1220.000000	70.636602
1219.000000	70.615190
1218.000000	70.602392
1217.000000	70.570191
1216.000000	70.575107
1215.000000	70.548516
1214.000000	70.547987
1213.000000	70.561470
1212.000000	70.542772
1211.000000	70.530733
1210.000000	70.506070
1209.000000	70.489327
1208.000000	70.449610
1207.000000	70.444261
1206.000000	70.455022
1205.000000	70.427557
1204.000000	70.413919
1203.000000	70.384208
1202.000000	70.392467
1201.000000	70.374316
1200.000000	70.351989
1199.000000	70.356004
1198.000000	70.333089
1197.000000	70.303950
1196.000000	70.307948
1195.000000	70.289226
1194.000000	70.267169
1193.000000	70.261047
1192.000000	70.242966
1191.000000	70.236225
1190.000000	70.223444
1189.000000	70.201330
1188.000000	70.203905
1187.000000	70.216868
1186.000000	70.212228
1185.000000	70.207912
1184.000000	70.213441
1183.000000	70.226613
1182.000000	70.237001
1181.000000	70.233192
1180.000000	70.255108
1179.000000	70.277516
1178.000000	70.307856
1177.000000	70.326274
1176.000000	70.351650
1175.000000	70.385541
1174.000000	70.417995
1173.000000	70.433626
1172.000000	70.463647
1171.000000	70.501054
1170.000000	70.534868
1169.000000	70.565384
1168.000000	70.599100
1167.000000	70.644589
1166.000000	70.684064
1165.000000	70.725162
1164.000000	70.776008
1163.000000	70.800174
1162.000000	70.832236
1161.000000	70.881273
1160.000000	70.916183
1159.000000	70.944910
1158.000000	70.974941
1157.000000	71.023222
1156.000000	71.070422
1155.000000	71.093020
1154.000000	71.104476
1153.000000	71.126391
1152.000000	71.161426
1151.000000	71.204741
1150.000000	71.231629
1149.000000	71.258106
1148.000000	71.283571
1147.000000	71.306884
1146.000000	71.333846
1145.000000	71.349572
1144.000000	71.362886
1143.000000	71.390016
1142.000000	71.424573
1141.000000	71.455484
1140.000000	71.477564
1139.000000	71.469361
1138.000000	71.492167
1137.000000	71.523005
1136.000000	71.533555
1135.000000	71.549731
1134.000000	71.582887
1133.000000	71.599726
1132.000000	71.603883
1131.000000	71.609293
1130.000000	71.630703
1129.000000	71.649512
1128.000000	71.656929
1127.000000	71.672883
1126.000000	71.672689
1125.000000	71.679160
1124.000000	71.692513
1123.000000	71.699605
1122.000000	71.713015
1121.000000	71.730689
1120.000000	71.745190
1119.000000	71.751092
1118.000000	71.740812
1117.000000	71.735886
1116.000000	71.758277
1115.000000	71.755589
1114.000000	71.764394
1113.000000	71.764012
1112.000000	71.778507
1111.000000	71.771169
1110.000000	71.762524
1109.000000	71.774862
1108.000000	71.787117
1107.000000	71.783889
1106.000000	71.756580
1105.000000	71.763626
1104.000000	71.759777
1103.000000	71.773378
1102.000000	71.775245
1101.000000	71.773512
1100.000000	71.780315
1099.000000	71.775287
1098.000000	71.771733
1097.000000	71.760280
1096.000000	71.769376
1095.000000	71.773836
1094.000000	71.773568
1093.000000	71.782722
1092.000000	71.792297
1091.000000	71.763090
1090.000000	71.760780
1089.000000	71.769569
1088.000000	71.774648
1087.000000	71.777240
1086.000000	71.775035
1085.000000	71.765372
1084.000000	71.765555
1083.000000	71.742076
1082.000000	71.757522
1081.000000	71.775373
1080.000000	71.761982
1079.000000	71.777817
1078.000000	71.756857
1077.000000	71.724968
1076.000000	71.738983
1075.000000	71.736416
1074.000000	71.737197
1073.000000	71.743481
1072.000000	71.723894
1071.000000	71.722939
1070.000000	71.711028
1069.000000	71.720719
1068.000000	71.724940
1067.000000	71.717665
1066.000000	71.695940
1065.000000	71.703689
1064.000000	71.714557
1063.000000	71.716687
1062.000000	71.695184
1061.000000	71.679666
1060.000000	71.683288
1059.000000	71.683825
1058.000000	71.671432
1057.000000	71.669042
1056.000000	71.653789
1055.000000	71.650991
1054.000000	71.670380
1053.000000	71.663848
1052.000000	71.676525
1051.000000	71.667886
1050.000000	71.679800
1049.000000	71.662917
1048.000000	71.659635
1047.000000	71.655227
1046.000000	71.645626
1045.000000	71.626612
1044.000000	71.615902
1043.000000	71.618575
1042.000000	71.632293
1041.000000	71.610499
1040.000000	71.631704
1039.000000	71.615263
1038.000000	71.613412
1037.000000	71.618753
1036.000000	71.603195
1035.000000	71.591384
1034.000000	71.616129
1033.000000	71.606354
1032.000000	71.607266
1031.000000	71.601347
1030.000000	71.597869
1029.000000	71.583027
1028.000000	71.586586
1027.000000	71.586734
1026.000000	71.592686
1025.000000	71.589661
1024.000000	71.588950
1023.000000	71.587608
1022.000000	71.581941
1021.000000	71.553339
1020.000000	71.563772
1019.000000	71.573357
1018.000000	71.582138
1017.000000	71.586460
1016.000000	71.576068
1015.000000	71.581763
1014.000000	71.573642
1013.000000	71.571075
1012.000000	71.577869
1011.000000	71.557943
1010.000000	71.571230
1009.000000	71.567557
1008.000000	71.576629
1007.000000	71.578006
1006.000000	71.584757
1005.000000	71.574859
1004.000000	71.570313
1003.000000	71.574841
1002.000000	71.575349
1001.000000	71.588489
1000.000000	71.574133
999.000000	71.578391
998.000000	71.569377
997.000000	71.569273
996.000000	71.573892
995.000000	71.573040
994.000000	71.584409
993.000000	71.599813
992.000000	71.597936
991.000000	71.588371
990.000000	71.583743
989.000000	71.596726
988.000000	71.589146
987.000000	71.599986
986.000000	71.600379
985.000000	71.608004
984.000000	71.596189
983.000000	71.602119
982.000000	71.610997
981.000000	71.611452
980.000000	71.616148
979.000000	71.609810
978.000000	71.612960
977.000000	71.638127
976.000000	71.644134
975.000000	71.628496
974.000000	71.650755
973.000000	71.676288
972.000000	71.685021
971.000000	71.670310
970.000000	71.659037
969.000000	71.653371
968.000000	71.654854
967.000000	71.667888
966.000000	71.672651
965.000000	71.679510
964.000000	71.688596
963.000000	71.689275
962.000000	71.695697
961.000000	71.696343
960.000000	71.701904
959.000000	71.701419
958.000000	71.705956
957.000000	71.734514
956.000000	71.736611
955.000000	71.746178
954.000000	71.741674
953.000000	71.731760
952.000000	71.740998
951.000000	71.749781
950.000000	71.764417
949.000000	71.781093
948.000000	71.792371
947.000000	71.798644
946.000000	71.774311
945.000000	71.781985
944.000000	71.796116
943.000000	71.812917
942.000000	71.818180
941.000000	71.784624
940.000000	71.792181
939.000000	71.798727
938.000000	71.785204
937.000000	71.786244
936.000000	71.795317
935.000000	71.774459
934.000000	71.770618
933.000000	71.810306
932.000000	71.803195
931.000000	71.791424
930.000000	71.800375
929.000000	71.820730
928.000000	71.811568
927.000000	71.784144
926.000000	71.768590
925.000000	71.765230
924.000000	71.778757
923.000000	71.803462
922.000000	71.773739
921.000000	71.816974
920.000000	71.854371
919.000000	71.846910
918.000000	71.842240
917.000000	71.815487
916.000000	71.829316
915.000000	71.855115
914.000000	71.838354
913.000000	71.844574
912.000000	71.835817
911.000000	71.806901
910.000000	71.860981
909.000000	71.851633
908.000000	71.809996
907.000000	71.786526
906.000000	71.802127
905.000000	71.869934
904.000000	71.850198
903.000000	71.892338
902.000000	71.874664
901.000000	71.859064
900.000000	71.885257
899.000000	71.908907
898.000000	71.862661
897.000000	71.853534
896.000000	71.860532
895.000000	71.886585
894.000000	71.886781
893.000000	71.883633
892.000000	71.859214
891.000000	71.880457
890.000000	71.921657
889.000000	71.890642
888.000000	71.947816
887.000000	71.946687
886.000000	71.968103
885.000000	71.908915
884.000000	71.979134
883.000000	72.035025
882.000000	71.946165
881.000000	71.978610
880.000000	71.957559
879.000000	71.888655
878.000000	71.996247
877.000000	71.928112
876.000000	71.833609
875.000000	71.821064
874.000000	72.031011
873.000000	71.871077
872.000000	71.918320
871.000000	71.937849
870.000000	71.999290
869.000000	72.078011
868.000000	72.018314
867.000000	71.962873
866.000000	71.821414
865.000000	71.892487
864.000000	72.091384
863.000000	72.041996
862.000000	71.902500
861.000000	72.044114
860.000000	71.840270
859.000000	71.678334
858.000000	71.825722
857.000000	71.821297
856.000000	72.055297
855.000000	71.502014
854.000000	71.620408
853.000000	71.806648
852.000000	71.720646
851.000000	71.584346
850.000000	71.458033
849.000000	71.810776
848.000000	71.534125
847.000000	71.885924
846.000000	71.908285
845.000000	71.567435
844.000000	71.608685
843.000000	71.967610
842.000000	71.538021
841.000000	71.980750
840.000000	71.819829
839.000000	72.004527
838.000000	72.007543
837.000000	71.970297
836.000000	71.671653
835.000000	71.915111
834.000000	71.935006
833.000000	71.818533
832.000000	71.875159
831.000000	71.688698
830.000000	71.778624
829.000000	71.901150
828.000000	71.835336
827.000000	71.841882
826.000000	71.911417
825.000000	71.753620
824.000000	72.007186
823.000000	71.828007
822.000000	71.757588
821.000000	71.860914
820.000000	71.877164
819.000000	71.961254
818.000000	71.674048
817.000000	71.783184
816.000000	71.824577
815.000000	71.787853
814.000000	71.901453
813.000000	71.983514
812.000000	71.865279
811.000000	71.809627
810.000000	71.906887
809.000000	72.014543
808.000000	71.820995
807.000000	71.993679
806.000000	71.825095
805.000000	71.769637
804.000000	71.928081
803.000000	71.927299
802.000000	71.848511
801.000000	71.865388
800.000000	71.883433
799.000000	71.839417
798.000000	71.833157
797.000000	71.938789
796.000000	71.937514
795.000000	71.848194
794.000000	71.810430
793.000000	71.875438
792.000000	71.759344
791.000000	71.876855
790.000000	71.853919
789.000000	71.915175
788.000000	71.889370
787.000000	71.879906
786.000000	71.887085
785.000000	71.751342
784.000000	71.780182
783.000000	71.793461
782.000000	71.790404
781.000000	71.830796
780.000000	71.926551
779.000000	71.975334
778.000000	71.972740
777.000000	72.100052
776.000000	71.907459
775.000000	71.967372
774.000000	71.897584
773.000000	71.858424
772.000000	71.864170
771.000000	71.935239
770.000000	71.892685
769.000000	71.879156
768.000000	71.896383
767.000000	71.924535
766.000000	71.792745
765.000000	71.870844
764.000000	71.947987
763.000000	71.905457
762.000000	71.924854
761.000000	71.929712
760.000000	71.860010
759.000000	71.966453
758.000000	71.881084
757.000000	71.835414
756.000000	71.910884
755.000000	71.828020
754.000000	71.861754
753.000000	72.035250
752.000000	71.912105
751.000000	72.005623
750.000000	72.067626
749.000000	71.964590
748.000000	71.890164
747.000000	71.959276
746.000000	71.980867
745.000000	71.988166
744.000000	71.949499
743.000000	71.950132
742.000000	71.854738
741.000000	71.870781
740.000000	71.926196
739.000000	71.924705
738.000000	71.923183
737.000000	71.910639
736.000000	71.842656
735.000000	71.888362
734.000000	71.939081
733.000000	71.918846
732.000000	71.891629
731.000000	71.918174
730.000000	71.966653
729.000000	71.946501
728.000000	71.879854
727.000000	71.985635
726.000000	71.988999
725.000000	71.838597
724.000000	71.830824
723.000000	71.892995
722.000000	71.964768
721.000000	71.970504
720.000000	71.931121
719.000000	71.945958
718.000000	71.918980
717.000000	71.932549
716.000000	71.945682
715.000000	71.998977
714.000000	71.967200
713.000000	71.908951
712.000000	71.964946
711.000000	71.941273
710.000000	71.915851
709.000000	71.894578
708.000000	71.876028
707.000000	71.905819
706.000000	71.957060
705.000000	71.966601
704.000000	71.955174
703.000000	71.894791
702.000000	71.917320
701.000000	71.962783
700.000000	71.927349
699.000000	71.972480
698.000000	71.944303
697.000000	71.897587
696.000000	71.976905
695.000000	71.982845
694.000000	72.008573
693.000000	71.973396
692.000000	71.937447
691.000000	71.884143
690.000000	71.994092
689.000000	71.991727
688.000000	71.852460
687.000000	71.884091
686.000000	71.902156
685.000000	71.861389
684.000000	71.860453
683.000000	71.895373
682.000000	71.897749
681.000000	71.836572
680.000000	71.850521
679.000000	71.961303
678.000000	71.943023
677.000000	71.916334
676.000000	71.881317
675.000000	71.885182
674.000000	71.909228
673.000000	71.888096
672.000000	71.851925
671.000000	71.921578
670.000000	71.888876
669.000000	71.863402
668.000000	71.863320
667.000000	71.967554
666.000000	71.970344
665.000000	71.898528
664.000000	71.909665
663.000000	71.923502
662.000000	71.904339
661.000000	71.914905
660.000000	71.902175
659.000000	71.906062
658.000000	71.916187
657.000000	71.926802
656.000000	71.889121
655.000000	71.881113
654.000000	71.936006
653.000000	71.933947
652.000000	71.988519
651.000000	71.920974
650.000000	71.934820
649.000000	71.924118
648.000000	71.930756
647.000000	71.931063
646.000000	71.900424
645.000000	71.927785
644.000000	71.927328
643.000000	71.982170
642.000000	71.913231
641.000000	71.921621
640.000000	71.945412
639.000000	71.887678
638.000000	71.914497
637.000000	71.927741
636.000000	71.943054
635.000000	71.966281
634.000000	71.951896
633.000000	72.011738
632.000000	71.966262
631.000000	71.948906
630.000000	71.978136
629.000000	71.939312
628.000000	71.938234
627.000000	71.942455
626.000000	71.937937
625.000000	71.955418
624.000000	71.932115
623.000000	71.955707
622.000000	71.978539
621.000000	71.893192
620.000000	71.912518
619.000000	71.896069
618.000000	71.840639
617.000000	71.900032
616.000000	71.892857
615.000000	71.889943
614.000000	71.845540
613.000000	71.840154
612.000000	71.919936
611.000000	71.931741
610.000000	71.891724
609.000000	71.902651
608.000000	71.933002
607.000000	71.833064
606.000000	71.860847
605.000000	71.876684
604.000000	71.893627
603.000000	71.929800
602.000000	71.854914
601.000000	71.850925
600.000000	71.911222
599.000000	71.921848
598.000000	71.830738
597.000000	71.890066
596.000000	71.865128
595.000000	71.853633
594.000000	71.868825
593.000000	71.863636
592.000000	71.787034
591.000000	71.845524
590.000000	71.762329
589.000000	71.837376
588.000000	71.811435
587.000000	71.749748
586.000000	71.814926
585.000000	71.828693
584.000000	71.695693
583.000000	71.741669
582.000000	71.703630
581.000000	71.751332
580.000000	71.776295
579.000000	71.774863
578.000000	71.724612
577.000000	71.710063
576.000000	71.714996
575.000000	71.762395
574.000000	71.691646
573.000000	71.774176
572.000000	71.595899
571.000000	71.732952
570.000000	71.687742
569.000000	71.670479
568.000000	71.656104
567.000000	71.716400
566.000000	71.573483
565.000000	71.707221
564.000000	71.639189
563.000000	71.627544
562.000000	71.633957
561.000000	71.570819
560.000000	71.551098
559.000000	71.563160
558.000000	71.576105
557.000000	71.571203
556.000000	71.543337
555.000000	71.549313
554.000000	71.482035
553.000000	71.510638
552.000000	71.467854
551.000000	71.482080
550.000000	71.501260
549.000000	71.450671
548.000000	71.510836
547.000000	71.483502
546.000000	71.431577
545.000000	71.436247
544.000000	71.437380
543.000000	71.431246
542.000000	71.400067
541.000000	71.401881
540.000000	71.295628
539.000000	71.326302
538.000000	71.340633
537.000000	71.317894
536.000000	71.292903
535.000000	71.304756
534.000000	71.292532
533.000000	71.214243
532.000000	71.213266
531.000000	71.224088
530.000000	71.229517
529.000000	71.219441
528.000000	71.173852
527.000000	71.130287
526.000000	71.114618
525.000000	71.139139
524.000000	71.068762
523.000000	71.129684
522.000000	71.082317
521.000000	71.041331
520.000000	71.055975
519.000000	71.022444
518.000000	70.982580
517.000000	70.999121
516.000000	70.964062
515.000000	70.940200
514.000000	70.907673
513.000000	70.931621
512.000000	70.861690
511.000000	70.852105
510.000000	70.826310
509.000000	70.808680
508.000000	70.793356
507.000000	70.775880
506.000000	70.759833
505.000000	70.735631
504.000000	70.719177
503.000000	70.631157
502.000000	70.649929
501.000000	70.665130
500.000000	70.622089
499.000000	70.572148
498.000000	70.560232
497.000000	70.503754
496.000000	70.461694
495.000000	70.415649
494.000000	70.410488
493.000000	70.477548
492.000000	70.417763
491.000000	70.365486
490.000000	70.297198
489.000000	70.289752
488.000000	70.291581
487.000000	70.195451
486.000000	70.194610
485.000000	70.165154
484.000000	70.175784
483.000000	70.136889
482.000000	70.093133
481.000000	70.050135
480.000000	69.982429
479.000000	69.985548
478.000000	69.953049
477.000000	69.927092
476.000000	69.927354
475.000000	69.888261
474.000000	69.830220
473.000000	69.796128
472.000000	69.763101
471.000000	69.740727
470.000000	69.742610
469.000000	69.683411
468.000000	69.626699
467.000000	69.567462
466.000000	69.530035
465.000000	69.492364
464.000000	69.448845
463.000000	69.471485
462.000000	69.395895
461.000000	69.299621
460.000000	69.283637
459.000000	69.252196
458.000000	69.216739
457.000000	69.146402
456.000000	69.049872
455.000000	69.023709
454.000000	69.018963
453.000000	68.957563
452.000000	68.907937
451.000000	68.798841
450.000000	68.701112
449.000000	68.687542
448.000000	68.577751
447.000000	68.479931
446.000000	68.465484
445.000000	68.425471
444.000000	68.328433
443.000000	68.249885
442.000000	68.123042
441.000000	68.051141
440.000000	68.046319
439.000000	67.991845
438.000000	67.907829
437.000000	67.762626
436.000000	67.685139
435.000000	67.638204
434.000000	67.531362
433.000000	67.438479
432.000000	67.368398
431.000000	67.193626
430.000000	67.101270
429.000000	67.018810
428.000000	66.935435
427.000000	66.827816
426.000000	66.703357
425.000000	66.661332
424.000000	66.532169
423.000000	66.351021
422.000000	66.262524
421.000000	66.077937
420.000000	65.990504
419.000000	65.932646
418.000000	65.781338
417.000000	65.649581
416.000000	65.510843
415.000000	65.347925
414.000000	65.253712
413.000000	65.086098
412.000000	64.920368
411.000000	64.763915
410.000000	64.597486
409.000000	64.508434
408.000000	64.318153
407.000000	64.227160
406.000000	64.016145
405.000000	63.847826
404.000000	63.796222
403.000000	63.621733
402.000000	63.395124
401.000000	63.276744
400.000000	63.065514
399.000000	62.855334
398.000000	62.768679
397.000000	62.545813
396.000000	62.415906
395.000000	62.201106
394.000000	62.050817
393.000000	61.806543
392.000000	61.670342
391.000000	61.528961
390.000000	61.371339
389.000000	61.170459
388.000000	60.944796
387.000000	60.728081
386.000000	60.515686
385.000000	60.301450
384.000000	60.160452
383.000000	59.984739
382.000000	59.761572
381.000000	59.544012
380.000000	59.268381
379.000000	58.974272
378.000000	58.890583
377.000000	58.482705
376.000000	58.380007
375.000000	58.240870
374.000000	57.749374
373.000000	57.450821
372.000000	57.305887
371.000000	56.964230
370.000000	56.814416
369.000000	56.551997
368.000000	56.377267
367.000000	55.992078
366.000000	55.800884
365.000000	55.569595
364.000000	55.213965
363.000000	55.105137
362.000000	54.759181
361.000000	54.583977
360.000000	54.284372
359.000000	53.868407
358.000000	53.771075
357.000000	53.282265
356.000000	53.055155
355.000000	52.826680
354.000000	52.529413
353.000000	52.403705
352.000000	52.189972
351.000000	51.852134
350.000000	51.604517
349.000000	51.296046
348.000000	50.929237
347.000000	50.853477
346.000000	50.428825
345.000000	50.264322
344.000000	49.888029
343.000000	49.698080
342.000000	49.283725
341.000000	48.925009
340.000000	48.592757
339.000000	48.186558
338.000000	47.907616
337.000000	47.352761
336.000000	46.873819
335.000000	46.615150
334.000000	46.106244
333.000000	45.686079
332.000000	44.960258
331.000000	44.692933
330.000000	44.079298
329.000000	43.680775
328.000000	43.060797
327.000000	42.906026
326.000000	42.489785
325.000000	42.174699
324.000000	41.678106
323.000000	41.259490
322.000000	41.169576
321.000000	40.624830
320.000000	40.303878
319.000000	40.207356
318.000000	39.945558
317.000000	39.678040
316.000000	39.565125
315.000000	39.306456
314.000000	39.187684
313.000000	38.948240
312.000000	38.787566
311.000000	38.468370
310.000000	38.424361
309.000000	38.226629
308.000000	38.036589
307.000000	37.847708
306.000000	37.704721
305.000000	37.389800
304.000000	37.345917
303.000000	37.056478
302.000000	36.994531
301.000000	36.722300
300.000000	36.596607
299.000000	36.259074
298.000000	36.040930
297.000000	35.722102
296.000000	35.357256
295.000000	34.766305
294.000000	34.127093
293.000000	33.360502
292.000000	32.504468
291.000000	31.730205
290.000000	30.767773
289.000000	29.888458
288.000000	29.011617
287.000000	28.419049
286.000000	27.983095
285.000000	27.662110
284.000000	27.488895
283.000000	27.319338
282.000000	27.302197
281.000000	27.146652
280.000000	27.203907
279.000000	27.223973
278.000000	27.384562
277.000000	27.559350
276.000000	27.780475
275.000000	27.960881
274.000000	28.208999
273.000000	28.535089
272.000000	28.730322
271.000000	28.890544
270.000000	28.837919
269.000000	29.047680
268.000000	29.218621
267.000000	29.592606
266.000000	29.826240
265.000000	30.104915
264.000000	30.312800
263.000000	30.689333
262.000000	30.992828
261.000000	31.223091
260.000000	31.418692
259.000000	31.733427
258.000000	32.070911
257.000000	32.465507
256.000000	32.799884
255.000000	32.963113
254.000000	33.058939
253.000000	33.005855
252.000000	32.990293
251.000000	32.901444
250.000000	32.508103
249.000000	31.968529
248.000000	31.324704
247.000000	30.363454
246.000000	29.209902
245.000000	28.009876
244.000000	26.785802
243.000000	25.389316
242.000000	24.096467
241.000000	22.868402
240.000000	21.759543
239.000000	20.799532
238.000000	20.029584
237.000000	19.393674
236.000000	18.875701
235.000000	18.529228
234.000000	18.246502
233.000000	17.974321
232.000000	17.812026
231.000000	17.668690
230.000000	17.611982
229.000000	17.584688
228.000000	17.539579
227.000000	17.565629
226.000000	17.647571
225.000000	17.686999
224.000000	17.744697
223.000000	17.890967
222.000000	18.055694
221.000000	18.198219
220.000000	18.425588
219.000000	18.709301
218.000000	18.967699
217.000000	19.221090
216.000000	19.420143
215.000000	19.710818
214.000000	20.118215
213.000000	20.533195
212.000000	20.849723
211.000000	21.050900
210.000000	21.357584
209.000000	21.801890
208.000000	22.052362
207.000000	22.512084
206.000000	23.219389
205.000000	23.775389
204.000000	24.260057
203.000000	24.630893
202.000000	25.490975
201.000000	26.038923
200.000000	26.350183
