PE UV       SUBTECH     SPECTRUM    ASCII       PEDS        4.00        
   -1
RDChevreUK 52.Sample.asc
18/03/05
14:15:46.00
18/03/05
14:15:46.00
Administrator

200.000000
1
Lambda 750
750N8071901
PerkinElmer UV WinLab 6.0.4.0738 / 1.61.00 Lambda 900

0
0
3350/servo 860.8/2
0
0
UV/VIS
1
1
1
CommonBeamDepol,150mm sphere / downward view
0
0
0
0
Program
Program
3350/servo 860.8/2
3350/0.2 860.8/0.2
3350/0.2 860.8/0.2
0
1
 
 
 
0
 
860.8
319.2
860.8
Front
100
on
 
 
0
0
0
 
0
 
 
 
0
 
 
0
0
0
0
0
 
 
 
 
0
0


0
0
#HDR
-1
-1
#GR
nm
%R
1.0
0.0
2350.000000
-1.000000
2151
8
57.341788
9.731262
#DATA
2350.000000	11.448788
2349.000000	11.111963
2348.000000	11.134105
2347.000000	11.861924
2346.000000	11.637636
2345.000000	11.339213
2344.000000	10.982785
2343.000000	10.804338
2342.000000	10.857094
2341.000000	11.086677
2340.000000	11.333731
2339.000000	11.834801
2338.000000	11.515240
2337.000000	11.808771
2336.000000	12.142418
2335.000000	12.520634
2334.000000	12.534916
2333.000000	12.580085
2332.000000	12.155773
2331.000000	12.000481
2330.000000	12.326182
2329.000000	11.900808
2328.000000	11.972865
2327.000000	12.181081
2326.000000	12.028039
2325.000000	12.078612
2324.000000	12.117034
2323.000000	11.782551
2322.000000	11.956257
2321.000000	11.835136
2320.000000	11.931006
2319.000000	11.951909
2318.000000	11.991488
2317.000000	11.631414
2316.000000	11.522684
2315.000000	11.304293
2314.000000	11.255654
2313.000000	11.035898
2312.000000	11.312505
2311.000000	11.346541
2310.000000	11.007986
2309.000000	11.390788
2308.000000	11.236196
2307.000000	11.152233
2306.000000	10.961471
2305.000000	11.121965
2304.000000	11.200859
2303.000000	11.057289
2302.000000	11.171145
2301.000000	11.043227
2300.000000	10.799007
2299.000000	10.817802
2298.000000	10.867940
2297.000000	10.749438
2296.000000	10.561511
2295.000000	10.676819
2294.000000	10.834706
2293.000000	10.583704
2292.000000	10.552728
2291.000000	10.504427
2290.000000	10.418091
2289.000000	10.397260
2288.000000	10.586295
2287.000000	10.711183
2286.000000	10.675638
2285.000000	10.575579
2284.000000	10.542388
2283.000000	10.555234
2282.000000	10.565345
2281.000000	10.589294
2280.000000	10.424840
2279.000000	10.494898
2278.000000	10.451945
2277.000000	10.461405
2276.000000	10.591052
2275.000000	10.659206
2274.000000	10.835829
2273.000000	11.042882
2272.000000	10.886855
2271.000000	10.824645
2270.000000	10.854053
2269.000000	10.883197
2268.000000	10.911115
2267.000000	10.945392
2266.000000	11.060964
2265.000000	11.125976
2264.000000	11.116630
2263.000000	11.268876
2262.000000	11.411081
2261.000000	11.555268
2260.000000	11.676709
2259.000000	11.666500
2258.000000	11.699623
2257.000000	11.831408
2256.000000	12.026317
2255.000000	12.239498
2254.000000	12.471169
2253.000000	12.480793
2252.000000	12.555475
2251.000000	12.720619
2250.000000	12.950451
2249.000000	13.224164
2248.000000	13.303021
2247.000000	13.419703
2246.000000	13.680999
2245.000000	13.738504
2244.000000	13.862618
2243.000000	14.138184
2242.000000	14.105833
2241.000000	14.071794
2240.000000	14.180911
2239.000000	14.240554
2238.000000	14.395134
2237.000000	14.629173
2236.000000	14.695786
2235.000000	14.730210
2234.000000	14.820340
2233.000000	14.786677
2232.000000	14.869552
2231.000000	14.891050
2230.000000	14.851897
2229.000000	14.977046
2228.000000	15.051518
2227.000000	15.036789
2226.000000	15.029372
2225.000000	15.000426
2224.000000	14.950576
2223.000000	14.926949
2222.000000	15.027143
2221.000000	14.959429
2220.000000	14.800757
2219.000000	14.890918
2218.000000	14.789046
2217.000000	14.679787
2216.000000	14.738336
2215.000000	14.791173
2214.000000	14.739385
2213.000000	14.683905
2212.000000	14.656007
2211.000000	14.588784
2210.000000	14.447161
2209.000000	14.421636
2208.000000	14.349744
2207.000000	14.276403
2206.000000	14.302869
2205.000000	14.201183
2204.000000	14.152522
2203.000000	14.050672
2202.000000	14.104854
2201.000000	14.072271
2200.000000	14.069881
2199.000000	13.916924
2198.000000	13.852680
2197.000000	13.769955
2196.000000	13.595800
2195.000000	13.586940
2194.000000	13.542147
2193.000000	13.534913
2192.000000	13.394617
2191.000000	13.355151
2190.000000	13.485830
2189.000000	13.404190
2188.000000	13.485936
2187.000000	13.322543
2186.000000	13.400600
2185.000000	13.099535
2184.000000	13.005013
2183.000000	12.981602
2182.000000	12.996014
2181.000000	13.122442
2180.000000	13.004715
2179.000000	12.860783
2178.000000	12.928859
2177.000000	12.899620
2176.000000	12.961857
2175.000000	13.249172
2174.000000	13.233756
2173.000000	13.077223
2172.000000	13.125076
2171.000000	13.246614
2170.000000	13.259965
2169.000000	13.566406
2168.000000	13.441257
2167.000000	13.521123
2166.000000	13.356259
2165.000000	13.269660
2164.000000	13.554711
2163.000000	13.776442
2162.000000	13.715728
2161.000000	13.853566
2160.000000	14.099005
2159.000000	14.052178
2158.000000	14.256277
2157.000000	14.371503
2156.000000	14.404579
2155.000000	14.481488
2154.000000	14.726867
2153.000000	14.780461
2152.000000	14.852360
2151.000000	14.974797
2150.000000	14.961269
2149.000000	15.294329
2148.000000	15.272348
2147.000000	15.167680
2146.000000	15.347512
2145.000000	15.602532
2144.000000	15.773609
2143.000000	15.882796
2142.000000	15.888583
2141.000000	16.034805
2140.000000	16.066033
2139.000000	16.366304
2138.000000	16.488969
2137.000000	16.480695
2136.000000	16.588809
2135.000000	16.661516
2134.000000	16.920741
2133.000000	16.725127
2132.000000	16.978842
2131.000000	17.112829
2130.000000	17.071598
2129.000000	17.150216
2128.000000	17.331690
2127.000000	17.275493
2126.000000	17.482844
2125.000000	17.210309
2124.000000	17.244319
2123.000000	17.433282
2122.000000	17.501903
2121.000000	17.459275
2120.000000	17.867259
2119.000000	17.645581
2118.000000	17.803324
2117.000000	17.735070
2116.000000	17.905296
2115.000000	17.987706
2114.000000	17.868736
2113.000000	18.096038
2112.000000	18.128666
2111.000000	17.947965
2110.000000	17.985405
2109.000000	18.001422
2108.000000	17.842635
2107.000000	17.972922
2106.000000	18.057321
2105.000000	17.980233
2104.000000	18.206566
2103.000000	18.225465
2102.000000	18.194880
2101.000000	18.249737
2100.000000	18.264591
2099.000000	18.340295
2098.000000	18.147126
2097.000000	18.253524
2096.000000	18.150022
2095.000000	18.197536
2094.000000	18.277410
2093.000000	18.186242
2092.000000	18.170184
2091.000000	18.169056
2090.000000	18.082658
2089.000000	18.175483
2088.000000	18.008141
2087.000000	18.077203
2086.000000	18.104365
2085.000000	18.049973
2084.000000	18.000586
2083.000000	17.846571
2082.000000	17.809210
2081.000000	17.638798
2080.000000	17.598140
2079.000000	17.547258
2078.000000	17.449560
2077.000000	17.499318
2076.000000	17.422403
2075.000000	17.192722
2074.000000	17.052076
2073.000000	17.013235
2072.000000	16.893311
2071.000000	16.855608
2070.000000	16.809453
2069.000000	16.702320
2068.000000	16.493546
2067.000000	16.390208
2066.000000	16.170497
2065.000000	16.084790
2064.000000	15.962036
2063.000000	15.718604
2062.000000	15.562089
2061.000000	15.533576
2060.000000	15.455502
2059.000000	15.361524
2058.000000	15.233916
2057.000000	15.229224
2056.000000	15.145856
2055.000000	15.005182
2054.000000	14.851021
2053.000000	14.755871
2052.000000	14.659694
2051.000000	14.608338
2050.000000	14.522142
2049.000000	14.412270
2048.000000	14.363656
2047.000000	14.378056
2046.000000	14.363331
2045.000000	14.313234
2044.000000	14.289314
2043.000000	14.322903
2042.000000	14.336222
2041.000000	14.397375
2040.000000	14.395356
2039.000000	14.392168
2038.000000	14.500126
2037.000000	14.559389
2036.000000	14.629814
2035.000000	14.713768
2034.000000	14.746967
2033.000000	14.834122
2032.000000	14.919251
2031.000000	15.040617
2030.000000	15.127468
2029.000000	15.275432
2028.000000	15.385551
2027.000000	15.440127
2026.000000	15.600738
2025.000000	15.675424
2024.000000	15.725885
2023.000000	15.825862
2022.000000	15.927255
2021.000000	16.011537
2020.000000	16.075729
2019.000000	16.053052
2018.000000	16.105049
2017.000000	16.199932
2016.000000	16.183737
2015.000000	16.153499
2014.000000	16.169457
2013.000000	16.169312
2012.000000	16.169472
2011.000000	16.178828
2010.000000	16.112898
2009.000000	16.048328
2008.000000	16.033838
2007.000000	15.936417
2006.000000	15.846786
2005.000000	15.831417
2004.000000	15.790804
2003.000000	15.749566
2002.000000	15.666571
2001.000000	15.631933
2000.000000	15.584975
1999.000000	15.542268
1998.000000	15.444472
1997.000000	15.313954
1996.000000	15.258343
1995.000000	15.181435
1994.000000	15.093297
1993.000000	15.009578
1992.000000	14.919750
1991.000000	14.868774
1990.000000	14.814954
1989.000000	14.778627
1988.000000	14.671769
1987.000000	14.623781
1986.000000	14.534698
1985.000000	14.433343
1984.000000	14.355475
1983.000000	14.282203
1982.000000	14.245747
1981.000000	14.224206
1980.000000	14.151657
1979.000000	14.079346
1978.000000	13.987524
1977.000000	13.897463
1976.000000	13.834096
1975.000000	13.770494
1974.000000	13.715114
1973.000000	13.650970
1972.000000	13.588376
1971.000000	13.538194
1970.000000	13.473276
1969.000000	13.445180
1968.000000	13.384115
1967.000000	13.328228
1966.000000	13.298513
1965.000000	13.266649
1964.000000	13.204247
1963.000000	13.090426
1962.000000	13.076892
1961.000000	13.023277
1960.000000	13.012989
1959.000000	12.975410
1958.000000	12.858849
1957.000000	12.809715
1956.000000	12.792286
1955.000000	12.731706
1954.000000	12.704946
1953.000000	12.703055
1952.000000	12.669238
1951.000000	12.672354
1950.000000	12.645703
1949.000000	12.611597
1948.000000	12.597800
1947.000000	12.583458
1946.000000	12.604150
1945.000000	12.579038
1944.000000	12.581067
1943.000000	12.665704
1942.000000	12.698273
1941.000000	12.680867
1940.000000	12.714201
1939.000000	12.812870
1938.000000	12.914977
1937.000000	12.964420
1936.000000	12.979217
1935.000000	13.050596
1934.000000	13.178361
1933.000000	13.234800
1932.000000	13.394455
1931.000000	13.420836
1930.000000	13.536161
1929.000000	13.753179
1928.000000	13.877080
1927.000000	14.004376
1926.000000	14.240740
1925.000000	14.432612
1924.000000	14.554007
1923.000000	14.681667
1922.000000	14.972435
1921.000000	15.284594
1920.000000	15.419051
1919.000000	15.619200
1918.000000	15.961900
1917.000000	16.319740
1916.000000	16.409181
1915.000000	16.835746
1914.000000	17.250307
1913.000000	17.564279
1912.000000	17.858638
1911.000000	18.076154
1910.000000	18.586765
1909.000000	18.848456
1908.000000	19.252646
1907.000000	19.674937
1906.000000	20.162106
1905.000000	20.581453
1904.000000	21.019820
1903.000000	21.596725
1902.000000	22.046180
1901.000000	22.541756
1900.000000	23.015875
1899.000000	23.539868
1898.000000	24.183927
1897.000000	24.642792
1896.000000	25.186563
1895.000000	25.651360
1894.000000	26.151843
1893.000000	26.653540
1892.000000	27.173048
1891.000000	27.727872
1890.000000	28.234012
1889.000000	28.723523
1888.000000	29.228987
1887.000000	29.625186
1886.000000	30.065648
1885.000000	30.573803
1884.000000	31.043410
1883.000000	31.472672
1882.000000	31.846648
1881.000000	32.185572
1880.000000	32.619675
1879.000000	33.032392
1878.000000	33.343057
1877.000000	33.665620
1876.000000	33.964541
1875.000000	34.300039
1874.000000	34.521514
1873.000000	34.733158
1872.000000	34.990170
1871.000000	35.207841
1870.000000	35.360670
1869.000000	35.532675
1868.000000	35.700950
1867.000000	35.889460
1866.000000	36.019818
1865.000000	36.090947
1864.000000	36.237142
1863.000000	36.349571
1862.000000	36.444703
1861.000000	36.507668
1860.000000	36.571390
1859.000000	36.629246
1858.000000	36.697102
1857.000000	36.751946
1856.000000	36.810432
1855.000000	36.832826
1854.000000	36.856679
1853.000000	36.870012
1852.000000	36.915813
1851.000000	36.901488
1850.000000	36.856341
1849.000000	36.838786
1848.000000	36.871240
1847.000000	36.874742
1846.000000	36.814984
1845.000000	36.758337
1844.000000	36.752280
1843.000000	36.718055
1842.000000	36.658951
1841.000000	36.608717
1840.000000	36.587060
1839.000000	36.522749
1838.000000	36.442335
1837.000000	36.390930
1836.000000	36.324949
1835.000000	36.268886
1834.000000	36.204166
1833.000000	36.138240
1832.000000	36.088248
1831.000000	36.022339
1830.000000	35.954901
1829.000000	35.911596
1828.000000	35.885709
1827.000000	35.781758
1826.000000	35.738500
1825.000000	35.698241
1824.000000	35.637712
1823.000000	35.574174
1822.000000	35.500898
1821.000000	35.457387
1820.000000	35.430532
1819.000000	35.390632
1818.000000	35.337565
1817.000000	35.290269
1816.000000	35.242052
1815.000000	35.204740
1814.000000	35.153341
1813.000000	35.096348
1812.000000	35.031764
1811.000000	34.999234
1810.000000	34.973216
1809.000000	34.932708
1808.000000	34.884439
1807.000000	34.841043
1806.000000	34.799823
1805.000000	34.755589
1804.000000	34.721228
1803.000000	34.694319
1802.000000	34.655278
1801.000000	34.602377
1800.000000	34.580774
1799.000000	34.566940
1798.000000	34.540950
1797.000000	34.494269
1796.000000	34.459238
1795.000000	34.439779
1794.000000	34.426263
1793.000000	34.390991
1792.000000	34.353290
1791.000000	34.347213
1790.000000	34.298269
1789.000000	34.270368
1788.000000	34.245293
1787.000000	34.215187
1786.000000	34.178372
1785.000000	34.147902
1784.000000	34.098215
1783.000000	34.029078
1782.000000	33.976297
1781.000000	33.937041
1780.000000	33.873778
1779.000000	33.810712
1778.000000	33.741762
1777.000000	33.640395
1776.000000	33.564617
1775.000000	33.479831
1774.000000	33.380628
1773.000000	33.321886
1772.000000	33.196667
1771.000000	33.095487
1770.000000	33.014958
1769.000000	32.957658
1768.000000	32.871856
1767.000000	32.769600
1766.000000	32.724529
1765.000000	32.630636
1764.000000	32.530412
1763.000000	32.448652
1762.000000	32.353273
1761.000000	32.271267
1760.000000	32.190757
1759.000000	32.105819
1758.000000	32.039339
1757.000000	31.959561
1756.000000	31.878716
1755.000000	31.782621
1754.000000	31.746125
1753.000000	31.632267
1752.000000	31.553836
1751.000000	31.468450
1750.000000	31.377209
1749.000000	31.311793
1748.000000	31.223532
1747.000000	31.122595
1746.000000	31.024890
1745.000000	30.917649
1744.000000	30.799868
1743.000000	30.686050
1742.000000	30.638545
1741.000000	30.555369
1740.000000	30.471686
1739.000000	30.397703
1738.000000	30.321234
1737.000000	30.292815
1736.000000	30.222059
1735.000000	30.139615
1734.000000	30.146955
1733.000000	30.142257
1732.000000	30.117668
1731.000000	30.124415
1730.000000	30.131222
1729.000000	30.198817
1728.000000	30.230763
1727.000000	30.286721
1726.000000	30.399908
1725.000000	30.486547
1724.000000	30.568748
1723.000000	30.713080
1722.000000	30.841876
1721.000000	30.958068
1720.000000	31.057135
1719.000000	31.249118
1718.000000	31.378812
1717.000000	31.478309
1716.000000	31.575543
1715.000000	31.709365
1714.000000	31.862180
1713.000000	31.920803
1712.000000	32.038120
1711.000000	32.152238
1710.000000	32.245244
1709.000000	32.335548
1708.000000	32.429154
1707.000000	32.487062
1706.000000	32.555165
1705.000000	32.627288
1704.000000	32.659833
1703.000000	32.716677
1702.000000	32.725680
1701.000000	32.795604
1700.000000	32.805496
1699.000000	32.895386
1698.000000	32.934751
1697.000000	33.005327
1696.000000	33.073089
1695.000000	33.132819
1694.000000	33.209493
1693.000000	33.313063
1692.000000	33.419239
1691.000000	33.544223
1690.000000	33.673186
1689.000000	33.810141
1688.000000	33.988800
1687.000000	34.171404
1686.000000	34.365961
1685.000000	34.581902
1684.000000	34.811671
1683.000000	35.061340
1682.000000	35.296632
1681.000000	35.559234
1680.000000	35.803439
1679.000000	36.069313
1678.000000	36.383420
1677.000000	36.605284
1676.000000	36.905441
1675.000000	37.152868
1674.000000	37.417906
1673.000000	37.671571
1672.000000	37.940219
1671.000000	38.196156
1670.000000	38.411664
1669.000000	38.671014
1668.000000	38.849803
1667.000000	39.060627
1666.000000	39.211861
1665.000000	39.371855
1664.000000	39.508292
1663.000000	39.640825
1662.000000	39.787929
1661.000000	39.885137
1660.000000	39.994764
1659.000000	40.078783
1658.000000	40.185069
1657.000000	40.248422
1656.000000	40.311485
1655.000000	40.359496
1654.000000	40.385216
1653.000000	40.431441
1652.000000	40.450541
1651.000000	40.461062
1650.000000	40.461467
1649.000000	40.451238
1648.000000	40.420505
1647.000000	40.420549
1646.000000	40.415530
1645.000000	40.383671
1644.000000	40.356422
1643.000000	40.346012
1642.000000	40.304534
1641.000000	40.260946
1640.000000	40.226456
1639.000000	40.175249
1638.000000	40.133063
1637.000000	40.107311
1636.000000	40.055321
1635.000000	39.995535
1634.000000	39.944109
1633.000000	39.888498
1632.000000	39.834960
1631.000000	39.778474
1630.000000	39.703891
1629.000000	39.660373
1628.000000	39.608354
1627.000000	39.534006
1626.000000	39.454017
1625.000000	39.390087
1624.000000	39.321464
1623.000000	39.282685
1622.000000	39.222810
1621.000000	39.137302
1620.000000	39.074868
1619.000000	38.984145
1618.000000	38.899677
1617.000000	38.828137
1616.000000	38.754586
1615.000000	38.676510
1614.000000	38.608405
1613.000000	38.535263
1612.000000	38.439580
1611.000000	38.335428
1610.000000	38.261970
1609.000000	38.179922
1608.000000	38.095765
1607.000000	38.010302
1606.000000	37.943931
1605.000000	37.866162
1604.000000	37.757531
1603.000000	37.646054
1602.000000	37.556103
1601.000000	37.493405
1600.000000	37.417154
1599.000000	37.313725
1598.000000	37.213848
1597.000000	37.146095
1596.000000	37.075612
1595.000000	36.994049
1594.000000	36.913691
1593.000000	36.836612
1592.000000	36.769883
1591.000000	36.697039
1590.000000	36.613830
1589.000000	36.544170
1588.000000	36.483377
1587.000000	36.405790
1586.000000	36.342076
1585.000000	36.277456
1584.000000	36.207360
1583.000000	36.138564
1582.000000	36.074752
1581.000000	36.025217
1580.000000	35.968705
1579.000000	35.900687
1578.000000	35.846399
1577.000000	35.773814
1576.000000	35.695615
1575.000000	35.631848
1574.000000	35.582109
1573.000000	35.520571
1572.000000	35.459339
1571.000000	35.406508
1570.000000	35.347814
1569.000000	35.292447
1568.000000	35.248268
1567.000000	35.189989
1566.000000	35.150005
1565.000000	35.107741
1564.000000	35.054848
1563.000000	35.030426
1562.000000	34.981209
1561.000000	34.932560
1560.000000	34.911183
1559.000000	34.862307
1558.000000	34.813829
1557.000000	34.772965
1556.000000	34.755797
1555.000000	34.716037
1554.000000	34.670851
1553.000000	34.636014
1552.000000	34.587882
1551.000000	34.533646
1550.000000	34.492776
1549.000000	34.422479
1548.000000	34.361694
1547.000000	34.273020
1546.000000	34.198079
1545.000000	34.126400
1544.000000	34.002097
1543.000000	33.923604
1542.000000	33.808934
1541.000000	33.692299
1540.000000	33.587692
1539.000000	33.482640
1538.000000	33.362238
1537.000000	33.255961
1536.000000	33.134119
1535.000000	33.003592
1534.000000	32.896435
1533.000000	32.789707
1532.000000	32.663281
1531.000000	32.546010
1530.000000	32.462489
1529.000000	32.353595
1528.000000	32.244884
1527.000000	32.145765
1526.000000	32.064287
1525.000000	31.980620
1524.000000	31.873055
1523.000000	31.796469
1522.000000	31.730314
1521.000000	31.682329
1520.000000	31.604467
1519.000000	31.554118
1518.000000	31.519729
1517.000000	31.433414
1516.000000	31.389225
1515.000000	31.351331
1514.000000	31.290971
1513.000000	31.265448
1512.000000	31.220007
1511.000000	31.187100
1510.000000	31.185084
1509.000000	31.148913
1508.000000	31.113665
1507.000000	31.099729
1506.000000	31.090398
1505.000000	31.069985
1504.000000	31.052752
1503.000000	31.072612
1502.000000	31.075966
1501.000000	31.076490
1500.000000	31.077650
1499.000000	31.075302
1498.000000	31.108397
1497.000000	31.139984
1496.000000	31.167897
1495.000000	31.192100
1494.000000	31.240090
1493.000000	31.276264
1492.000000	31.343082
1491.000000	31.397922
1490.000000	31.462957
1489.000000	31.532405
1488.000000	31.611021
1487.000000	31.687107
1486.000000	31.780158
1485.000000	31.858984
1484.000000	31.932007
1483.000000	32.043266
1482.000000	32.085919
1481.000000	32.203189
1480.000000	32.312288
1479.000000	32.405820
1478.000000	32.480445
1477.000000	32.575651
1476.000000	32.641319
1475.000000	32.720504
1474.000000	32.805596
1473.000000	32.906716
1472.000000	32.982416
1471.000000	33.038609
1470.000000	33.131838
1469.000000	33.205135
1468.000000	33.296892
1467.000000	33.365683
1466.000000	33.425911
1465.000000	33.495044
1464.000000	33.570979
1463.000000	33.644186
1462.000000	33.709886
1461.000000	33.781733
1460.000000	33.844706
1459.000000	33.924952
1458.000000	34.022596
1457.000000	34.090128
1456.000000	34.178385
1455.000000	34.244789
1454.000000	34.323771
1453.000000	34.420165
1452.000000	34.505733
1451.000000	34.606603
1450.000000	34.710974
1449.000000	34.793083
1448.000000	34.911652
1447.000000	35.008551
1446.000000	35.096946
1445.000000	35.209019
1444.000000	35.323397
1443.000000	35.430970
1442.000000	35.546520
1441.000000	35.675191
1440.000000	35.817084
1439.000000	35.946767
1438.000000	36.071026
1437.000000	36.211581
1436.000000	36.347658
1435.000000	36.499175
1434.000000	36.651588
1433.000000	36.811178
1432.000000	36.967226
1431.000000	37.143955
1430.000000	37.316024
1429.000000	37.483368
1428.000000	37.679870
1427.000000	37.858677
1426.000000	38.048285
1425.000000	38.262160
1424.000000	38.477304
1423.000000	38.704285
1422.000000	38.920227
1421.000000	39.160008
1420.000000	39.392172
1419.000000	39.626952
1418.000000	39.870396
1417.000000	40.135482
1416.000000	40.399438
1415.000000	40.645916
1414.000000	40.884265
1413.000000	41.165846
1412.000000	41.428365
1411.000000	41.691491
1410.000000	41.945258
1409.000000	42.226446
1408.000000	42.495884
1407.000000	42.743773
1406.000000	43.002479
1405.000000	43.270948
1404.000000	43.535081
1403.000000	43.795058
1402.000000	44.036590
1401.000000	44.281085
1400.000000	44.526388
1399.000000	44.779433
1398.000000	45.020095
1397.000000	45.254539
1396.000000	45.495323
1395.000000	45.717815
1394.000000	45.932734
1393.000000	46.159603
1392.000000	46.363526
1391.000000	46.568739
1390.000000	46.775716
1389.000000	46.978160
1388.000000	47.165469
1387.000000	47.352337
1386.000000	47.535210
1385.000000	47.696117
1384.000000	47.860416
1383.000000	48.025101
1382.000000	48.172876
1381.000000	48.326026
1380.000000	48.477042
1379.000000	48.615728
1378.000000	48.744206
1377.000000	48.873718
1376.000000	49.003006
1375.000000	49.116607
1374.000000	49.225119
1373.000000	49.346182
1372.000000	49.445953
1371.000000	49.549698
1370.000000	49.648414
1369.000000	49.742638
1368.000000	49.857736
1367.000000	49.960825
1366.000000	50.051386
1365.000000	50.153299
1364.000000	50.251971
1363.000000	50.339111
1362.000000	50.432989
1361.000000	50.542746
1360.000000	50.647652
1359.000000	50.756860
1358.000000	50.868710
1357.000000	50.969427
1356.000000	51.074253
1355.000000	51.178354
1354.000000	51.299756
1353.000000	51.402693
1352.000000	51.517116
1351.000000	51.638698
1350.000000	51.730123
1349.000000	51.842630
1348.000000	51.964096
1347.000000	52.069756
1346.000000	52.184194
1345.000000	52.282605
1344.000000	52.394879
1343.000000	52.492871
1342.000000	52.573208
1341.000000	52.666588
1340.000000	52.771153
1339.000000	52.866657
1338.000000	52.948392
1337.000000	53.005558
1336.000000	53.083563
1335.000000	53.159304
1334.000000	53.237253
1333.000000	53.297572
1332.000000	53.363375
1331.000000	53.405669
1330.000000	53.444749
1329.000000	53.499094
1328.000000	53.547062
1327.000000	53.619755
1326.000000	53.676051
1325.000000	53.732955
1324.000000	53.786033
1323.000000	53.814198
1322.000000	53.824998
1321.000000	53.840090
1320.000000	53.871992
1319.000000	53.901471
1318.000000	53.913350
1317.000000	53.948246
1316.000000	53.978003
1315.000000	54.021770
1314.000000	54.032828
1313.000000	54.041376
1312.000000	54.065519
1311.000000	54.098351
1310.000000	54.115809
1309.000000	54.166481
1308.000000	54.187518
1307.000000	54.190308
1306.000000	54.198218
1305.000000	54.207571
1304.000000	54.238187
1303.000000	54.264448
1302.000000	54.273836
1301.000000	54.264760
1300.000000	54.292552
1299.000000	54.301792
1298.000000	54.298504
1297.000000	54.299517
1296.000000	54.291564
1295.000000	54.296635
1294.000000	54.305260
1293.000000	54.302446
1292.000000	54.296011
1291.000000	54.302311
1290.000000	54.287727
1289.000000	54.288386
1288.000000	54.275019
1287.000000	54.258523
1286.000000	54.245905
1285.000000	54.224967
1284.000000	54.237130
1283.000000	54.218312
1282.000000	54.202930
1281.000000	54.209235
1280.000000	54.218024
1279.000000	54.200280
1278.000000	54.195822
1277.000000	54.205018
1276.000000	54.191895
1275.000000	54.211674
1274.000000	54.197946
1273.000000	54.206447
1272.000000	54.189394
1271.000000	54.203593
1270.000000	54.211251
1269.000000	54.229983
1268.000000	54.219561
1267.000000	54.241146
1266.000000	54.283976
1265.000000	54.271085
1264.000000	54.301657
1263.000000	54.291105
1262.000000	54.304860
1261.000000	54.317486
1260.000000	54.330903
1259.000000	54.360322
1258.000000	54.376078
1257.000000	54.369377
1256.000000	54.372246
1255.000000	54.370794
1254.000000	54.389245
1253.000000	54.371623
1252.000000	54.372838
1251.000000	54.380771
1250.000000	54.379300
1249.000000	54.367076
1248.000000	54.341284
1247.000000	54.338648
1246.000000	54.303723
1245.000000	54.305870
1244.000000	54.282457
1243.000000	54.248872
1242.000000	54.214097
1241.000000	54.182747
1240.000000	54.121689
1239.000000	54.085549
1238.000000	54.064783
1237.000000	54.011469
1236.000000	53.956014
1235.000000	53.898938
1234.000000	53.850906
1233.000000	53.794533
1232.000000	53.757636
1231.000000	53.710805
1230.000000	53.672161
1229.000000	53.606991
1228.000000	53.563172
1227.000000	53.471542
1226.000000	53.424852
1225.000000	53.375525
1224.000000	53.329278
1223.000000	53.258618
1222.000000	53.202674
1221.000000	53.145437
1220.000000	53.094888
1219.000000	53.034009
1218.000000	52.973143
1217.000000	52.921922
1216.000000	52.852752
1215.000000	52.781084
1214.000000	52.739732
1213.000000	52.709350
1212.000000	52.628189
1211.000000	52.557906
1210.000000	52.505754
1209.000000	52.459130
1208.000000	52.395690
1207.000000	52.334886
1206.000000	52.295470
1205.000000	52.216192
1204.000000	52.164951
1203.000000	52.115147
1202.000000	52.069062
1201.000000	52.005720
1200.000000	51.957195
1199.000000	51.927999
1198.000000	51.888976
1197.000000	51.836478
1196.000000	51.790460
1195.000000	51.753185
1194.000000	51.720320
1193.000000	51.688597
1192.000000	51.655827
1191.000000	51.651724
1190.000000	51.633916
1189.000000	51.607644
1188.000000	51.608187
1187.000000	51.617311
1186.000000	51.627832
1185.000000	51.654080
1184.000000	51.676117
1183.000000	51.710225
1182.000000	51.768293
1181.000000	51.819877
1180.000000	51.872999
1179.000000	51.954900
1178.000000	52.032352
1177.000000	52.117157
1176.000000	52.209731
1175.000000	52.312050
1174.000000	52.407714
1173.000000	52.512252
1172.000000	52.626902
1171.000000	52.738043
1170.000000	52.867039
1169.000000	52.998165
1168.000000	53.121649
1167.000000	53.242863
1166.000000	53.358560
1165.000000	53.483797
1164.000000	53.627389
1163.000000	53.766665
1162.000000	53.881582
1161.000000	54.017888
1160.000000	54.142100
1159.000000	54.251056
1158.000000	54.384643
1157.000000	54.524362
1156.000000	54.631359
1155.000000	54.727262
1154.000000	54.831525
1153.000000	54.940431
1152.000000	55.041386
1151.000000	55.144077
1150.000000	55.244704
1149.000000	55.339051
1148.000000	55.428456
1147.000000	55.521405
1146.000000	55.606758
1145.000000	55.677184
1144.000000	55.761805
1143.000000	55.863420
1142.000000	55.944783
1141.000000	56.018806
1140.000000	56.098481
1139.000000	56.173202
1138.000000	56.255698
1137.000000	56.320126
1136.000000	56.388894
1135.000000	56.450470
1134.000000	56.510674
1133.000000	56.565560
1132.000000	56.610911
1131.000000	56.688758
1130.000000	56.755222
1129.000000	56.809550
1128.000000	56.846172
1127.000000	56.885242
1126.000000	56.932567
1125.000000	56.979889
1124.000000	57.020333
1123.000000	57.036088
1122.000000	57.048777
1121.000000	57.076961
1120.000000	57.115448
1119.000000	57.141313
1118.000000	57.155021
1117.000000	57.157333
1116.000000	57.184640
1115.000000	57.198622
1114.000000	57.228495
1113.000000	57.232503
1112.000000	57.242672
1111.000000	57.256823
1110.000000	57.258606
1109.000000	57.270847
1108.000000	57.287226
1107.000000	57.292577
1106.000000	57.293829
1105.000000	57.314588
1104.000000	57.281258
1103.000000	57.294714
1102.000000	57.300124
1101.000000	57.299069
1100.000000	57.313745
1099.000000	57.327002
1098.000000	57.332023
1097.000000	57.328886
1096.000000	57.316089
1095.000000	57.324573
1094.000000	57.328498
1093.000000	57.337553
1092.000000	57.334727
1091.000000	57.341788
1090.000000	57.340545
1089.000000	57.323094
1088.000000	57.320422
1087.000000	57.331808
1086.000000	57.341591
1085.000000	57.325363
1084.000000	57.308853
1083.000000	57.302674
1082.000000	57.295239
1081.000000	57.292792
1080.000000	57.296777
1079.000000	57.288885
1078.000000	57.274865
1077.000000	57.264489
1076.000000	57.250371
1075.000000	57.239840
1074.000000	57.240233
1073.000000	57.233616
1072.000000	57.220797
1071.000000	57.208332
1070.000000	57.185075
1069.000000	57.182297
1068.000000	57.158200
1067.000000	57.157615
1066.000000	57.155246
1065.000000	57.123726
1064.000000	57.114307
1063.000000	57.121848
1062.000000	57.087481
1061.000000	57.084916
1060.000000	57.072663
1059.000000	57.069804
1058.000000	57.071566
1057.000000	57.040053
1056.000000	57.010004
1055.000000	57.006713
1054.000000	57.006343
1053.000000	56.998584
1052.000000	56.976890
1051.000000	56.968945
1050.000000	56.964092
1049.000000	56.931275
1048.000000	56.926732
1047.000000	56.897897
1046.000000	56.878545
1045.000000	56.864867
1044.000000	56.856143
1043.000000	56.855046
1042.000000	56.848519
1041.000000	56.813332
1040.000000	56.830696
1039.000000	56.817496
1038.000000	56.808071
1037.000000	56.791863
1036.000000	56.800802
1035.000000	56.789950
1034.000000	56.786747
1033.000000	56.761796
1032.000000	56.751413
1031.000000	56.754696
1030.000000	56.729997
1029.000000	56.723241
1028.000000	56.728730
1027.000000	56.738176
1026.000000	56.709011
1025.000000	56.714407
1024.000000	56.721943
1023.000000	56.711516
1022.000000	56.711500
1021.000000	56.722374
1020.000000	56.721749
1019.000000	56.707521
1018.000000	56.714976
1017.000000	56.723515
1016.000000	56.725734
1015.000000	56.727899
1014.000000	56.721974
1013.000000	56.731534
1012.000000	56.748685
1011.000000	56.751152
1010.000000	56.758627
1009.000000	56.763767
1008.000000	56.773683
1007.000000	56.765679
1006.000000	56.797301
1005.000000	56.778866
1004.000000	56.775416
1003.000000	56.785009
1002.000000	56.814609
1001.000000	56.841436
1000.000000	56.826513
999.000000	56.844678
998.000000	56.847038
997.000000	56.848323
996.000000	56.864564
995.000000	56.860432
994.000000	56.884813
993.000000	56.887292
992.000000	56.869258
991.000000	56.876228
990.000000	56.903512
989.000000	56.898854
988.000000	56.897392
987.000000	56.901061
986.000000	56.913407
985.000000	56.939943
984.000000	56.952655
983.000000	56.975859
982.000000	56.973207
981.000000	56.954993
980.000000	56.958578
979.000000	56.983425
978.000000	56.993463
977.000000	57.002979
976.000000	57.018881
975.000000	57.028300
974.000000	57.033093
973.000000	57.039684
972.000000	57.055788
971.000000	57.063854
970.000000	57.077379
969.000000	57.088411
968.000000	57.106223
967.000000	57.098440
966.000000	57.113391
965.000000	57.114777
964.000000	57.127037
963.000000	57.135369
962.000000	57.167750
961.000000	57.191712
960.000000	57.193467
959.000000	57.209962
958.000000	57.205625
957.000000	57.204430
956.000000	57.201557
955.000000	57.217209
954.000000	57.244586
953.000000	57.252784
952.000000	57.235188
951.000000	57.233901
950.000000	57.262546
949.000000	57.273077
948.000000	57.239951
947.000000	57.245605
946.000000	57.274493
945.000000	57.274132
944.000000	57.259020
943.000000	57.253697
942.000000	57.254960
941.000000	57.253942
940.000000	57.260373
939.000000	57.270621
938.000000	57.263277
937.000000	57.264440
936.000000	57.261019
935.000000	57.236796
934.000000	57.240834
933.000000	57.214609
932.000000	57.187739
931.000000	57.212906
930.000000	57.209970
929.000000	57.203305
928.000000	57.196715
927.000000	57.185406
926.000000	57.181776
925.000000	57.186985
924.000000	57.173938
923.000000	57.167175
922.000000	57.158037
921.000000	57.149829
920.000000	57.180679
919.000000	57.161340
918.000000	57.122928
917.000000	57.123424
916.000000	57.127385
915.000000	57.134245
914.000000	57.104954
913.000000	57.115386
912.000000	57.110713
911.000000	57.073760
910.000000	57.066626
909.000000	57.111758
908.000000	57.100072
907.000000	57.066469
906.000000	57.054307
905.000000	57.041452
904.000000	57.040350
903.000000	57.072367
902.000000	57.103916
901.000000	57.139696
900.000000	57.111820
899.000000	57.131128
898.000000	57.184957
897.000000	57.169082
896.000000	57.140038
895.000000	57.104896
894.000000	57.134936
893.000000	57.096793
892.000000	57.143377
891.000000	57.141624
890.000000	57.161397
889.000000	57.159917
888.000000	57.150476
887.000000	57.218348
886.000000	57.222806
885.000000	57.233080
884.000000	57.218400
883.000000	57.203918
882.000000	57.185107
881.000000	57.181793
880.000000	57.210008
879.000000	57.230871
878.000000	57.213255
877.000000	57.256014
876.000000	57.156507
875.000000	57.124300
874.000000	57.149305
873.000000	57.027071
872.000000	57.192314
871.000000	57.267269
870.000000	57.093780
869.000000	57.172859
868.000000	57.195812
867.000000	57.177920
866.000000	57.105618
865.000000	57.113397
864.000000	57.316234
863.000000	57.165151
862.000000	57.129067
861.000000	57.022408
860.000000	56.947040
859.000000	56.540116
858.000000	56.268440
857.000000	56.208644
856.000000	55.901049
855.000000	56.279878
854.000000	56.318434
853.000000	56.619400
852.000000	56.241731
851.000000	56.444446
850.000000	56.279217
849.000000	56.105878
848.000000	56.438843
847.000000	56.282014
846.000000	56.408565
845.000000	56.000807
844.000000	56.217338
843.000000	56.100443
842.000000	56.040522
841.000000	56.392715
840.000000	56.238135
839.000000	56.188203
838.000000	56.254004
837.000000	56.299550
836.000000	55.987548
835.000000	55.961410
834.000000	56.039616
833.000000	55.973825
832.000000	55.951062
831.000000	56.097088
830.000000	56.093540
829.000000	56.076856
828.000000	55.958730
827.000000	56.114801
826.000000	56.021751
825.000000	55.880618
824.000000	55.929371
823.000000	55.904192
822.000000	56.025006
821.000000	55.953994
820.000000	55.884430
819.000000	56.001976
818.000000	55.840704
817.000000	55.845644
816.000000	55.899371
815.000000	55.672798
814.000000	55.772619
813.000000	55.820892
812.000000	55.874979
811.000000	55.746034
810.000000	55.734448
809.000000	55.763551
808.000000	55.780197
807.000000	55.698162
806.000000	55.778070
805.000000	55.588303
804.000000	55.663299
803.000000	55.561590
802.000000	55.741898
801.000000	55.669970
800.000000	55.672452
799.000000	55.549361
798.000000	55.640605
797.000000	55.612533
796.000000	55.530470
795.000000	55.563961
794.000000	55.497267
793.000000	55.490595
792.000000	55.372620
791.000000	55.491898
790.000000	55.342889
789.000000	55.287621
788.000000	55.228988
787.000000	55.329034
786.000000	55.265472
785.000000	55.315527
784.000000	55.281599
783.000000	55.307550
782.000000	55.326862
781.000000	55.256232
780.000000	55.180787
779.000000	55.171734
778.000000	55.155514
777.000000	55.216093
776.000000	55.166749
775.000000	55.095746
774.000000	55.075670
773.000000	55.007618
772.000000	55.028109
771.000000	55.056300
770.000000	55.100368
769.000000	54.932895
768.000000	54.911037
767.000000	54.929140
766.000000	54.907564
765.000000	54.961586
764.000000	54.824252
763.000000	54.660578
762.000000	54.720403
761.000000	54.724377
760.000000	54.657055
759.000000	54.745533
758.000000	54.681735
757.000000	54.691468
756.000000	54.637788
755.000000	54.584787
754.000000	54.541732
753.000000	54.600538
752.000000	54.525631
751.000000	54.563857
750.000000	54.556972
749.000000	54.439859
748.000000	54.346944
747.000000	54.336096
746.000000	54.373407
745.000000	54.289910
744.000000	54.257326
743.000000	54.267098
742.000000	54.207084
741.000000	54.163638
740.000000	54.133614
739.000000	54.029167
738.000000	54.030996
737.000000	54.005104
736.000000	53.979828
735.000000	53.934788
734.000000	53.868191
733.000000	53.872128
732.000000	53.882904
731.000000	53.838242
730.000000	53.819552
729.000000	53.721825
728.000000	53.637852
727.000000	53.685179
726.000000	53.646241
725.000000	53.558165
724.000000	53.586081
723.000000	53.518995
722.000000	53.503200
721.000000	53.488789
720.000000	53.445041
719.000000	53.430447
718.000000	53.329387
717.000000	53.295464
716.000000	53.285815
715.000000	53.240546
714.000000	53.211435
713.000000	53.161873
712.000000	53.118714
711.000000	53.088359
710.000000	53.040217
709.000000	53.004691
708.000000	52.969148
707.000000	52.918137
706.000000	52.914528
705.000000	52.868099
704.000000	52.798756
703.000000	52.810649
702.000000	52.797957
701.000000	52.693879
700.000000	52.615384
699.000000	52.595619
698.000000	52.556508
697.000000	52.488584
696.000000	52.445405
695.000000	52.393351
694.000000	52.390046
693.000000	52.335695
692.000000	52.278561
691.000000	52.259170
690.000000	52.217453
689.000000	52.154053
688.000000	52.083779
687.000000	52.022258
686.000000	51.984933
685.000000	51.972482
684.000000	51.935052
683.000000	51.865511
682.000000	51.777296
681.000000	51.755105
680.000000	51.780204
679.000000	51.704974
678.000000	51.584668
677.000000	51.563231
676.000000	51.524647
675.000000	51.486288
674.000000	51.441011
673.000000	51.377368
672.000000	51.334237
671.000000	51.268112
670.000000	51.204740
669.000000	51.156825
668.000000	51.073463
667.000000	51.114129
666.000000	51.083190
665.000000	50.989777
664.000000	50.918731
663.000000	50.882639
662.000000	50.839794
661.000000	50.751975
660.000000	50.721394
659.000000	50.653222
658.000000	50.624567
657.000000	50.631684
656.000000	50.534914
655.000000	50.492200
654.000000	50.454817
653.000000	50.351930
652.000000	50.298501
651.000000	50.236903
650.000000	50.186134
649.000000	50.126565
648.000000	50.112849
647.000000	50.056230
646.000000	49.921590
645.000000	49.902616
644.000000	49.850521
643.000000	49.782384
642.000000	49.788631
641.000000	49.716608
640.000000	49.641332
639.000000	49.564057
638.000000	49.544937
637.000000	49.488661
636.000000	49.439801
635.000000	49.422943
634.000000	49.339739
633.000000	49.274122
632.000000	49.213114
631.000000	49.166366
630.000000	49.118145
629.000000	49.035818
628.000000	48.972251
627.000000	48.901390
626.000000	48.901555
625.000000	48.801301
624.000000	48.751510
623.000000	48.623311
622.000000	48.617155
621.000000	48.566950
620.000000	48.494127
619.000000	48.408168
618.000000	48.346896
617.000000	48.342433
616.000000	48.256042
615.000000	48.129529
614.000000	48.050455
613.000000	48.041222
612.000000	47.960278
611.000000	47.888680
610.000000	47.833091
609.000000	47.761786
608.000000	47.664653
607.000000	47.598590
606.000000	47.538414
605.000000	47.511871
604.000000	47.424838
603.000000	47.391025
602.000000	47.321381
601.000000	47.274597
600.000000	47.175199
599.000000	47.052776
598.000000	47.041935
597.000000	46.960561
596.000000	46.872181
595.000000	46.805176
594.000000	46.750149
593.000000	46.694155
592.000000	46.559820
591.000000	46.537686
590.000000	46.442042
589.000000	46.413354
588.000000	46.297620
587.000000	46.208480
586.000000	46.123765
585.000000	46.073342
584.000000	45.960067
583.000000	45.870491
582.000000	45.843009
581.000000	45.790038
580.000000	45.704375
579.000000	45.619521
578.000000	45.529501
577.000000	45.504051
576.000000	45.366283
575.000000	45.313129
574.000000	45.214502
573.000000	45.125947
572.000000	45.005969
571.000000	44.993599
570.000000	44.905842
569.000000	44.791435
568.000000	44.704053
567.000000	44.682969
566.000000	44.510843
565.000000	44.499259
564.000000	44.374332
563.000000	44.314347
562.000000	44.239253
561.000000	44.148351
560.000000	44.049520
559.000000	43.983926
558.000000	43.908434
557.000000	43.875053
556.000000	43.767369
555.000000	43.659700
554.000000	43.542138
553.000000	43.471973
552.000000	43.404607
551.000000	43.317411
550.000000	43.233573
549.000000	43.139622
548.000000	43.056975
547.000000	42.982463
546.000000	42.866970
545.000000	42.770619
544.000000	42.690895
543.000000	42.571714
542.000000	42.474471
541.000000	42.405501
540.000000	42.254709
539.000000	42.169230
538.000000	42.106048
537.000000	42.002669
536.000000	41.879116
535.000000	41.774866
534.000000	41.692156
533.000000	41.593659
532.000000	41.482894
531.000000	41.377041
530.000000	41.294709
529.000000	41.189723
528.000000	41.072414
527.000000	40.986679
526.000000	40.868648
525.000000	40.776638
524.000000	40.629196
523.000000	40.568640
522.000000	40.462820
521.000000	40.348509
520.000000	40.259559
519.000000	40.144374
518.000000	40.037872
517.000000	39.909610
516.000000	39.803727
515.000000	39.703195
514.000000	39.581027
513.000000	39.480820
512.000000	39.325179
511.000000	39.226177
510.000000	39.124858
509.000000	39.018351
508.000000	38.909386
507.000000	38.796682
506.000000	38.666338
505.000000	38.544079
504.000000	38.405246
503.000000	38.276188
502.000000	38.166709
501.000000	38.043116
500.000000	37.898296
499.000000	37.807225
498.000000	37.658092
497.000000	37.516019
496.000000	37.359007
495.000000	37.193749
494.000000	37.081418
493.000000	36.967432
492.000000	36.806706
491.000000	36.674723
490.000000	36.495163
489.000000	36.323342
488.000000	36.171414
487.000000	36.009467
486.000000	35.852400
485.000000	35.701113
484.000000	35.581185
483.000000	35.429469
482.000000	35.276877
481.000000	35.104794
480.000000	34.947194
479.000000	34.803337
478.000000	34.656022
477.000000	34.503542
476.000000	34.339137
475.000000	34.181713
474.000000	34.007286
473.000000	33.838459
472.000000	33.692986
471.000000	33.558964
470.000000	33.401537
469.000000	33.202870
468.000000	33.015285
467.000000	32.870154
466.000000	32.683472
465.000000	32.493614
464.000000	32.323885
463.000000	32.172693
462.000000	31.992848
461.000000	31.810882
460.000000	31.634203
459.000000	31.436758
458.000000	31.272441
457.000000	31.071507
456.000000	30.864606
455.000000	30.692452
454.000000	30.525736
453.000000	30.301190
452.000000	30.086655
451.000000	29.891369
450.000000	29.680896
449.000000	29.466349
448.000000	29.266240
447.000000	29.050548
446.000000	28.858546
445.000000	28.671580
444.000000	28.472222
443.000000	28.269337
442.000000	28.042781
441.000000	27.835331
440.000000	27.652762
439.000000	27.428421
438.000000	27.220445
437.000000	27.011489
436.000000	26.795899
435.000000	26.571769
434.000000	26.379147
433.000000	26.162962
432.000000	25.947324
431.000000	25.707974
430.000000	25.475942
429.000000	25.263285
428.000000	25.046114
427.000000	24.831781
426.000000	24.603457
425.000000	24.385137
424.000000	24.190803
423.000000	23.949526
422.000000	23.716409
421.000000	23.537009
420.000000	23.321155
419.000000	23.132239
418.000000	22.926737
417.000000	22.726130
416.000000	22.559761
415.000000	22.405924
414.000000	22.244438
413.000000	22.101474
412.000000	21.942712
411.000000	21.788042
410.000000	21.650118
409.000000	21.540527
408.000000	21.387542
407.000000	21.291995
406.000000	21.153287
405.000000	21.056714
404.000000	20.930829
403.000000	20.760694
402.000000	20.656931
401.000000	20.547341
400.000000	20.404342
399.000000	20.296818
398.000000	20.179843
397.000000	20.054659
396.000000	19.913900
395.000000	19.767549
394.000000	19.611059
393.000000	19.458337
392.000000	19.331013
391.000000	19.186761
390.000000	19.040760
389.000000	18.858263
388.000000	18.731150
387.000000	18.601324
386.000000	18.446237
385.000000	18.271024
384.000000	18.120073
383.000000	17.955606
382.000000	17.827213
381.000000	17.698183
380.000000	17.469553
379.000000	17.301828
378.000000	17.107296
377.000000	17.028048
376.000000	16.912079
375.000000	16.724498
374.000000	16.621302
373.000000	16.412476
372.000000	16.294171
371.000000	16.160442
370.000000	15.974620
369.000000	15.855946
368.000000	15.732709
367.000000	15.598672
366.000000	15.462213
365.000000	15.287644
364.000000	15.113131
363.000000	15.046888
362.000000	14.962873
361.000000	14.842237
360.000000	14.771458
359.000000	14.503073
358.000000	14.481503
357.000000	14.298357
356.000000	14.208001
355.000000	14.078093
354.000000	13.905591
353.000000	13.928986
352.000000	13.797616
351.000000	13.705059
350.000000	13.574977
349.000000	13.478124
348.000000	13.349717
347.000000	13.268661
346.000000	13.179568
345.000000	13.026257
344.000000	12.954966
343.000000	12.965151
342.000000	12.704128
341.000000	12.653848
340.000000	12.566012
339.000000	12.360396
338.000000	12.358389
337.000000	12.198083
336.000000	12.120075
335.000000	12.017819
334.000000	11.966327
333.000000	11.858331
332.000000	11.686614
331.000000	11.671740
330.000000	11.537581
329.000000	11.420017
328.000000	11.268863
327.000000	11.254639
326.000000	11.211011
325.000000	11.154429
324.000000	10.992844
323.000000	10.963302
322.000000	10.878720
321.000000	10.899029
320.000000	10.837143
319.000000	10.675557
318.000000	10.723388
317.000000	10.657355
316.000000	10.595850
315.000000	10.522089
314.000000	10.526775
313.000000	10.379961
312.000000	10.368632
311.000000	10.266948
310.000000	10.206705
309.000000	10.144511
308.000000	10.090915
307.000000	10.123611
306.000000	10.005752
305.000000	9.952437
304.000000	9.904124
303.000000	9.905120
302.000000	9.861975
301.000000	9.790069
300.000000	9.747159
299.000000	9.731262
298.000000	9.736862
297.000000	9.736572
296.000000	9.788788
295.000000	9.806033
294.000000	9.851098
293.000000	9.777896
292.000000	9.864511
291.000000	9.886738
290.000000	9.916571
289.000000	9.935992
288.000000	9.942584
287.000000	9.977488
286.000000	10.007847
285.000000	10.122652
284.000000	10.197908
283.000000	10.291537
282.000000	10.344977
281.000000	10.394993
280.000000	10.446809
279.000000	10.514562
278.000000	10.536225
277.000000	10.649976
276.000000	10.706342
275.000000	10.735569
274.000000	10.753758
273.000000	10.843985
272.000000	10.925203
271.000000	10.987393
270.000000	11.078750
269.000000	11.115689
268.000000	11.154921
267.000000	11.184513
266.000000	11.305731
265.000000	11.396427
264.000000	11.482382
263.000000	11.522887
262.000000	11.609648
261.000000	11.674428
260.000000	11.756572
259.000000	11.851771
258.000000	11.942449
257.000000	12.009106
256.000000	12.071959
255.000000	12.172138
254.000000	12.262589
253.000000	12.357360
252.000000	12.455937
251.000000	12.584545
250.000000	12.640149
249.000000	12.762925
248.000000	12.841989
247.000000	12.891251
246.000000	12.978385
245.000000	13.058174
244.000000	13.194792
243.000000	13.305272
242.000000	13.455793
241.000000	13.590969
240.000000	13.801917
239.000000	14.052733
238.000000	14.351816
237.000000	14.617655
236.000000	14.857525
235.000000	15.230780
234.000000	15.555841
233.000000	15.805222
232.000000	16.067286
231.000000	16.249498
230.000000	16.417264
229.000000	16.489630
228.000000	16.583081
227.000000	16.727241
226.000000	16.804154
225.000000	16.870051
224.000000	17.014753
223.000000	17.188213
222.000000	17.311306
221.000000	17.403012
220.000000	17.558045
219.000000	17.825678
218.000000	18.044061
217.000000	18.245774
216.000000	18.584035
215.000000	18.967556
214.000000	19.310389
213.000000	19.587384
212.000000	19.918067
211.000000	20.301887
210.000000	20.819704
209.000000	21.183104
208.000000	21.674876
207.000000	22.257356
206.000000	22.911726
205.000000	23.618399
204.000000	24.275252
203.000000	24.999217
202.000000	25.841237
201.000000	26.906601
200.000000	27.958578
