PE UV       SUBTECH     SPECTRUM    ASCII       PEDS        4.00        
   -1
RDVeauAl 22.Sample.asc
18/03/05
09:44:27.00
18/03/05
09:44:27.00
Administrator

200.000000
1
Lambda 750
750N8071901
PerkinElmer UV WinLab 6.0.4.0738 / 1.61.00 Lambda 900

0
0
3350/servo 860.8/2
0
0
UV/VIS
1
1
1
CommonBeamDepol,150mm sphere / downward view
0
0
0
0
Program
Program
3350/servo 860.8/2
3350/0.2 860.8/0.2
3350/0.2 860.8/0.2
0
1
 
 
 
0
 
860.8
319.2
860.8
Front
100
on
 
 
0
0
0
 
0
 
 
 
0
 
 
0
0
0
0
0
 
 
 
 
0
0


0
0
#HDR
-1
-1
#GR
nm
%R
1.0
0.0
2350.000000
-1.000000
2151
8
66.083916
15.712334
#DATA
2350.000000	29.991547
2349.000000	30.500057
2348.000000	30.170315
2347.000000	31.157377
2346.000000	30.324463
2345.000000	30.132826
2344.000000	30.283095
2343.000000	30.337078
2342.000000	30.339398
2341.000000	30.506029
2340.000000	30.627430
2339.000000	30.890767
2338.000000	30.766689
2337.000000	30.812403
2336.000000	30.921088
2335.000000	30.922139
2334.000000	30.734821
2333.000000	31.183263
2332.000000	31.252538
2331.000000	30.925849
2330.000000	30.937864
2329.000000	30.774617
2328.000000	30.811881
2327.000000	30.743428
2326.000000	30.766871
2325.000000	30.778762
2324.000000	30.791338
2323.000000	30.942148
2322.000000	30.870090
2321.000000	30.747610
2320.000000	30.471570
2319.000000	30.594110
2318.000000	30.434466
2317.000000	30.692132
2316.000000	30.394565
2315.000000	30.127824
2314.000000	30.200216
2313.000000	30.183714
2312.000000	30.107768
2311.000000	30.061096
2310.000000	29.944192
2309.000000	30.228992
2308.000000	29.759855
2307.000000	29.687714
2306.000000	29.833046
2305.000000	29.751742
2304.000000	29.700646
2303.000000	29.746282
2302.000000	29.659823
2301.000000	29.455020
2300.000000	29.488730
2299.000000	29.548355
2298.000000	29.368226
2297.000000	29.126992
2296.000000	29.095957
2295.000000	29.074845
2294.000000	28.924073
2293.000000	28.830921
2292.000000	28.548501
2291.000000	28.589483
2290.000000	28.548537
2289.000000	28.355032
2288.000000	28.488011
2287.000000	28.473279
2286.000000	28.328203
2285.000000	28.373840
2284.000000	28.363004
2283.000000	28.208230
2282.000000	28.226944
2281.000000	28.386399
2280.000000	28.359606
2279.000000	28.361104
2278.000000	28.451785
2277.000000	28.370014
2276.000000	28.219890
2275.000000	28.415196
2274.000000	28.530971
2273.000000	28.563916
2272.000000	28.630429
2271.000000	28.554001
2270.000000	28.509130
2269.000000	28.632774
2268.000000	28.562247
2267.000000	28.646320
2266.000000	28.777741
2265.000000	28.918038
2264.000000	28.934012
2263.000000	28.901174
2262.000000	29.087561
2261.000000	29.405867
2260.000000	29.561892
2259.000000	29.688589
2258.000000	29.920838
2257.000000	30.031851
2256.000000	30.055014
2255.000000	30.170121
2254.000000	30.589271
2253.000000	30.717122
2252.000000	30.756475
2251.000000	31.041386
2250.000000	31.205874
2249.000000	31.404360
2248.000000	31.538902
2247.000000	31.659499
2246.000000	31.881487
2245.000000	32.073413
2244.000000	32.290224
2243.000000	32.529968
2242.000000	32.676652
2241.000000	32.730149
2240.000000	32.805840
2239.000000	32.948854
2238.000000	33.054131
2237.000000	33.128259
2236.000000	33.160432
2235.000000	33.304076
2234.000000	33.437919
2233.000000	33.491121
2232.000000	33.489745
2231.000000	33.498959
2230.000000	33.500898
2229.000000	33.562895
2228.000000	33.748185
2227.000000	33.808585
2226.000000	33.721612
2225.000000	33.654552
2224.000000	33.683916
2223.000000	33.618214
2222.000000	33.583266
2221.000000	33.591982
2220.000000	33.638969
2219.000000	33.601162
2218.000000	33.515628
2217.000000	33.533479
2216.000000	33.380886
2215.000000	33.343557
2214.000000	33.486848
2213.000000	33.487966
2212.000000	33.358422
2211.000000	33.190186
2210.000000	33.260451
2209.000000	33.172427
2208.000000	33.025302
2207.000000	33.057554
2206.000000	32.950193
2205.000000	32.754274
2204.000000	32.807920
2203.000000	32.771225
2202.000000	32.643467
2201.000000	32.664923
2200.000000	32.609871
2199.000000	32.572465
2198.000000	32.418971
2197.000000	32.223739
2196.000000	32.059854
2195.000000	32.077663
2194.000000	32.044844
2193.000000	32.113541
2192.000000	32.049816
2191.000000	31.959529
2190.000000	31.905324
2189.000000	31.913164
2188.000000	31.689343
2187.000000	31.645814
2186.000000	31.748844
2185.000000	31.677268
2184.000000	31.696475
2183.000000	31.769801
2182.000000	31.716606
2181.000000	31.646231
2180.000000	31.555549
2179.000000	31.528166
2178.000000	31.447403
2177.000000	31.592416
2176.000000	31.550732
2175.000000	31.640806
2174.000000	31.509767
2173.000000	31.660172
2172.000000	31.900578
2171.000000	31.772358
2170.000000	31.818466
2169.000000	31.806169
2168.000000	31.958456
2167.000000	32.027567
2166.000000	32.158219
2165.000000	32.120413
2164.000000	32.232404
2163.000000	32.296813
2162.000000	32.582475
2161.000000	32.653076
2160.000000	32.835211
2159.000000	32.955235
2158.000000	32.832736
2157.000000	33.122304
2156.000000	33.265162
2155.000000	33.241040
2154.000000	33.543314
2153.000000	33.922028
2152.000000	33.656314
2151.000000	33.774647
2150.000000	34.119966
2149.000000	34.083317
2148.000000	34.369643
2147.000000	34.518532
2146.000000	34.553277
2145.000000	34.849580
2144.000000	35.081770
2143.000000	35.086344
2142.000000	35.127312
2141.000000	35.534989
2140.000000	35.292727
2139.000000	35.643201
2138.000000	35.938244
2137.000000	35.747993
2136.000000	35.904953
2135.000000	35.936036
2134.000000	36.073972
2133.000000	36.133323
2132.000000	36.252809
2131.000000	36.327829
2130.000000	36.594984
2129.000000	36.567072
2128.000000	36.397891
2127.000000	36.635870
2126.000000	36.567756
2125.000000	36.553391
2124.000000	36.829084
2123.000000	36.850434
2122.000000	36.922383
2121.000000	36.976700
2120.000000	36.954774
2119.000000	36.827424
2118.000000	37.074914
2117.000000	36.995155
2116.000000	37.060381
2115.000000	37.173206
2114.000000	37.256310
2113.000000	37.281920
2112.000000	37.333572
2111.000000	37.314500
2110.000000	37.219308
2109.000000	37.229946
2108.000000	37.267639
2107.000000	37.240534
2106.000000	37.365690
2105.000000	37.295554
2104.000000	37.348698
2103.000000	37.327397
2102.000000	37.356713
2101.000000	37.450578
2100.000000	37.471218
2099.000000	37.371991
2098.000000	37.370321
2097.000000	37.354679
2096.000000	37.370052
2095.000000	37.377455
2094.000000	37.411531
2093.000000	37.338796
2092.000000	37.418015
2091.000000	37.379829
2090.000000	37.345546
2089.000000	37.398986
2088.000000	37.309660
2087.000000	37.333410
2086.000000	37.368517
2085.000000	37.302004
2084.000000	37.145833
2083.000000	37.030930
2082.000000	37.052972
2081.000000	36.989228
2080.000000	36.897481
2079.000000	36.901639
2078.000000	36.791800
2077.000000	36.712895
2076.000000	36.657643
2075.000000	36.526692
2074.000000	36.437538
2073.000000	36.312311
2072.000000	36.247837
2071.000000	36.181186
2070.000000	36.032029
2069.000000	35.821116
2068.000000	35.700670
2067.000000	35.587112
2066.000000	35.502220
2065.000000	35.342717
2064.000000	35.223611
2063.000000	35.055603
2062.000000	34.934723
2061.000000	34.810982
2060.000000	34.665736
2059.000000	34.542832
2058.000000	34.363034
2057.000000	34.147818
2056.000000	34.080530
2055.000000	33.980295
2054.000000	33.733897
2053.000000	33.587442
2052.000000	33.529814
2051.000000	33.455294
2050.000000	33.394250
2049.000000	33.280932
2048.000000	33.142824
2047.000000	33.052169
2046.000000	33.017479
2045.000000	32.968939
2044.000000	32.972296
2043.000000	32.944762
2042.000000	32.899522
2041.000000	33.041540
2040.000000	33.099039
2039.000000	33.065117
2038.000000	33.076162
2037.000000	33.102063
2036.000000	33.198977
2035.000000	33.304815
2034.000000	33.417685
2033.000000	33.581512
2032.000000	33.713460
2031.000000	33.768532
2030.000000	33.876119
2029.000000	34.057734
2028.000000	34.199178
2027.000000	34.321180
2026.000000	34.424149
2025.000000	34.513064
2024.000000	34.590480
2023.000000	34.705022
2022.000000	34.806748
2021.000000	34.872745
2020.000000	34.998001
2019.000000	35.031193
2018.000000	35.011982
2017.000000	35.068004
2016.000000	35.090173
2015.000000	35.106602
2014.000000	35.172774
2013.000000	35.166652
2012.000000	35.107150
2011.000000	35.112922
2010.000000	35.113790
2009.000000	35.041966
2008.000000	34.967148
2007.000000	34.920157
2006.000000	34.848843
2005.000000	34.767767
2004.000000	34.669107
2003.000000	34.616158
2002.000000	34.571858
2001.000000	34.495034
2000.000000	34.411879
1999.000000	34.342794
1998.000000	34.244164
1997.000000	34.154129
1996.000000	34.063112
1995.000000	33.978266
1994.000000	33.862647
1993.000000	33.787547
1992.000000	33.701308
1991.000000	33.598751
1990.000000	33.544393
1989.000000	33.442934
1988.000000	33.357281
1987.000000	33.237796
1986.000000	33.157555
1985.000000	33.088727
1984.000000	32.968648
1983.000000	32.884282
1982.000000	32.803384
1981.000000	32.719637
1980.000000	32.630515
1979.000000	32.513760
1978.000000	32.448251
1977.000000	32.367028
1976.000000	32.298146
1975.000000	32.188823
1974.000000	32.084016
1973.000000	32.005415
1972.000000	31.947455
1971.000000	31.828762
1970.000000	31.765054
1969.000000	31.712231
1968.000000	31.658338
1967.000000	31.541124
1966.000000	31.459259
1965.000000	31.353516
1964.000000	31.279840
1963.000000	31.178780
1962.000000	31.101937
1961.000000	31.007603
1960.000000	30.977180
1959.000000	30.872033
1958.000000	30.772059
1957.000000	30.702137
1956.000000	30.635984
1955.000000	30.572527
1954.000000	30.566397
1953.000000	30.461311
1952.000000	30.419466
1951.000000	30.452429
1950.000000	30.374172
1949.000000	30.352348
1948.000000	30.229623
1947.000000	30.249560
1946.000000	30.280057
1945.000000	30.259112
1944.000000	30.267404
1943.000000	30.296706
1942.000000	30.358332
1941.000000	30.340058
1940.000000	30.345671
1939.000000	30.465797
1938.000000	30.501121
1937.000000	30.670476
1936.000000	30.736111
1935.000000	30.727857
1934.000000	30.860763
1933.000000	31.027232
1932.000000	31.055845
1931.000000	31.217898
1930.000000	31.362483
1929.000000	31.620644
1928.000000	31.721951
1927.000000	31.949415
1926.000000	32.236337
1925.000000	32.421724
1924.000000	32.612709
1923.000000	32.734356
1922.000000	33.058915
1921.000000	33.403516
1920.000000	33.638059
1919.000000	33.885228
1918.000000	34.139601
1917.000000	34.556892
1916.000000	34.739509
1915.000000	35.142686
1914.000000	35.577707
1913.000000	35.940681
1912.000000	36.226506
1911.000000	36.547883
1910.000000	37.012818
1909.000000	37.319438
1908.000000	37.771442
1907.000000	38.117833
1906.000000	38.581587
1905.000000	39.027669
1904.000000	39.459776
1903.000000	39.902914
1902.000000	40.360215
1901.000000	40.853334
1900.000000	41.283043
1899.000000	41.846300
1898.000000	42.279032
1897.000000	42.681292
1896.000000	43.126102
1895.000000	43.660998
1894.000000	44.086163
1893.000000	44.542678
1892.000000	44.928465
1891.000000	45.327328
1890.000000	45.828953
1889.000000	46.293421
1888.000000	46.642751
1887.000000	47.004061
1886.000000	47.411592
1885.000000	47.726603
1884.000000	48.109154
1883.000000	48.507590
1882.000000	48.819418
1881.000000	49.056231
1880.000000	49.390268
1879.000000	49.705541
1878.000000	49.941051
1877.000000	50.210401
1876.000000	50.409912
1875.000000	50.661980
1874.000000	50.845845
1873.000000	51.104334
1872.000000	51.281379
1871.000000	51.452085
1870.000000	51.557679
1869.000000	51.747519
1868.000000	51.882398
1867.000000	51.973512
1866.000000	51.994101
1865.000000	52.084128
1864.000000	52.203737
1863.000000	52.244357
1862.000000	52.358520
1861.000000	52.392475
1860.000000	52.436090
1859.000000	52.449668
1858.000000	52.494461
1857.000000	52.558695
1856.000000	52.589702
1855.000000	52.591226
1854.000000	52.655220
1853.000000	52.672560
1852.000000	52.683137
1851.000000	52.678446
1850.000000	52.704253
1849.000000	52.669154
1848.000000	52.693451
1847.000000	52.671852
1846.000000	52.646216
1845.000000	52.680713
1844.000000	52.643245
1843.000000	52.598713
1842.000000	52.577141
1841.000000	52.544657
1840.000000	52.495433
1839.000000	52.486000
1838.000000	52.431417
1837.000000	52.372381
1836.000000	52.368745
1835.000000	52.321964
1834.000000	52.255186
1833.000000	52.223706
1832.000000	52.165003
1831.000000	52.121304
1830.000000	52.112392
1829.000000	52.088132
1828.000000	52.039419
1827.000000	51.978622
1826.000000	51.921747
1825.000000	51.886095
1824.000000	51.850703
1823.000000	51.807867
1822.000000	51.783340
1821.000000	51.720298
1820.000000	51.674766
1819.000000	51.648804
1818.000000	51.642200
1817.000000	51.612514
1816.000000	51.560568
1815.000000	51.521710
1814.000000	51.466659
1813.000000	51.453318
1812.000000	51.421611
1811.000000	51.393375
1810.000000	51.367206
1809.000000	51.329294
1808.000000	51.297827
1807.000000	51.258094
1806.000000	51.214765
1805.000000	51.179495
1804.000000	51.162906
1803.000000	51.141977
1802.000000	51.085551
1801.000000	51.049684
1800.000000	51.041350
1799.000000	50.985234
1798.000000	50.955461
1797.000000	50.962833
1796.000000	50.944982
1795.000000	50.922754
1794.000000	50.892503
1793.000000	50.861483
1792.000000	50.833272
1791.000000	50.807413
1790.000000	50.787554
1789.000000	50.758074
1788.000000	50.715606
1787.000000	50.676269
1786.000000	50.652058
1785.000000	50.644414
1784.000000	50.614312
1783.000000	50.592573
1782.000000	50.566685
1781.000000	50.508680
1780.000000	50.451386
1779.000000	50.412751
1778.000000	50.374015
1777.000000	50.284164
1776.000000	50.242218
1775.000000	50.194411
1774.000000	50.150569
1773.000000	50.100738
1772.000000	50.022800
1771.000000	49.955366
1770.000000	49.877588
1769.000000	49.824261
1768.000000	49.762441
1767.000000	49.729134
1766.000000	49.674337
1765.000000	49.614495
1764.000000	49.579649
1763.000000	49.540763
1762.000000	49.445688
1761.000000	49.371270
1760.000000	49.300766
1759.000000	49.259134
1758.000000	49.178598
1757.000000	49.133548
1756.000000	49.103214
1755.000000	49.032371
1754.000000	48.971063
1753.000000	48.876419
1752.000000	48.845031
1751.000000	48.807369
1750.000000	48.718756
1749.000000	48.666604
1748.000000	48.612616
1747.000000	48.529062
1746.000000	48.463909
1745.000000	48.395067
1744.000000	48.305872
1743.000000	48.280685
1742.000000	48.199256
1741.000000	48.172935
1740.000000	48.118261
1739.000000	48.058298
1738.000000	48.011082
1737.000000	47.949404
1736.000000	47.948078
1735.000000	47.961210
1734.000000	47.920954
1733.000000	47.899557
1732.000000	47.904582
1731.000000	47.916584
1730.000000	47.952587
1729.000000	47.989804
1728.000000	48.053717
1727.000000	48.081706
1726.000000	48.177679
1725.000000	48.245970
1724.000000	48.309374
1723.000000	48.420760
1722.000000	48.513512
1721.000000	48.598403
1720.000000	48.712805
1719.000000	48.793206
1718.000000	48.874665
1717.000000	48.998041
1716.000000	49.102575
1715.000000	49.182127
1714.000000	49.230754
1713.000000	49.337318
1712.000000	49.415525
1711.000000	49.510883
1710.000000	49.536105
1709.000000	49.611021
1708.000000	49.682365
1707.000000	49.707431
1706.000000	49.748968
1705.000000	49.753378
1704.000000	49.787545
1703.000000	49.835065
1702.000000	49.805821
1701.000000	49.865915
1700.000000	49.881034
1699.000000	49.861439
1698.000000	49.920666
1697.000000	49.968015
1696.000000	49.984416
1695.000000	49.991524
1694.000000	50.050870
1693.000000	50.124311
1692.000000	50.166364
1691.000000	50.254164
1690.000000	50.362829
1689.000000	50.445650
1688.000000	50.527557
1687.000000	50.661515
1686.000000	50.824853
1685.000000	50.942008
1684.000000	51.094872
1683.000000	51.250103
1682.000000	51.442096
1681.000000	51.600154
1680.000000	51.791116
1679.000000	52.007065
1678.000000	52.167386
1677.000000	52.341736
1676.000000	52.558834
1675.000000	52.767769
1674.000000	52.918528
1673.000000	53.146040
1672.000000	53.324756
1671.000000	53.470638
1670.000000	53.637623
1669.000000	53.792632
1668.000000	53.930453
1667.000000	54.096851
1666.000000	54.191259
1665.000000	54.301843
1664.000000	54.415772
1663.000000	54.495926
1662.000000	54.580526
1661.000000	54.693894
1660.000000	54.745645
1659.000000	54.803239
1658.000000	54.880118
1657.000000	54.915023
1656.000000	54.988544
1655.000000	55.007396
1654.000000	55.036016
1653.000000	55.063696
1652.000000	55.074897
1651.000000	55.061323
1650.000000	55.086714
1649.000000	55.089342
1648.000000	55.088666
1647.000000	55.085189
1646.000000	55.057598
1645.000000	55.045194
1644.000000	55.037526
1643.000000	55.010933
1642.000000	54.986121
1641.000000	54.945777
1640.000000	54.928316
1639.000000	54.898884
1638.000000	54.881830
1637.000000	54.863117
1636.000000	54.817954
1635.000000	54.786584
1634.000000	54.750649
1633.000000	54.699089
1632.000000	54.664568
1631.000000	54.613365
1630.000000	54.571353
1629.000000	54.531212
1628.000000	54.489457
1627.000000	54.424366
1626.000000	54.394287
1625.000000	54.356964
1624.000000	54.298910
1623.000000	54.243116
1622.000000	54.185896
1621.000000	54.146209
1620.000000	54.112194
1619.000000	54.045850
1618.000000	53.985106
1617.000000	53.934705
1616.000000	53.861061
1615.000000	53.804154
1614.000000	53.761451
1613.000000	53.714502
1612.000000	53.640747
1611.000000	53.565267
1610.000000	53.512690
1609.000000	53.461651
1608.000000	53.399224
1607.000000	53.322572
1606.000000	53.263244
1605.000000	53.199438
1604.000000	53.108629
1603.000000	53.039362
1602.000000	52.994177
1601.000000	52.938855
1600.000000	52.871356
1599.000000	52.816670
1598.000000	52.750954
1597.000000	52.700383
1596.000000	52.637644
1595.000000	52.569807
1594.000000	52.522454
1593.000000	52.475632
1592.000000	52.420656
1591.000000	52.356968
1590.000000	52.308761
1589.000000	52.263638
1588.000000	52.203671
1587.000000	52.145333
1586.000000	52.090802
1585.000000	52.036171
1584.000000	52.005174
1583.000000	51.959628
1582.000000	51.895666
1581.000000	51.851773
1580.000000	51.808522
1579.000000	51.772772
1578.000000	51.734259
1577.000000	51.681706
1576.000000	51.643552
1575.000000	51.582397
1574.000000	51.530195
1573.000000	51.494969
1572.000000	51.459108
1571.000000	51.428163
1570.000000	51.375949
1569.000000	51.328272
1568.000000	51.295020
1567.000000	51.247292
1566.000000	51.216287
1565.000000	51.187148
1564.000000	51.157756
1563.000000	51.144828
1562.000000	51.110336
1561.000000	51.077419
1560.000000	51.057563
1559.000000	51.047009
1558.000000	51.026406
1557.000000	51.024324
1556.000000	51.007564
1555.000000	50.977920
1554.000000	50.966015
1553.000000	50.949295
1552.000000	50.895428
1551.000000	50.848142
1550.000000	50.820124
1549.000000	50.785422
1548.000000	50.751978
1547.000000	50.688134
1546.000000	50.640725
1545.000000	50.560116
1544.000000	50.487071
1543.000000	50.421735
1542.000000	50.353962
1541.000000	50.265497
1540.000000	50.174367
1539.000000	50.080163
1538.000000	50.007809
1537.000000	49.921816
1536.000000	49.818578
1535.000000	49.746586
1534.000000	49.662465
1533.000000	49.569308
1532.000000	49.470966
1531.000000	49.391557
1530.000000	49.306979
1529.000000	49.216916
1528.000000	49.123017
1527.000000	49.051673
1526.000000	48.977501
1525.000000	48.920744
1524.000000	48.840749
1523.000000	48.787033
1522.000000	48.719163
1521.000000	48.681188
1520.000000	48.636643
1519.000000	48.607760
1518.000000	48.563592
1517.000000	48.504494
1516.000000	48.481867
1515.000000	48.458899
1514.000000	48.397456
1513.000000	48.374615
1512.000000	48.355590
1511.000000	48.328839
1510.000000	48.310254
1509.000000	48.305694
1508.000000	48.277251
1507.000000	48.267886
1506.000000	48.251147
1505.000000	48.219667
1504.000000	48.236285
1503.000000	48.245925
1502.000000	48.230663
1501.000000	48.236454
1500.000000	48.247167
1499.000000	48.238159
1498.000000	48.261425
1497.000000	48.271139
1496.000000	48.299748
1495.000000	48.325752
1494.000000	48.369632
1493.000000	48.390761
1492.000000	48.412911
1491.000000	48.478354
1490.000000	48.536009
1489.000000	48.575156
1488.000000	48.655318
1487.000000	48.707468
1486.000000	48.766405
1485.000000	48.834738
1484.000000	48.891832
1483.000000	48.978443
1482.000000	49.056833
1481.000000	49.125851
1480.000000	49.215712
1479.000000	49.274228
1478.000000	49.353997
1477.000000	49.441575
1476.000000	49.494856
1475.000000	49.572263
1474.000000	49.626827
1473.000000	49.708221
1472.000000	49.783153
1471.000000	49.843361
1470.000000	49.914238
1469.000000	49.982509
1468.000000	50.047867
1467.000000	50.111448
1466.000000	50.167867
1465.000000	50.218893
1464.000000	50.272713
1463.000000	50.348797
1462.000000	50.409287
1461.000000	50.460685
1460.000000	50.512573
1459.000000	50.597246
1458.000000	50.642995
1457.000000	50.682058
1456.000000	50.756713
1455.000000	50.830865
1454.000000	50.900388
1453.000000	50.970017
1452.000000	51.054765
1451.000000	51.132479
1450.000000	51.207991
1449.000000	51.263445
1448.000000	51.341894
1447.000000	51.417501
1446.000000	51.496991
1445.000000	51.572825
1444.000000	51.679585
1443.000000	51.777408
1442.000000	51.861842
1441.000000	51.958395
1440.000000	52.051302
1439.000000	52.156070
1438.000000	52.237567
1437.000000	52.341290
1436.000000	52.445430
1435.000000	52.576536
1434.000000	52.670473
1433.000000	52.797254
1432.000000	52.912547
1431.000000	53.035438
1430.000000	53.156895
1429.000000	53.293333
1428.000000	53.436074
1427.000000	53.572992
1426.000000	53.705184
1425.000000	53.855202
1424.000000	54.003230
1423.000000	54.179981
1422.000000	54.346309
1421.000000	54.514173
1420.000000	54.666059
1419.000000	54.823495
1418.000000	54.996163
1417.000000	55.182074
1416.000000	55.361162
1415.000000	55.530294
1414.000000	55.693356
1413.000000	55.887463
1412.000000	56.074612
1411.000000	56.248793
1410.000000	56.413485
1409.000000	56.615545
1408.000000	56.797448
1407.000000	56.964937
1406.000000	57.135608
1405.000000	57.303002
1404.000000	57.463619
1403.000000	57.632152
1402.000000	57.792592
1401.000000	57.968479
1400.000000	58.124852
1399.000000	58.271430
1398.000000	58.432428
1397.000000	58.584605
1396.000000	58.732043
1395.000000	58.858340
1394.000000	58.991011
1393.000000	59.133770
1392.000000	59.262244
1391.000000	59.387981
1390.000000	59.509165
1389.000000	59.629928
1388.000000	59.756844
1387.000000	59.863181
1386.000000	59.964982
1385.000000	60.068074
1384.000000	60.167265
1383.000000	60.265212
1382.000000	60.340949
1381.000000	60.411193
1380.000000	60.502758
1379.000000	60.599523
1378.000000	60.674221
1377.000000	60.749353
1376.000000	60.799898
1375.000000	60.842104
1374.000000	60.899120
1373.000000	60.975541
1372.000000	61.032370
1371.000000	61.080018
1370.000000	61.128366
1369.000000	61.176313
1368.000000	61.231970
1367.000000	61.286974
1366.000000	61.343395
1365.000000	61.397444
1364.000000	61.453376
1363.000000	61.511145
1362.000000	61.559388
1361.000000	61.630379
1360.000000	61.695811
1359.000000	61.762888
1358.000000	61.822932
1357.000000	61.865548
1356.000000	61.934010
1355.000000	61.998997
1354.000000	62.071158
1353.000000	62.120814
1352.000000	62.184901
1351.000000	62.265554
1350.000000	62.322446
1349.000000	62.362393
1348.000000	62.431722
1347.000000	62.495687
1346.000000	62.563823
1345.000000	62.620081
1344.000000	62.664980
1343.000000	62.723821
1342.000000	62.781346
1341.000000	62.836872
1340.000000	62.878943
1339.000000	62.944385
1338.000000	63.002237
1337.000000	63.027426
1336.000000	63.058771
1335.000000	63.101802
1334.000000	63.143783
1333.000000	63.202933
1332.000000	63.280405
1331.000000	63.319214
1330.000000	63.336652
1329.000000	63.358738
1328.000000	63.365268
1327.000000	63.427328
1326.000000	63.434671
1325.000000	63.463416
1324.000000	63.486027
1323.000000	63.510398
1322.000000	63.520073
1321.000000	63.558157
1320.000000	63.559914
1319.000000	63.557873
1318.000000	63.573959
1317.000000	63.605697
1316.000000	63.644504
1315.000000	63.657462
1314.000000	63.634634
1313.000000	63.642996
1312.000000	63.696467
1311.000000	63.697952
1310.000000	63.713154
1309.000000	63.747859
1308.000000	63.747014
1307.000000	63.748201
1306.000000	63.742478
1305.000000	63.759265
1304.000000	63.802844
1303.000000	63.804097
1302.000000	63.795376
1301.000000	63.802778
1300.000000	63.796530
1299.000000	63.793812
1298.000000	63.801605
1297.000000	63.814053
1296.000000	63.804747
1295.000000	63.803222
1294.000000	63.816905
1293.000000	63.802856
1292.000000	63.804852
1291.000000	63.827980
1290.000000	63.795700
1289.000000	63.807304
1288.000000	63.807175
1287.000000	63.779259
1286.000000	63.795662
1285.000000	63.782647
1284.000000	63.773936
1283.000000	63.767666
1282.000000	63.775238
1281.000000	63.778004
1280.000000	63.737870
1279.000000	63.730643
1278.000000	63.745733
1277.000000	63.761591
1276.000000	63.758954
1275.000000	63.784181
1274.000000	63.768481
1273.000000	63.767669
1272.000000	63.768847
1271.000000	63.760198
1270.000000	63.763115
1269.000000	63.769556
1268.000000	63.790591
1267.000000	63.793213
1266.000000	63.822373
1265.000000	63.816818
1264.000000	63.852437
1263.000000	63.849220
1262.000000	63.831254
1261.000000	63.848201
1260.000000	63.888409
1259.000000	63.899006
1258.000000	63.905495
1257.000000	63.901670
1256.000000	63.906105
1255.000000	63.891197
1254.000000	63.906822
1253.000000	63.924905
1252.000000	63.911720
1251.000000	63.912616
1250.000000	63.912638
1249.000000	63.914957
1248.000000	63.895384
1247.000000	63.914797
1246.000000	63.887261
1245.000000	63.897093
1244.000000	63.896311
1243.000000	63.869480
1242.000000	63.844473
1241.000000	63.844830
1240.000000	63.807058
1239.000000	63.775598
1238.000000	63.750889
1237.000000	63.746798
1236.000000	63.729254
1235.000000	63.685234
1234.000000	63.659067
1233.000000	63.654304
1232.000000	63.631601
1231.000000	63.594071
1230.000000	63.589942
1229.000000	63.575037
1228.000000	63.555292
1227.000000	63.540411
1226.000000	63.506713
1225.000000	63.459581
1224.000000	63.465266
1223.000000	63.426203
1222.000000	63.395507
1221.000000	63.380435
1220.000000	63.392091
1219.000000	63.355669
1218.000000	63.338059
1217.000000	63.306085
1216.000000	63.284533
1215.000000	63.267995
1214.000000	63.233972
1213.000000	63.211718
1212.000000	63.150924
1211.000000	63.119443
1210.000000	63.108520
1209.000000	63.072379
1208.000000	63.037749
1207.000000	63.004735
1206.000000	62.969899
1205.000000	62.917467
1204.000000	62.905034
1203.000000	62.861713
1202.000000	62.829840
1201.000000	62.793869
1200.000000	62.772166
1199.000000	62.757009
1198.000000	62.696056
1197.000000	62.670331
1196.000000	62.648500
1195.000000	62.630437
1194.000000	62.590741
1193.000000	62.570677
1192.000000	62.568500
1191.000000	62.560890
1190.000000	62.532571
1189.000000	62.484821
1188.000000	62.482089
1187.000000	62.495251
1186.000000	62.489319
1185.000000	62.497368
1184.000000	62.502922
1183.000000	62.516598
1182.000000	62.551428
1181.000000	62.578076
1180.000000	62.606597
1179.000000	62.647558
1178.000000	62.682497
1177.000000	62.723181
1176.000000	62.762051
1175.000000	62.825753
1174.000000	62.869262
1173.000000	62.914133
1172.000000	62.972677
1171.000000	63.027718
1170.000000	63.097291
1169.000000	63.157455
1168.000000	63.221060
1167.000000	63.300330
1166.000000	63.372683
1165.000000	63.452015
1164.000000	63.532997
1163.000000	63.592355
1162.000000	63.662851
1161.000000	63.751744
1160.000000	63.835130
1159.000000	63.890020
1158.000000	63.936904
1157.000000	64.010993
1156.000000	64.083109
1155.000000	64.126724
1154.000000	64.172002
1153.000000	64.249910
1152.000000	64.314616
1151.000000	64.365088
1150.000000	64.422296
1149.000000	64.474871
1148.000000	64.514264
1147.000000	64.559962
1146.000000	64.614931
1145.000000	64.650280
1144.000000	64.689063
1143.000000	64.737409
1142.000000	64.779241
1141.000000	64.821465
1140.000000	64.872887
1139.000000	64.899208
1138.000000	64.941779
1137.000000	64.985725
1136.000000	65.020041
1135.000000	65.045082
1134.000000	65.085794
1133.000000	65.120495
1132.000000	65.121351
1131.000000	65.156235
1130.000000	65.205497
1129.000000	65.237402
1128.000000	65.260105
1127.000000	65.284555
1126.000000	65.302771
1125.000000	65.309059
1124.000000	65.323415
1123.000000	65.350095
1122.000000	65.370792
1121.000000	65.389427
1120.000000	65.413275
1119.000000	65.431313
1118.000000	65.430298
1117.000000	65.420327
1116.000000	65.439527
1115.000000	65.445793
1114.000000	65.458400
1113.000000	65.464091
1112.000000	65.461404
1111.000000	65.462561
1110.000000	65.471093
1109.000000	65.483152
1108.000000	65.493733
1107.000000	65.485382
1106.000000	65.487426
1105.000000	65.491496
1104.000000	65.477036
1103.000000	65.504357
1102.000000	65.496897
1101.000000	65.499540
1100.000000	65.513644
1099.000000	65.515063
1098.000000	65.510294
1097.000000	65.492103
1096.000000	65.511912
1095.000000	65.514710
1094.000000	65.516574
1093.000000	65.519273
1092.000000	65.527453
1091.000000	65.507881
1090.000000	65.496495
1089.000000	65.506228
1088.000000	65.507175
1087.000000	65.524999
1086.000000	65.524737
1085.000000	65.505838
1084.000000	65.500483
1083.000000	65.500332
1082.000000	65.500294
1081.000000	65.514115
1080.000000	65.501106
1079.000000	65.505657
1078.000000	65.478758
1077.000000	65.450740
1076.000000	65.475139
1075.000000	65.472352
1074.000000	65.474793
1073.000000	65.476699
1072.000000	65.472143
1071.000000	65.453110
1070.000000	65.436153
1069.000000	65.423893
1068.000000	65.441538
1067.000000	65.414486
1066.000000	65.419378
1065.000000	65.406229
1064.000000	65.421927
1063.000000	65.419540
1062.000000	65.394617
1061.000000	65.379618
1060.000000	65.371540
1059.000000	65.376666
1058.000000	65.372650
1057.000000	65.366396
1056.000000	65.350770
1055.000000	65.342084
1054.000000	65.347405
1053.000000	65.351223
1052.000000	65.348981
1051.000000	65.333894
1050.000000	65.349940
1049.000000	65.316736
1048.000000	65.307284
1047.000000	65.310264
1046.000000	65.302893
1045.000000	65.299078
1044.000000	65.266023
1043.000000	65.267940
1042.000000	65.286972
1041.000000	65.270054
1040.000000	65.271730
1039.000000	65.260628
1038.000000	65.251241
1037.000000	65.252052
1036.000000	65.241705
1035.000000	65.268990
1034.000000	65.250424
1033.000000	65.228031
1032.000000	65.239263
1031.000000	65.244710
1030.000000	65.218294
1029.000000	65.215053
1028.000000	65.201002
1027.000000	65.226254
1026.000000	65.227049
1025.000000	65.226577
1024.000000	65.220896
1023.000000	65.214131
1022.000000	65.229235
1021.000000	65.196301
1020.000000	65.207219
1019.000000	65.219369
1018.000000	65.221908
1017.000000	65.236054
1016.000000	65.220887
1015.000000	65.231136
1014.000000	65.221433
1013.000000	65.239772
1012.000000	65.249840
1011.000000	65.228014
1010.000000	65.227119
1009.000000	65.239238
1008.000000	65.237100
1007.000000	65.252742
1006.000000	65.257775
1005.000000	65.269706
1004.000000	65.263494
1003.000000	65.269316
1002.000000	65.295510
1001.000000	65.286890
1000.000000	65.297839
999.000000	65.302229
998.000000	65.299478
997.000000	65.318890
996.000000	65.311635
995.000000	65.306829
994.000000	65.323139
993.000000	65.324539
992.000000	65.318495
991.000000	65.314517
990.000000	65.348885
989.000000	65.363251
988.000000	65.364336
987.000000	65.362567
986.000000	65.355015
985.000000	65.367079
984.000000	65.381370
983.000000	65.396315
982.000000	65.396745
981.000000	65.397519
980.000000	65.429135
979.000000	65.413413
978.000000	65.433471
977.000000	65.452731
976.000000	65.455040
975.000000	65.450578
974.000000	65.460724
973.000000	65.485360
972.000000	65.483250
971.000000	65.487658
970.000000	65.498452
969.000000	65.501133
968.000000	65.498910
967.000000	65.500725
966.000000	65.521997
965.000000	65.540003
964.000000	65.541205
963.000000	65.549452
962.000000	65.565911
961.000000	65.572995
960.000000	65.576175
959.000000	65.581835
958.000000	65.610771
957.000000	65.616453
956.000000	65.606891
955.000000	65.606055
954.000000	65.607014
953.000000	65.611099
952.000000	65.618689
951.000000	65.626166
950.000000	65.646355
949.000000	65.646159
948.000000	65.620996
947.000000	65.618598
946.000000	65.646599
945.000000	65.652880
944.000000	65.656552
943.000000	65.675239
942.000000	65.657797
941.000000	65.641354
940.000000	65.653345
939.000000	65.651613
938.000000	65.657633
937.000000	65.668642
936.000000	65.661929
935.000000	65.646842
934.000000	65.668380
933.000000	65.658850
932.000000	65.630428
931.000000	65.629781
930.000000	65.642029
929.000000	65.645409
928.000000	65.626207
927.000000	65.616723
926.000000	65.637385
925.000000	65.655956
924.000000	65.663648
923.000000	65.661051
922.000000	65.620098
921.000000	65.660327
920.000000	65.687189
919.000000	65.672677
918.000000	65.681449
917.000000	65.648645
916.000000	65.642132
915.000000	65.649877
914.000000	65.684669
913.000000	65.718227
912.000000	65.680656
911.000000	65.666341
910.000000	65.658296
909.000000	65.653670
908.000000	65.652740
907.000000	65.676848
906.000000	65.710546
905.000000	65.729182
904.000000	65.715367
903.000000	65.708755
902.000000	65.691036
901.000000	65.703347
900.000000	65.687915
899.000000	65.701567
898.000000	65.789529
897.000000	65.755973
896.000000	65.748671
895.000000	65.750810
894.000000	65.776255
893.000000	65.720901
892.000000	65.752606
891.000000	65.786582
890.000000	65.741087
889.000000	65.787625
888.000000	65.852019
887.000000	65.857919
886.000000	65.818414
885.000000	65.862233
884.000000	65.923388
883.000000	65.966724
882.000000	65.769899
881.000000	65.808428
880.000000	65.857192
879.000000	65.874193
878.000000	65.866037
877.000000	65.940548
876.000000	65.966336
875.000000	65.920174
874.000000	65.955118
873.000000	65.810363
872.000000	65.891081
871.000000	65.962087
870.000000	66.050949
869.000000	66.047420
868.000000	66.081834
867.000000	65.934627
866.000000	65.821945
865.000000	65.925568
864.000000	66.025857
863.000000	66.083916
862.000000	65.893217
861.000000	65.886375
860.000000	65.886862
859.000000	65.412480
858.000000	65.552331
857.000000	65.368111
856.000000	65.396286
855.000000	64.819465
854.000000	64.783594
853.000000	65.293269
852.000000	65.446527
851.000000	65.619508
850.000000	65.659086
849.000000	65.823352
848.000000	65.675035
847.000000	65.285194
846.000000	65.716932
845.000000	65.482796
844.000000	65.429633
843.000000	65.354375
842.000000	65.552180
841.000000	65.633347
840.000000	65.464204
839.000000	65.468436
838.000000	65.203216
837.000000	65.474042
836.000000	65.300808
835.000000	65.595974
834.000000	65.415077
833.000000	65.615656
832.000000	65.535593
831.000000	65.506202
830.000000	65.536932
829.000000	65.490788
828.000000	65.171139
827.000000	65.445004
826.000000	65.435481
825.000000	65.461493
824.000000	65.467785
823.000000	65.459341
822.000000	65.394133
821.000000	65.492360
820.000000	65.528955
819.000000	65.427915
818.000000	65.500725
817.000000	65.614441
816.000000	65.529156
815.000000	65.432953
814.000000	65.524945
813.000000	65.564739
812.000000	65.561154
811.000000	65.527125
810.000000	65.593574
809.000000	65.418606
808.000000	65.513936
807.000000	65.516028
806.000000	65.516451
805.000000	65.477675
804.000000	65.739391
803.000000	65.486652
802.000000	65.637772
801.000000	65.477447
800.000000	65.612131
799.000000	65.446627
798.000000	65.561094
797.000000	65.561641
796.000000	65.623239
795.000000	65.586418
794.000000	65.355510
793.000000	65.592217
792.000000	65.534115
791.000000	65.476927
790.000000	65.472226
789.000000	65.573831
788.000000	65.553437
787.000000	65.554860
786.000000	65.606236
785.000000	65.545340
784.000000	65.552634
783.000000	65.540942
782.000000	65.547552
781.000000	65.535218
780.000000	65.605267
779.000000	65.702030
778.000000	65.614067
777.000000	65.634326
776.000000	65.693411
775.000000	65.626531
774.000000	65.591245
773.000000	65.568508
772.000000	65.590952
771.000000	65.617695
770.000000	65.737535
769.000000	65.570616
768.000000	65.591628
767.000000	65.575833
766.000000	65.514249
765.000000	65.605072
764.000000	65.638453
763.000000	65.602986
762.000000	65.591008
761.000000	65.557843
760.000000	65.680337
759.000000	65.717210
758.000000	65.599061
757.000000	65.598978
756.000000	65.643022
755.000000	65.600928
754.000000	65.660875
753.000000	65.669353
752.000000	65.658227
751.000000	65.609320
750.000000	65.646798
749.000000	65.628815
748.000000	65.632012
747.000000	65.592908
746.000000	65.575688
745.000000	65.629158
744.000000	65.659468
743.000000	65.703731
742.000000	65.630677
741.000000	65.697726
740.000000	65.695993
739.000000	65.563599
738.000000	65.575337
737.000000	65.624927
736.000000	65.570022
735.000000	65.559366
734.000000	65.624870
733.000000	65.639230
732.000000	65.608734
731.000000	65.600144
730.000000	65.613196
729.000000	65.584532
728.000000	65.584824
727.000000	65.673863
726.000000	65.709216
725.000000	65.601562
724.000000	65.565806
723.000000	65.569602
722.000000	65.633314
721.000000	65.677866
720.000000	65.659568
719.000000	65.630430
718.000000	65.608639
717.000000	65.647974
716.000000	65.639673
715.000000	65.604082
714.000000	65.595505
713.000000	65.644981
712.000000	65.669617
711.000000	65.615484
710.000000	65.622848
709.000000	65.607553
708.000000	65.585465
707.000000	65.626699
706.000000	65.690045
705.000000	65.718228
704.000000	65.722300
703.000000	65.728185
702.000000	65.775043
701.000000	65.725201
700.000000	65.703635
699.000000	65.728650
698.000000	65.666324
697.000000	65.669819
696.000000	65.737070
695.000000	65.713512
694.000000	65.748933
693.000000	65.736418
692.000000	65.745359
691.000000	65.700400
690.000000	65.666582
689.000000	65.690594
688.000000	65.604873
687.000000	65.627649
686.000000	65.695473
685.000000	65.667355
684.000000	65.666088
683.000000	65.684882
682.000000	65.716333
681.000000	65.695513
680.000000	65.710064
679.000000	65.760571
678.000000	65.728175
677.000000	65.737260
676.000000	65.698040
675.000000	65.690183
674.000000	65.706023
673.000000	65.667409
672.000000	65.658252
671.000000	65.711757
670.000000	65.744917
669.000000	65.751163
668.000000	65.736345
667.000000	65.798544
666.000000	65.778587
665.000000	65.720086
664.000000	65.716077
663.000000	65.795571
662.000000	65.805264
661.000000	65.745771
660.000000	65.802577
659.000000	65.793311
658.000000	65.788137
657.000000	65.803703
656.000000	65.796534
655.000000	65.813606
654.000000	65.854582
653.000000	65.770985
652.000000	65.779932
651.000000	65.762876
650.000000	65.831458
649.000000	65.811839
648.000000	65.856069
647.000000	65.823886
646.000000	65.756372
645.000000	65.782849
644.000000	65.820586
643.000000	65.899073
642.000000	65.854372
641.000000	65.838847
640.000000	65.843249
639.000000	65.836443
638.000000	65.808580
637.000000	65.866931
636.000000	65.887476
635.000000	65.945264
634.000000	65.906419
633.000000	65.852495
632.000000	65.831511
631.000000	65.898218
630.000000	65.939862
629.000000	65.927226
628.000000	65.840090
627.000000	65.928802
626.000000	65.971394
625.000000	65.867688
624.000000	65.879707
623.000000	65.824015
622.000000	65.903222
621.000000	65.856827
620.000000	65.867274
619.000000	65.877744
618.000000	65.921763
617.000000	65.986599
616.000000	65.962530
615.000000	65.934671
614.000000	65.913602
613.000000	65.950011
612.000000	65.939544
611.000000	65.921277
610.000000	65.886126
609.000000	65.931177
608.000000	65.884571
607.000000	65.922555
606.000000	65.874489
605.000000	65.932194
604.000000	65.879120
603.000000	65.954871
602.000000	65.985876
601.000000	65.941507
600.000000	65.950015
599.000000	65.936835
598.000000	65.959334
597.000000	65.977148
596.000000	65.902831
595.000000	65.906942
594.000000	65.972810
593.000000	65.990881
592.000000	65.891624
591.000000	65.882030
590.000000	65.878278
589.000000	65.905485
588.000000	65.860170
587.000000	65.903146
586.000000	65.875748
585.000000	65.926071
584.000000	65.884097
583.000000	65.866277
582.000000	65.905747
581.000000	65.926998
580.000000	65.865439
579.000000	65.898530
578.000000	65.882517
577.000000	65.889551
576.000000	65.872479
575.000000	65.938559
574.000000	65.855542
573.000000	65.867227
572.000000	65.797950
571.000000	65.855144
570.000000	65.828592
569.000000	65.844962
568.000000	65.791724
567.000000	65.875923
566.000000	65.794968
565.000000	65.891204
564.000000	65.767196
563.000000	65.820507
562.000000	65.837565
561.000000	65.811691
560.000000	65.774917
559.000000	65.745310
558.000000	65.821342
557.000000	65.807089
556.000000	65.789537
555.000000	65.815362
554.000000	65.730199
553.000000	65.754323
552.000000	65.714786
551.000000	65.720818
550.000000	65.673097
549.000000	65.760054
548.000000	65.776004
547.000000	65.691957
546.000000	65.691753
545.000000	65.682058
544.000000	65.711388
543.000000	65.708088
542.000000	65.676019
541.000000	65.690830
540.000000	65.633533
539.000000	65.600036
538.000000	65.649947
537.000000	65.633985
536.000000	65.600435
535.000000	65.627322
534.000000	65.575344
533.000000	65.531519
532.000000	65.532711
531.000000	65.561386
530.000000	65.565234
529.000000	65.539103
528.000000	65.501559
527.000000	65.476194
526.000000	65.483500
525.000000	65.463117
524.000000	65.445608
523.000000	65.458123
522.000000	65.421667
521.000000	65.409903
520.000000	65.413738
519.000000	65.388619
518.000000	65.360136
517.000000	65.372895
516.000000	65.332307
515.000000	65.293647
514.000000	65.279292
513.000000	65.269005
512.000000	65.258707
511.000000	65.249058
510.000000	65.215591
509.000000	65.214625
508.000000	65.172277
507.000000	65.159829
506.000000	65.149110
505.000000	65.133518
504.000000	65.106430
503.000000	65.065209
502.000000	65.057231
501.000000	65.077500
500.000000	65.053243
499.000000	65.015747
498.000000	64.956422
497.000000	64.978528
496.000000	64.890074
495.000000	64.854594
494.000000	64.888303
493.000000	64.871649
492.000000	64.860946
491.000000	64.870488
490.000000	64.806139
489.000000	64.767251
488.000000	64.759698
487.000000	64.709791
486.000000	64.643968
485.000000	64.646536
484.000000	64.668521
483.000000	64.662469
482.000000	64.623058
481.000000	64.583497
480.000000	64.519608
479.000000	64.537069
478.000000	64.489491
477.000000	64.444646
476.000000	64.414310
475.000000	64.400837
474.000000	64.356600
473.000000	64.297546
472.000000	64.273686
471.000000	64.263005
470.000000	64.230394
469.000000	64.177429
468.000000	64.139704
467.000000	64.116886
466.000000	64.052200
465.000000	63.994989
464.000000	63.990436
463.000000	63.969697
462.000000	63.905808
461.000000	63.856596
460.000000	63.777536
459.000000	63.735692
458.000000	63.709475
457.000000	63.627009
456.000000	63.572529
455.000000	63.538368
454.000000	63.439458
453.000000	63.348060
452.000000	63.317498
451.000000	63.233525
450.000000	63.181548
449.000000	63.083911
448.000000	62.967288
447.000000	62.917787
446.000000	62.905734
445.000000	62.831161
444.000000	62.750161
443.000000	62.672398
442.000000	62.555912
441.000000	62.463461
440.000000	62.413065
439.000000	62.317113
438.000000	62.278064
437.000000	62.176306
436.000000	62.081410
435.000000	61.993306
434.000000	61.874719
433.000000	61.783768
432.000000	61.765176
431.000000	61.624968
430.000000	61.545860
429.000000	61.442265
428.000000	61.318775
427.000000	61.249457
426.000000	61.207824
425.000000	61.143783
424.000000	60.994835
423.000000	60.851960
422.000000	60.741087
421.000000	60.630361
420.000000	60.561142
419.000000	60.476820
418.000000	60.293258
417.000000	60.202105
416.000000	60.104857
415.000000	59.955581
414.000000	59.835770
413.000000	59.726888
412.000000	59.563758
411.000000	59.407440
410.000000	59.267638
409.000000	59.161254
408.000000	58.958142
407.000000	58.910933
406.000000	58.713341
405.000000	58.560579
404.000000	58.459834
403.000000	58.303900
402.000000	58.110593
401.000000	58.052001
400.000000	57.834045
399.000000	57.699574
398.000000	57.620667
397.000000	57.459362
396.000000	57.270753
395.000000	57.113040
394.000000	56.973635
393.000000	56.736185
392.000000	56.593389
391.000000	56.500647
390.000000	56.378834
389.000000	56.108076
388.000000	55.922997
387.000000	55.865390
386.000000	55.624972
385.000000	55.503627
384.000000	55.363707
383.000000	55.281227
382.000000	55.017388
381.000000	54.836175
380.000000	54.616761
379.000000	54.413406
378.000000	54.200901
377.000000	54.058809
376.000000	53.790539
375.000000	53.663708
374.000000	53.507336
373.000000	53.339981
372.000000	53.150352
371.000000	52.765398
370.000000	52.535787
369.000000	52.466031
368.000000	52.235469
367.000000	52.040900
366.000000	51.741909
365.000000	51.518895
364.000000	51.274820
363.000000	51.104639
362.000000	50.837889
361.000000	50.538278
360.000000	50.377058
359.000000	49.988154
358.000000	49.905540
357.000000	49.680896
356.000000	49.189272
355.000000	49.081142
354.000000	48.819112
353.000000	48.639084
352.000000	48.428208
351.000000	48.024215
350.000000	47.781459
349.000000	47.466597
348.000000	47.212759
347.000000	47.158840
346.000000	46.585862
345.000000	46.423535
344.000000	46.222925
343.000000	46.110643
342.000000	45.586468
341.000000	45.531158
340.000000	45.143800
339.000000	44.781293
338.000000	44.603762
337.000000	44.420579
336.000000	44.035701
335.000000	43.694516
334.000000	43.431437
333.000000	43.171009
332.000000	42.724227
331.000000	42.670449
330.000000	42.106794
329.000000	41.873363
328.000000	41.189310
327.000000	41.315182
326.000000	40.938013
325.000000	40.569024
324.000000	40.150884
323.000000	39.729699
322.000000	39.689663
321.000000	39.059520
320.000000	38.866463
319.000000	38.496765
318.000000	38.267616
317.000000	38.008136
316.000000	37.520707
315.000000	37.216189
314.000000	36.931698
313.000000	36.490823
312.000000	36.114696
311.000000	35.549989
310.000000	35.195303
309.000000	34.780698
308.000000	34.250772
307.000000	33.878168
306.000000	33.421187
305.000000	32.943388
304.000000	32.445483
303.000000	31.882193
302.000000	31.367097
301.000000	30.614998
300.000000	30.128011
299.000000	29.313831
298.000000	28.586663
297.000000	27.793582
296.000000	26.713087
295.000000	25.671084
294.000000	24.649358
293.000000	23.349676
292.000000	22.104915
291.000000	20.947502
290.000000	19.850492
289.000000	18.839021
288.000000	18.001126
287.000000	17.370570
286.000000	16.966108
285.000000	16.595549
284.000000	16.277070
283.000000	16.200662
282.000000	16.075638
281.000000	15.940874
280.000000	15.815890
279.000000	15.712334
278.000000	15.790331
277.000000	15.818936
276.000000	15.828610
275.000000	15.922356
274.000000	15.996790
273.000000	16.139802
272.000000	16.165364
271.000000	16.204979
270.000000	16.252650
269.000000	16.309824
268.000000	16.375000
267.000000	16.516114
266.000000	16.676214
265.000000	16.874100
264.000000	17.037096
263.000000	17.175533
262.000000	17.335707
261.000000	17.493616
260.000000	17.644090
259.000000	17.842781
258.000000	18.051608
257.000000	18.250380
256.000000	18.458395
255.000000	18.633176
254.000000	18.770187
253.000000	18.839103
252.000000	18.826232
251.000000	18.857139
250.000000	18.736945
249.000000	18.602539
248.000000	18.419995
247.000000	18.046232
246.000000	17.692504
245.000000	17.304029
244.000000	16.923542
243.000000	16.567312
242.000000	16.312433
241.000000	16.043205
240.000000	15.838194
239.000000	15.752080
238.000000	15.883395
237.000000	16.004831
236.000000	16.169766
235.000000	16.347235
234.000000	16.490713
233.000000	16.665148
232.000000	16.769137
231.000000	16.835339
230.000000	16.893392
229.000000	16.930641
228.000000	16.975749
227.000000	17.029158
226.000000	17.193023
225.000000	17.366420
224.000000	17.542707
223.000000	17.695936
222.000000	17.896804
221.000000	18.098172
220.000000	18.361633
219.000000	18.622269
218.000000	18.831978
217.000000	19.099650
216.000000	19.354348
215.000000	19.675212
214.000000	20.047019
213.000000	20.362174
212.000000	20.763017
211.000000	21.237385
210.000000	21.633938
209.000000	22.045341
208.000000	22.227254
207.000000	22.594936
206.000000	23.206012
205.000000	23.818719
204.000000	24.544403
203.000000	25.024152
202.000000	25.590519
201.000000	26.134730
200.000000	26.491134
