PE UV       SUBTECH     SPECTRUM    ASCII       PEDS        4.00        
   -1
RDVeauAl 32.Sample.asc
18/03/05
10:01:59.00
18/03/05
10:01:59.00
Administrator

200.000000
1
Lambda 750
750N8071901
PerkinElmer UV WinLab 6.0.4.0738 / 1.61.00 Lambda 900

0
0
3350/servo 860.8/2
0
0
UV/VIS
1
1
1
CommonBeamDepol,150mm sphere / downward view
0
0
0
0
Program
Program
3350/servo 860.8/2
3350/0.2 860.8/0.2
3350/0.2 860.8/0.2
0
1
 
 
 
0
 
860.8
319.2
860.8
Front
100
on
 
 
0
0
0
 
0
 
 
 
0
 
 
0
0
0
0
0
 
 
 
 
0
0


0
0
#HDR
-1
-1
#GR
nm
%R
1.0
0.0
2350.000000
-1.000000
2151
8
60.930590
13.864271
#DATA
2350.000000	27.995039
2349.000000	27.744441
2348.000000	27.674345
2347.000000	28.302143
2346.000000	28.093439
2345.000000	27.668353
2344.000000	27.493798
2343.000000	27.314029
2342.000000	27.577813
2341.000000	27.850166
2340.000000	27.781630
2339.000000	28.191488
2338.000000	28.381731
2337.000000	28.595434
2336.000000	28.343029
2335.000000	28.723146
2334.000000	28.457451
2333.000000	28.923477
2332.000000	28.875417
2331.000000	28.533296
2330.000000	28.200512
2329.000000	28.410382
2328.000000	28.226584
2327.000000	27.861193
2326.000000	28.249476
2325.000000	28.169333
2324.000000	28.327715
2323.000000	28.536768
2322.000000	28.244307
2321.000000	27.956662
2320.000000	28.000465
2319.000000	27.869906
2318.000000	27.956620
2317.000000	28.156473
2316.000000	27.981405
2315.000000	27.702790
2314.000000	27.684012
2313.000000	27.743640
2312.000000	27.547362
2311.000000	27.575568
2310.000000	27.390237
2309.000000	27.279476
2308.000000	27.172548
2307.000000	27.320125
2306.000000	27.258097
2305.000000	27.082486
2304.000000	27.049298
2303.000000	27.067780
2302.000000	27.062642
2301.000000	27.115411
2300.000000	26.835613
2299.000000	26.802485
2298.000000	26.634456
2297.000000	26.405361
2296.000000	26.356491
2295.000000	26.169184
2294.000000	26.232406
2293.000000	26.229140
2292.000000	26.140525
2291.000000	26.236510
2290.000000	26.050950
2289.000000	25.898116
2288.000000	26.016832
2287.000000	26.073475
2286.000000	25.976366
2285.000000	25.894887
2284.000000	25.838819
2283.000000	25.728903
2282.000000	25.495660
2281.000000	25.639900
2280.000000	25.838856
2279.000000	25.910287
2278.000000	25.843563
2277.000000	25.642750
2276.000000	25.785708
2275.000000	25.965042
2274.000000	26.039152
2273.000000	26.091151
2272.000000	26.019310
2271.000000	25.985223
2270.000000	25.995306
2269.000000	26.082294
2268.000000	26.260560
2267.000000	26.223578
2266.000000	26.385341
2265.000000	26.554662
2264.000000	26.584770
2263.000000	26.664175
2262.000000	26.795307
2261.000000	26.867763
2260.000000	27.135914
2259.000000	27.229454
2258.000000	27.297364
2257.000000	27.584351
2256.000000	27.743121
2255.000000	27.874126
2254.000000	28.020970
2253.000000	28.112845
2252.000000	28.295007
2251.000000	28.516269
2250.000000	28.691521
2249.000000	28.886548
2248.000000	29.026800
2247.000000	29.158722
2246.000000	29.487666
2245.000000	29.732192
2244.000000	29.766262
2243.000000	29.982427
2242.000000	30.261123
2241.000000	30.328896
2240.000000	30.343291
2239.000000	30.428395
2238.000000	30.387430
2237.000000	30.522762
2236.000000	30.820997
2235.000000	30.942928
2234.000000	31.020240
2233.000000	30.836637
2232.000000	30.902265
2231.000000	31.202012
2230.000000	31.162730
2229.000000	31.193924
2228.000000	31.244189
2227.000000	31.286563
2226.000000	31.226318
2225.000000	31.117359
2224.000000	31.118373
2223.000000	31.088741
2222.000000	31.243888
2221.000000	31.220854
2220.000000	31.093580
2219.000000	30.972822
2218.000000	30.813848
2217.000000	30.850797
2216.000000	30.743812
2215.000000	30.804365
2214.000000	30.890068
2213.000000	30.809561
2212.000000	30.624653
2211.000000	30.511564
2210.000000	30.591490
2209.000000	30.520368
2208.000000	30.493650
2207.000000	30.442041
2206.000000	30.397307
2205.000000	30.472880
2204.000000	30.340973
2203.000000	30.099162
2202.000000	30.000344
2201.000000	29.882613
2200.000000	29.978852
2199.000000	30.014516
2198.000000	29.812522
2197.000000	29.711824
2196.000000	29.712185
2195.000000	29.601248
2194.000000	29.525351
2193.000000	29.442762
2192.000000	29.414661
2191.000000	29.276186
2190.000000	29.320739
2189.000000	29.318294
2188.000000	29.275895
2187.000000	29.063262
2186.000000	29.086151
2185.000000	29.003017
2184.000000	29.041439
2183.000000	29.061627
2182.000000	28.895430
2181.000000	28.929972
2180.000000	28.977037
2179.000000	28.893094
2178.000000	28.824083
2177.000000	28.826205
2176.000000	28.829031
2175.000000	28.984686
2174.000000	28.990408
2173.000000	28.903218
2172.000000	29.042237
2171.000000	29.132844
2170.000000	29.112895
2169.000000	29.146552
2168.000000	29.288086
2167.000000	29.390847
2166.000000	29.480719
2165.000000	29.485259
2164.000000	29.569269
2163.000000	29.625049
2162.000000	29.833030
2161.000000	30.011048
2160.000000	30.277691
2159.000000	30.315337
2158.000000	30.276758
2157.000000	30.642174
2156.000000	30.652501
2155.000000	30.716619
2154.000000	30.932746
2153.000000	31.053857
2152.000000	31.215908
2151.000000	31.226125
2150.000000	31.328343
2149.000000	31.424412
2148.000000	31.616553
2147.000000	31.993595
2146.000000	32.086403
2145.000000	32.169766
2144.000000	32.240270
2143.000000	32.471036
2142.000000	32.590748
2141.000000	32.750298
2140.000000	32.601772
2139.000000	32.825606
2138.000000	33.104529
2137.000000	33.101940
2136.000000	33.175803
2135.000000	33.232954
2134.000000	33.631934
2133.000000	33.491993
2132.000000	33.619661
2131.000000	33.607740
2130.000000	33.945414
2129.000000	33.977909
2128.000000	33.841712
2127.000000	33.931143
2126.000000	34.082783
2125.000000	34.035433
2124.000000	34.085162
2123.000000	34.100487
2122.000000	34.341061
2121.000000	34.292834
2120.000000	34.235461
2119.000000	34.410860
2118.000000	34.558117
2117.000000	34.515067
2116.000000	34.518254
2115.000000	34.668590
2114.000000	34.672748
2113.000000	34.765232
2112.000000	34.648682
2111.000000	34.585803
2110.000000	34.566756
2109.000000	34.671894
2108.000000	34.860770
2107.000000	34.776008
2106.000000	34.777838
2105.000000	34.787643
2104.000000	34.815430
2103.000000	34.831057
2102.000000	34.845161
2101.000000	34.906147
2100.000000	34.936817
2099.000000	34.875414
2098.000000	34.897658
2097.000000	34.909487
2096.000000	34.941228
2095.000000	34.962144
2094.000000	34.952408
2093.000000	34.931715
2092.000000	34.973276
2091.000000	34.835116
2090.000000	34.881264
2089.000000	34.877246
2088.000000	34.839040
2087.000000	34.922678
2086.000000	34.843708
2085.000000	34.805166
2084.000000	34.755496
2083.000000	34.749994
2082.000000	34.579943
2081.000000	34.449382
2080.000000	34.381249
2079.000000	34.335458
2078.000000	34.265799
2077.000000	34.247693
2076.000000	34.097089
2075.000000	33.955352
2074.000000	33.833383
2073.000000	33.753584
2072.000000	33.728465
2071.000000	33.704640
2070.000000	33.587217
2069.000000	33.421742
2068.000000	33.225692
2067.000000	33.069731
2066.000000	32.881783
2065.000000	32.783654
2064.000000	32.742248
2063.000000	32.583768
2062.000000	32.440239
2061.000000	32.292863
2060.000000	32.164875
2059.000000	32.021477
2058.000000	31.864188
2057.000000	31.747886
2056.000000	31.688024
2055.000000	31.535338
2054.000000	31.407753
2053.000000	31.282641
2052.000000	31.082144
2051.000000	30.873267
2050.000000	30.901175
2049.000000	30.816526
2048.000000	30.736168
2047.000000	30.704207
2046.000000	30.592006
2045.000000	30.605518
2044.000000	30.600255
2043.000000	30.517448
2042.000000	30.548457
2041.000000	30.651512
2040.000000	30.692067
2039.000000	30.682988
2038.000000	30.667191
2037.000000	30.707638
2036.000000	30.835651
2035.000000	31.004540
2034.000000	31.118607
2033.000000	31.222703
2032.000000	31.283016
2031.000000	31.345576
2030.000000	31.471215
2029.000000	31.650180
2028.000000	31.789441
2027.000000	31.917732
2026.000000	32.085731
2025.000000	32.227889
2024.000000	32.289294
2023.000000	32.337029
2022.000000	32.405341
2021.000000	32.457506
2020.000000	32.562528
2019.000000	32.605940
2018.000000	32.599835
2017.000000	32.650703
2016.000000	32.675643
2015.000000	32.724377
2014.000000	32.740043
2013.000000	32.746469
2012.000000	32.740968
2011.000000	32.750193
2010.000000	32.714603
2009.000000	32.685372
2008.000000	32.632445
2007.000000	32.543422
2006.000000	32.497536
2005.000000	32.440970
2004.000000	32.392799
2003.000000	32.301633
2002.000000	32.217619
2001.000000	32.152173
2000.000000	32.088486
1999.000000	32.010231
1998.000000	31.894444
1997.000000	31.822869
1996.000000	31.808196
1995.000000	31.683949
1994.000000	31.534501
1993.000000	31.452286
1992.000000	31.391679
1991.000000	31.327921
1990.000000	31.248108
1989.000000	31.153409
1988.000000	31.015838
1987.000000	30.906383
1986.000000	30.810045
1985.000000	30.743272
1984.000000	30.643728
1983.000000	30.628865
1982.000000	30.552810
1981.000000	30.515042
1980.000000	30.386582
1979.000000	30.269852
1978.000000	30.196001
1977.000000	30.067159
1976.000000	29.962906
1975.000000	29.911790
1974.000000	29.846507
1973.000000	29.751442
1972.000000	29.692938
1971.000000	29.572820
1970.000000	29.450674
1969.000000	29.399196
1968.000000	29.326529
1967.000000	29.269311
1966.000000	29.232005
1965.000000	29.166857
1964.000000	29.021089
1963.000000	28.934989
1962.000000	28.850634
1961.000000	28.773765
1960.000000	28.719774
1959.000000	28.608126
1958.000000	28.608299
1957.000000	28.521222
1956.000000	28.457746
1955.000000	28.374289
1954.000000	28.343514
1953.000000	28.279689
1952.000000	28.289151
1951.000000	28.262376
1950.000000	28.189318
1949.000000	28.078544
1948.000000	28.070966
1947.000000	28.084492
1946.000000	28.057682
1945.000000	28.067168
1944.000000	28.023457
1943.000000	28.046212
1942.000000	28.053641
1941.000000	28.065264
1940.000000	28.118048
1939.000000	28.244481
1938.000000	28.284700
1937.000000	28.317807
1936.000000	28.445053
1935.000000	28.473116
1934.000000	28.633473
1933.000000	28.766979
1932.000000	28.940365
1931.000000	29.029075
1930.000000	29.115053
1929.000000	29.289740
1928.000000	29.542835
1927.000000	29.720695
1926.000000	29.961907
1925.000000	30.205241
1924.000000	30.373218
1923.000000	30.594345
1922.000000	30.870018
1921.000000	31.183494
1920.000000	31.322740
1919.000000	31.665998
1918.000000	31.984578
1917.000000	32.263252
1916.000000	32.505713
1915.000000	32.918565
1914.000000	33.304814
1913.000000	33.591980
1912.000000	33.905023
1911.000000	34.288326
1910.000000	34.619066
1909.000000	35.016268
1908.000000	35.384962
1907.000000	35.889531
1906.000000	36.275831
1905.000000	36.666177
1904.000000	37.149801
1903.000000	37.552212
1902.000000	37.969497
1901.000000	38.431253
1900.000000	38.866278
1899.000000	39.348069
1898.000000	39.855630
1897.000000	40.273941
1896.000000	40.578565
1895.000000	41.095811
1894.000000	41.532970
1893.000000	41.957131
1892.000000	42.390745
1891.000000	42.782444
1890.000000	43.199067
1889.000000	43.621065
1888.000000	43.977141
1887.000000	44.229740
1886.000000	44.631145
1885.000000	45.015205
1884.000000	45.291429
1883.000000	45.643242
1882.000000	45.928035
1881.000000	46.240066
1880.000000	46.457759
1879.000000	46.743325
1878.000000	46.961170
1877.000000	47.204322
1876.000000	47.419311
1875.000000	47.641080
1874.000000	47.833695
1873.000000	48.027256
1872.000000	48.163655
1871.000000	48.343156
1870.000000	48.471455
1869.000000	48.654042
1868.000000	48.789847
1867.000000	48.853794
1866.000000	48.939194
1865.000000	48.968843
1864.000000	49.085495
1863.000000	49.127166
1862.000000	49.189754
1861.000000	49.211118
1860.000000	49.321566
1859.000000	49.345468
1858.000000	49.332761
1857.000000	49.379790
1856.000000	49.426862
1855.000000	49.444184
1854.000000	49.467214
1853.000000	49.493822
1852.000000	49.482900
1851.000000	49.512177
1850.000000	49.476931
1849.000000	49.414537
1848.000000	49.417122
1847.000000	49.430028
1846.000000	49.436154
1845.000000	49.434960
1844.000000	49.443767
1843.000000	49.427340
1842.000000	49.399254
1841.000000	49.341774
1840.000000	49.294599
1839.000000	49.272041
1838.000000	49.232304
1837.000000	49.165820
1836.000000	49.151009
1835.000000	49.137131
1834.000000	49.080203
1833.000000	49.044652
1832.000000	49.004787
1831.000000	48.973252
1830.000000	48.942208
1829.000000	48.947823
1828.000000	48.930955
1827.000000	48.851937
1826.000000	48.807335
1825.000000	48.811208
1824.000000	48.739056
1823.000000	48.678368
1822.000000	48.662862
1821.000000	48.626764
1820.000000	48.604488
1819.000000	48.556516
1818.000000	48.508340
1817.000000	48.460932
1816.000000	48.436997
1815.000000	48.437705
1814.000000	48.388573
1813.000000	48.352392
1812.000000	48.331417
1811.000000	48.303300
1810.000000	48.288836
1809.000000	48.261170
1808.000000	48.218083
1807.000000	48.190525
1806.000000	48.149502
1805.000000	48.109631
1804.000000	48.078537
1803.000000	48.068212
1802.000000	48.038252
1801.000000	48.022824
1800.000000	47.986898
1799.000000	47.931659
1798.000000	47.923084
1797.000000	47.906417
1796.000000	47.867153
1795.000000	47.841797
1794.000000	47.841067
1793.000000	47.828546
1792.000000	47.798491
1791.000000	47.770751
1790.000000	47.730869
1789.000000	47.717350
1788.000000	47.692409
1787.000000	47.657281
1786.000000	47.617819
1785.000000	47.583765
1784.000000	47.561490
1783.000000	47.560494
1782.000000	47.511432
1781.000000	47.471829
1780.000000	47.449489
1779.000000	47.419699
1778.000000	47.359959
1777.000000	47.294681
1776.000000	47.251612
1775.000000	47.196957
1774.000000	47.132493
1773.000000	47.097588
1772.000000	47.019454
1771.000000	46.990715
1770.000000	46.915443
1769.000000	46.861669
1768.000000	46.801867
1767.000000	46.726096
1766.000000	46.672632
1765.000000	46.613932
1764.000000	46.604594
1763.000000	46.538102
1762.000000	46.489259
1761.000000	46.394579
1760.000000	46.310896
1759.000000	46.287748
1758.000000	46.229310
1757.000000	46.152472
1756.000000	46.111018
1755.000000	46.070628
1754.000000	46.018304
1753.000000	45.956620
1752.000000	45.891699
1751.000000	45.843178
1750.000000	45.799901
1749.000000	45.720940
1748.000000	45.661791
1747.000000	45.610234
1746.000000	45.525542
1745.000000	45.474717
1744.000000	45.394603
1743.000000	45.360027
1742.000000	45.281473
1741.000000	45.253427
1740.000000	45.191688
1739.000000	45.146837
1738.000000	45.101286
1737.000000	45.071503
1736.000000	45.076179
1735.000000	45.031756
1734.000000	45.044493
1733.000000	45.003046
1732.000000	44.980795
1731.000000	44.994309
1730.000000	45.003898
1729.000000	45.030392
1728.000000	45.108699
1727.000000	45.150926
1726.000000	45.254816
1725.000000	45.298725
1724.000000	45.363333
1723.000000	45.475234
1722.000000	45.549675
1721.000000	45.617047
1720.000000	45.740973
1719.000000	45.867126
1718.000000	45.959231
1717.000000	46.031715
1716.000000	46.117418
1715.000000	46.176237
1714.000000	46.287060
1713.000000	46.336875
1712.000000	46.419949
1711.000000	46.495995
1710.000000	46.527970
1709.000000	46.585890
1708.000000	46.642040
1707.000000	46.688547
1706.000000	46.744301
1705.000000	46.776353
1704.000000	46.815314
1703.000000	46.805119
1702.000000	46.774762
1701.000000	46.824448
1700.000000	46.870737
1699.000000	46.847510
1698.000000	46.913687
1697.000000	46.962952
1696.000000	46.960374
1695.000000	46.977013
1694.000000	47.038701
1693.000000	47.074356
1692.000000	47.137303
1691.000000	47.219933
1690.000000	47.272181
1689.000000	47.371872
1688.000000	47.498734
1687.000000	47.619816
1686.000000	47.750017
1685.000000	47.880228
1684.000000	48.007589
1683.000000	48.153291
1682.000000	48.348381
1681.000000	48.498907
1680.000000	48.646588
1679.000000	48.844934
1678.000000	48.996037
1677.000000	49.144705
1676.000000	49.352728
1675.000000	49.538511
1674.000000	49.702077
1673.000000	49.900002
1672.000000	50.072604
1671.000000	50.200160
1670.000000	50.354480
1669.000000	50.525265
1668.000000	50.612152
1667.000000	50.769624
1666.000000	50.852233
1665.000000	50.951269
1664.000000	51.061762
1663.000000	51.117437
1662.000000	51.231127
1661.000000	51.329900
1660.000000	51.375830
1659.000000	51.435823
1658.000000	51.520800
1657.000000	51.562223
1656.000000	51.603997
1655.000000	51.650058
1654.000000	51.665348
1653.000000	51.698823
1652.000000	51.720041
1651.000000	51.692992
1650.000000	51.715965
1649.000000	51.717889
1648.000000	51.711236
1647.000000	51.711196
1646.000000	51.695370
1645.000000	51.710244
1644.000000	51.666290
1643.000000	51.644470
1642.000000	51.616215
1641.000000	51.587409
1640.000000	51.573989
1639.000000	51.555494
1638.000000	51.539014
1637.000000	51.502865
1636.000000	51.482869
1635.000000	51.438994
1634.000000	51.402084
1633.000000	51.370684
1632.000000	51.350079
1631.000000	51.316959
1630.000000	51.266424
1629.000000	51.232557
1628.000000	51.180346
1627.000000	51.148550
1626.000000	51.130583
1625.000000	51.068555
1624.000000	51.023415
1623.000000	50.974108
1622.000000	50.916170
1621.000000	50.865924
1620.000000	50.834674
1619.000000	50.791659
1618.000000	50.745521
1617.000000	50.690546
1616.000000	50.641041
1615.000000	50.576943
1614.000000	50.520537
1613.000000	50.473172
1612.000000	50.414142
1611.000000	50.359727
1610.000000	50.303363
1609.000000	50.258515
1608.000000	50.197227
1607.000000	50.147768
1606.000000	50.087003
1605.000000	50.011617
1604.000000	49.940347
1603.000000	49.875427
1602.000000	49.831284
1601.000000	49.773653
1600.000000	49.721067
1599.000000	49.675179
1598.000000	49.615252
1597.000000	49.553047
1596.000000	49.490445
1595.000000	49.440151
1594.000000	49.405550
1593.000000	49.355923
1592.000000	49.303384
1591.000000	49.248903
1590.000000	49.203800
1589.000000	49.147623
1588.000000	49.095625
1587.000000	49.059182
1586.000000	49.022717
1585.000000	48.976741
1584.000000	48.925715
1583.000000	48.877945
1582.000000	48.833452
1581.000000	48.797516
1580.000000	48.761373
1579.000000	48.715478
1578.000000	48.684929
1577.000000	48.634165
1576.000000	48.573918
1575.000000	48.539111
1574.000000	48.501554
1573.000000	48.457458
1572.000000	48.413078
1571.000000	48.397064
1570.000000	48.352808
1569.000000	48.305567
1568.000000	48.279814
1567.000000	48.242290
1566.000000	48.216187
1565.000000	48.207185
1564.000000	48.173339
1563.000000	48.159838
1562.000000	48.134567
1561.000000	48.099507
1560.000000	48.082106
1559.000000	48.060901
1558.000000	48.040738
1557.000000	48.026807
1556.000000	48.005055
1555.000000	47.984469
1554.000000	47.979016
1553.000000	47.961943
1552.000000	47.929193
1551.000000	47.885096
1550.000000	47.860660
1549.000000	47.841382
1548.000000	47.802274
1547.000000	47.739366
1546.000000	47.680489
1545.000000	47.636926
1544.000000	47.561094
1543.000000	47.495500
1542.000000	47.428553
1541.000000	47.364194
1540.000000	47.267379
1539.000000	47.179172
1538.000000	47.106419
1537.000000	47.006701
1536.000000	46.911361
1535.000000	46.838023
1534.000000	46.766262
1533.000000	46.682407
1532.000000	46.581640
1531.000000	46.513380
1530.000000	46.445130
1529.000000	46.362190
1528.000000	46.278641
1527.000000	46.191126
1526.000000	46.135864
1525.000000	46.079418
1524.000000	46.005854
1523.000000	45.957960
1522.000000	45.911859
1521.000000	45.855618
1520.000000	45.802325
1519.000000	45.778946
1518.000000	45.732771
1517.000000	45.690468
1516.000000	45.659738
1515.000000	45.627959
1514.000000	45.581351
1513.000000	45.541614
1512.000000	45.526776
1511.000000	45.503965
1510.000000	45.494722
1509.000000	45.487600
1508.000000	45.460678
1507.000000	45.453107
1506.000000	45.445212
1505.000000	45.422096
1504.000000	45.421440
1503.000000	45.436830
1502.000000	45.414171
1501.000000	45.429248
1500.000000	45.429202
1499.000000	45.426355
1498.000000	45.445618
1497.000000	45.485626
1496.000000	45.496372
1495.000000	45.532769
1494.000000	45.555861
1493.000000	45.590987
1492.000000	45.613090
1491.000000	45.694924
1490.000000	45.736022
1489.000000	45.778415
1488.000000	45.840991
1487.000000	45.907693
1486.000000	45.977099
1485.000000	46.041698
1484.000000	46.094893
1483.000000	46.193033
1482.000000	46.237627
1481.000000	46.332345
1480.000000	46.423687
1479.000000	46.479015
1478.000000	46.563843
1477.000000	46.635912
1476.000000	46.692153
1475.000000	46.779655
1474.000000	46.824707
1473.000000	46.915135
1472.000000	46.987204
1471.000000	47.035726
1470.000000	47.094346
1469.000000	47.158126
1468.000000	47.232713
1467.000000	47.287614
1466.000000	47.333348
1465.000000	47.403399
1464.000000	47.454834
1463.000000	47.523134
1462.000000	47.548282
1461.000000	47.613027
1460.000000	47.655021
1459.000000	47.745330
1458.000000	47.796250
1457.000000	47.843216
1456.000000	47.907010
1455.000000	47.975333
1454.000000	48.033728
1453.000000	48.092055
1452.000000	48.160334
1451.000000	48.234165
1450.000000	48.301107
1449.000000	48.379467
1448.000000	48.449227
1447.000000	48.504540
1446.000000	48.572752
1445.000000	48.646934
1444.000000	48.739703
1443.000000	48.823070
1442.000000	48.898627
1441.000000	48.968300
1440.000000	49.068530
1439.000000	49.165432
1438.000000	49.264687
1437.000000	49.362342
1436.000000	49.441884
1435.000000	49.552711
1434.000000	49.632433
1433.000000	49.747649
1432.000000	49.847866
1431.000000	49.975519
1430.000000	50.080112
1429.000000	50.182352
1428.000000	50.312923
1427.000000	50.433655
1426.000000	50.572082
1425.000000	50.710515
1424.000000	50.849680
1423.000000	51.003913
1422.000000	51.125283
1421.000000	51.276407
1420.000000	51.420933
1419.000000	51.563650
1418.000000	51.703419
1417.000000	51.877939
1416.000000	52.045942
1415.000000	52.204039
1414.000000	52.347889
1413.000000	52.498394
1412.000000	52.659050
1411.000000	52.817077
1410.000000	52.970576
1409.000000	53.135042
1408.000000	53.302135
1407.000000	53.443972
1406.000000	53.589841
1405.000000	53.751952
1404.000000	53.898478
1403.000000	54.048309
1402.000000	54.181325
1401.000000	54.328527
1400.000000	54.475608
1399.000000	54.598472
1398.000000	54.721670
1397.000000	54.856693
1396.000000	54.997575
1395.000000	55.113947
1394.000000	55.218766
1393.000000	55.341549
1392.000000	55.452388
1391.000000	55.565765
1390.000000	55.668965
1389.000000	55.774604
1388.000000	55.881153
1387.000000	55.957052
1386.000000	56.035353
1385.000000	56.122065
1384.000000	56.207904
1383.000000	56.301579
1382.000000	56.377619
1381.000000	56.448001
1380.000000	56.522767
1379.000000	56.590683
1378.000000	56.657519
1377.000000	56.723908
1376.000000	56.778896
1375.000000	56.819602
1374.000000	56.860633
1373.000000	56.916207
1372.000000	56.965687
1371.000000	57.013464
1370.000000	57.049588
1369.000000	57.086388
1368.000000	57.139035
1367.000000	57.182941
1366.000000	57.225986
1365.000000	57.282866
1364.000000	57.332499
1363.000000	57.376103
1362.000000	57.421485
1361.000000	57.476896
1360.000000	57.533327
1359.000000	57.591120
1358.000000	57.654518
1357.000000	57.701016
1356.000000	57.755330
1355.000000	57.793103
1354.000000	57.853383
1353.000000	57.908286
1352.000000	57.956553
1351.000000	58.016288
1350.000000	58.053172
1349.000000	58.103394
1348.000000	58.177048
1347.000000	58.228690
1346.000000	58.292775
1345.000000	58.330626
1344.000000	58.378991
1343.000000	58.426518
1342.000000	58.455782
1341.000000	58.507468
1340.000000	58.547192
1339.000000	58.607459
1338.000000	58.651964
1337.000000	58.686182
1336.000000	58.713167
1335.000000	58.734619
1334.000000	58.772606
1333.000000	58.809240
1332.000000	58.873252
1331.000000	58.921705
1330.000000	58.964016
1329.000000	58.996391
1328.000000	59.021730
1327.000000	59.041950
1326.000000	59.043970
1325.000000	59.054313
1324.000000	59.102358
1323.000000	59.119972
1322.000000	59.120690
1321.000000	59.157036
1320.000000	59.174469
1319.000000	59.198298
1318.000000	59.216753
1317.000000	59.196519
1316.000000	59.216137
1315.000000	59.260957
1314.000000	59.275999
1313.000000	59.285421
1312.000000	59.296735
1311.000000	59.286974
1310.000000	59.310112
1309.000000	59.345807
1308.000000	59.360399
1307.000000	59.363974
1306.000000	59.379772
1305.000000	59.374785
1304.000000	59.381792
1303.000000	59.379457
1302.000000	59.392784
1301.000000	59.388322
1300.000000	59.412516
1299.000000	59.421171
1298.000000	59.431245
1297.000000	59.431893
1296.000000	59.425997
1295.000000	59.422541
1294.000000	59.421512
1293.000000	59.421010
1292.000000	59.411127
1291.000000	59.416460
1290.000000	59.412333
1289.000000	59.409271
1288.000000	59.384661
1287.000000	59.355579
1286.000000	59.352423
1285.000000	59.367036
1284.000000	59.364031
1283.000000	59.361657
1282.000000	59.366236
1281.000000	59.362520
1280.000000	59.381640
1279.000000	59.357146
1278.000000	59.362159
1277.000000	59.367978
1276.000000	59.368566
1275.000000	59.381823
1274.000000	59.366656
1273.000000	59.374333
1272.000000	59.360204
1271.000000	59.348089
1270.000000	59.358668
1269.000000	59.378658
1268.000000	59.373231
1267.000000	59.381402
1266.000000	59.386241
1265.000000	59.390970
1264.000000	59.424121
1263.000000	59.403583
1262.000000	59.431402
1261.000000	59.455783
1260.000000	59.463974
1259.000000	59.451473
1258.000000	59.497575
1257.000000	59.477063
1256.000000	59.482717
1255.000000	59.505849
1254.000000	59.526673
1253.000000	59.522508
1252.000000	59.530342
1251.000000	59.523206
1250.000000	59.526668
1249.000000	59.509680
1248.000000	59.511357
1247.000000	59.507940
1246.000000	59.472210
1245.000000	59.470631
1244.000000	59.447923
1243.000000	59.421070
1242.000000	59.423143
1241.000000	59.430527
1240.000000	59.406537
1239.000000	59.389551
1238.000000	59.336920
1237.000000	59.330839
1236.000000	59.322025
1235.000000	59.258066
1234.000000	59.242255
1233.000000	59.246645
1232.000000	59.228951
1231.000000	59.223288
1230.000000	59.199684
1229.000000	59.172852
1228.000000	59.156987
1227.000000	59.155411
1226.000000	59.132603
1225.000000	59.101817
1224.000000	59.104350
1223.000000	59.076303
1222.000000	59.042621
1221.000000	59.026936
1220.000000	58.997311
1219.000000	58.980336
1218.000000	58.957237
1217.000000	58.922824
1216.000000	58.902407
1215.000000	58.887647
1214.000000	58.857155
1213.000000	58.841571
1212.000000	58.822533
1211.000000	58.801953
1210.000000	58.786948
1209.000000	58.756391
1208.000000	58.735958
1207.000000	58.697269
1206.000000	58.661987
1205.000000	58.653485
1204.000000	58.645086
1203.000000	58.601787
1202.000000	58.569973
1201.000000	58.557280
1200.000000	58.535440
1199.000000	58.497398
1198.000000	58.455017
1197.000000	58.436978
1196.000000	58.434432
1195.000000	58.421988
1194.000000	58.372888
1193.000000	58.354827
1192.000000	58.349563
1191.000000	58.329950
1190.000000	58.305305
1189.000000	58.260115
1188.000000	58.261002
1187.000000	58.275399
1186.000000	58.264713
1185.000000	58.264659
1184.000000	58.276210
1183.000000	58.293624
1182.000000	58.317719
1181.000000	58.333862
1180.000000	58.360133
1179.000000	58.391605
1178.000000	58.426245
1177.000000	58.460369
1176.000000	58.495029
1175.000000	58.557198
1174.000000	58.601623
1173.000000	58.641982
1172.000000	58.690469
1171.000000	58.738449
1170.000000	58.788985
1169.000000	58.832407
1168.000000	58.892238
1167.000000	58.957065
1166.000000	59.021843
1165.000000	59.088870
1164.000000	59.156454
1163.000000	59.200309
1162.000000	59.240473
1161.000000	59.299132
1160.000000	59.364950
1159.000000	59.415382
1158.000000	59.472074
1157.000000	59.548830
1156.000000	59.608271
1155.000000	59.651972
1154.000000	59.697860
1153.000000	59.751878
1152.000000	59.804219
1151.000000	59.844725
1150.000000	59.885217
1149.000000	59.934975
1148.000000	59.972213
1147.000000	60.004196
1146.000000	60.045350
1145.000000	60.078289
1144.000000	60.090194
1143.000000	60.120575
1142.000000	60.155900
1141.000000	60.198096
1140.000000	60.247657
1139.000000	60.271487
1138.000000	60.302042
1137.000000	60.343114
1136.000000	60.368305
1135.000000	60.397945
1134.000000	60.439300
1133.000000	60.464242
1132.000000	60.478892
1131.000000	60.499128
1130.000000	60.509152
1129.000000	60.522520
1128.000000	60.546308
1127.000000	60.561450
1126.000000	60.577298
1125.000000	60.613482
1124.000000	60.634817
1123.000000	60.639585
1122.000000	60.650856
1121.000000	60.670085
1120.000000	60.689060
1119.000000	60.709968
1118.000000	60.718749
1117.000000	60.704990
1116.000000	60.710717
1115.000000	60.713021
1114.000000	60.727080
1113.000000	60.741526
1112.000000	60.742875
1111.000000	60.706588
1110.000000	60.707389
1109.000000	60.710049
1108.000000	60.718973
1107.000000	60.729198
1106.000000	60.732825
1105.000000	60.741989
1104.000000	60.744980
1103.000000	60.753577
1102.000000	60.755307
1101.000000	60.743345
1100.000000	60.722001
1099.000000	60.720927
1098.000000	60.743062
1097.000000	60.734849
1096.000000	60.743636
1095.000000	60.740247
1094.000000	60.746463
1093.000000	60.721999
1092.000000	60.727440
1091.000000	60.728427
1090.000000	60.725667
1089.000000	60.734153
1088.000000	60.740810
1087.000000	60.713275
1086.000000	60.699742
1085.000000	60.700401
1084.000000	60.706640
1083.000000	60.716764
1082.000000	60.720805
1081.000000	60.710539
1080.000000	60.684313
1079.000000	60.703271
1078.000000	60.695358
1077.000000	60.663522
1076.000000	60.673041
1075.000000	60.678858
1074.000000	60.651681
1073.000000	60.667671
1072.000000	60.659504
1071.000000	60.659674
1070.000000	60.642859
1069.000000	60.654193
1068.000000	60.614017
1067.000000	60.613070
1066.000000	60.606779
1065.000000	60.599312
1064.000000	60.600272
1063.000000	60.592211
1062.000000	60.587477
1061.000000	60.572586
1060.000000	60.568147
1059.000000	60.564379
1058.000000	60.556820
1057.000000	60.572633
1056.000000	60.560420
1055.000000	60.539836
1054.000000	60.552989
1053.000000	60.570242
1052.000000	60.541538
1051.000000	60.525368
1050.000000	60.532328
1049.000000	60.517362
1048.000000	60.507045
1047.000000	60.503084
1046.000000	60.509173
1045.000000	60.489149
1044.000000	60.470869
1043.000000	60.482951
1042.000000	60.497089
1041.000000	60.467392
1040.000000	60.480961
1039.000000	60.477692
1038.000000	60.466551
1037.000000	60.453744
1036.000000	60.444947
1035.000000	60.439386
1034.000000	60.445888
1033.000000	60.436562
1032.000000	60.461095
1031.000000	60.445963
1030.000000	60.423554
1029.000000	60.399697
1028.000000	60.411322
1027.000000	60.439947
1026.000000	60.420597
1025.000000	60.416008
1024.000000	60.420897
1023.000000	60.415423
1022.000000	60.404530
1021.000000	60.384363
1020.000000	60.392936
1019.000000	60.386068
1018.000000	60.430125
1017.000000	60.432074
1016.000000	60.420688
1015.000000	60.418774
1014.000000	60.407001
1013.000000	60.428969
1012.000000	60.439693
1011.000000	60.423032
1010.000000	60.420849
1009.000000	60.428590
1008.000000	60.429173
1007.000000	60.445815
1006.000000	60.446532
1005.000000	60.447498
1004.000000	60.436427
1003.000000	60.434704
1002.000000	60.458943
1001.000000	60.474834
1000.000000	60.471883
999.000000	60.472861
998.000000	60.478312
997.000000	60.475454
996.000000	60.484918
995.000000	60.469293
994.000000	60.480433
993.000000	60.487439
992.000000	60.477076
991.000000	60.464476
990.000000	60.494886
989.000000	60.511050
988.000000	60.509594
987.000000	60.512877
986.000000	60.501899
985.000000	60.513930
984.000000	60.505320
983.000000	60.519186
982.000000	60.517192
981.000000	60.530618
980.000000	60.554774
979.000000	60.550278
978.000000	60.567384
977.000000	60.563156
976.000000	60.559254
975.000000	60.543462
974.000000	60.555734
973.000000	60.597087
972.000000	60.592754
971.000000	60.589046
970.000000	60.589333
969.000000	60.586455
968.000000	60.591334
967.000000	60.596743
966.000000	60.609978
965.000000	60.619956
964.000000	60.624231
963.000000	60.622990
962.000000	60.627788
961.000000	60.637974
960.000000	60.634663
959.000000	60.636593
958.000000	60.640744
957.000000	60.650055
956.000000	60.654788
955.000000	60.667146
954.000000	60.665965
953.000000	60.664643
952.000000	60.671175
951.000000	60.666343
950.000000	60.678725
949.000000	60.701252
948.000000	60.692792
947.000000	60.675777
946.000000	60.685031
945.000000	60.692661
944.000000	60.704609
943.000000	60.697448
942.000000	60.692153
941.000000	60.665703
940.000000	60.660394
939.000000	60.685652
938.000000	60.690743
937.000000	60.677733
936.000000	60.671590
935.000000	60.672216
934.000000	60.667123
933.000000	60.676514
932.000000	60.676359
931.000000	60.657258
930.000000	60.678911
929.000000	60.702506
928.000000	60.706448
927.000000	60.708053
926.000000	60.666323
925.000000	60.636090
924.000000	60.664237
923.000000	60.691988
922.000000	60.663852
921.000000	60.653636
920.000000	60.679689
919.000000	60.682190
918.000000	60.666861
917.000000	60.658526
916.000000	60.680131
915.000000	60.688269
914.000000	60.716103
913.000000	60.726928
912.000000	60.672881
911.000000	60.623232
910.000000	60.658662
909.000000	60.683190
908.000000	60.662806
907.000000	60.658655
906.000000	60.677180
905.000000	60.671518
904.000000	60.707533
903.000000	60.730919
902.000000	60.685720
901.000000	60.723316
900.000000	60.718743
899.000000	60.717882
898.000000	60.790916
897.000000	60.768714
896.000000	60.735755
895.000000	60.783476
894.000000	60.782611
893.000000	60.772188
892.000000	60.748366
891.000000	60.750954
890.000000	60.765027
889.000000	60.794232
888.000000	60.751177
887.000000	60.735914
886.000000	60.788002
885.000000	60.843403
884.000000	60.896491
883.000000	60.903364
882.000000	60.828003
881.000000	60.909121
880.000000	60.853410
879.000000	60.785537
878.000000	60.761540
877.000000	60.799634
876.000000	60.761000
875.000000	60.801199
874.000000	60.924338
873.000000	60.811020
872.000000	60.853228
871.000000	60.837837
870.000000	60.878901
869.000000	60.930590
868.000000	60.897052
867.000000	60.762830
866.000000	60.863124
865.000000	60.900677
864.000000	60.928736
863.000000	60.840051
862.000000	60.813047
861.000000	60.833968
860.000000	60.867984
859.000000	60.593161
858.000000	60.541790
857.000000	60.846699
856.000000	60.402694
855.000000	60.258250
854.000000	60.003148
853.000000	60.341483
852.000000	60.525558
851.000000	60.723800
850.000000	60.521259
849.000000	60.835144
848.000000	60.551454
847.000000	60.478706
846.000000	60.666305
845.000000	60.248287
844.000000	60.507670
843.000000	60.364796
842.000000	60.452768
841.000000	60.520497
840.000000	60.621702
839.000000	60.540720
838.000000	60.413983
837.000000	60.639267
836.000000	60.448228
835.000000	60.599039
834.000000	60.442882
833.000000	60.657713
832.000000	60.621009
831.000000	60.534062
830.000000	60.281458
829.000000	60.591330
828.000000	60.363698
827.000000	60.462456
826.000000	60.526060
825.000000	60.485565
824.000000	60.473459
823.000000	60.564541
822.000000	60.493059
821.000000	60.595145
820.000000	60.554291
819.000000	60.491161
818.000000	60.509815
817.000000	60.475397
816.000000	60.405276
815.000000	60.459168
814.000000	60.466125
813.000000	60.533470
812.000000	60.604761
811.000000	60.430314
810.000000	60.498333
809.000000	60.528931
808.000000	60.559995
807.000000	60.529966
806.000000	60.620944
805.000000	60.477158
804.000000	60.636836
803.000000	60.652783
802.000000	60.587705
801.000000	60.494945
800.000000	60.689089
799.000000	60.665246
798.000000	60.657939
797.000000	60.641221
796.000000	60.570901
795.000000	60.569679
794.000000	60.529247
793.000000	60.495928
792.000000	60.496033
791.000000	60.571312
790.000000	60.517928
789.000000	60.601360
788.000000	60.503236
787.000000	60.619970
786.000000	60.535189
785.000000	60.521480
784.000000	60.455340
783.000000	60.493164
782.000000	60.482344
781.000000	60.616212
780.000000	60.650947
779.000000	60.635425
778.000000	60.584096
777.000000	60.616063
776.000000	60.621645
775.000000	60.578131
774.000000	60.605433
773.000000	60.530007
772.000000	60.532175
771.000000	60.585377
770.000000	60.666952
769.000000	60.562319
768.000000	60.537609
767.000000	60.622557
766.000000	60.536047
765.000000	60.561799
764.000000	60.636921
763.000000	60.680077
762.000000	60.678287
761.000000	60.630442
760.000000	60.578704
759.000000	60.673536
758.000000	60.641424
757.000000	60.602407
756.000000	60.636355
755.000000	60.556249
754.000000	60.592016
753.000000	60.624419
752.000000	60.573756
751.000000	60.600880
750.000000	60.662688
749.000000	60.588464
748.000000	60.531558
747.000000	60.493817
746.000000	60.560024
745.000000	60.563010
744.000000	60.593533
743.000000	60.596896
742.000000	60.529420
741.000000	60.595687
740.000000	60.633777
739.000000	60.568368
738.000000	60.623630
737.000000	60.606359
736.000000	60.563854
735.000000	60.531747
734.000000	60.553485
733.000000	60.556681
732.000000	60.547039
731.000000	60.511337
730.000000	60.494897
729.000000	60.461269
728.000000	60.493137
727.000000	60.547703
726.000000	60.539616
725.000000	60.489261
724.000000	60.463450
723.000000	60.512940
722.000000	60.579675
721.000000	60.572825
720.000000	60.544724
719.000000	60.533654
718.000000	60.484351
717.000000	60.502195
716.000000	60.516081
715.000000	60.550662
714.000000	60.575131
713.000000	60.566594
712.000000	60.582729
711.000000	60.568146
710.000000	60.550547
709.000000	60.479241
708.000000	60.421170
707.000000	60.465231
706.000000	60.543446
705.000000	60.521051
704.000000	60.548790
703.000000	60.604773
702.000000	60.567078
701.000000	60.552778
700.000000	60.532362
699.000000	60.546379
698.000000	60.561264
697.000000	60.521553
696.000000	60.560319
695.000000	60.590838
694.000000	60.642414
693.000000	60.626967
692.000000	60.582599
691.000000	60.589757
690.000000	60.612102
689.000000	60.582218
688.000000	60.498694
687.000000	60.493555
686.000000	60.567341
685.000000	60.579120
684.000000	60.565337
683.000000	60.542739
682.000000	60.529378
681.000000	60.511434
680.000000	60.590601
679.000000	60.651798
678.000000	60.529415
677.000000	60.542360
676.000000	60.551319
675.000000	60.543298
674.000000	60.573137
673.000000	60.565724
672.000000	60.582984
671.000000	60.564756
670.000000	60.560085
669.000000	60.595941
668.000000	60.617629
667.000000	60.667310
666.000000	60.642887
665.000000	60.618902
664.000000	60.599591
663.000000	60.569643
662.000000	60.591854
661.000000	60.614991
660.000000	60.635242
659.000000	60.620715
658.000000	60.613781
657.000000	60.655754
656.000000	60.634752
655.000000	60.578691
654.000000	60.683621
653.000000	60.668049
652.000000	60.692188
651.000000	60.645438
650.000000	60.593805
649.000000	60.608970
648.000000	60.661773
647.000000	60.635385
646.000000	60.543929
645.000000	60.603276
644.000000	60.649462
643.000000	60.701576
642.000000	60.637762
641.000000	60.647022
640.000000	60.664616
639.000000	60.608077
638.000000	60.662921
637.000000	60.684285
636.000000	60.663909
635.000000	60.715213
634.000000	60.677375
633.000000	60.697689
632.000000	60.684272
631.000000	60.712047
630.000000	60.701249
629.000000	60.671007
628.000000	60.656631
627.000000	60.723230
626.000000	60.754116
625.000000	60.725465
624.000000	60.730497
623.000000	60.692627
622.000000	60.704482
621.000000	60.675583
620.000000	60.671527
619.000000	60.697502
618.000000	60.690412
617.000000	60.716373
616.000000	60.749928
615.000000	60.705095
614.000000	60.696540
613.000000	60.767812
612.000000	60.708577
611.000000	60.680107
610.000000	60.715166
609.000000	60.704769
608.000000	60.719404
607.000000	60.710781
606.000000	60.687721
605.000000	60.714667
604.000000	60.668050
603.000000	60.699531
602.000000	60.722830
601.000000	60.721120
600.000000	60.682633
599.000000	60.718276
598.000000	60.675776
597.000000	60.676369
596.000000	60.655371
595.000000	60.701140
594.000000	60.723107
593.000000	60.717297
592.000000	60.639021
591.000000	60.664494
590.000000	60.653177
589.000000	60.696057
588.000000	60.652871
587.000000	60.660697
586.000000	60.655444
585.000000	60.654635
584.000000	60.632027
583.000000	60.624638
582.000000	60.676626
581.000000	60.657695
580.000000	60.611974
579.000000	60.652143
578.000000	60.645353
577.000000	60.633961
576.000000	60.655319
575.000000	60.627829
574.000000	60.583322
573.000000	60.629793
572.000000	60.567439
571.000000	60.631158
570.000000	60.599949
569.000000	60.527228
568.000000	60.559917
567.000000	60.592244
566.000000	60.501287
565.000000	60.595500
564.000000	60.551325
563.000000	60.558259
562.000000	60.566070
561.000000	60.560897
560.000000	60.500571
559.000000	60.527431
558.000000	60.527310
557.000000	60.566426
556.000000	60.562779
555.000000	60.521690
554.000000	60.455123
553.000000	60.492351
552.000000	60.498546
551.000000	60.468495
550.000000	60.432292
549.000000	60.430487
548.000000	60.473571
547.000000	60.491570
546.000000	60.401453
545.000000	60.428305
544.000000	60.430714
543.000000	60.408337
542.000000	60.398358
541.000000	60.397516
540.000000	60.332004
539.000000	60.319244
538.000000	60.328451
537.000000	60.324638
536.000000	60.292757
535.000000	60.312866
534.000000	60.279028
533.000000	60.232488
532.000000	60.236208
531.000000	60.210462
530.000000	60.233630
529.000000	60.229429
528.000000	60.195045
527.000000	60.171077
526.000000	60.160929
525.000000	60.154183
524.000000	60.126134
523.000000	60.140644
522.000000	60.103394
521.000000	60.092581
520.000000	60.075942
519.000000	60.062980
518.000000	60.029384
517.000000	60.037208
516.000000	60.009608
515.000000	59.964161
514.000000	59.943249
513.000000	59.951799
512.000000	59.934287
511.000000	59.903965
510.000000	59.896927
509.000000	59.900548
508.000000	59.821543
507.000000	59.812951
506.000000	59.792869
505.000000	59.781511
504.000000	59.740385
503.000000	59.726717
502.000000	59.738304
501.000000	59.703350
500.000000	59.658934
499.000000	59.669897
498.000000	59.631248
497.000000	59.635310
496.000000	59.577092
495.000000	59.501322
494.000000	59.506720
493.000000	59.511821
492.000000	59.500302
491.000000	59.485876
490.000000	59.402245
489.000000	59.359831
488.000000	59.360365
487.000000	59.300471
486.000000	59.265842
485.000000	59.248125
484.000000	59.275040
483.000000	59.269243
482.000000	59.260709
481.000000	59.194248
480.000000	59.129967
479.000000	59.110276
478.000000	59.071285
477.000000	59.039749
476.000000	58.997666
475.000000	58.965280
474.000000	58.912652
473.000000	58.874397
472.000000	58.840714
471.000000	58.829216
470.000000	58.802065
469.000000	58.751749
468.000000	58.711641
467.000000	58.675681
466.000000	58.611747
465.000000	58.557397
464.000000	58.486380
463.000000	58.464252
462.000000	58.406157
461.000000	58.333419
460.000000	58.310909
459.000000	58.273677
458.000000	58.222195
457.000000	58.130597
456.000000	58.048299
455.000000	57.997873
454.000000	57.923950
453.000000	57.849476
452.000000	57.813621
451.000000	57.704249
450.000000	57.588427
449.000000	57.532729
448.000000	57.464138
447.000000	57.359021
446.000000	57.329551
445.000000	57.285028
444.000000	57.213474
443.000000	57.107397
442.000000	56.975267
441.000000	56.858977
440.000000	56.811189
439.000000	56.753430
438.000000	56.672727
437.000000	56.591207
436.000000	56.510854
435.000000	56.377922
434.000000	56.279926
433.000000	56.186145
432.000000	56.121783
431.000000	55.999624
430.000000	55.925764
429.000000	55.830260
428.000000	55.722245
427.000000	55.609585
426.000000	55.518488
425.000000	55.402931
424.000000	55.273642
423.000000	55.147186
422.000000	55.006250
421.000000	54.884576
420.000000	54.826429
419.000000	54.722026
418.000000	54.583398
417.000000	54.412043
416.000000	54.285453
415.000000	54.195563
414.000000	54.110048
413.000000	53.931344
412.000000	53.786062
411.000000	53.662916
410.000000	53.528106
409.000000	53.379774
408.000000	53.251919
407.000000	53.149343
406.000000	52.976907
405.000000	52.763137
404.000000	52.676545
403.000000	52.534041
402.000000	52.366665
401.000000	52.188262
400.000000	52.028690
399.000000	51.901939
398.000000	51.781997
397.000000	51.665973
396.000000	51.488062
395.000000	51.262600
394.000000	51.196986
393.000000	50.905320
392.000000	50.804569
391.000000	50.626248
390.000000	50.451020
389.000000	50.258142
388.000000	50.071341
387.000000	49.928095
386.000000	49.728992
385.000000	49.538261
384.000000	49.464986
383.000000	49.235543
382.000000	49.015763
381.000000	48.838238
380.000000	48.600924
379.000000	48.346429
378.000000	48.191637
377.000000	47.916294
376.000000	47.921390
375.000000	47.622741
374.000000	47.373064
373.000000	47.113787
372.000000	47.076421
371.000000	46.789015
370.000000	46.467523
369.000000	46.122806
368.000000	45.945174
367.000000	45.715497
366.000000	45.575182
365.000000	45.239341
364.000000	44.996412
363.000000	44.896749
362.000000	44.525118
361.000000	44.443639
360.000000	44.020469
359.000000	43.763163
358.000000	43.496444
357.000000	43.300793
356.000000	42.917624
355.000000	42.691945
354.000000	42.493348
353.000000	42.298842
352.000000	41.968505
351.000000	41.764863
350.000000	41.412734
349.000000	41.223945
348.000000	40.975147
347.000000	40.771734
346.000000	40.554942
345.000000	40.406075
344.000000	39.900030
343.000000	39.672249
342.000000	39.544090
341.000000	39.220289
340.000000	38.976947
339.000000	38.574462
338.000000	38.511192
337.000000	38.094571
336.000000	38.156298
335.000000	37.796834
334.000000	37.436471
333.000000	37.166152
332.000000	36.744414
331.000000	36.532318
330.000000	36.103803
329.000000	36.093571
328.000000	35.829212
327.000000	35.511974
326.000000	35.268898
325.000000	35.015111
324.000000	34.379548
323.000000	33.973185
322.000000	33.829554
321.000000	33.396792
320.000000	33.169854
319.000000	32.815647
318.000000	32.839299
317.000000	32.444471
316.000000	32.003621
315.000000	31.679851
314.000000	31.509093
313.000000	31.121305
312.000000	30.806999
311.000000	30.354336
310.000000	29.919086
309.000000	29.682850
308.000000	29.255385
307.000000	28.834378
306.000000	28.655460
305.000000	28.177383
304.000000	27.903759
303.000000	27.303001
302.000000	27.035746
301.000000	26.376714
300.000000	26.088536
299.000000	25.361030
298.000000	24.752981
297.000000	23.970803
296.000000	23.282812
295.000000	22.432208
294.000000	21.413383
293.000000	20.329024
292.000000	19.253710
291.000000	18.162456
290.000000	17.195073
289.000000	16.300293
288.000000	15.608176
287.000000	15.051770
286.000000	14.714309
285.000000	14.415395
284.000000	14.307321
283.000000	14.223830
282.000000	14.029513
281.000000	13.916463
280.000000	13.865566
279.000000	13.864271
278.000000	13.914715
277.000000	13.953078
276.000000	14.047364
275.000000	14.094823
274.000000	14.135022
273.000000	14.305315
272.000000	14.401048
271.000000	14.464620
270.000000	14.506306
269.000000	14.549223
268.000000	14.591273
267.000000	14.820730
266.000000	14.938809
265.000000	15.091388
264.000000	15.221709
263.000000	15.330974
262.000000	15.547166
261.000000	15.759554
260.000000	15.938433
259.000000	16.030962
258.000000	16.226866
257.000000	16.361271
256.000000	16.549288
255.000000	16.708438
254.000000	16.771041
253.000000	16.823953
252.000000	16.789122
251.000000	16.736115
250.000000	16.631089
249.000000	16.488146
248.000000	16.268245
247.000000	16.050892
246.000000	15.826791
245.000000	15.591539
244.000000	15.385696
243.000000	15.223705
242.000000	15.165892
241.000000	15.174918
240.000000	15.180361
239.000000	15.258976
238.000000	15.459767
237.000000	15.677173
236.000000	15.912033
235.000000	16.092333
234.000000	16.234707
233.000000	16.466166
232.000000	16.638855
231.000000	16.792307
230.000000	16.932495
229.000000	17.050560
228.000000	17.146700
227.000000	17.306995
226.000000	17.524183
225.000000	17.703619
224.000000	17.873479
223.000000	18.063709
222.000000	18.317396
221.000000	18.578287
220.000000	18.846526
219.000000	19.136464
218.000000	19.388823
217.000000	19.768277
216.000000	20.007079
215.000000	20.309370
214.000000	20.721408
213.000000	21.019230
212.000000	21.342592
211.000000	21.919592
210.000000	22.248925
209.000000	22.409694
208.000000	22.866034
207.000000	23.394705
206.000000	23.832724
205.000000	24.345572
204.000000	24.867966
203.000000	25.402764
202.000000	25.907713
201.000000	26.374981
200.000000	26.736216
