PE UV       SUBTECH     SPECTRUM    ASCII       PEDS        4.00        
   -1
RDVeauAl 12.Sample.asc
18/03/05
09:33:58.00
18/03/05
09:33:58.00
Administrator

200.000000
1
Lambda 750
750N8071901
PerkinElmer UV WinLab 6.0.4.0738 / 1.61.00 Lambda 900

0
0
3350/servo 860.8/2
0
0
UV/VIS
1
1
1
CommonBeamDepol,150mm sphere / downward view
0
0
0
0
Program
Program
3350/servo 860.8/2
3350/0.2 860.8/0.2
3350/0.2 860.8/0.2
0
1
 
 
 
0
 
860.8
319.2
860.8
Front
100
on
 
 
0
0
0
 
0
 
 
 
0
 
 
0
0
0
0
0
 
 
 
 
0
0


0
0
#HDR
-1
-1
#GR
nm
%R
1.0
0.0
2350.000000
-1.000000
2151
8
63.216619
15.472225
#DATA
2350.000000	29.741681
2349.000000	29.972847
2348.000000	29.615767
2347.000000	30.548071
2346.000000	29.789730
2345.000000	30.045410
2344.000000	29.974321
2343.000000	29.748219
2342.000000	29.481951
2341.000000	29.771297
2340.000000	29.727423
2339.000000	30.148478
2338.000000	30.296306
2337.000000	30.190596
2336.000000	30.295906
2335.000000	30.387486
2334.000000	30.204504
2333.000000	30.627906
2332.000000	30.644967
2331.000000	30.320305
2330.000000	30.205737
2329.000000	30.122568
2328.000000	30.172188
2327.000000	30.406772
2326.000000	30.055874
2325.000000	30.200474
2324.000000	30.401331
2323.000000	30.315759
2322.000000	30.097544
2321.000000	30.101929
2320.000000	30.153282
2319.000000	29.947862
2318.000000	29.954324
2317.000000	29.800222
2316.000000	29.564807
2315.000000	29.875987
2314.000000	29.682126
2313.000000	29.533918
2312.000000	29.454520
2311.000000	29.499648
2310.000000	29.556381
2309.000000	29.346287
2308.000000	28.952758
2307.000000	29.183859
2306.000000	29.296429
2305.000000	29.037709
2304.000000	29.144877
2303.000000	29.036915
2302.000000	29.098867
2301.000000	28.841732
2300.000000	28.661266
2299.000000	28.672860
2298.000000	28.529789
2297.000000	28.462566
2296.000000	28.530042
2295.000000	28.311296
2294.000000	28.052400
2293.000000	27.840943
2292.000000	27.782599
2291.000000	27.912937
2290.000000	27.900793
2289.000000	27.837329
2288.000000	27.896491
2287.000000	27.819681
2286.000000	27.796165
2285.000000	27.888190
2284.000000	27.873573
2283.000000	27.763646
2282.000000	27.707056
2281.000000	27.843039
2280.000000	27.806943
2279.000000	27.834017
2278.000000	27.578694
2277.000000	27.417671
2276.000000	27.758003
2275.000000	27.867318
2274.000000	27.776771
2273.000000	27.932729
2272.000000	27.889315
2271.000000	27.814843
2270.000000	28.089669
2269.000000	28.077882
2268.000000	28.124598
2267.000000	28.146191
2266.000000	28.273465
2265.000000	28.309167
2264.000000	28.368090
2263.000000	28.441354
2262.000000	28.574652
2261.000000	28.599121
2260.000000	28.792734
2259.000000	29.071757
2258.000000	29.268060
2257.000000	29.382164
2256.000000	29.366830
2255.000000	29.604740
2254.000000	29.919557
2253.000000	30.134844
2252.000000	30.307800
2251.000000	30.445529
2250.000000	30.557303
2249.000000	30.792574
2248.000000	30.915312
2247.000000	30.993293
2246.000000	31.258905
2245.000000	31.434410
2244.000000	31.544317
2243.000000	31.722214
2242.000000	31.851521
2241.000000	31.898790
2240.000000	32.030460
2239.000000	32.126635
2238.000000	32.244399
2237.000000	32.550961
2236.000000	32.783212
2235.000000	32.844130
2234.000000	32.830584
2233.000000	32.761817
2232.000000	32.792983
2231.000000	32.933082
2230.000000	32.990199
2229.000000	33.027949
2228.000000	33.074916
2227.000000	33.052039
2226.000000	32.938530
2225.000000	32.934523
2224.000000	33.021719
2223.000000	32.929353
2222.000000	32.931057
2221.000000	32.990710
2220.000000	32.853410
2219.000000	32.902002
2218.000000	32.908543
2217.000000	32.711332
2216.000000	32.712006
2215.000000	32.707646
2214.000000	32.688594
2213.000000	32.736083
2212.000000	32.662798
2211.000000	32.551339
2210.000000	32.401376
2209.000000	32.271956
2208.000000	32.442993
2207.000000	32.581343
2206.000000	32.359725
2205.000000	32.314080
2204.000000	32.240324
2203.000000	32.095967
2202.000000	31.984686
2201.000000	31.790419
2200.000000	31.860380
2199.000000	31.935129
2198.000000	31.802986
2197.000000	31.693051
2196.000000	31.575507
2195.000000	31.570787
2194.000000	31.481212
2193.000000	31.380674
2192.000000	31.284669
2191.000000	31.340943
2190.000000	31.359523
2189.000000	31.294758
2188.000000	31.148387
2187.000000	30.952641
2186.000000	30.982241
2185.000000	30.883730
2184.000000	30.856693
2183.000000	31.127851
2182.000000	31.029394
2181.000000	31.047318
2180.000000	30.939314
2179.000000	30.730305
2178.000000	30.827697
2177.000000	30.861093
2176.000000	31.015143
2175.000000	30.976245
2174.000000	31.043638
2173.000000	30.931314
2172.000000	31.025532
2171.000000	31.193715
2170.000000	31.151104
2169.000000	31.157366
2168.000000	31.251356
2167.000000	31.239582
2166.000000	31.474890
2165.000000	31.626290
2164.000000	31.595982
2163.000000	31.587766
2162.000000	31.889259
2161.000000	31.995924
2160.000000	32.190760
2159.000000	32.163185
2158.000000	32.290067
2157.000000	32.327488
2156.000000	32.508733
2155.000000	32.501351
2154.000000	32.888453
2153.000000	32.946725
2152.000000	33.110742
2151.000000	33.293186
2150.000000	33.381280
2149.000000	33.484809
2148.000000	33.673400
2147.000000	33.712368
2146.000000	33.863334
2145.000000	34.064797
2144.000000	34.334071
2143.000000	34.148541
2142.000000	34.328943
2141.000000	34.476140
2140.000000	34.446691
2139.000000	34.648714
2138.000000	35.143597
2137.000000	35.064106
2136.000000	35.060118
2135.000000	35.214190
2134.000000	35.625820
2133.000000	35.197091
2132.000000	35.454368
2131.000000	35.580364
2130.000000	35.852192
2129.000000	35.853627
2128.000000	35.970667
2127.000000	35.929841
2126.000000	35.868378
2125.000000	36.025932
2124.000000	36.113050
2123.000000	36.156312
2122.000000	36.158182
2121.000000	36.168571
2120.000000	36.166153
2119.000000	36.069334
2118.000000	36.291267
2117.000000	36.221765
2116.000000	36.262211
2115.000000	36.345199
2114.000000	36.295645
2113.000000	36.502998
2112.000000	36.464491
2111.000000	36.595975
2110.000000	36.534895
2109.000000	36.600080
2108.000000	36.659401
2107.000000	36.671727
2106.000000	36.766510
2105.000000	36.625990
2104.000000	36.578463
2103.000000	36.836474
2102.000000	36.672975
2101.000000	36.648813
2100.000000	36.796530
2099.000000	36.699482
2098.000000	36.735340
2097.000000	36.723381
2096.000000	36.663856
2095.000000	36.635006
2094.000000	36.754274
2093.000000	36.819727
2092.000000	36.755058
2091.000000	36.687911
2090.000000	36.594242
2089.000000	36.715477
2088.000000	36.652358
2087.000000	36.649342
2086.000000	36.659354
2085.000000	36.598040
2084.000000	36.602625
2083.000000	36.551819
2082.000000	36.474075
2081.000000	36.347341
2080.000000	36.257215
2079.000000	36.248128
2078.000000	36.196108
2077.000000	36.021996
2076.000000	35.944901
2075.000000	35.919546
2074.000000	35.843019
2073.000000	35.689267
2072.000000	35.605275
2071.000000	35.556585
2070.000000	35.460412
2069.000000	35.229039
2068.000000	35.088733
2067.000000	35.031057
2066.000000	34.871453
2065.000000	34.701508
2064.000000	34.562083
2063.000000	34.454392
2062.000000	34.370914
2061.000000	34.148484
2060.000000	34.015828
2059.000000	33.979596
2058.000000	33.830964
2057.000000	33.678600
2056.000000	33.585267
2055.000000	33.445046
2054.000000	33.308937
2053.000000	33.213417
2052.000000	33.070774
2051.000000	32.942310
2050.000000	32.845490
2049.000000	32.754118
2048.000000	32.653146
2047.000000	32.565298
2046.000000	32.499182
2045.000000	32.443655
2044.000000	32.431751
2043.000000	32.462195
2042.000000	32.478637
2041.000000	32.417962
2040.000000	32.471094
2039.000000	32.559857
2038.000000	32.537266
2037.000000	32.564446
2036.000000	32.699899
2035.000000	32.854126
2034.000000	32.943919
2033.000000	33.020272
2032.000000	33.184798
2031.000000	33.327995
2030.000000	33.391208
2029.000000	33.497538
2028.000000	33.633153
2027.000000	33.723384
2026.000000	33.831840
2025.000000	33.971529
2024.000000	34.078801
2023.000000	34.156698
2022.000000	34.223460
2021.000000	34.279233
2020.000000	34.356340
2019.000000	34.389083
2018.000000	34.429862
2017.000000	34.500803
2016.000000	34.528612
2015.000000	34.571943
2014.000000	34.596489
2013.000000	34.569644
2012.000000	34.556715
2011.000000	34.567794
2010.000000	34.513257
2009.000000	34.450915
2008.000000	34.422983
2007.000000	34.350832
2006.000000	34.302955
2005.000000	34.280645
2004.000000	34.157824
2003.000000	34.077875
2002.000000	34.031649
2001.000000	33.912745
2000.000000	33.830345
1999.000000	33.838368
1998.000000	33.746388
1997.000000	33.640176
1996.000000	33.553695
1995.000000	33.475651
1994.000000	33.393646
1993.000000	33.305097
1992.000000	33.223598
1991.000000	33.117891
1990.000000	32.998693
1989.000000	32.887242
1988.000000	32.851028
1987.000000	32.778564
1986.000000	32.628393
1985.000000	32.536891
1984.000000	32.476059
1983.000000	32.403844
1982.000000	32.328766
1981.000000	32.260227
1980.000000	32.161011
1979.000000	32.004099
1978.000000	31.968029
1977.000000	31.936133
1976.000000	31.781043
1975.000000	31.702005
1974.000000	31.631250
1973.000000	31.544945
1972.000000	31.478890
1971.000000	31.409558
1970.000000	31.338846
1969.000000	31.262948
1968.000000	31.170932
1967.000000	31.102077
1966.000000	31.043509
1965.000000	30.985144
1964.000000	30.862114
1963.000000	30.839870
1962.000000	30.721185
1961.000000	30.664506
1960.000000	30.596240
1959.000000	30.500065
1958.000000	30.440025
1957.000000	30.408382
1956.000000	30.284200
1955.000000	30.240532
1954.000000	30.150108
1953.000000	30.094426
1952.000000	30.059271
1951.000000	30.047984
1950.000000	30.019776
1949.000000	29.962959
1948.000000	29.972343
1947.000000	29.907862
1946.000000	29.837328
1945.000000	29.895868
1944.000000	29.927249
1943.000000	29.942839
1942.000000	29.923431
1941.000000	29.922984
1940.000000	29.953980
1939.000000	30.029138
1938.000000	30.117570
1937.000000	30.201342
1936.000000	30.271188
1935.000000	30.388880
1934.000000	30.474902
1933.000000	30.604252
1932.000000	30.670245
1931.000000	30.935574
1930.000000	31.063744
1929.000000	31.197304
1928.000000	31.439993
1927.000000	31.557955
1926.000000	31.720961
1925.000000	31.944195
1924.000000	32.275382
1923.000000	32.449116
1922.000000	32.728216
1921.000000	32.932750
1920.000000	33.192618
1919.000000	33.464722
1918.000000	33.767634
1917.000000	34.119057
1916.000000	34.280256
1915.000000	34.689208
1914.000000	35.115850
1913.000000	35.480955
1912.000000	35.699744
1911.000000	36.007413
1910.000000	36.444089
1909.000000	36.838546
1908.000000	37.241688
1907.000000	37.595466
1906.000000	37.948799
1905.000000	38.434255
1904.000000	38.847202
1903.000000	39.285247
1902.000000	39.807988
1901.000000	40.294494
1900.000000	40.700109
1899.000000	41.218320
1898.000000	41.643675
1897.000000	42.048115
1896.000000	42.523645
1895.000000	42.915167
1894.000000	43.312690
1893.000000	43.740344
1892.000000	44.197143
1891.000000	44.593959
1890.000000	45.010025
1889.000000	45.385522
1888.000000	45.676436
1887.000000	46.060642
1886.000000	46.454442
1885.000000	46.818480
1884.000000	47.103135
1883.000000	47.419098
1882.000000	47.665073
1881.000000	47.954011
1880.000000	48.291261
1879.000000	48.524868
1878.000000	48.761861
1877.000000	49.007645
1876.000000	49.183567
1875.000000	49.391679
1874.000000	49.655640
1873.000000	49.824284
1872.000000	50.023828
1871.000000	50.174748
1870.000000	50.269392
1869.000000	50.424837
1868.000000	50.543069
1867.000000	50.634811
1866.000000	50.755549
1865.000000	50.827891
1864.000000	50.878648
1863.000000	50.903413
1862.000000	50.986485
1861.000000	51.035620
1860.000000	51.134032
1859.000000	51.184986
1858.000000	51.203138
1857.000000	51.204985
1856.000000	51.176548
1855.000000	51.186926
1854.000000	51.257853
1853.000000	51.289470
1852.000000	51.321489
1851.000000	51.284404
1850.000000	51.254181
1849.000000	51.248778
1848.000000	51.295111
1847.000000	51.298613
1846.000000	51.243155
1845.000000	51.245964
1844.000000	51.254030
1843.000000	51.228097
1842.000000	51.222451
1841.000000	51.176463
1840.000000	51.149643
1839.000000	51.105334
1838.000000	51.075200
1837.000000	51.038078
1836.000000	51.013237
1835.000000	50.979621
1834.000000	50.932665
1833.000000	50.902453
1832.000000	50.854842
1831.000000	50.803965
1830.000000	50.764195
1829.000000	50.732915
1828.000000	50.696674
1827.000000	50.668867
1826.000000	50.634804
1825.000000	50.621397
1824.000000	50.574650
1823.000000	50.494041
1822.000000	50.453555
1821.000000	50.414912
1820.000000	50.389567
1819.000000	50.374375
1818.000000	50.342926
1817.000000	50.322138
1816.000000	50.295495
1815.000000	50.264365
1814.000000	50.217813
1813.000000	50.177905
1812.000000	50.157122
1811.000000	50.151256
1810.000000	50.120167
1809.000000	50.074498
1808.000000	50.038624
1807.000000	50.005584
1806.000000	49.981574
1805.000000	49.950920
1804.000000	49.918338
1803.000000	49.870463
1802.000000	49.821918
1801.000000	49.826026
1800.000000	49.810696
1799.000000	49.769936
1798.000000	49.758876
1797.000000	49.736246
1796.000000	49.706156
1795.000000	49.692178
1794.000000	49.686286
1793.000000	49.641688
1792.000000	49.620538
1791.000000	49.605587
1790.000000	49.555598
1789.000000	49.546700
1788.000000	49.530885
1787.000000	49.482973
1786.000000	49.471021
1785.000000	49.458258
1784.000000	49.400313
1783.000000	49.355630
1782.000000	49.339181
1781.000000	49.305800
1780.000000	49.256761
1779.000000	49.220100
1778.000000	49.180519
1777.000000	49.111867
1776.000000	49.061697
1775.000000	49.015048
1774.000000	48.973848
1773.000000	48.959850
1772.000000	48.846933
1771.000000	48.782586
1770.000000	48.722727
1769.000000	48.650635
1768.000000	48.624353
1767.000000	48.566261
1766.000000	48.540179
1765.000000	48.447214
1764.000000	48.409187
1763.000000	48.339394
1762.000000	48.274714
1761.000000	48.238115
1760.000000	48.176569
1759.000000	48.110535
1758.000000	48.059059
1757.000000	48.002547
1756.000000	47.950690
1755.000000	47.885130
1754.000000	47.850221
1753.000000	47.816751
1752.000000	47.758227
1751.000000	47.681697
1750.000000	47.629553
1749.000000	47.554772
1748.000000	47.496880
1747.000000	47.434997
1746.000000	47.367085
1745.000000	47.337534
1744.000000	47.246287
1743.000000	47.217316
1742.000000	47.129632
1741.000000	47.107197
1740.000000	47.077235
1739.000000	46.992218
1738.000000	46.954313
1737.000000	46.893500
1736.000000	46.897289
1735.000000	46.869023
1734.000000	46.885111
1733.000000	46.851062
1732.000000	46.841922
1731.000000	46.862311
1730.000000	46.878832
1729.000000	46.888425
1728.000000	46.975461
1727.000000	47.004483
1726.000000	47.087039
1725.000000	47.165669
1724.000000	47.237800
1723.000000	47.307543
1722.000000	47.389102
1721.000000	47.471766
1720.000000	47.577227
1719.000000	47.671758
1718.000000	47.751360
1717.000000	47.839557
1716.000000	47.980603
1715.000000	48.044994
1714.000000	48.091832
1713.000000	48.197318
1712.000000	48.272260
1711.000000	48.323359
1710.000000	48.381520
1709.000000	48.461394
1708.000000	48.500546
1707.000000	48.534108
1706.000000	48.564053
1705.000000	48.606908
1704.000000	48.639905
1703.000000	48.648591
1702.000000	48.636485
1701.000000	48.688239
1700.000000	48.689542
1699.000000	48.697121
1698.000000	48.753547
1697.000000	48.796046
1696.000000	48.830577
1695.000000	48.833510
1694.000000	48.889399
1693.000000	48.925567
1692.000000	48.969336
1691.000000	49.052469
1690.000000	49.142163
1689.000000	49.204609
1688.000000	49.319580
1687.000000	49.399587
1686.000000	49.569172
1685.000000	49.674428
1684.000000	49.831496
1683.000000	49.990104
1682.000000	50.159680
1681.000000	50.321391
1680.000000	50.476684
1679.000000	50.654201
1678.000000	50.800348
1677.000000	50.951793
1676.000000	51.145110
1675.000000	51.332690
1674.000000	51.502202
1673.000000	51.705048
1672.000000	51.876941
1671.000000	52.011903
1670.000000	52.177783
1669.000000	52.334392
1668.000000	52.451449
1667.000000	52.577688
1666.000000	52.693572
1665.000000	52.782877
1664.000000	52.846516
1663.000000	52.956735
1662.000000	53.054124
1661.000000	53.141625
1660.000000	53.217813
1659.000000	53.269672
1658.000000	53.329180
1657.000000	53.379329
1656.000000	53.423815
1655.000000	53.470569
1654.000000	53.474251
1653.000000	53.493483
1652.000000	53.525409
1651.000000	53.512648
1650.000000	53.524209
1649.000000	53.534044
1648.000000	53.511748
1647.000000	53.508231
1646.000000	53.506058
1645.000000	53.494052
1644.000000	53.495276
1643.000000	53.465244
1642.000000	53.435853
1641.000000	53.415898
1640.000000	53.402819
1639.000000	53.359823
1638.000000	53.346569
1637.000000	53.354215
1636.000000	53.314386
1635.000000	53.263928
1634.000000	53.215484
1633.000000	53.174416
1632.000000	53.164255
1631.000000	53.120967
1630.000000	53.064631
1629.000000	53.018661
1628.000000	52.977225
1627.000000	52.938282
1626.000000	52.914677
1625.000000	52.867694
1624.000000	52.817206
1623.000000	52.782614
1622.000000	52.737757
1621.000000	52.677202
1620.000000	52.654481
1619.000000	52.600411
1618.000000	52.536373
1617.000000	52.481774
1616.000000	52.440583
1615.000000	52.393093
1614.000000	52.339398
1613.000000	52.286718
1612.000000	52.225512
1611.000000	52.154253
1610.000000	52.097368
1609.000000	52.067514
1608.000000	52.033853
1607.000000	51.961362
1606.000000	51.884083
1605.000000	51.832751
1604.000000	51.762591
1603.000000	51.704867
1602.000000	51.664029
1601.000000	51.602892
1600.000000	51.540754
1599.000000	51.484417
1598.000000	51.419906
1597.000000	51.358104
1596.000000	51.304393
1595.000000	51.250290
1594.000000	51.207869
1593.000000	51.174494
1592.000000	51.120246
1591.000000	51.061417
1590.000000	51.015932
1589.000000	50.949363
1588.000000	50.897476
1587.000000	50.863621
1586.000000	50.841149
1585.000000	50.806677
1584.000000	50.748130
1583.000000	50.702305
1582.000000	50.662687
1581.000000	50.607859
1580.000000	50.574408
1579.000000	50.535412
1578.000000	50.494952
1577.000000	50.458490
1576.000000	50.404764
1575.000000	50.363257
1574.000000	50.320990
1573.000000	50.284123
1572.000000	50.251367
1571.000000	50.208704
1570.000000	50.168538
1569.000000	50.135054
1568.000000	50.091839
1567.000000	50.062573
1566.000000	50.042088
1565.000000	50.027839
1564.000000	50.000355
1563.000000	49.981034
1562.000000	49.944934
1561.000000	49.927084
1560.000000	49.894056
1559.000000	49.861917
1558.000000	49.849561
1557.000000	49.854769
1556.000000	49.835082
1555.000000	49.827826
1554.000000	49.801300
1553.000000	49.770360
1552.000000	49.719035
1551.000000	49.687340
1550.000000	49.661628
1549.000000	49.635227
1548.000000	49.603755
1547.000000	49.556169
1546.000000	49.519202
1545.000000	49.452662
1544.000000	49.372172
1543.000000	49.301908
1542.000000	49.229093
1541.000000	49.153106
1540.000000	49.076856
1539.000000	49.001887
1538.000000	48.925264
1537.000000	48.841336
1536.000000	48.746570
1535.000000	48.647966
1534.000000	48.576287
1533.000000	48.520291
1532.000000	48.413102
1531.000000	48.319188
1530.000000	48.262452
1529.000000	48.174223
1528.000000	48.088689
1527.000000	48.022269
1526.000000	47.959465
1525.000000	47.903471
1524.000000	47.814248
1523.000000	47.776396
1522.000000	47.730456
1521.000000	47.681822
1520.000000	47.621554
1519.000000	47.597187
1518.000000	47.562402
1517.000000	47.516923
1516.000000	47.482289
1515.000000	47.452631
1514.000000	47.416221
1513.000000	47.386635
1512.000000	47.344082
1511.000000	47.315746
1510.000000	47.307402
1509.000000	47.310786
1508.000000	47.275129
1507.000000	47.276571
1506.000000	47.269035
1505.000000	47.247415
1504.000000	47.247894
1503.000000	47.255321
1502.000000	47.252540
1501.000000	47.233525
1500.000000	47.252490
1499.000000	47.254840
1498.000000	47.277779
1497.000000	47.296509
1496.000000	47.329856
1495.000000	47.352692
1494.000000	47.377300
1493.000000	47.401920
1492.000000	47.432745
1491.000000	47.511122
1490.000000	47.550075
1489.000000	47.600577
1488.000000	47.658751
1487.000000	47.716264
1486.000000	47.784641
1485.000000	47.841765
1484.000000	47.920373
1483.000000	47.990710
1482.000000	48.053885
1481.000000	48.138136
1480.000000	48.220588
1479.000000	48.278313
1478.000000	48.359288
1477.000000	48.424920
1476.000000	48.503024
1475.000000	48.559037
1474.000000	48.639030
1473.000000	48.698351
1472.000000	48.763254
1471.000000	48.805693
1470.000000	48.888141
1469.000000	48.985889
1468.000000	49.043056
1467.000000	49.094925
1466.000000	49.151135
1465.000000	49.215677
1464.000000	49.267544
1463.000000	49.324869
1462.000000	49.375245
1461.000000	49.420177
1460.000000	49.474348
1459.000000	49.539148
1458.000000	49.609761
1457.000000	49.648757
1456.000000	49.711055
1455.000000	49.783881
1454.000000	49.847789
1453.000000	49.903632
1452.000000	49.984841
1451.000000	50.043799
1450.000000	50.117606
1449.000000	50.194209
1448.000000	50.266777
1447.000000	50.324761
1446.000000	50.385259
1445.000000	50.477478
1444.000000	50.571452
1443.000000	50.635455
1442.000000	50.707758
1441.000000	50.784392
1440.000000	50.907747
1439.000000	51.014114
1438.000000	51.090830
1437.000000	51.185395
1436.000000	51.287943
1435.000000	51.384036
1434.000000	51.470825
1433.000000	51.584406
1432.000000	51.689796
1431.000000	51.809686
1430.000000	51.917466
1429.000000	52.032524
1428.000000	52.157832
1427.000000	52.276587
1426.000000	52.406817
1425.000000	52.537714
1424.000000	52.679727
1423.000000	52.836872
1422.000000	52.972106
1421.000000	53.127862
1420.000000	53.259304
1419.000000	53.398819
1418.000000	53.547659
1417.000000	53.710926
1416.000000	53.863319
1415.000000	54.030093
1414.000000	54.197014
1413.000000	54.360287
1412.000000	54.498557
1411.000000	54.645060
1410.000000	54.810556
1409.000000	54.981142
1408.000000	55.140970
1407.000000	55.284228
1406.000000	55.435609
1405.000000	55.597022
1404.000000	55.731535
1403.000000	55.876565
1402.000000	56.021321
1401.000000	56.168363
1400.000000	56.309426
1399.000000	56.428081
1398.000000	56.548306
1397.000000	56.691048
1396.000000	56.806922
1395.000000	56.917764
1394.000000	57.038885
1393.000000	57.162162
1392.000000	57.282137
1391.000000	57.390998
1390.000000	57.492429
1389.000000	57.583861
1388.000000	57.680180
1387.000000	57.775448
1386.000000	57.865720
1385.000000	57.950026
1384.000000	58.044848
1383.000000	58.124997
1382.000000	58.186265
1381.000000	58.258897
1380.000000	58.341732
1379.000000	58.413756
1378.000000	58.476039
1377.000000	58.529111
1376.000000	58.575142
1375.000000	58.627789
1374.000000	58.677977
1373.000000	58.740776
1372.000000	58.798204
1371.000000	58.839010
1370.000000	58.883448
1369.000000	58.925784
1368.000000	58.970087
1367.000000	59.028025
1366.000000	59.067589
1365.000000	59.110434
1364.000000	59.159289
1363.000000	59.201921
1362.000000	59.244492
1361.000000	59.309876
1360.000000	59.365414
1359.000000	59.413825
1358.000000	59.466499
1357.000000	59.518130
1356.000000	59.574907
1355.000000	59.613892
1354.000000	59.673436
1353.000000	59.725730
1352.000000	59.782915
1351.000000	59.857876
1350.000000	59.893539
1349.000000	59.929691
1348.000000	59.997936
1347.000000	60.044842
1346.000000	60.093577
1345.000000	60.148089
1344.000000	60.195011
1343.000000	60.247344
1342.000000	60.287420
1341.000000	60.339940
1340.000000	60.377899
1339.000000	60.433176
1338.000000	60.474378
1337.000000	60.495093
1336.000000	60.531551
1335.000000	60.567862
1334.000000	60.606898
1333.000000	60.653242
1332.000000	60.703772
1331.000000	60.757753
1330.000000	60.782862
1329.000000	60.797258
1328.000000	60.807300
1327.000000	60.847932
1326.000000	60.848150
1325.000000	60.862434
1324.000000	60.902196
1323.000000	60.932652
1322.000000	60.942248
1321.000000	60.951143
1320.000000	60.943782
1319.000000	60.956454
1318.000000	61.005332
1317.000000	61.008879
1316.000000	61.033987
1315.000000	61.045914
1314.000000	61.035764
1313.000000	61.057855
1312.000000	61.083895
1311.000000	61.081884
1310.000000	61.103048
1309.000000	61.135317
1308.000000	61.135775
1307.000000	61.132320
1306.000000	61.159846
1305.000000	61.159567
1304.000000	61.180783
1303.000000	61.184945
1302.000000	61.183621
1301.000000	61.200157
1300.000000	61.224248
1299.000000	61.213627
1298.000000	61.201128
1297.000000	61.211276
1296.000000	61.202109
1295.000000	61.201206
1294.000000	61.207159
1293.000000	61.201723
1292.000000	61.192340
1291.000000	61.206534
1290.000000	61.210676
1289.000000	61.201475
1288.000000	61.187284
1287.000000	61.155563
1286.000000	61.152159
1285.000000	61.160069
1284.000000	61.164612
1283.000000	61.159830
1282.000000	61.160866
1281.000000	61.170510
1280.000000	61.168957
1279.000000	61.163435
1278.000000	61.158874
1277.000000	61.153617
1276.000000	61.156513
1275.000000	61.184999
1274.000000	61.159557
1273.000000	61.177103
1272.000000	61.172019
1271.000000	61.165310
1270.000000	61.155801
1269.000000	61.169949
1268.000000	61.177471
1267.000000	61.195694
1266.000000	61.185030
1265.000000	61.192454
1264.000000	61.214128
1263.000000	61.219354
1262.000000	61.245953
1261.000000	61.259599
1260.000000	61.250120
1259.000000	61.256316
1258.000000	61.288845
1257.000000	61.280621
1256.000000	61.301395
1255.000000	61.306640
1254.000000	61.300158
1253.000000	61.297413
1252.000000	61.304216
1251.000000	61.298654
1250.000000	61.306463
1249.000000	61.300148
1248.000000	61.293928
1247.000000	61.290287
1246.000000	61.270740
1245.000000	61.278237
1244.000000	61.278714
1243.000000	61.254284
1242.000000	61.219293
1241.000000	61.220838
1240.000000	61.200038
1239.000000	61.192130
1238.000000	61.150325
1237.000000	61.142510
1236.000000	61.134765
1235.000000	61.104924
1234.000000	61.050106
1233.000000	61.057455
1232.000000	61.054977
1231.000000	61.048132
1230.000000	61.033443
1229.000000	60.979829
1228.000000	60.953180
1227.000000	60.951348
1226.000000	60.942235
1225.000000	60.936171
1224.000000	60.922970
1223.000000	60.896889
1222.000000	60.865172
1221.000000	60.835046
1220.000000	60.819227
1219.000000	60.794510
1218.000000	60.786352
1217.000000	60.748427
1216.000000	60.733846
1215.000000	60.701049
1214.000000	60.682635
1213.000000	60.669783
1212.000000	60.649380
1211.000000	60.628316
1210.000000	60.599187
1209.000000	60.566637
1208.000000	60.543547
1207.000000	60.513437
1206.000000	60.491892
1205.000000	60.464795
1204.000000	60.442425
1203.000000	60.399970
1202.000000	60.380888
1201.000000	60.357052
1200.000000	60.319271
1199.000000	60.295311
1198.000000	60.265234
1197.000000	60.266301
1196.000000	60.243787
1195.000000	60.217446
1194.000000	60.186253
1193.000000	60.169464
1192.000000	60.151130
1191.000000	60.141310
1190.000000	60.133889
1189.000000	60.084667
1188.000000	60.083513
1187.000000	60.093595
1186.000000	60.094577
1185.000000	60.099347
1184.000000	60.096394
1183.000000	60.113558
1182.000000	60.148169
1181.000000	60.173632
1180.000000	60.186449
1179.000000	60.212606
1178.000000	60.251893
1177.000000	60.292740
1176.000000	60.326428
1175.000000	60.372079
1174.000000	60.418257
1173.000000	60.452458
1172.000000	60.498298
1171.000000	60.548011
1170.000000	60.608909
1169.000000	60.667889
1168.000000	60.715572
1167.000000	60.780456
1166.000000	60.841742
1165.000000	60.900569
1164.000000	60.964240
1163.000000	61.017725
1162.000000	61.069365
1161.000000	61.142691
1160.000000	61.207067
1159.000000	61.264236
1158.000000	61.321794
1157.000000	61.362855
1156.000000	61.401201
1155.000000	61.452905
1154.000000	61.502103
1153.000000	61.563166
1152.000000	61.617981
1151.000000	61.663436
1150.000000	61.710191
1149.000000	61.752881
1148.000000	61.785781
1147.000000	61.831883
1146.000000	61.871174
1145.000000	61.884187
1144.000000	61.917943
1143.000000	61.968934
1142.000000	62.010955
1141.000000	62.046139
1140.000000	62.060796
1139.000000	62.086952
1138.000000	62.130057
1137.000000	62.156858
1136.000000	62.186771
1135.000000	62.222679
1134.000000	62.266746
1133.000000	62.285217
1132.000000	62.285706
1131.000000	62.323926
1130.000000	62.358420
1129.000000	62.372795
1128.000000	62.400682
1127.000000	62.405011
1126.000000	62.410276
1125.000000	62.441492
1124.000000	62.459279
1123.000000	62.456848
1122.000000	62.476317
1121.000000	62.499274
1120.000000	62.521857
1119.000000	62.537579
1118.000000	62.530129
1117.000000	62.533386
1116.000000	62.542524
1115.000000	62.542781
1114.000000	62.555081
1113.000000	62.554789
1112.000000	62.567515
1111.000000	62.560732
1110.000000	62.559374
1109.000000	62.574374
1108.000000	62.565529
1107.000000	62.572929
1106.000000	62.572333
1105.000000	62.583824
1104.000000	62.573821
1103.000000	62.585333
1102.000000	62.580163
1101.000000	62.585283
1100.000000	62.589743
1099.000000	62.599853
1098.000000	62.572076
1097.000000	62.564539
1096.000000	62.579331
1095.000000	62.574807
1094.000000	62.583699
1093.000000	62.579645
1092.000000	62.602476
1091.000000	62.570229
1090.000000	62.565301
1089.000000	62.567642
1088.000000	62.586957
1087.000000	62.608794
1086.000000	62.596229
1085.000000	62.559799
1084.000000	62.570868
1083.000000	62.570940
1082.000000	62.571687
1081.000000	62.586907
1080.000000	62.567073
1079.000000	62.548797
1078.000000	62.541577
1077.000000	62.524345
1076.000000	62.524805
1075.000000	62.549897
1074.000000	62.530521
1073.000000	62.524223
1072.000000	62.517512
1071.000000	62.519991
1070.000000	62.512115
1069.000000	62.497903
1068.000000	62.515386
1067.000000	62.486975
1066.000000	62.495622
1065.000000	62.472659
1064.000000	62.472936
1063.000000	62.472767
1062.000000	62.458622
1061.000000	62.441359
1060.000000	62.426963
1059.000000	62.435868
1058.000000	62.460345
1057.000000	62.433408
1056.000000	62.405520
1055.000000	62.417939
1054.000000	62.417666
1053.000000	62.437468
1052.000000	62.414238
1051.000000	62.400257
1050.000000	62.425530
1049.000000	62.408761
1048.000000	62.392035
1047.000000	62.382488
1046.000000	62.371998
1045.000000	62.366852
1044.000000	62.376592
1043.000000	62.365853
1042.000000	62.361444
1041.000000	62.371075
1040.000000	62.348658
1039.000000	62.365623
1038.000000	62.350894
1037.000000	62.335045
1036.000000	62.326133
1035.000000	62.352454
1034.000000	62.345230
1033.000000	62.321590
1032.000000	62.333701
1031.000000	62.319644
1030.000000	62.304662
1029.000000	62.310089
1028.000000	62.299357
1027.000000	62.303855
1026.000000	62.308123
1025.000000	62.304917
1024.000000	62.302287
1023.000000	62.284063
1022.000000	62.293140
1021.000000	62.283618
1020.000000	62.292803
1019.000000	62.315036
1018.000000	62.301910
1017.000000	62.304970
1016.000000	62.310916
1015.000000	62.295785
1014.000000	62.300010
1013.000000	62.306207
1012.000000	62.332741
1011.000000	62.297784
1010.000000	62.317690
1009.000000	62.312245
1008.000000	62.327633
1007.000000	62.334704
1006.000000	62.340596
1005.000000	62.332205
1004.000000	62.331096
1003.000000	62.335972
1002.000000	62.351373
1001.000000	62.337713
1000.000000	62.342530
999.000000	62.346433
998.000000	62.349463
997.000000	62.361919
996.000000	62.372103
995.000000	62.368525
994.000000	62.390117
993.000000	62.394193
992.000000	62.369848
991.000000	62.362504
990.000000	62.379416
989.000000	62.387395
988.000000	62.375245
987.000000	62.383686
986.000000	62.395833
985.000000	62.412925
984.000000	62.389581
983.000000	62.408851
982.000000	62.423476
981.000000	62.417526
980.000000	62.433481
979.000000	62.444785
978.000000	62.446855
977.000000	62.459319
976.000000	62.465416
975.000000	62.477856
974.000000	62.478672
973.000000	62.474599
972.000000	62.482614
971.000000	62.482489
970.000000	62.477448
969.000000	62.486483
968.000000	62.478058
967.000000	62.482344
966.000000	62.508578
965.000000	62.511116
964.000000	62.521681
963.000000	62.531767
962.000000	62.548244
961.000000	62.554883
960.000000	62.553444
959.000000	62.549297
958.000000	62.550705
957.000000	62.563919
956.000000	62.579073
955.000000	62.583174
954.000000	62.581312
953.000000	62.578791
952.000000	62.589350
951.000000	62.587875
950.000000	62.597031
949.000000	62.611838
948.000000	62.621893
947.000000	62.606881
946.000000	62.607849
945.000000	62.622431
944.000000	62.623554
943.000000	62.622791
942.000000	62.609699
941.000000	62.625484
940.000000	62.642692
939.000000	62.629890
938.000000	62.627416
937.000000	62.637393
936.000000	62.626779
935.000000	62.597355
934.000000	62.589061
933.000000	62.593051
932.000000	62.587911
931.000000	62.606517
930.000000	62.620053
929.000000	62.623688
928.000000	62.615681
927.000000	62.598008
926.000000	62.615658
925.000000	62.618303
924.000000	62.604082
923.000000	62.609429
922.000000	62.607284
921.000000	62.602673
920.000000	62.617032
919.000000	62.637854
918.000000	62.664147
917.000000	62.641194
916.000000	62.626630
915.000000	62.638153
914.000000	62.645099
913.000000	62.619200
912.000000	62.598257
911.000000	62.603792
910.000000	62.641974
909.000000	62.615235
908.000000	62.630169
907.000000	62.631650
906.000000	62.639777
905.000000	62.647384
904.000000	62.666316
903.000000	62.707038
902.000000	62.653860
901.000000	62.642428
900.000000	62.683522
899.000000	62.674044
898.000000	62.677206
897.000000	62.674311
896.000000	62.721660
895.000000	62.683470
894.000000	62.669922
893.000000	62.653062
892.000000	62.655584
891.000000	62.753006
890.000000	62.732311
889.000000	62.730173
888.000000	62.739816
887.000000	62.771879
886.000000	62.704060
885.000000	62.773521
884.000000	62.802846
883.000000	62.880556
882.000000	62.829279
881.000000	62.785710
880.000000	62.828796
879.000000	62.802708
878.000000	62.787373
877.000000	62.801500
876.000000	62.836179
875.000000	62.772370
874.000000	62.948561
873.000000	62.745878
872.000000	62.792430
871.000000	62.808215
870.000000	62.813301
869.000000	62.893336
868.000000	62.786985
867.000000	62.868089
866.000000	62.823543
865.000000	62.839662
864.000000	62.833853
863.000000	62.917434
862.000000	62.750726
861.000000	62.980721
860.000000	62.722917
859.000000	62.705696
858.000000	62.083262
857.000000	62.564672
856.000000	62.326930
855.000000	62.098588
854.000000	62.083917
853.000000	62.477240
852.000000	63.216619
851.000000	62.724735
850.000000	62.759126
849.000000	62.668177
848.000000	62.733710
847.000000	62.485839
846.000000	62.905086
845.000000	62.484243
844.000000	62.791689
843.000000	62.799884
842.000000	62.646696
841.000000	62.609205
840.000000	62.871679
839.000000	62.927103
838.000000	62.635689
837.000000	62.858324
836.000000	62.753542
835.000000	62.601308
834.000000	62.736073
833.000000	62.536982
832.000000	62.856531
831.000000	62.750443
830.000000	62.833079
829.000000	62.480729
828.000000	62.530715
827.000000	62.644304
826.000000	62.627842
825.000000	62.423449
824.000000	62.571209
823.000000	62.678458
822.000000	62.727435
821.000000	62.660402
820.000000	62.807981
819.000000	62.651916
818.000000	62.620040
817.000000	62.546176
816.000000	62.692799
815.000000	62.562427
814.000000	62.612166
813.000000	62.577996
812.000000	62.693186
811.000000	62.594420
810.000000	62.543919
809.000000	62.718074
808.000000	62.747225
807.000000	62.625246
806.000000	62.690349
805.000000	62.523661
804.000000	62.931794
803.000000	62.761026
802.000000	62.622222
801.000000	62.792715
800.000000	62.684931
799.000000	62.677904
798.000000	62.770899
797.000000	62.884719
796.000000	62.769437
795.000000	62.784401
794.000000	62.626845
793.000000	62.734107
792.000000	62.710772
791.000000	62.737616
790.000000	62.685422
789.000000	62.776247
788.000000	62.758544
787.000000	62.675195
786.000000	62.728259
785.000000	62.620098
784.000000	62.636570
783.000000	62.749574
782.000000	62.696329
781.000000	62.701378
780.000000	62.601622
779.000000	62.763388
778.000000	62.792885
777.000000	62.839203
776.000000	62.734103
775.000000	62.707068
774.000000	62.734193
773.000000	62.712174
772.000000	62.810432
771.000000	62.819189
770.000000	62.795420
769.000000	62.688830
768.000000	62.726462
767.000000	62.688615
766.000000	62.628344
765.000000	62.699875
764.000000	62.673606
763.000000	62.642290
762.000000	62.686785
761.000000	62.698964
760.000000	62.753232
759.000000	62.814568
758.000000	62.775230
757.000000	62.755653
756.000000	62.730096
755.000000	62.746018
754.000000	62.714353
753.000000	62.708872
752.000000	62.648174
751.000000	62.755842
750.000000	62.748796
749.000000	62.731689
748.000000	62.664953
747.000000	62.689511
746.000000	62.775749
745.000000	62.729735
744.000000	62.691262
743.000000	62.689379
742.000000	62.721964
741.000000	62.668001
740.000000	62.714787
739.000000	62.762852
738.000000	62.768414
737.000000	62.786037
736.000000	62.689613
735.000000	62.596857
734.000000	62.659640
733.000000	62.712395
732.000000	62.709152
731.000000	62.717667
730.000000	62.697803
729.000000	62.647103
728.000000	62.698359
727.000000	62.715503
726.000000	62.690363
725.000000	62.607441
724.000000	62.654346
723.000000	62.692963
722.000000	62.717851
721.000000	62.695099
720.000000	62.622911
719.000000	62.648468
718.000000	62.616319
717.000000	62.623652
716.000000	62.631673
715.000000	62.685479
714.000000	62.685704
713.000000	62.696925
712.000000	62.686947
711.000000	62.669813
710.000000	62.693567
709.000000	62.665913
708.000000	62.697318
707.000000	62.727717
706.000000	62.715533
705.000000	62.687272
704.000000	62.703141
703.000000	62.753752
702.000000	62.744308
701.000000	62.712342
700.000000	62.675262
699.000000	62.725763
698.000000	62.704895
697.000000	62.643175
696.000000	62.729754
695.000000	62.770214
694.000000	62.776282
693.000000	62.720278
692.000000	62.715062
691.000000	62.731932
690.000000	62.666054
689.000000	62.676550
688.000000	62.651381
687.000000	62.607626
686.000000	62.637762
685.000000	62.662824
684.000000	62.707589
683.000000	62.680260
682.000000	62.643535
681.000000	62.667320
680.000000	62.708079
679.000000	62.725958
678.000000	62.736136
677.000000	62.724003
676.000000	62.684990
675.000000	62.701367
674.000000	62.708084
673.000000	62.712956
672.000000	62.698176
671.000000	62.707657
670.000000	62.728222
669.000000	62.743720
668.000000	62.704311
667.000000	62.753801
666.000000	62.774775
665.000000	62.763028
664.000000	62.718673
663.000000	62.742138
662.000000	62.752782
661.000000	62.747251
660.000000	62.722325
659.000000	62.726539
658.000000	62.716841
657.000000	62.749888
656.000000	62.775237
655.000000	62.743212
654.000000	62.837636
653.000000	62.808272
652.000000	62.769856
651.000000	62.716347
650.000000	62.739510
649.000000	62.756851
648.000000	62.795953
647.000000	62.764122
646.000000	62.728710
645.000000	62.779191
644.000000	62.806096
643.000000	62.798922
642.000000	62.778120
641.000000	62.782884
640.000000	62.768632
639.000000	62.771040
638.000000	62.752667
637.000000	62.791232
636.000000	62.785121
635.000000	62.791473
634.000000	62.778382
633.000000	62.802033
632.000000	62.788117
631.000000	62.850221
630.000000	62.798913
629.000000	62.811570
628.000000	62.793145
627.000000	62.779371
626.000000	62.815314
625.000000	62.858335
624.000000	62.834166
623.000000	62.779167
622.000000	62.802859
621.000000	62.805286
620.000000	62.758249
619.000000	62.820099
618.000000	62.777048
617.000000	62.828816
616.000000	62.813234
615.000000	62.789459
614.000000	62.770510
613.000000	62.798228
612.000000	62.837772
611.000000	62.809355
610.000000	62.814693
609.000000	62.771291
608.000000	62.836068
607.000000	62.805684
606.000000	62.743583
605.000000	62.867920
604.000000	62.781395
603.000000	62.831486
602.000000	62.802695
601.000000	62.834145
600.000000	62.854950
599.000000	62.851538
598.000000	62.764368
597.000000	62.769244
596.000000	62.764897
595.000000	62.777671
594.000000	62.816470
593.000000	62.833064
592.000000	62.735403
591.000000	62.715788
590.000000	62.724043
589.000000	62.783784
588.000000	62.755840
587.000000	62.740561
586.000000	62.686635
585.000000	62.740783
584.000000	62.700948
583.000000	62.642288
582.000000	62.728090
581.000000	62.711167
580.000000	62.726498
579.000000	62.741086
578.000000	62.752485
577.000000	62.705897
576.000000	62.718559
575.000000	62.716966
574.000000	62.679518
573.000000	62.678670
572.000000	62.613211
571.000000	62.693309
570.000000	62.676238
569.000000	62.643595
568.000000	62.636763
567.000000	62.675238
566.000000	62.591766
565.000000	62.660848
564.000000	62.628114
563.000000	62.644592
562.000000	62.622290
561.000000	62.601022
560.000000	62.526140
559.000000	62.535238
558.000000	62.565523
557.000000	62.585602
556.000000	62.590438
555.000000	62.553243
554.000000	62.505896
553.000000	62.518112
552.000000	62.462174
551.000000	62.474467
550.000000	62.479389
549.000000	62.490308
548.000000	62.530308
547.000000	62.487894
546.000000	62.434501
545.000000	62.445326
544.000000	62.459657
543.000000	62.444152
542.000000	62.414556
541.000000	62.429170
540.000000	62.349892
539.000000	62.364572
538.000000	62.393014
537.000000	62.355370
536.000000	62.306149
535.000000	62.342618
534.000000	62.283856
533.000000	62.250435
532.000000	62.264731
531.000000	62.255984
530.000000	62.271663
529.000000	62.232598
528.000000	62.203759
527.000000	62.201182
526.000000	62.182050
525.000000	62.180301
524.000000	62.111566
523.000000	62.174539
522.000000	62.121657
521.000000	62.078932
520.000000	62.078129
519.000000	62.072722
518.000000	62.036053
517.000000	62.034686
516.000000	62.010122
515.000000	61.996032
514.000000	61.958455
513.000000	61.972576
512.000000	61.941696
511.000000	61.902847
510.000000	61.847853
509.000000	61.884837
508.000000	61.873942
507.000000	61.829646
506.000000	61.813509
505.000000	61.770047
504.000000	61.754774
503.000000	61.710004
502.000000	61.679797
501.000000	61.660047
500.000000	61.642774
499.000000	61.652719
498.000000	61.609799
497.000000	61.553309
496.000000	61.498025
495.000000	61.458882
494.000000	61.470000
493.000000	61.489351
492.000000	61.436337
491.000000	61.406790
490.000000	61.361757
489.000000	61.277632
488.000000	61.286345
487.000000	61.251529
486.000000	61.188987
485.000000	61.163137
484.000000	61.206922
483.000000	61.131640
482.000000	61.068340
481.000000	61.066185
480.000000	61.018917
479.000000	60.998478
478.000000	60.975601
477.000000	60.913909
476.000000	60.901985
475.000000	60.893443
474.000000	60.811233
473.000000	60.767029
472.000000	60.733919
471.000000	60.723225
470.000000	60.709549
469.000000	60.616779
468.000000	60.548447
467.000000	60.527928
466.000000	60.480571
465.000000	60.390917
464.000000	60.328564
463.000000	60.345791
462.000000	60.293632
461.000000	60.182728
460.000000	60.125492
459.000000	60.108042
458.000000	60.048505
457.000000	59.979776
456.000000	59.893867
455.000000	59.807091
454.000000	59.761858
453.000000	59.705547
452.000000	59.632912
451.000000	59.522844
450.000000	59.464904
449.000000	59.390472
448.000000	59.304682
447.000000	59.234993
446.000000	59.222084
445.000000	59.139906
444.000000	58.948740
443.000000	58.840604
442.000000	58.781893
441.000000	58.757521
440.000000	58.672343
439.000000	58.588763
438.000000	58.517370
437.000000	58.365389
436.000000	58.289955
435.000000	58.165152
434.000000	58.062266
433.000000	58.067256
432.000000	57.968168
431.000000	57.820404
430.000000	57.755910
429.000000	57.661049
428.000000	57.521284
427.000000	57.433234
426.000000	57.363943
425.000000	57.304028
424.000000	57.202799
423.000000	57.033902
422.000000	56.873934
421.000000	56.782831
420.000000	56.724845
419.000000	56.641139
418.000000	56.476859
417.000000	56.337512
416.000000	56.196368
415.000000	56.084066
414.000000	55.980381
413.000000	55.892444
412.000000	55.762759
411.000000	55.613903
410.000000	55.462892
409.000000	55.329312
408.000000	55.176113
407.000000	55.122850
406.000000	54.973620
405.000000	54.740388
404.000000	54.691279
403.000000	54.545643
402.000000	54.380880
401.000000	54.244355
400.000000	54.057664
399.000000	53.925421
398.000000	53.826863
397.000000	53.707371
396.000000	53.522087
395.000000	53.378293
394.000000	53.252756
393.000000	53.059113
392.000000	52.906452
391.000000	52.788043
390.000000	52.659242
389.000000	52.449424
388.000000	52.242144
387.000000	52.084766
386.000000	51.939937
385.000000	51.762220
384.000000	51.641243
383.000000	51.478044
382.000000	51.289100
381.000000	51.127822
380.000000	50.857300
379.000000	50.520287
378.000000	50.500176
377.000000	50.285118
376.000000	50.178791
375.000000	50.044763
374.000000	49.704603
373.000000	49.578483
372.000000	49.411839
371.000000	49.049505
370.000000	48.841934
369.000000	48.554967
368.000000	48.579416
367.000000	48.147274
366.000000	48.016425
365.000000	47.553153
364.000000	47.412226
363.000000	47.311473
362.000000	47.130366
361.000000	46.885525
360.000000	46.492439
359.000000	46.271869
358.000000	46.038970
357.000000	45.852307
356.000000	45.584480
355.000000	45.254879
354.000000	45.071308
353.000000	44.875969
352.000000	44.626745
351.000000	44.397017
350.000000	44.287171
349.000000	44.038659
348.000000	43.737154
347.000000	43.506927
346.000000	43.341504
345.000000	43.036503
344.000000	42.748589
343.000000	42.664982
342.000000	42.262263
341.000000	42.315178
340.000000	41.990352
339.000000	41.632032
338.000000	41.597497
337.000000	41.125965
336.000000	41.141300
335.000000	40.844800
334.000000	40.393796
333.000000	40.407273
332.000000	40.008832
331.000000	40.089618
330.000000	39.522046
329.000000	39.264995
328.000000	38.794751
327.000000	38.793578
326.000000	38.414064
325.000000	38.261201
324.000000	37.663805
323.000000	37.322028
322.000000	37.322818
321.000000	36.933113
320.000000	36.620384
319.000000	36.492714
318.000000	35.889149
317.000000	35.539557
316.000000	35.307726
315.000000	35.036142
314.000000	34.710062
313.000000	34.338812
312.000000	34.201558
311.000000	33.808226
310.000000	33.424427
309.000000	33.065011
308.000000	32.642986
307.000000	32.394165
306.000000	32.162502
305.000000	31.592349
304.000000	31.149945
303.000000	30.716934
302.000000	30.300771
301.000000	29.833702
300.000000	29.306506
299.000000	28.663816
298.000000	28.023841
297.000000	27.313480
296.000000	26.424175
295.000000	25.452097
294.000000	24.410013
293.000000	23.338274
292.000000	22.113583
291.000000	21.039561
290.000000	19.877931
289.000000	18.891136
288.000000	17.978058
287.000000	17.333191
286.000000	16.898863
285.000000	16.505999
284.000000	16.309506
283.000000	16.132577
282.000000	15.956461
281.000000	15.767296
280.000000	15.629715
279.000000	15.572514
278.000000	15.514968
277.000000	15.472225
276.000000	15.555817
275.000000	15.595754
274.000000	15.598368
273.000000	15.709003
272.000000	15.840300
271.000000	15.860302
270.000000	15.837062
269.000000	15.793379
268.000000	15.869749
267.000000	16.036203
266.000000	16.140386
265.000000	16.322746
264.000000	16.395091
263.000000	16.537925
262.000000	16.716042
261.000000	16.881506
260.000000	17.049247
259.000000	17.254892
258.000000	17.473990
257.000000	17.667214
256.000000	17.890809
255.000000	18.119259
254.000000	18.281393
253.000000	18.370082
252.000000	18.471349
251.000000	18.551652
250.000000	18.508969
249.000000	18.373169
248.000000	18.178690
247.000000	17.890676
246.000000	17.581096
245.000000	17.219609
244.000000	16.868642
243.000000	16.468259
242.000000	16.188728
241.000000	15.883848
240.000000	15.647516
239.000000	15.605640
238.000000	15.642934
237.000000	15.750104
236.000000	15.879219
235.000000	15.978513
234.000000	16.141527
233.000000	16.342093
232.000000	16.471244
231.000000	16.485801
230.000000	16.597203
229.000000	16.756165
228.000000	16.789431
227.000000	16.843934
226.000000	16.966121
225.000000	17.128197
224.000000	17.342640
223.000000	17.517730
222.000000	17.721584
221.000000	18.032228
220.000000	18.283873
219.000000	18.521722
218.000000	18.705889
217.000000	18.907685
216.000000	19.299194
215.000000	19.577758
214.000000	19.872307
213.000000	20.357141
212.000000	20.775388
211.000000	21.237056
210.000000	21.538269
209.000000	21.892704
208.000000	22.325638
207.000000	22.756675
206.000000	23.066055
205.000000	23.545404
204.000000	24.315027
203.000000	24.708494
202.000000	25.112592
201.000000	25.739541
200.000000	26.346682
