PE UV       SUBTECH     SPECTRUM    ASCII       PEDS        4.00        
   -1
Empty chamber.Sample.asc
18/03/23
08:55:48.00
18/03/23
08:55:48.00
Administrator

200.000000
1
Lambda 750
750N8071901
PerkinElmer UV WinLab 6.0.4.0738 / 1.61.00 Lambda 900

0
0
3350/servo 860.8/2
0
0
UV/VIS
1
1
1
CommonBeamDepol,150mm sphere / downward view
0
0
0
0
Program
Program
3350/servo 860.8/2
3350/0.2 860.8/0.2
3350/0.2 860.8/0.2
0
1
 
 
 
0
 
860.8
319.2
860.8
Front
100
on
 
 
0
0
0
 
0
 
 
 
0
 
 
0
0
0
0
0
 
 
 
 
0
0


0
0
#HDR
-1
-1
#GR
nm
%T
1.0
0.0
2350.000000
-1.000000
2151
8
100.510383
99.382967
#DATA
2350.000000	99.755314
2349.000000	99.382967
2348.000000	100.193456
2347.000000	100.079442
2346.000000	100.043567
2345.000000	99.648489
2344.000000	100.279029
2343.000000	100.136454
2342.000000	100.147713
2341.000000	100.342472
2340.000000	100.085275
2339.000000	100.072769
2338.000000	100.106298
2337.000000	99.854655
2336.000000	100.022442
2335.000000	99.681191
2334.000000	99.954859
2333.000000	100.150794
2332.000000	100.132320
2331.000000	99.913086
2330.000000	99.804748
2329.000000	99.826659
2328.000000	100.006692
2327.000000	99.835278
2326.000000	100.128231
2325.000000	100.000000
2324.000000	100.115771
2323.000000	100.252960
2322.000000	99.850129
2321.000000	100.009523
2320.000000	100.143141
2319.000000	99.753413
2318.000000	99.892345
2317.000000	100.177314
2316.000000	99.717676
2315.000000	99.764180
2314.000000	100.139840
2313.000000	100.038770
2312.000000	100.105132
2311.000000	100.466479
2310.000000	100.167994
2309.000000	100.242688
2308.000000	100.170778
2307.000000	99.829444
2306.000000	99.895784
2305.000000	100.112443
2304.000000	99.848392
2303.000000	100.066141
2302.000000	100.248944
2301.000000	100.118954
2300.000000	100.232044
2299.000000	99.956605
2298.000000	99.695297
2297.000000	100.016124
2296.000000	99.943161
2295.000000	99.914162
2294.000000	100.144920
2293.000000	100.117407
2292.000000	100.128851
2291.000000	99.944418
2290.000000	99.946216
2289.000000	100.103261
2288.000000	100.127741
2287.000000	99.974953
2286.000000	100.071947
2285.000000	100.322018
2284.000000	100.147968
2283.000000	99.973412
2282.000000	99.890193
2281.000000	99.928615
2280.000000	99.856744
2279.000000	99.853692
2278.000000	99.906031
2277.000000	99.925759
2276.000000	99.864246
2275.000000	99.844931
2274.000000	99.920002
2273.000000	100.002130
2272.000000	100.183644
2271.000000	99.994114
2270.000000	99.974420
2269.000000	100.062207
2268.000000	100.125199
2267.000000	100.265333
2266.000000	100.213921
2265.000000	100.107871
2264.000000	100.079010
2263.000000	100.167629
2262.000000	100.076159
2261.000000	99.933450
2260.000000	99.989044
2259.000000	99.963188
2258.000000	99.919650
2257.000000	100.058111
2256.000000	100.049476
2255.000000	100.116469
2254.000000	99.995632
2253.000000	99.936154
2252.000000	100.048968
2251.000000	99.962325
2250.000000	100.034733
2249.000000	100.094782
2248.000000	100.050480
2247.000000	99.885601
2246.000000	99.797682
2245.000000	99.883733
2244.000000	99.933885
2243.000000	99.994927
2242.000000	100.028730
2241.000000	99.988836
2240.000000	100.041099
2239.000000	100.014111
2238.000000	99.990152
2237.000000	100.077765
2236.000000	99.957390
2235.000000	99.959525
2234.000000	100.100601
2233.000000	100.123878
2232.000000	99.972591
2231.000000	99.949611
2230.000000	99.978606
2229.000000	99.978690
2228.000000	100.011674
2227.000000	99.988835
2226.000000	99.979189
2225.000000	99.901878
2224.000000	99.920657
2223.000000	99.949860
2222.000000	99.892134
2221.000000	99.904085
2220.000000	99.957458
2219.000000	99.937472
2218.000000	99.923771
2217.000000	99.964590
2216.000000	99.863001
2215.000000	99.777113
2214.000000	99.745525
2213.000000	100.026798
2212.000000	100.030145
2211.000000	99.967423
2210.000000	100.006905
2209.000000	99.978272
2208.000000	99.909819
2207.000000	100.061930
2206.000000	99.902952
2205.000000	99.986210
2204.000000	100.165227
2203.000000	100.030115
2202.000000	100.009025
2201.000000	100.101550
2200.000000	99.991484
2199.000000	99.991991
2198.000000	100.157104
2197.000000	99.969784
2196.000000	100.052942
2195.000000	99.983580
2194.000000	99.876952
2193.000000	99.858637
2192.000000	99.939909
2191.000000	99.972222
2190.000000	99.913017
2189.000000	100.086636
2188.000000	100.076677
2187.000000	99.693428
2186.000000	100.049714
2185.000000	99.950083
2184.000000	100.125897
2183.000000	100.229226
2182.000000	99.985606
2181.000000	100.188379
2180.000000	100.146402
2179.000000	99.922245
2178.000000	100.019743
2177.000000	100.108997
2176.000000	99.918387
2175.000000	100.111841
2174.000000	99.943020
2173.000000	99.835962
2172.000000	99.940101
2171.000000	100.029151
2170.000000	99.712189
2169.000000	99.849329
2168.000000	100.232227
2167.000000	100.012340
2166.000000	99.942028
2165.000000	100.080754
2164.000000	100.049613
2163.000000	99.983228
2162.000000	99.961708
2161.000000	100.092752
2160.000000	100.089430
2159.000000	100.056325
2158.000000	99.905535
2157.000000	99.991211
2156.000000	100.090399
2155.000000	100.047125
2154.000000	99.932075
2153.000000	100.229799
2152.000000	99.976602
2151.000000	100.155015
2150.000000	99.911892
2149.000000	99.843339
2148.000000	99.743668
2147.000000	100.127757
2146.000000	100.070764
2145.000000	100.070691
2144.000000	99.867470
2143.000000	99.871493
2142.000000	99.841653
2141.000000	99.940669
2140.000000	99.853372
2139.000000	99.847800
2138.000000	100.263202
2137.000000	99.911428
2136.000000	99.885112
2135.000000	100.248526
2134.000000	99.801670
2133.000000	99.945181
2132.000000	99.877643
2131.000000	100.014451
2130.000000	100.057087
2129.000000	99.928951
2128.000000	99.898987
2127.000000	100.118398
2126.000000	99.804561
2125.000000	99.907112
2124.000000	100.039607
2123.000000	100.070993
2122.000000	100.054021
2121.000000	100.033077
2120.000000	99.939611
2119.000000	99.712168
2118.000000	99.836721
2117.000000	99.952631
2116.000000	100.092905
2115.000000	100.108176
2114.000000	99.892469
2113.000000	99.965832
2112.000000	100.153397
2111.000000	99.977143
2110.000000	99.865438
2109.000000	99.855130
2108.000000	99.978022
2107.000000	100.006480
2106.000000	99.940408
2105.000000	100.083105
2104.000000	99.976323
2103.000000	99.948707
2102.000000	99.949006
2101.000000	100.072297
2100.000000	99.938489
2099.000000	99.807523
2098.000000	99.929351
2097.000000	100.163737
2096.000000	99.946833
2095.000000	100.006075
2094.000000	99.937672
2093.000000	100.058363
2092.000000	99.998784
2091.000000	99.995545
2090.000000	99.992608
2089.000000	99.829384
2088.000000	99.904971
2087.000000	99.926851
2086.000000	99.988055
2085.000000	100.093750
2084.000000	99.965138
2083.000000	100.056862
2082.000000	100.016316
2081.000000	99.927334
2080.000000	100.085902
2079.000000	100.118181
2078.000000	100.063568
2077.000000	100.079033
2076.000000	100.111891
2075.000000	100.118792
2074.000000	99.987533
2073.000000	100.012668
2072.000000	99.955015
2071.000000	100.015305
2070.000000	100.033359
2069.000000	99.930662
2068.000000	99.999595
2067.000000	99.927439
2066.000000	99.956427
2065.000000	100.063490
2064.000000	100.050822
2063.000000	100.013896
2062.000000	100.020497
2061.000000	100.058646
2060.000000	100.029211
2059.000000	99.914047
2058.000000	99.992701
2057.000000	100.104387
2056.000000	100.037734
2055.000000	99.989450
2054.000000	99.964305
2053.000000	100.002231
2052.000000	100.024748
2051.000000	99.971808
2050.000000	99.959938
2049.000000	100.024865
2048.000000	100.004160
2047.000000	99.946235
2046.000000	99.993100
2045.000000	99.974331
2044.000000	99.994927
2043.000000	99.988743
2042.000000	99.946672
2041.000000	100.035317
2040.000000	99.995941
2039.000000	99.916932
2038.000000	100.014414
2037.000000	100.000000
2036.000000	99.962757
2035.000000	99.988329
2034.000000	99.993808
2033.000000	100.022852
2032.000000	100.033627
2031.000000	100.070387
2030.000000	100.011979
2029.000000	99.968225
2028.000000	99.991979
2027.000000	100.020114
2026.000000	100.016965
2025.000000	99.964965
2024.000000	99.966178
2023.000000	100.018289
2022.000000	99.977856
2021.000000	99.982023
2020.000000	100.041251
2019.000000	100.068380
2018.000000	100.030885
2017.000000	100.013511
2016.000000	99.995734
2015.000000	99.975623
2014.000000	100.003556
2013.000000	99.966684
2012.000000	99.957536
2011.000000	100.001321
2010.000000	99.965863
2009.000000	99.982420
2008.000000	100.001931
2007.000000	99.937111
2006.000000	99.984452
2005.000000	100.040052
2004.000000	100.027139
2003.000000	100.028670
2002.000000	100.030914
2001.000000	100.041598
2000.000000	99.976106
1999.000000	99.934130
1998.000000	99.972041
1997.000000	99.977023
1996.000000	99.955563
1995.000000	99.973349
1994.000000	100.007119
1993.000000	99.987085
1992.000000	100.003662
1991.000000	100.038669
1990.000000	100.040308
1989.000000	100.033492
1988.000000	99.983107
1987.000000	99.958184
1986.000000	99.975682
1985.000000	99.957274
1984.000000	99.990944
1983.000000	100.007122
1982.000000	100.014348
1981.000000	100.042437
1980.000000	99.991045
1979.000000	99.947809
1978.000000	100.037664
1977.000000	100.009160
1976.000000	99.982701
1975.000000	100.018523
1974.000000	100.027789
1973.000000	100.053047
1972.000000	100.048157
1971.000000	99.996439
1970.000000	99.990434
1969.000000	99.977414
1968.000000	100.018017
1967.000000	100.032467
1966.000000	100.023207
1965.000000	99.980568
1964.000000	99.936230
1963.000000	99.978738
1962.000000	99.960537
1961.000000	99.974366
1960.000000	99.990539
1959.000000	100.016279
1958.000000	99.982297
1957.000000	100.027780
1956.000000	99.976395
1955.000000	99.911533
1954.000000	99.958415
1953.000000	100.004983
1952.000000	99.957810
1951.000000	99.945002
1950.000000	99.964615
1949.000000	100.003966
1948.000000	99.988914
1947.000000	99.985261
1946.000000	99.997153
1945.000000	100.024709
1944.000000	99.980180
1943.000000	100.059479
1942.000000	100.047986
1941.000000	99.978358
1940.000000	99.979073
1939.000000	99.933078
1938.000000	99.998172
1937.000000	100.001422
1936.000000	100.062835
1935.000000	99.946951
1934.000000	99.994311
1933.000000	100.089146
1932.000000	99.977249
1931.000000	100.036870
1930.000000	100.023366
1929.000000	100.052549
1928.000000	99.986593
1927.000000	100.063199
1926.000000	100.049964
1925.000000	99.970149
1924.000000	99.965783
1923.000000	100.136131
1922.000000	100.057088
1921.000000	100.029148
1920.000000	100.082198
1919.000000	100.002131
1918.000000	99.935024
1917.000000	99.974506
1916.000000	99.955404
1915.000000	100.011573
1914.000000	99.968942
1913.000000	100.027021
1912.000000	99.984670
1911.000000	100.022853
1910.000000	100.119286
1909.000000	99.999492
1908.000000	100.045917
1907.000000	100.043881
1906.000000	99.946903
1905.000000	99.991776
1904.000000	100.087181
1903.000000	100.027944
1902.000000	99.943539
1901.000000	99.952358
1900.000000	100.004975
1899.000000	99.961622
1898.000000	100.030371
1897.000000	100.030993
1896.000000	100.000813
1895.000000	99.953266
1894.000000	99.917523
1893.000000	100.064418
1892.000000	100.034048
1891.000000	100.033543
1890.000000	100.002337
1889.000000	100.026522
1888.000000	99.998680
1887.000000	99.996445
1886.000000	99.950147
1885.000000	99.980003
1884.000000	100.046509
1883.000000	100.051784
1882.000000	99.992083
1881.000000	99.945122
1880.000000	100.033185
1879.000000	100.001928
1878.000000	100.056413
1877.000000	99.996349
1876.000000	99.958836
1875.000000	100.058628
1874.000000	100.009531
1873.000000	100.016124
1872.000000	100.007303
1871.000000	99.994119
1870.000000	99.961688
1869.000000	99.965237
1868.000000	100.026771
1867.000000	99.965623
1866.000000	99.990465
1865.000000	99.959236
1864.000000	99.974948
1863.000000	99.984177
1862.000000	99.966632
1861.000000	99.970277
1860.000000	99.982955
1859.000000	99.996448
1858.000000	99.971077
1857.000000	100.001015
1856.000000	99.997869
1855.000000	100.002233
1854.000000	99.995636
1853.000000	99.943195
1852.000000	99.970076
1851.000000	100.010652
1850.000000	99.990465
1849.000000	99.992492
1848.000000	100.038358
1847.000000	99.975143
1846.000000	99.967642
1845.000000	99.991071
1844.000000	100.022120
1843.000000	99.961052
1842.000000	99.967946
1841.000000	99.998884
1840.000000	99.949290
1839.000000	99.982549
1838.000000	99.999899
1837.000000	100.003958
1836.000000	99.985486
1835.000000	99.964267
1834.000000	100.000508
1833.000000	100.023968
1832.000000	100.020311
1831.000000	99.997867
1830.000000	100.002133
1829.000000	100.024988
1828.000000	99.985372
1827.000000	99.984454
1826.000000	99.986384
1825.000000	100.013516
1824.000000	100.025413
1823.000000	99.964225
1822.000000	99.965242
1821.000000	99.992477
1820.000000	99.978243
1819.000000	99.994916
1818.000000	100.035502
1817.000000	100.034791
1816.000000	99.999695
1815.000000	99.988709
1814.000000	99.994506
1813.000000	100.005189
1812.000000	100.003460
1811.000000	100.007632
1810.000000	100.001832
1809.000000	99.997965
1808.000000	99.976289
1807.000000	99.974049
1806.000000	99.998677
1805.000000	100.010688
1804.000000	99.998880
1803.000000	99.984020
1802.000000	99.969870
1801.000000	99.975570
1800.000000	99.992975
1799.000000	99.998473
1798.000000	99.973634
1797.000000	99.958672
1796.000000	99.977808
1795.000000	99.976891
1794.000000	100.007127
1793.000000	100.022812
1792.000000	100.019147
1791.000000	100.026787
1790.000000	100.001222
1789.000000	99.993889
1788.000000	100.026689
1787.000000	100.022614
1786.000000	100.009370
1785.000000	100.009777
1784.000000	100.028827
1783.000000	99.985640
1782.000000	99.966598
1781.000000	99.985539
1780.000000	100.001222
1779.000000	100.008249
1778.000000	100.002648
1777.000000	100.005702
1776.000000	99.984217
1775.000000	99.978108
1774.000000	100.012731
1773.000000	100.044722
1772.000000	100.009167
1771.000000	100.012323
1770.000000	100.001935
1769.000000	99.984825
1768.000000	100.014157
1767.000000	99.987578
1766.000000	100.005601
1765.000000	100.021595
1764.000000	100.011409
1763.000000	100.030457
1762.000000	100.029240
1761.000000	100.024753
1760.000000	99.998269
1759.000000	100.028520
1758.000000	100.015889
1757.000000	99.976175
1756.000000	99.981978
1755.000000	100.040033
1754.000000	100.002138
1753.000000	99.975773
1752.000000	99.973428
1751.000000	99.962945
1750.000000	99.982080
1749.000000	99.996640
1748.000000	100.005193
1747.000000	100.015279
1746.000000	100.002851
1745.000000	100.001935
1744.000000	100.005601
1743.000000	100.009268
1742.000000	100.022610
1741.000000	100.016193
1740.000000	100.016702
1739.000000	99.998880
1738.000000	100.013848
1737.000000	99.987071
1736.000000	99.981677
1735.000000	99.978011
1734.000000	99.992771
1733.000000	100.017313
1732.000000	100.002546
1731.000000	99.995826
1730.000000	100.004683
1729.000000	100.006211
1728.000000	99.968539
1727.000000	99.991956
1726.000000	99.992973
1725.000000	100.001527
1724.000000	99.964374
1723.000000	100.004582
1722.000000	99.974960
1721.000000	99.990736
1720.000000	100.001731
1719.000000	99.982896
1718.000000	99.974143
1717.000000	99.997149
1716.000000	100.057853
1715.000000	100.016084
1714.000000	100.006312
1713.000000	100.002240
1712.000000	99.995826
1711.000000	99.973023
1710.000000	99.958262
1709.000000	99.990636
1708.000000	100.011706
1707.000000	99.986155
1706.000000	100.020870
1705.000000	100.004886
1704.000000	99.945645
1703.000000	99.991347
1702.000000	99.972924
1701.000000	100.008044
1700.000000	100.027592
1699.000000	100.002443
1698.000000	100.018425
1697.000000	100.002545
1696.000000	100.018326
1695.000000	100.014555
1694.000000	100.005293
1693.000000	99.998168
1692.000000	99.991349
1691.000000	99.973739
1690.000000	100.031667
1689.000000	100.017207
1688.000000	100.011400
1687.000000	100.013743
1686.000000	100.005599
1685.000000	100.006718
1684.000000	99.954206
1683.000000	99.964788
1682.000000	99.984632
1681.000000	100.023008
1680.000000	100.004887
1679.000000	99.989108
1678.000000	100.011503
1677.000000	100.006107
1676.000000	99.980459
1675.000000	99.983614
1674.000000	99.983105
1673.000000	99.980867
1672.000000	99.999287
1671.000000	99.986261
1670.000000	99.984022
1669.000000	99.997151
1668.000000	99.988197
1667.000000	99.991759
1666.000000	99.986469
1665.000000	99.967954
1664.000000	99.962361
1663.000000	99.979855
1662.000000	99.968462
1661.000000	99.986163
1660.000000	99.984741
1659.000000	100.001628
1658.000000	100.002849
1657.000000	99.974974
1656.000000	99.993083
1655.000000	99.999797
1654.000000	99.986673
1653.000000	99.996541
1652.000000	99.981892
1651.000000	99.992268
1650.000000	99.978433
1649.000000	99.993896
1648.000000	100.008038
1647.000000	100.003357
1646.000000	99.989826
1645.000000	99.996236
1644.000000	100.007122
1643.000000	99.993285
1642.000000	99.988300
1641.000000	100.005189
1640.000000	100.003968
1639.000000	99.980569
1638.000000	99.989523
1637.000000	100.010682
1636.000000	100.002645
1635.000000	100.000407
1634.000000	100.007631
1633.000000	99.995117
1632.000000	100.013735
1631.000000	99.983724
1630.000000	99.988809
1629.000000	100.009767
1628.000000	100.007427
1627.000000	99.997762
1626.000000	99.990032
1625.000000	100.003663
1624.000000	100.027677
1623.000000	100.006511
1622.000000	99.978233
1621.000000	100.004679
1620.000000	100.024215
1619.000000	100.006206
1618.000000	100.006003
1617.000000	100.014143
1616.000000	100.009970
1615.000000	100.003357
1614.000000	99.993897
1613.000000	99.999390
1612.000000	99.992879
1611.000000	99.977624
1610.000000	99.973555
1609.000000	99.996745
1608.000000	100.008241
1607.000000	100.004070
1606.000000	100.002645
1605.000000	100.000712
1604.000000	99.994710
1603.000000	100.000305
1602.000000	100.012718
1601.000000	99.996643
1600.000000	99.980365
1599.000000	99.993184
1598.000000	100.003663
1597.000000	100.007325
1596.000000	100.002848
1595.000000	99.995829
1594.000000	99.991354
1593.000000	99.996745
1592.000000	100.001119
1591.000000	100.000102
1590.000000	99.998677
1589.000000	99.993998
1588.000000	100.006003
1587.000000	100.021569
1586.000000	100.010581
1585.000000	99.992981
1584.000000	99.994202
1583.000000	100.011495
1582.000000	100.006713
1581.000000	99.989727
1580.000000	99.994405
1579.000000	99.997355
1578.000000	99.985455
1577.000000	99.980167
1576.000000	99.994202
1575.000000	99.991659
1574.000000	99.992575
1573.000000	100.002950
1572.000000	99.982812
1571.000000	99.978132
1570.000000	99.993389
1569.000000	99.997254
1568.000000	99.997661
1567.000000	100.004272
1566.000000	99.995525
1565.000000	99.999288
1564.000000	100.014647
1563.000000	100.021260
1562.000000	100.011900
1561.000000	100.003356
1560.000000	99.983424
1559.000000	99.987898
1558.000000	100.010476
1557.000000	99.998779
1556.000000	99.987185
1555.000000	99.986475
1554.000000	100.007831
1553.000000	100.014747
1552.000000	100.014644
1551.000000	99.984138
1550.000000	99.985054
1549.000000	100.009457
1548.000000	99.986578
1547.000000	99.990950
1546.000000	99.991764
1545.000000	99.997051
1544.000000	99.996441
1543.000000	100.009049
1542.000000	100.014645
1541.000000	100.002136
1540.000000	99.999492
1539.000000	100.005898
1538.000000	99.986479
1537.000000	99.997763
1536.000000	100.001932
1535.000000	100.005592
1534.000000	99.996645
1533.000000	100.005695
1532.000000	99.991051
1531.000000	99.986169
1530.000000	100.001729
1529.000000	99.994813
1528.000000	100.006509
1527.000000	99.983017
1526.000000	99.988304
1525.000000	99.964818
1524.000000	99.975798
1523.000000	99.974884
1522.000000	99.986577
1521.000000	99.989526
1520.000000	100.023193
1519.000000	100.001424
1518.000000	100.023703
1517.000000	99.995525
1516.000000	99.986269
1515.000000	99.980270
1514.000000	100.004882
1513.000000	100.006917
1512.000000	100.034898
1511.000000	100.012818
1510.000000	100.000407
1509.000000	100.017193
1508.000000	100.001221
1507.000000	100.016686
1506.000000	100.011292
1505.000000	99.999288
1504.000000	99.998169
1503.000000	100.009869
1502.000000	99.992369
1501.000000	99.988606
1500.000000	100.012717
1499.000000	100.003154
1498.000000	99.994813
1497.000000	100.009258
1496.000000	99.987895
1495.000000	99.995727
1494.000000	99.996541
1493.000000	100.010682
1492.000000	99.999186
1491.000000	99.990337
1490.000000	99.978846
1489.000000	100.014343
1488.000000	99.991049
1487.000000	100.006815
1486.000000	100.013224
1485.000000	99.984848
1484.000000	99.998779
1483.000000	99.987595
1482.000000	100.019323
1481.000000	99.987391
1480.000000	100.006508
1479.000000	99.997865
1478.000000	100.024815
1477.000000	100.008440
1476.000000	100.000203
1475.000000	99.973874
1474.000000	100.006610
1473.000000	100.003661
1472.000000	99.984041
1471.000000	99.978650
1470.000000	100.005998
1469.000000	99.995526
1468.000000	100.007016
1467.000000	100.011389
1466.000000	99.997865
1465.000000	99.985866
1464.000000	99.963612
1463.000000	100.013015
1462.000000	100.029692
1461.000000	100.048618
1460.000000	99.984040
1459.000000	100.002846
1458.000000	99.988513
1457.000000	99.999390
1456.000000	99.976923
1455.000000	100.006811
1454.000000	100.004371
1453.000000	100.000305
1452.000000	99.991258
1451.000000	100.009455
1450.000000	99.979365
1449.000000	100.001932
1448.000000	100.024196
1447.000000	99.984753
1446.000000	99.982112
1445.000000	99.984653
1444.000000	99.991257
1443.000000	99.993088
1442.000000	100.004066
1441.000000	100.007927
1440.000000	99.999187
1439.000000	100.000305
1438.000000	99.994207
1437.000000	99.999390
1436.000000	99.991870
1435.000000	99.998984
1434.000000	100.005183
1433.000000	100.027244
1432.000000	99.986787
1431.000000	100.006404
1430.000000	99.984044
1429.000000	99.991667
1428.000000	100.011586
1427.000000	99.994919
1426.000000	99.999187
1425.000000	99.985877
1424.000000	100.000914
1423.000000	99.991264
1422.000000	99.992585
1421.000000	99.978267
1420.000000	99.985682
1419.000000	99.980200
1418.000000	99.986193
1417.000000	99.986906
1416.000000	99.984470
1415.000000	99.988633
1414.000000	99.979302
1413.000000	99.985999
1412.000000	99.993608
1411.000000	99.998681
1410.000000	99.987120
1409.000000	100.002941
1408.000000	100.002637
1407.000000	99.992396
1406.000000	99.979522
1405.000000	99.982768
1404.000000	99.988142
1403.000000	99.997466
1402.000000	100.005675
1401.000000	99.992805
1400.000000	99.994224
1399.000000	100.001418
1398.000000	100.000203
1397.000000	100.005572
1396.000000	100.018844
1395.000000	100.014689
1394.000000	100.005773
1393.000000	99.993519
1392.000000	99.985115
1391.000000	100.000405
1390.000000	100.012557
1389.000000	100.012050
1388.000000	100.009722
1387.000000	99.999595
1386.000000	99.985928
1385.000000	99.992508
1384.000000	100.003645
1383.000000	99.997570
1382.000000	100.002329
1381.000000	100.005164
1380.000000	100.019139
1379.000000	100.029875
1378.000000	100.004557
1377.000000	99.983192
1376.000000	99.981270
1375.000000	99.987243
1374.000000	100.006784
1373.000000	99.998380
1372.000000	99.982382
1371.000000	99.988660
1370.000000	100.007189
1369.000000	99.996153
1368.000000	99.981677
1367.000000	99.975402
1366.000000	99.983601
1365.000000	99.998279
1364.000000	99.999291
1363.000000	99.988867
1362.000000	99.997065
1361.000000	100.007796
1360.000000	99.988052
1359.000000	99.986026
1358.000000	99.992100
1357.000000	100.009018
1356.000000	100.001115
1355.000000	99.984193
1354.000000	99.996452
1353.000000	100.027074
1352.000000	99.987731
1351.000000	99.982052
1350.000000	99.996450
1349.000000	100.015522
1348.000000	100.011160
1347.000000	99.997058
1346.000000	99.982143
1345.000000	99.986403
1344.000000	100.013396
1343.000000	100.001522
1342.000000	100.005378
1341.000000	99.992389
1340.000000	99.982345
1339.000000	100.006799
1338.000000	100.010350
1337.000000	99.978086
1336.000000	99.972609
1335.000000	99.980318
1334.000000	99.990665
1333.000000	99.999899
1332.000000	100.006392
1331.000000	100.001420
1330.000000	100.001522
1329.000000	99.995333
1328.000000	99.985494
1327.000000	99.994523
1326.000000	99.996247
1325.000000	99.984884
1324.000000	100.003348
1323.000000	100.000913
1322.000000	100.004870
1321.000000	100.001116
1320.000000	99.997261
1319.000000	99.991884
1318.000000	99.990565
1317.000000	99.966324
1316.000000	99.997260
1315.000000	99.997565
1314.000000	100.023133
1313.000000	99.964900
1312.000000	99.984883
1311.000000	99.995130
1310.000000	100.003248
1309.000000	99.992288
1308.000000	100.000507
1307.000000	100.000101
1306.000000	100.000812
1305.000000	100.010962
1304.000000	100.016139
1303.000000	99.985080
1302.000000	99.991881
1301.000000	99.975850
1300.000000	99.986403
1299.000000	100.018374
1298.000000	99.991981
1297.000000	100.001218
1296.000000	100.022639
1295.000000	100.004060
1294.000000	99.994012
1293.000000	99.964783
1292.000000	100.014517
1291.000000	99.986805
1290.000000	99.982850
1289.000000	99.992085
1288.000000	99.988838
1287.000000	99.992187
1286.000000	99.989143
1285.000000	99.971795
1284.000000	99.982957
1283.000000	100.013089
1282.000000	100.016943
1281.000000	100.022626
1280.000000	100.017550
1279.000000	100.011054
1278.000000	100.022413
1277.000000	99.990874
1276.000000	100.027386
1275.000000	99.999290
1274.000000	99.969892
1273.000000	99.970908
1272.000000	99.999797
1271.000000	99.976992
1270.000000	99.990471
1269.000000	99.968989
1268.000000	99.988953
1267.000000	99.987227
1266.000000	100.006993
1265.000000	99.977805
1264.000000	100.025135
1263.000000	100.008310
1262.000000	99.988246
1261.000000	99.970911
1260.000000	99.990474
1259.000000	99.991588
1258.000000	99.979732
1257.000000	100.001520
1256.000000	99.979024
1255.000000	99.985914
1254.000000	100.008412
1253.000000	99.977802
1252.000000	100.003345
1251.000000	100.004662
1250.000000	99.997162
1249.000000	99.998176
1248.000000	99.989663
1247.000000	99.996757
1246.000000	99.995947
1245.000000	99.999291
1244.000000	99.984191
1243.000000	99.991285
1242.000000	99.977304
1241.000000	99.980648
1240.000000	99.981457
1239.000000	99.998582
1238.000000	99.981461
1237.000000	99.985213
1236.000000	99.988859
1235.000000	99.990075
1234.000000	100.001418
1233.000000	99.986028
1232.000000	99.974387
1231.000000	99.986635
1230.000000	99.957796
1229.000000	99.981176
1228.000000	99.986338
1227.000000	99.980165
1226.000000	99.977135
1225.000000	99.988366
1224.000000	99.997977
1223.000000	100.003844
1222.000000	100.023770
1221.000000	100.004955
1220.000000	99.991001
1219.000000	99.990598
1218.000000	99.976548
1217.000000	100.008695
1216.000000	100.009200
1215.000000	99.994439
1214.000000	99.990600
1213.000000	100.000101
1212.000000	99.998686
1211.000000	100.003538
1210.000000	100.005154
1209.000000	100.012330
1208.000000	100.013243
1207.000000	100.001112
1206.000000	100.020013
1205.000000	100.014354
1204.000000	99.974634
1203.000000	99.984034
1202.000000	99.993936
1201.000000	100.002628
1200.000000	100.013442
1199.000000	100.028299
1198.000000	99.998080
1197.000000	100.005256
1196.000000	100.011929
1195.000000	100.000303
1194.000000	99.974736
1193.000000	99.997170
1192.000000	99.996665
1191.000000	99.986559
1190.000000	99.989288
1189.000000	99.980797
1188.000000	99.991106
1187.000000	99.994744
1186.000000	99.998383
1185.000000	99.988683
1184.000000	99.972318
1183.000000	99.970401
1182.000000	99.992120
1181.000000	99.990707
1180.000000	99.992122
1179.000000	99.996061
1178.000000	99.982933
1177.000000	99.994446
1176.000000	99.985560
1175.000000	99.979606
1174.000000	100.014236
1173.000000	100.027564
1172.000000	100.008883
1171.000000	99.987585
1170.000000	99.984256
1169.000000	100.004643
1168.000000	99.998890
1167.000000	99.988599
1166.000000	99.989709
1165.000000	99.990820
1164.000000	100.001412
1163.000000	100.012911
1162.000000	100.003530
1161.000000	99.993245
1160.000000	100.007057
1159.000000	100.008166
1158.000000	99.990021
1157.000000	99.994356
1156.000000	99.998085
1155.000000	99.989016
1154.000000	99.967056
1153.000000	99.972197
1152.000000	99.982674
1151.000000	99.982879
1150.000000	99.982578
1149.000000	99.990433
1148.000000	99.992146
1147.000000	99.988723
1146.000000	99.982986
1145.000000	99.989833
1144.000000	100.006442
1143.000000	100.004126
1142.000000	100.008452
1141.000000	100.001408
1140.000000	99.999598
1139.000000	99.982901
1138.000000	99.974658
1137.000000	99.980491
1136.000000	99.973860
1135.000000	99.971452
1134.000000	99.971654
1133.000000	99.987134
1132.000000	100.002312
1131.000000	100.001507
1130.000000	100.014169
1129.000000	100.009043
1128.000000	99.992265
1127.000000	99.989856
1126.000000	99.997992
1125.000000	99.976406
1124.000000	99.989759
1123.000000	100.003313
1122.000000	99.985844
1121.000000	99.990764
1120.000000	100.005722
1119.000000	99.997290
1118.000000	99.990165
1117.000000	99.992374
1116.000000	99.987961
1115.000000	99.990970
1114.000000	100.002107
1113.000000	100.009930
1112.000000	100.007422
1111.000000	100.005717
1110.000000	99.991075
1109.000000	99.994285
1108.000000	100.011129
1107.000000	100.000201
1106.000000	99.991080
1105.000000	99.986873
1104.000000	100.014529
1103.000000	100.020941
1102.000000	100.007714
1101.000000	100.000801
1100.000000	100.026441
1099.000000	99.995094
1098.000000	100.004205
1097.000000	99.997398
1096.000000	100.001901
1095.000000	99.986394
1094.000000	99.977093
1093.000000	99.969296
1092.000000	99.985599
1091.000000	99.991500
1090.000000	100.000100
1089.000000	100.003699
1088.000000	100.007396
1087.000000	100.008194
1086.000000	100.006495
1085.000000	100.006193
1084.000000	100.002797
1083.000000	99.980929
1082.000000	100.019072
1081.000000	99.997005
1080.000000	99.993912
1079.000000	100.004690
1078.000000	99.992119
1077.000000	99.997207
1076.000000	99.999202
1075.000000	100.007180
1074.000000	100.004586
1073.000000	100.004286
1072.000000	99.985948
1071.000000	99.991332
1070.000000	99.984658
1069.000000	99.993326
1068.000000	100.012547
1067.000000	99.994027
1066.000000	99.979398
1065.000000	100.006369
1064.000000	100.004776
1063.000000	99.993335
1062.000000	100.025167
1061.000000	99.996222
1060.000000	100.013620
1059.000000	99.980024
1058.000000	100.003676
1057.000000	99.983209
1056.000000	99.988379
1055.000000	100.000596
1054.000000	100.020457
1053.000000	100.000893
1052.000000	100.008734
1051.000000	100.023218
1050.000000	99.988989
1049.000000	99.980565
1048.000000	99.980769
1047.000000	99.994251
1046.000000	99.990685
1045.000000	100.010799
1044.000000	100.007825
1043.000000	99.973070
1042.000000	99.989209
1041.000000	99.999010
1040.000000	100.001979
1039.000000	99.989217
1038.000000	99.995352
1037.000000	100.005538
1036.000000	100.031843
1035.000000	99.978753
1034.000000	99.985774
1033.000000	99.998321
1032.000000	99.993582
1031.000000	99.984305
1030.000000	99.983617
1029.000000	100.010163
1028.000000	100.009766
1027.000000	99.977619
1026.000000	100.012028
1025.000000	100.024049
1024.000000	100.003349
1023.000000	100.000591
1022.000000	100.021273
1021.000000	100.016439
1020.000000	100.006692
1019.000000	100.011609
1018.000000	99.989183
1017.000000	99.997739
1016.000000	100.015726
1015.000000	99.977208
1014.000000	99.985563
1013.000000	99.991753
1012.000000	99.989400
1011.000000	99.997154
1010.000000	100.002550
1009.000000	99.981175
1008.000000	99.996079
1007.000000	99.991670
1006.000000	99.990498
1005.000000	99.998531
1004.000000	99.995301
1003.000000	99.989042
1002.000000	99.982298
1001.000000	99.983379
1000.000000	99.996286
999.000000	100.004201
998.000000	99.998730
997.000000	100.012888
996.000000	99.987315
995.000000	99.973376
994.000000	99.993565
993.000000	100.003509
992.000000	99.994934
991.000000	100.003993
990.000000	100.007301
989.000000	99.987352
988.000000	99.997276
987.000000	100.014001
986.000000	100.007775
985.000000	100.002137
984.000000	99.988736
983.000000	100.002136
982.000000	99.997768
981.000000	99.990107
980.000000	99.983131
979.000000	99.998837
978.000000	99.984695
977.000000	100.008328
976.000000	100.000581
975.000000	100.001161
974.000000	100.009381
973.000000	99.986177
972.000000	99.997585
971.000000	100.003284
970.000000	100.008688
969.000000	100.008394
968.000000	99.988622
967.000000	99.992868
966.000000	99.993545
965.000000	99.993933
964.000000	99.995765
963.000000	99.992111
962.000000	100.017790
961.000000	100.016050
960.000000	99.983961
959.000000	99.995008
958.000000	100.000192
957.000000	99.990315
956.000000	99.988116
955.000000	100.005364
954.000000	100.023746
953.000000	100.029379
952.000000	100.026302
951.000000	100.003059
950.000000	99.983762
949.000000	99.971460
948.000000	99.985881
947.000000	100.001907
946.000000	100.003430
945.000000	99.987619
944.000000	99.993337
943.000000	100.005041
942.000000	100.017207
941.000000	100.025372
940.000000	100.008546
939.000000	99.986244
938.000000	99.963219
937.000000	99.959925
936.000000	99.981160
935.000000	100.003785
934.000000	99.992057
933.000000	100.003780
932.000000	100.010199
931.000000	99.986790
930.000000	99.995851
929.000000	100.007728
928.000000	99.999247
927.000000	100.000000
926.000000	100.000564
925.000000	100.032803
924.000000	100.014273
923.000000	99.969796
922.000000	99.973940
921.000000	99.975832
920.000000	99.961913
919.000000	99.994670
918.000000	100.014020
917.000000	99.995798
916.000000	100.003732
915.000000	100.023870
914.000000	99.991058
913.000000	99.974780
912.000000	100.003813
911.000000	100.002973
910.000000	100.039838
909.000000	100.022639
908.000000	99.990453
907.000000	100.007501
906.000000	100.008053
905.000000	100.015535
904.000000	99.998245
903.000000	99.977111
902.000000	99.995112
901.000000	100.006541
900.000000	100.046576
899.000000	100.002483
898.000000	99.981348
897.000000	99.999541
896.000000	100.014674
895.000000	99.974346
894.000000	100.004303
893.000000	99.943580
892.000000	99.911272
891.000000	99.967584
890.000000	100.010401
889.000000	100.015504
888.000000	100.001185
887.000000	100.069390
886.000000	99.998455
885.000000	99.976298
884.000000	99.988747
883.000000	99.960842
882.000000	100.004800
881.000000	99.989684
880.000000	100.034813
879.000000	99.980759
878.000000	99.850853
877.000000	99.949994
876.000000	99.980632
875.000000	100.055352
874.000000	100.043447
873.000000	100.046094
872.000000	100.021626
871.000000	99.955578
870.000000	99.955058
869.000000	100.027015
868.000000	100.063572
867.000000	100.058513
866.000000	100.058830
865.000000	99.978242
864.000000	99.945410
863.000000	99.878214
862.000000	99.963804
861.000000	100.045161
860.000000	99.955318
859.000000	100.188335
858.000000	100.030483
857.000000	100.017898
856.000000	100.329787
855.000000	99.923553
854.000000	100.328784
853.000000	99.966950
852.000000	99.831882
851.000000	100.510383
850.000000	99.490088
849.000000	100.172185
848.000000	100.167031
847.000000	99.796750
846.000000	100.333861
845.000000	99.829902
844.000000	99.554343
843.000000	100.171885
842.000000	99.806518
841.000000	99.691917
840.000000	99.897984
839.000000	99.931719
838.000000	99.923872
837.000000	100.199329
836.000000	99.621311
835.000000	100.140119
834.000000	100.026450
833.000000	100.136563
832.000000	100.216508
831.000000	99.912534
830.000000	100.186426
829.000000	100.012600
828.000000	99.834913
827.000000	99.924326
826.000000	100.131628
825.000000	99.963550
824.000000	99.995685
823.000000	100.232365
822.000000	100.158885
821.000000	99.877941
820.000000	100.035984
819.000000	100.205309
818.000000	99.993835
817.000000	99.920772
816.000000	100.145968
815.000000	100.074193
814.000000	99.970342
813.000000	100.068724
812.000000	100.007394
811.000000	99.834328
810.000000	100.104455
809.000000	99.990482
808.000000	99.732521
807.000000	100.020726
806.000000	99.917001
805.000000	99.949136
804.000000	99.990651
803.000000	99.999559
802.000000	100.051228
801.000000	99.902870
800.000000	99.960411
799.000000	99.839820
798.000000	100.065970
797.000000	100.039749
796.000000	99.949388
795.000000	100.045772
794.000000	99.971304
793.000000	99.963041
792.000000	99.936000
791.000000	99.880935
790.000000	99.962991
789.000000	99.812066
788.000000	99.896268
787.000000	99.832126
786.000000	100.069006
785.000000	99.906238
784.000000	99.766033
783.000000	100.129878
782.000000	99.969023
781.000000	100.028965
780.000000	100.038494
779.000000	100.073752
778.000000	100.116709
777.000000	100.075037
776.000000	100.028928
775.000000	99.943667
774.000000	100.130333
773.000000	99.975085
772.000000	99.995174
771.000000	99.879204
770.000000	99.961296
769.000000	99.996685
768.000000	99.964162
767.000000	100.092798
766.000000	100.151686
765.000000	100.016155
764.000000	99.939676
763.000000	100.000090
762.000000	100.041189
761.000000	99.897202
760.000000	99.930087
759.000000	100.007656
758.000000	99.968563
757.000000	99.891411
756.000000	99.813028
755.000000	99.984582
754.000000	100.040412
753.000000	100.077179
752.000000	100.026461
751.000000	99.970832
750.000000	99.880546
749.000000	99.860117
748.000000	99.922325
747.000000	100.013389
746.000000	99.974660
745.000000	99.907669
744.000000	99.897154
743.000000	99.894768
742.000000	99.868237
741.000000	99.953132
740.000000	99.958899
739.000000	100.000817
738.000000	100.024704
737.000000	99.910372
736.000000	99.930561
735.000000	99.978181
734.000000	99.997909
733.000000	99.952706
732.000000	99.955759
731.000000	99.915056
730.000000	99.923959
729.000000	99.913733
728.000000	99.964453
727.000000	99.929331
726.000000	99.899068
725.000000	99.867132
724.000000	99.940231
723.000000	99.967510
722.000000	99.898710
721.000000	99.943635
720.000000	100.021392
719.000000	100.005302
718.000000	99.963152
717.000000	99.923900
716.000000	99.892137
715.000000	99.822262
714.000000	99.814191
713.000000	99.952184
712.000000	100.145583
711.000000	100.062845
710.000000	99.959459
709.000000	99.986245
708.000000	99.994956
707.000000	100.004863
706.000000	100.010468
705.000000	99.964453
704.000000	99.916983
703.000000	99.947857
702.000000	99.961149
701.000000	99.982172
700.000000	99.990896
699.000000	100.014900
698.000000	100.036507
697.000000	100.010675
696.000000	100.058858
695.000000	100.027364
694.000000	99.993734
693.000000	99.977051
692.000000	99.951802
691.000000	99.951549
690.000000	99.997881
689.000000	100.013082
688.000000	100.001473
687.000000	100.042478
686.000000	100.023137
685.000000	100.034581
684.000000	99.984693
683.000000	99.922100
682.000000	99.966685
681.000000	99.948766
680.000000	99.916012
679.000000	99.971840
678.000000	99.983098
677.000000	99.964714
676.000000	99.933560
675.000000	99.917085
674.000000	99.948853
673.000000	99.964578
672.000000	99.974098
671.000000	99.998334
670.000000	99.927167
669.000000	100.008151
668.000000	100.058556
667.000000	99.915734
666.000000	99.939981
665.000000	100.030678
664.000000	100.016137
663.000000	99.984977
662.000000	99.973009
661.000000	99.958542
660.000000	100.061800
659.000000	100.101990
658.000000	100.055640
657.000000	99.987183
656.000000	99.899078
655.000000	99.943872
654.000000	100.052255
653.000000	100.058861
652.000000	100.026695
651.000000	99.974885
650.000000	99.939660
649.000000	99.948014
648.000000	99.957184
647.000000	99.993203
646.000000	99.890348
645.000000	100.045937
644.000000	100.029339
643.000000	99.987984
642.000000	99.997579
641.000000	100.024136
640.000000	100.021900
639.000000	100.088130
638.000000	99.943701
637.000000	99.953370
636.000000	99.970442
635.000000	100.019778
634.000000	99.916419
633.000000	99.996453
632.000000	100.025769
631.000000	99.998133
630.000000	99.984217
629.000000	99.997665
628.000000	99.929953
627.000000	99.975699
626.000000	99.948410
625.000000	99.956830
624.000000	99.964115
623.000000	99.959539
622.000000	99.864440
621.000000	100.044989
620.000000	99.936222
619.000000	99.911986
618.000000	100.033971
617.000000	100.038265
616.000000	99.929934
615.000000	99.909203
614.000000	100.004588
613.000000	99.953863
612.000000	100.004681
611.000000	99.967694
610.000000	99.984730
609.000000	100.037215
608.000000	99.961500
607.000000	99.917273
606.000000	100.044316
605.000000	99.963095
604.000000	99.932066
603.000000	100.136882
602.000000	99.919066
601.000000	99.988094
600.000000	100.069695
599.000000	100.024478
598.000000	100.000939
597.000000	99.962007
596.000000	100.007974
595.000000	99.851332
594.000000	100.111807
593.000000	100.031244
592.000000	99.968474
591.000000	100.042252
590.000000	99.949161
589.000000	100.000376
588.000000	100.019816
587.000000	100.032569
586.000000	100.005354
585.000000	99.921305
584.000000	99.958958
583.000000	99.965624
582.000000	99.943065
581.000000	99.948925
580.000000	99.968057
579.000000	100.021623
578.000000	100.039200
577.000000	99.986183
576.000000	100.001879
575.000000	100.033190
574.000000	99.934214
573.000000	99.989000
572.000000	100.037437
571.000000	99.977150
570.000000	100.061127
569.000000	100.099159
568.000000	99.962189
567.000000	99.961799
566.000000	99.980434
565.000000	100.019948
564.000000	99.968581
563.000000	100.018824
562.000000	99.885632
561.000000	99.976471
560.000000	99.929064
559.000000	99.928409
558.000000	99.989269
557.000000	99.990781
556.000000	100.068745
555.000000	99.935362
554.000000	99.942214
553.000000	99.961117
552.000000	99.994634
551.000000	100.058470
550.000000	100.020623
549.000000	99.992560
548.000000	99.973152
547.000000	99.971361
546.000000	99.980594
545.000000	100.004899
544.000000	100.020440
543.000000	100.012815
542.000000	99.971439
541.000000	100.069799
540.000000	99.971538
539.000000	100.018100
538.000000	100.022250
537.000000	99.994345
536.000000	99.968896
535.000000	99.944205
534.000000	99.962854
533.000000	100.026308
532.000000	99.944752
531.000000	99.952390
530.000000	99.968682
529.000000	100.018307
528.000000	99.997831
527.000000	99.962371
526.000000	100.001604
525.000000	99.979904
524.000000	99.973019
523.000000	99.939716
522.000000	99.990189
521.000000	99.965002
520.000000	99.999151
519.000000	99.968495
518.000000	99.951237
517.000000	99.928473
516.000000	99.882551
515.000000	99.969237
514.000000	100.048800
513.000000	99.977251
512.000000	99.978192
511.000000	99.985180
510.000000	99.957809
509.000000	99.947891
508.000000	99.937614
507.000000	99.982909
506.000000	99.981020
505.000000	99.968083
504.000000	99.955164
503.000000	99.996223
502.000000	100.017001
501.000000	99.958741
500.000000	99.944011
499.000000	99.994900
498.000000	99.950517
497.000000	100.030892
496.000000	100.049499
495.000000	100.031552
494.000000	99.985449
493.000000	99.925961
492.000000	99.953162
491.000000	100.022757
490.000000	100.076396
489.000000	100.068302
488.000000	99.985549
487.000000	99.933878
486.000000	99.945888
485.000000	100.038931
484.000000	100.075716
483.000000	99.989033
482.000000	99.914905
481.000000	99.966354
480.000000	99.963781
479.000000	99.984669
478.000000	99.982867
477.000000	99.978019
476.000000	99.983609
475.000000	99.976982
474.000000	99.998768
473.000000	100.005781
472.000000	99.934525
471.000000	99.906341
470.000000	99.925191
469.000000	99.922836
468.000000	99.955820
467.000000	99.993361
466.000000	99.929042
465.000000	99.948191
464.000000	99.982827
463.000000	100.032832
462.000000	100.060274
461.000000	100.027896
460.000000	100.007023
459.000000	99.911557
458.000000	99.963652
457.000000	100.020126
456.000000	99.937456
455.000000	99.912224
454.000000	99.978547
453.000000	100.036854
452.000000	100.017197
451.000000	99.994300
450.000000	100.026602
449.000000	100.081274
448.000000	100.036396
447.000000	99.964736
446.000000	99.977376
445.000000	99.953162
444.000000	100.040783
443.000000	100.017879
442.000000	99.876512
441.000000	99.948652
440.000000	100.067664
439.000000	100.013127
438.000000	99.976034
437.000000	100.000761
436.000000	99.862056
435.000000	99.891046
434.000000	99.974388
433.000000	100.010000
432.000000	99.953444
431.000000	99.939718
430.000000	100.008287
429.000000	99.988950
428.000000	99.971985
427.000000	99.958829
426.000000	99.986563
425.000000	99.990656
424.000000	99.939557
423.000000	99.944891
422.000000	99.947837
421.000000	99.973565
420.000000	99.993320
419.000000	100.010494
418.000000	100.038369
417.000000	100.038780
416.000000	100.045752
415.000000	99.959622
414.000000	99.978510
413.000000	100.012135
412.000000	100.034606
411.000000	100.028195
410.000000	100.084121
409.000000	99.957671
408.000000	100.018168
407.000000	100.024576
406.000000	100.016639
405.000000	99.938136
404.000000	100.071693
403.000000	99.969670
402.000000	100.048356
401.000000	99.944685
400.000000	100.008806
399.000000	100.038984
398.000000	100.013603
397.000000	99.973278
396.000000	100.022811
395.000000	99.979590
394.000000	99.982175
393.000000	99.905760
392.000000	99.928237
391.000000	99.867509
390.000000	99.964617
389.000000	99.912429
388.000000	99.896342
387.000000	99.918558
386.000000	99.924296
385.000000	99.958808
384.000000	99.966103
383.000000	99.931787
382.000000	99.910876
381.000000	99.886316
380.000000	99.905885
379.000000	99.901504
378.000000	100.035818
377.000000	99.690773
376.000000	99.896197
375.000000	99.868339
374.000000	99.593168
373.000000	99.744059
372.000000	99.884634
371.000000	100.137042
370.000000	99.995103
369.000000	100.158588
368.000000	100.118947
367.000000	99.660057
366.000000	99.879414
365.000000	100.061545
364.000000	99.845097
363.000000	100.156730
362.000000	99.837011
361.000000	100.062074
360.000000	100.103445
359.000000	99.888749
358.000000	99.903432
357.000000	99.760874
356.000000	100.035850
355.000000	99.920700
354.000000	100.112837
353.000000	100.017283
352.000000	100.015360
351.000000	99.647401
350.000000	99.978612
349.000000	100.140626
348.000000	100.090189
347.000000	99.812450
346.000000	99.736266
345.000000	99.994144
344.000000	99.850498
343.000000	99.932819
342.000000	100.055744
341.000000	99.905544
340.000000	100.194467
339.000000	99.878511
338.000000	100.025511
337.000000	99.906116
336.000000	100.168255
335.000000	99.712727
334.000000	100.050267
333.000000	99.752931
332.000000	99.506223
331.000000	99.957343
330.000000	99.624364
329.000000	99.719176
328.000000	100.284894
327.000000	100.092435
326.000000	100.462737
325.000000	99.804389
324.000000	100.116387
323.000000	99.861237
322.000000	100.306984
321.000000	100.378096
320.000000	100.069474
319.000000	99.618900
318.000000	99.948826
317.000000	100.004089
316.000000	99.796452
315.000000	100.016925
314.000000	99.999239
313.000000	99.777982
312.000000	100.018587
311.000000	100.002188
310.000000	99.835525
309.000000	100.119941
308.000000	100.006871
307.000000	100.165801
306.000000	99.767415
305.000000	99.982554
304.000000	99.915818
303.000000	99.877840
302.000000	100.053576
301.000000	100.238976
300.000000	100.130082
299.000000	99.964504
298.000000	100.083243
297.000000	100.205339
296.000000	99.731155
295.000000	99.953704
294.000000	100.133511
293.000000	99.852679
292.000000	99.989954
291.000000	99.924516
290.000000	99.882567
289.000000	99.701104
288.000000	100.164118
287.000000	100.065289
286.000000	100.056051
285.000000	99.945920
284.000000	100.098761
283.000000	99.939024
282.000000	100.030807
281.000000	99.804111
280.000000	99.821904
279.000000	100.029883
278.000000	99.739726
277.000000	100.099007
276.000000	100.057893
275.000000	100.173548
274.000000	100.085726
273.000000	100.468253
272.000000	99.904133
271.000000	99.940645
270.000000	99.896051
269.000000	99.828090
268.000000	99.942534
267.000000	100.032492
266.000000	100.132904
265.000000	100.212242
264.000000	100.185056
263.000000	100.094079
262.000000	100.154181
261.000000	100.042623
260.000000	99.729087
259.000000	99.740818
258.000000	100.105545
257.000000	100.087095
256.000000	100.048317
255.000000	100.058402
254.000000	99.819725
253.000000	99.917736
252.000000	99.747538
251.000000	99.921411
250.000000	100.184618
249.000000	100.142172
248.000000	100.129471
247.000000	100.047924
246.000000	99.986489
245.000000	100.034780
244.000000	100.093371
243.000000	100.237934
242.000000	100.358365
241.000000	100.319160
240.000000	100.009629
239.000000	100.081092
238.000000	99.971666
237.000000	99.920469
236.000000	99.919925
235.000000	99.630880
234.000000	99.740282
233.000000	99.898657
232.000000	99.848921
231.000000	99.701703
230.000000	99.743632
229.000000	99.786572
228.000000	99.969895
227.000000	100.125790
226.000000	100.159630
225.000000	100.043156
224.000000	100.172412
223.000000	100.209081
222.000000	99.973239
221.000000	99.995544
220.000000	100.075600
219.000000	99.925699
218.000000	99.812195
217.000000	100.307036
216.000000	100.313121
215.000000	99.700169
214.000000	99.819679
213.000000	100.142984
212.000000	100.311590
211.000000	100.388553
210.000000	99.918928
209.000000	99.845437
208.000000	100.108525
207.000000	100.137432
206.000000	99.551833
205.000000	99.516168
204.000000	100.465139
203.000000	100.305200
202.000000	99.859106
201.000000	99.666970
200.000000	100.010291
