PE UV       SUBTECH     SPECTRUM    ASCII       PEDS        4.00        
   -1
RDms499182.Sample.asc
18/03/23
09:47:17.00
18/03/23
09:47:17.00
Administrator

200.000000
1
Lambda 750
750N8071901
PerkinElmer UV WinLab 6.0.4.0738 / 1.61.00 Lambda 900

0
0
3350/servo 860.8/2
0
0
UV/VIS
1
1
1
CommonBeamDepol,150mm sphere / downward view
0
0
0
0
Program
Program
3350/servo 860.8/2
3350/0.2 860.8/0.2
3350/0.2 860.8/0.2
0
1
 
 
 
0
 
860.8
319.2
860.8
Front
100
on
 
 
0
0
0
 
0
 
 
 
0
 
 
0
0
0
0
0
 
 
 
 
0
0


0
0
#HDR
-1
-1
#GR
nm
%R
1.0
0.0
2350.000000
-1.000000
2151
8
62.557687
6.375603
#DATA
2350.000000	34.170090
2349.000000	34.384478
2348.000000	34.222493
2347.000000	34.907363
2346.000000	34.093361
2345.000000	34.213745
2344.000000	34.297667
2343.000000	34.228430
2342.000000	34.185050
2341.000000	34.877374
2340.000000	34.559433
2339.000000	34.805333
2338.000000	34.989847
2337.000000	34.732876
2336.000000	34.972933
2335.000000	34.976486
2334.000000	35.086011
2333.000000	35.294326
2332.000000	35.191383
2331.000000	35.039496
2330.000000	34.938142
2329.000000	34.654685
2328.000000	34.856194
2327.000000	34.587662
2326.000000	34.925142
2325.000000	34.851115
2324.000000	35.009302
2323.000000	34.594065
2322.000000	34.596332
2321.000000	34.372075
2320.000000	34.475992
2319.000000	34.518078
2318.000000	34.671814
2317.000000	34.425701
2316.000000	34.236554
2315.000000	34.397264
2314.000000	34.313601
2313.000000	34.126199
2312.000000	33.933587
2311.000000	33.864999
2310.000000	33.748098
2309.000000	34.164000
2308.000000	34.048721
2307.000000	33.559896
2306.000000	33.598234
2305.000000	33.755830
2304.000000	33.533992
2303.000000	33.734780
2302.000000	33.608618
2301.000000	33.588207
2300.000000	33.415696
2299.000000	33.263273
2298.000000	33.172439
2297.000000	33.169792
2296.000000	33.218777
2295.000000	33.162233
2294.000000	33.229239
2293.000000	33.124519
2292.000000	33.026584
2291.000000	33.012349
2290.000000	33.064378
2289.000000	33.027033
2288.000000	33.149880
2287.000000	33.007618
2286.000000	32.998492
2285.000000	32.968095
2284.000000	32.879009
2283.000000	32.860271
2282.000000	32.830203
2281.000000	32.778778
2280.000000	32.800316
2279.000000	32.898503
2278.000000	32.717685
2277.000000	32.785824
2276.000000	32.941651
2275.000000	33.047976
2274.000000	33.110170
2273.000000	33.188908
2272.000000	33.228713
2271.000000	33.351737
2270.000000	33.379689
2269.000000	33.507689
2268.000000	33.691823
2267.000000	33.763941
2266.000000	33.741164
2265.000000	33.832637
2264.000000	33.917747
2263.000000	34.005882
2262.000000	34.120408
2261.000000	34.439160
2260.000000	34.544187
2259.000000	34.644021
2258.000000	34.907192
2257.000000	35.127744
2256.000000	35.359023
2255.000000	35.512534
2254.000000	35.616675
2253.000000	35.664505
2252.000000	35.865014
2251.000000	36.064915
2250.000000	36.319939
2249.000000	36.622141
2248.000000	36.683416
2247.000000	36.734619
2246.000000	37.050033
2245.000000	37.284292
2244.000000	37.591428
2243.000000	37.786463
2242.000000	37.798589
2241.000000	37.879363
2240.000000	38.041387
2239.000000	38.123320
2238.000000	38.204504
2237.000000	38.403953
2236.000000	38.458503
2235.000000	38.543496
2234.000000	38.722923
2233.000000	38.778656
2232.000000	38.765703
2231.000000	38.812855
2230.000000	38.856381
2229.000000	38.908254
2228.000000	38.929405
2227.000000	39.004719
2226.000000	39.020614
2225.000000	38.882305
2224.000000	38.917259
2223.000000	38.981196
2222.000000	38.959757
2221.000000	38.884322
2220.000000	38.951523
2219.000000	38.878123
2218.000000	38.774106
2217.000000	38.773663
2216.000000	38.724054
2215.000000	38.781776
2214.000000	38.851791
2213.000000	38.784354
2212.000000	38.589214
2211.000000	38.531604
2210.000000	38.517896
2209.000000	38.526957
2208.000000	38.536082
2207.000000	38.478142
2206.000000	38.246685
2205.000000	38.188999
2204.000000	38.291565
2203.000000	38.250790
2202.000000	37.973972
2201.000000	38.141296
2200.000000	37.957894
2199.000000	37.912413
2198.000000	37.865225
2197.000000	37.833949
2196.000000	37.682925
2195.000000	37.546826
2194.000000	37.375230
2193.000000	37.477314
2192.000000	37.461303
2191.000000	37.219268
2190.000000	37.392703
2189.000000	37.386341
2188.000000	37.147282
2187.000000	36.981148
2186.000000	37.078775
2185.000000	37.018774
2184.000000	37.181342
2183.000000	37.060836
2182.000000	37.009462
2181.000000	37.105097
2180.000000	36.897233
2179.000000	36.811844
2178.000000	36.866602
2177.000000	36.918669
2176.000000	36.871593
2175.000000	36.922107
2174.000000	36.964040
2173.000000	36.953289
2172.000000	37.066267
2171.000000	37.040816
2170.000000	37.089476
2169.000000	37.049477
2168.000000	37.333976
2167.000000	37.385265
2166.000000	37.409311
2165.000000	37.492790
2164.000000	37.533286
2163.000000	37.623242
2162.000000	37.924791
2161.000000	37.841777
2160.000000	37.841741
2159.000000	38.125430
2158.000000	38.154125
2157.000000	38.364134
2156.000000	38.803517
2155.000000	38.622179
2154.000000	38.795496
2153.000000	38.907177
2152.000000	38.933887
2151.000000	38.947701
2150.000000	38.965592
2149.000000	39.349596
2148.000000	39.389478
2147.000000	39.491456
2146.000000	39.629417
2145.000000	39.678462
2144.000000	39.875813
2143.000000	39.954977
2142.000000	40.040288
2141.000000	40.348174
2140.000000	40.388679
2139.000000	40.395497
2138.000000	40.679701
2137.000000	40.701125
2136.000000	40.767243
2135.000000	40.752027
2134.000000	40.885295
2133.000000	40.685198
2132.000000	41.144954
2131.000000	41.323474
2130.000000	41.269275
2129.000000	41.236691
2128.000000	41.183980
2127.000000	41.232288
2126.000000	41.444833
2125.000000	41.210668
2124.000000	41.464487
2123.000000	41.356636
2122.000000	41.451468
2121.000000	41.798218
2120.000000	41.529057
2119.000000	41.494468
2118.000000	41.664958
2117.000000	41.651845
2116.000000	41.869091
2115.000000	41.949504
2114.000000	41.647069
2113.000000	41.793744
2112.000000	41.866952
2111.000000	41.719755
2110.000000	41.680894
2109.000000	41.805315
2108.000000	41.916943
2107.000000	41.920656
2106.000000	41.945503
2105.000000	41.823050
2104.000000	41.847271
2103.000000	42.026788
2102.000000	42.085709
2101.000000	42.065480
2100.000000	41.966353
2099.000000	41.926980
2098.000000	41.955825
2097.000000	42.062169
2096.000000	41.932393
2095.000000	41.873941
2094.000000	41.857825
2093.000000	41.942008
2092.000000	41.963678
2091.000000	41.833891
2090.000000	41.925289
2089.000000	41.840850
2088.000000	41.811192
2087.000000	41.904554
2086.000000	41.930164
2085.000000	41.904791
2084.000000	41.767470
2083.000000	41.733969
2082.000000	41.662089
2081.000000	41.575640
2080.000000	41.546180
2079.000000	41.568774
2078.000000	41.389931
2077.000000	41.327369
2076.000000	41.289268
2075.000000	41.230445
2074.000000	41.122475
2073.000000	41.014436
2072.000000	40.902266
2071.000000	40.876789
2070.000000	40.775421
2069.000000	40.601155
2068.000000	40.550270
2067.000000	40.476043
2066.000000	40.192310
2065.000000	40.078298
2064.000000	40.127614
2063.000000	39.932835
2062.000000	39.786649
2061.000000	39.598060
2060.000000	39.436361
2059.000000	39.359081
2058.000000	39.246825
2057.000000	39.169513
2056.000000	39.009981
2055.000000	38.852658
2054.000000	38.747332
2053.000000	38.683311
2052.000000	38.521116
2051.000000	38.407354
2050.000000	38.291837
2049.000000	38.228948
2048.000000	38.156124
2047.000000	38.090630
2046.000000	38.032436
2045.000000	38.018843
2044.000000	37.999556
2043.000000	37.950216
2042.000000	37.956685
2041.000000	38.012876
2040.000000	38.039227
2039.000000	37.988050
2038.000000	37.981004
2037.000000	38.039625
2036.000000	38.127156
2035.000000	38.180707
2034.000000	38.256911
2033.000000	38.390396
2032.000000	38.497416
2031.000000	38.608250
2030.000000	38.645922
2029.000000	38.719430
2028.000000	38.884314
2027.000000	38.985129
2026.000000	39.049659
2025.000000	39.113039
2024.000000	39.159320
2023.000000	39.226233
2022.000000	39.236587
2021.000000	39.249706
2020.000000	39.297885
2019.000000	39.318845
2018.000000	39.348852
2017.000000	39.358482
2016.000000	39.307354
2015.000000	39.260877
2014.000000	39.243617
2013.000000	39.216397
2012.000000	39.176296
2011.000000	39.147113
2010.000000	39.077626
2009.000000	38.984331
2008.000000	38.913289
2007.000000	38.822500
2006.000000	38.761003
2005.000000	38.660525
2004.000000	38.528531
2003.000000	38.473762
2002.000000	38.392139
2001.000000	38.292064
2000.000000	38.161381
1999.000000	38.070150
1998.000000	37.991391
1997.000000	37.891148
1996.000000	37.766886
1995.000000	37.672739
1994.000000	37.559865
1993.000000	37.390822
1992.000000	37.283480
1991.000000	37.226038
1990.000000	37.114444
1989.000000	37.024240
1988.000000	36.906655
1987.000000	36.755229
1986.000000	36.652368
1985.000000	36.533745
1984.000000	36.439194
1983.000000	36.303649
1982.000000	36.221577
1981.000000	36.157955
1980.000000	36.001343
1979.000000	35.862501
1978.000000	35.749884
1977.000000	35.658904
1976.000000	35.575297
1975.000000	35.471819
1974.000000	35.375606
1973.000000	35.292962
1972.000000	35.145748
1971.000000	35.036640
1970.000000	34.931427
1969.000000	34.843447
1968.000000	34.767062
1967.000000	34.645362
1966.000000	34.575259
1965.000000	34.444425
1964.000000	34.285950
1963.000000	34.243838
1962.000000	34.080898
1961.000000	34.043003
1960.000000	33.919666
1959.000000	33.806676
1958.000000	33.748483
1957.000000	33.703532
1956.000000	33.585017
1955.000000	33.498641
1954.000000	33.400947
1953.000000	33.416889
1952.000000	33.312560
1951.000000	33.276065
1950.000000	33.277713
1949.000000	33.198284
1948.000000	33.181795
1947.000000	33.090558
1946.000000	33.077646
1945.000000	33.045395
1944.000000	33.036975
1943.000000	33.016893
1942.000000	33.037146
1941.000000	33.064524
1940.000000	33.127285
1939.000000	33.141404
1938.000000	33.215748
1937.000000	33.312784
1936.000000	33.476287
1935.000000	33.469648
1934.000000	33.528307
1933.000000	33.671382
1932.000000	33.812517
1931.000000	33.997331
1930.000000	34.126579
1929.000000	34.298213
1928.000000	34.499388
1927.000000	34.623462
1926.000000	34.902692
1925.000000	35.093918
1924.000000	35.224549
1923.000000	35.569230
1922.000000	35.757893
1921.000000	36.145250
1920.000000	36.291109
1919.000000	36.523212
1918.000000	36.987831
1917.000000	37.283732
1916.000000	37.477270
1915.000000	37.865712
1914.000000	38.224034
1913.000000	38.684931
1912.000000	38.886227
1911.000000	39.311171
1910.000000	39.687112
1909.000000	40.168467
1908.000000	40.569251
1907.000000	41.050147
1906.000000	41.360798
1905.000000	41.841062
1904.000000	42.308873
1903.000000	42.819067
1902.000000	43.302320
1901.000000	43.789776
1900.000000	44.130262
1899.000000	44.681130
1898.000000	45.223026
1897.000000	45.683726
1896.000000	46.100096
1895.000000	46.534518
1894.000000	46.922955
1893.000000	47.436021
1892.000000	47.838115
1891.000000	48.259455
1890.000000	48.689950
1889.000000	49.066041
1888.000000	49.467564
1887.000000	49.824098
1886.000000	50.189260
1885.000000	50.568193
1884.000000	50.897219
1883.000000	51.243071
1882.000000	51.413767
1881.000000	51.694767
1880.000000	51.985532
1879.000000	52.282875
1878.000000	52.527276
1877.000000	52.778879
1876.000000	52.997179
1875.000000	53.229285
1874.000000	53.406399
1873.000000	53.650874
1872.000000	53.875958
1871.000000	54.067919
1870.000000	54.156890
1869.000000	54.342082
1868.000000	54.460607
1867.000000	54.537342
1866.000000	54.681980
1865.000000	54.723968
1864.000000	54.776942
1863.000000	54.863593
1862.000000	54.898906
1861.000000	54.980909
1860.000000	55.002222
1859.000000	55.061727
1858.000000	55.101633
1857.000000	55.164909
1856.000000	55.198769
1855.000000	55.200271
1854.000000	55.247718
1853.000000	55.237991
1852.000000	55.177020
1851.000000	55.232832
1850.000000	55.258537
1849.000000	55.233098
1848.000000	55.238243
1847.000000	55.255877
1846.000000	55.255742
1845.000000	55.220846
1844.000000	55.178166
1843.000000	55.179933
1842.000000	55.203499
1841.000000	55.194866
1840.000000	55.133318
1839.000000	55.119962
1838.000000	55.096103
1837.000000	55.047795
1836.000000	55.011368
1835.000000	54.974032
1834.000000	54.966221
1833.000000	54.926080
1832.000000	54.898410
1831.000000	54.850542
1830.000000	54.800764
1829.000000	54.785754
1828.000000	54.746467
1827.000000	54.698945
1826.000000	54.667517
1825.000000	54.632621
1824.000000	54.627867
1823.000000	54.596253
1822.000000	54.549945
1821.000000	54.498652
1820.000000	54.452882
1819.000000	54.423008
1818.000000	54.423506
1817.000000	54.388812
1816.000000	54.329270
1815.000000	54.310330
1814.000000	54.304202
1813.000000	54.264853
1812.000000	54.231154
1811.000000	54.192785
1810.000000	54.158933
1809.000000	54.134857
1808.000000	54.084764
1807.000000	54.061970
1806.000000	54.043307
1805.000000	53.991360
1804.000000	53.947584
1803.000000	53.933148
1802.000000	53.882759
1801.000000	53.842012
1800.000000	53.834971
1799.000000	53.819354
1798.000000	53.794159
1797.000000	53.780529
1796.000000	53.747725
1795.000000	53.714244
1794.000000	53.708457
1793.000000	53.680009
1792.000000	53.656688
1791.000000	53.645477
1790.000000	53.592478
1789.000000	53.571836
1788.000000	53.570210
1787.000000	53.535728
1786.000000	53.506556
1785.000000	53.492441
1784.000000	53.458176
1783.000000	53.434412
1782.000000	53.400477
1781.000000	53.349757
1780.000000	53.309720
1779.000000	53.303609
1778.000000	53.239970
1777.000000	53.180886
1776.000000	53.146454
1775.000000	53.086237
1774.000000	53.046467
1773.000000	53.009239
1772.000000	52.956510
1771.000000	52.905485
1770.000000	52.852295
1769.000000	52.800297
1768.000000	52.787719
1767.000000	52.728137
1766.000000	52.673600
1765.000000	52.681985
1764.000000	52.653915
1763.000000	52.561991
1762.000000	52.528947
1761.000000	52.506137
1760.000000	52.457609
1759.000000	52.423505
1758.000000	52.397995
1757.000000	52.329613
1756.000000	52.305480
1755.000000	52.266256
1754.000000	52.200835
1753.000000	52.152779
1752.000000	52.122128
1751.000000	52.078173
1750.000000	52.037498
1749.000000	51.986395
1748.000000	51.933320
1747.000000	51.881787
1746.000000	51.825089
1745.000000	51.748460
1744.000000	51.709882
1743.000000	51.659706
1742.000000	51.625651
1741.000000	51.564454
1740.000000	51.496419
1739.000000	51.476485
1738.000000	51.417025
1737.000000	51.351618
1736.000000	51.343818
1735.000000	51.309795
1734.000000	51.344417
1733.000000	51.337715
1732.000000	51.313762
1731.000000	51.292092
1730.000000	51.346567
1729.000000	51.382388
1728.000000	51.410317
1727.000000	51.482379
1726.000000	51.503471
1725.000000	51.557467
1724.000000	51.635073
1723.000000	51.731981
1722.000000	51.781743
1721.000000	51.876029
1720.000000	52.006960
1719.000000	52.089117
1718.000000	52.191241
1717.000000	52.277534
1716.000000	52.395910
1715.000000	52.459732
1714.000000	52.558532
1713.000000	52.598788
1712.000000	52.662473
1711.000000	52.756742
1710.000000	52.813657
1709.000000	52.856042
1708.000000	52.926446
1707.000000	52.979644
1706.000000	53.013612
1705.000000	53.047450
1704.000000	53.132227
1703.000000	53.118774
1702.000000	53.153890
1701.000000	53.158702
1700.000000	53.183305
1699.000000	53.178209
1698.000000	53.232737
1697.000000	53.289819
1696.000000	53.318476
1695.000000	53.342908
1694.000000	53.368708
1693.000000	53.422064
1692.000000	53.448843
1691.000000	53.515256
1690.000000	53.594200
1689.000000	53.688192
1688.000000	53.794673
1687.000000	53.864470
1686.000000	53.932118
1685.000000	54.049221
1684.000000	54.155053
1683.000000	54.293088
1682.000000	54.414212
1681.000000	54.556468
1680.000000	54.681837
1679.000000	54.812264
1678.000000	54.962130
1677.000000	55.051180
1676.000000	55.216570
1675.000000	55.352167
1674.000000	55.483702
1673.000000	55.620610
1672.000000	55.744855
1671.000000	55.879710
1670.000000	56.006827
1669.000000	56.133142
1668.000000	56.231691
1667.000000	56.314647
1666.000000	56.393793
1665.000000	56.480126
1664.000000	56.512637
1663.000000	56.576158
1662.000000	56.639215
1661.000000	56.716277
1660.000000	56.762891
1659.000000	56.826883
1658.000000	56.867337
1657.000000	56.897174
1656.000000	56.943183
1655.000000	56.984773
1654.000000	56.985973
1653.000000	56.987628
1652.000000	57.012949
1651.000000	57.007653
1650.000000	56.982788
1649.000000	56.984466
1648.000000	56.998807
1647.000000	56.993606
1646.000000	56.980672
1645.000000	56.973064
1644.000000	56.963484
1643.000000	56.940455
1642.000000	56.904594
1641.000000	56.869115
1640.000000	56.849801
1639.000000	56.824175
1638.000000	56.794300
1637.000000	56.768181
1636.000000	56.740118
1635.000000	56.720099
1634.000000	56.699415
1633.000000	56.642472
1632.000000	56.609939
1631.000000	56.561721
1630.000000	56.543682
1629.000000	56.502737
1628.000000	56.461621
1627.000000	56.411884
1626.000000	56.382206
1625.000000	56.351807
1624.000000	56.318983
1623.000000	56.277615
1622.000000	56.224349
1621.000000	56.168664
1620.000000	56.147558
1619.000000	56.090010
1618.000000	56.040525
1617.000000	55.981645
1616.000000	55.920611
1615.000000	55.864434
1614.000000	55.820731
1613.000000	55.788239
1612.000000	55.729425
1611.000000	55.668318
1610.000000	55.629137
1609.000000	55.581146
1608.000000	55.537898
1607.000000	55.482982
1606.000000	55.415004
1605.000000	55.360800
1604.000000	55.294374
1603.000000	55.224748
1602.000000	55.188261
1601.000000	55.137043
1600.000000	55.073276
1599.000000	55.023369
1598.000000	54.968975
1597.000000	54.920826
1596.000000	54.880817
1595.000000	54.834276
1594.000000	54.789967
1593.000000	54.742738
1592.000000	54.693076
1591.000000	54.643932
1590.000000	54.594168
1589.000000	54.547905
1588.000000	54.506544
1587.000000	54.450089
1586.000000	54.410626
1585.000000	54.374173
1584.000000	54.333471
1583.000000	54.296703
1582.000000	54.259068
1581.000000	54.227434
1580.000000	54.206523
1579.000000	54.145972
1578.000000	54.105085
1577.000000	54.074264
1576.000000	54.032196
1575.000000	54.001847
1574.000000	53.949516
1573.000000	53.902964
1572.000000	53.854001
1571.000000	53.813646
1570.000000	53.790830
1569.000000	53.744025
1568.000000	53.717031
1567.000000	53.690610
1566.000000	53.666336
1565.000000	53.648785
1564.000000	53.631676
1563.000000	53.617560
1562.000000	53.568813
1561.000000	53.523274
1560.000000	53.504766
1559.000000	53.497362
1558.000000	53.491033
1557.000000	53.471675
1556.000000	53.451974
1555.000000	53.427633
1554.000000	53.378569
1553.000000	53.371866
1552.000000	53.359326
1551.000000	53.318176
1550.000000	53.272722
1549.000000	53.247132
1548.000000	53.200859
1547.000000	53.154231
1546.000000	53.103523
1545.000000	53.069284
1544.000000	53.001044
1543.000000	52.951506
1542.000000	52.879434
1541.000000	52.810497
1540.000000	52.756765
1539.000000	52.687622
1538.000000	52.605633
1537.000000	52.541747
1536.000000	52.469398
1535.000000	52.391885
1534.000000	52.321620
1533.000000	52.274560
1532.000000	52.194173
1531.000000	52.104287
1530.000000	52.038135
1529.000000	51.983552
1528.000000	51.925569
1527.000000	51.858040
1526.000000	51.813593
1525.000000	51.741995
1524.000000	51.693000
1523.000000	51.635861
1522.000000	51.596056
1521.000000	51.548833
1520.000000	51.546107
1519.000000	51.505388
1518.000000	51.482136
1517.000000	51.405827
1516.000000	51.369607
1515.000000	51.345079
1514.000000	51.334390
1513.000000	51.305691
1512.000000	51.282278
1511.000000	51.239213
1510.000000	51.213675
1509.000000	51.202860
1508.000000	51.160252
1507.000000	51.169730
1506.000000	51.158251
1505.000000	51.153884
1504.000000	51.117577
1503.000000	51.113230
1502.000000	51.089178
1501.000000	51.076672
1500.000000	51.081933
1499.000000	51.055033
1498.000000	51.048155
1497.000000	51.069943
1496.000000	51.055173
1495.000000	51.072626
1494.000000	51.088757
1493.000000	51.089598
1492.000000	51.086456
1491.000000	51.106102
1490.000000	51.104021
1489.000000	51.141533
1488.000000	51.142077
1487.000000	51.181123
1486.000000	51.196550
1485.000000	51.209648
1484.000000	51.262311
1483.000000	51.259248
1482.000000	51.295794
1481.000000	51.303264
1480.000000	51.352682
1479.000000	51.358598
1478.000000	51.394772
1477.000000	51.418935
1476.000000	51.437356
1475.000000	51.449635
1474.000000	51.509383
1473.000000	51.521086
1472.000000	51.545431
1471.000000	51.580563
1470.000000	51.606322
1469.000000	51.634632
1468.000000	51.659622
1467.000000	51.686231
1466.000000	51.715938
1465.000000	51.748177
1464.000000	51.742216
1463.000000	51.788082
1462.000000	51.821711
1461.000000	51.867146
1460.000000	51.874966
1459.000000	51.901203
1458.000000	51.936639
1457.000000	51.964925
1456.000000	52.015749
1455.000000	52.070054
1454.000000	52.104714
1453.000000	52.126569
1452.000000	52.182934
1451.000000	52.248018
1450.000000	52.287582
1449.000000	52.341978
1448.000000	52.402902
1447.000000	52.457095
1446.000000	52.510415
1445.000000	52.572051
1444.000000	52.651408
1443.000000	52.711101
1442.000000	52.778023
1441.000000	52.838948
1440.000000	52.924168
1439.000000	52.992693
1438.000000	53.080884
1437.000000	53.156615
1436.000000	53.236331
1435.000000	53.351336
1434.000000	53.447040
1433.000000	53.557774
1432.000000	53.650607
1431.000000	53.766274
1430.000000	53.845341
1429.000000	53.968193
1428.000000	54.089727
1427.000000	54.200095
1426.000000	54.326210
1425.000000	54.458148
1424.000000	54.591811
1423.000000	54.725100
1422.000000	54.862087
1421.000000	55.003321
1420.000000	55.146081
1419.000000	55.291393
1418.000000	55.425788
1417.000000	55.578846
1416.000000	55.741134
1415.000000	55.908579
1414.000000	56.064171
1413.000000	56.226836
1412.000000	56.394411
1411.000000	56.560887
1410.000000	56.710418
1409.000000	56.876388
1408.000000	57.027150
1407.000000	57.181125
1406.000000	57.352243
1405.000000	57.512997
1404.000000	57.655049
1403.000000	57.805270
1402.000000	57.952809
1401.000000	58.097555
1400.000000	58.244293
1399.000000	58.384271
1398.000000	58.506385
1397.000000	58.635634
1396.000000	58.763881
1395.000000	58.882749
1394.000000	58.995026
1393.000000	59.116258
1392.000000	59.211905
1391.000000	59.315092
1390.000000	59.422192
1389.000000	59.520627
1388.000000	59.627359
1387.000000	59.716719
1386.000000	59.796880
1385.000000	59.881387
1384.000000	59.961302
1383.000000	60.031646
1382.000000	60.104763
1381.000000	60.179550
1380.000000	60.243255
1379.000000	60.307296
1378.000000	60.361640
1377.000000	60.391981
1376.000000	60.438008
1375.000000	60.484701
1374.000000	60.522809
1373.000000	60.550143
1372.000000	60.581038
1371.000000	60.610635
1370.000000	60.650082
1369.000000	60.686522
1368.000000	60.724210
1367.000000	60.751790
1366.000000	60.785292
1365.000000	60.828166
1364.000000	60.856812
1363.000000	60.897225
1362.000000	60.946064
1361.000000	61.007367
1360.000000	61.049539
1359.000000	61.082071
1358.000000	61.127299
1357.000000	61.177319
1356.000000	61.209246
1355.000000	61.230334
1354.000000	61.280012
1353.000000	61.334792
1352.000000	61.366005
1351.000000	61.396423
1350.000000	61.440815
1349.000000	61.489008
1348.000000	61.521027
1347.000000	61.555224
1346.000000	61.594842
1345.000000	61.621307
1344.000000	61.658993
1343.000000	61.700254
1342.000000	61.724490
1341.000000	61.764237
1340.000000	61.802342
1339.000000	61.848824
1338.000000	61.867528
1337.000000	61.883939
1336.000000	61.909356
1335.000000	61.937516
1334.000000	61.965013
1333.000000	61.978475
1332.000000	61.996110
1331.000000	62.026021
1330.000000	62.046833
1329.000000	62.100064
1328.000000	62.177921
1327.000000	62.246722
1326.000000	62.284152
1325.000000	62.300578
1324.000000	62.302091
1323.000000	62.310927
1322.000000	62.353295
1321.000000	62.340761
1320.000000	62.345654
1319.000000	62.384057
1318.000000	62.388903
1317.000000	62.397361
1316.000000	62.438107
1315.000000	62.440972
1314.000000	62.449790
1313.000000	62.455287
1312.000000	62.466811
1311.000000	62.492251
1310.000000	62.539105
1309.000000	62.499772
1308.000000	62.498186
1307.000000	62.519091
1306.000000	62.550742
1305.000000	62.528622
1304.000000	62.532823
1303.000000	62.519766
1302.000000	62.540558
1301.000000	62.535642
1300.000000	62.529275
1299.000000	62.557687
1298.000000	62.525720
1297.000000	62.525681
1296.000000	62.513654
1295.000000	62.500304
1294.000000	62.512268
1293.000000	62.475744
1292.000000	62.491612
1291.000000	62.475095
1290.000000	62.476152
1289.000000	62.451673
1288.000000	62.463763
1287.000000	62.447797
1286.000000	62.383124
1285.000000	62.378644
1284.000000	62.367915
1283.000000	62.380933
1282.000000	62.372763
1281.000000	62.383510
1280.000000	62.383252
1279.000000	62.372673
1278.000000	62.348468
1277.000000	62.349213
1276.000000	62.351026
1275.000000	62.322023
1274.000000	62.307019
1273.000000	62.306646
1272.000000	62.323722
1271.000000	62.308066
1270.000000	62.327613
1269.000000	62.297425
1268.000000	62.283638
1267.000000	62.303655
1266.000000	62.299186
1265.000000	62.289583
1264.000000	62.314349
1263.000000	62.305165
1262.000000	62.326573
1261.000000	62.333524
1260.000000	62.338810
1259.000000	62.321188
1258.000000	62.305068
1257.000000	62.287768
1256.000000	62.298831
1255.000000	62.330681
1254.000000	62.312585
1253.000000	62.295644
1252.000000	62.290956
1251.000000	62.276557
1250.000000	62.271514
1249.000000	62.247428
1248.000000	62.223364
1247.000000	62.223357
1246.000000	62.199780
1245.000000	62.189251
1244.000000	62.178456
1243.000000	62.151114
1242.000000	62.085589
1241.000000	62.074073
1240.000000	62.058424
1239.000000	62.039000
1238.000000	61.968220
1237.000000	61.945853
1236.000000	61.937395
1235.000000	61.900658
1234.000000	61.843735
1233.000000	61.812389
1232.000000	61.799407
1231.000000	61.791361
1230.000000	61.741535
1229.000000	61.688185
1228.000000	61.667717
1227.000000	61.640944
1226.000000	61.629866
1225.000000	61.600540
1224.000000	61.580481
1223.000000	61.555478
1222.000000	61.542492
1221.000000	61.500214
1220.000000	61.491679
1219.000000	61.469577
1218.000000	61.435424
1217.000000	61.423177
1216.000000	61.405644
1215.000000	61.390344
1214.000000	61.340960
1213.000000	61.341024
1212.000000	61.333180
1211.000000	61.334036
1210.000000	61.283215
1209.000000	61.274830
1208.000000	61.284202
1207.000000	61.230422
1206.000000	61.223617
1205.000000	61.227654
1204.000000	61.175458
1203.000000	61.127947
1202.000000	61.138567
1201.000000	61.134972
1200.000000	61.091426
1199.000000	61.060706
1198.000000	61.031142
1197.000000	61.029695
1196.000000	61.042059
1195.000000	61.014510
1194.000000	60.975082
1193.000000	60.955151
1192.000000	60.934861
1191.000000	60.919063
1190.000000	60.879957
1189.000000	60.827643
1188.000000	60.834507
1187.000000	60.833818
1186.000000	60.830834
1185.000000	60.821263
1184.000000	60.815019
1183.000000	60.810864
1182.000000	60.838201
1181.000000	60.859055
1180.000000	60.863852
1179.000000	60.875872
1178.000000	60.888985
1177.000000	60.912891
1176.000000	60.934884
1175.000000	60.955226
1174.000000	60.996561
1173.000000	61.039482
1172.000000	61.055455
1171.000000	61.076906
1170.000000	61.114795
1169.000000	61.162608
1168.000000	61.187496
1167.000000	61.215585
1166.000000	61.253676
1165.000000	61.289688
1164.000000	61.334585
1163.000000	61.380676
1162.000000	61.410775
1161.000000	61.418286
1160.000000	61.429336
1159.000000	61.476176
1158.000000	61.529010
1157.000000	61.569838
1156.000000	61.607325
1155.000000	61.643717
1154.000000	61.661668
1153.000000	61.693649
1152.000000	61.735052
1151.000000	61.755020
1150.000000	61.776589
1149.000000	61.811951
1148.000000	61.846052
1147.000000	61.870293
1146.000000	61.885767
1145.000000	61.904853
1144.000000	61.929587
1143.000000	61.921296
1142.000000	61.914081
1141.000000	61.927819
1140.000000	61.945385
1139.000000	61.957236
1138.000000	61.973135
1137.000000	62.007872
1136.000000	62.027626
1135.000000	62.038688
1134.000000	62.056557
1133.000000	62.064633
1132.000000	62.078732
1131.000000	62.096564
1130.000000	62.062007
1129.000000	62.058537
1128.000000	62.062533
1127.000000	62.068408
1126.000000	62.073537
1125.000000	62.067730
1124.000000	62.082617
1123.000000	62.095174
1122.000000	62.088678
1121.000000	62.083622
1120.000000	62.087556
1119.000000	62.081092
1118.000000	62.077351
1117.000000	62.069955
1116.000000	62.061299
1115.000000	62.061462
1114.000000	62.069204
1113.000000	62.047231
1112.000000	62.006130
1111.000000	61.995158
1110.000000	61.986314
1109.000000	61.979537
1108.000000	61.982561
1107.000000	61.981570
1106.000000	61.969156
1105.000000	61.955205
1104.000000	61.952239
1103.000000	61.929124
1102.000000	61.920223
1101.000000	61.912130
1100.000000	61.883386
1099.000000	61.853719
1098.000000	61.849466
1097.000000	61.828147
1096.000000	61.821229
1095.000000	61.819761
1094.000000	61.819253
1093.000000	61.755808
1092.000000	61.739748
1091.000000	61.744426
1090.000000	61.741663
1089.000000	61.734625
1088.000000	61.716849
1087.000000	61.656655
1086.000000	61.641223
1085.000000	61.627059
1084.000000	61.622634
1083.000000	61.617665
1082.000000	61.621794
1081.000000	61.562958
1080.000000	61.522179
1079.000000	61.525106
1078.000000	61.502070
1077.000000	61.491340
1076.000000	61.503849
1075.000000	61.452116
1074.000000	61.432634
1073.000000	61.415659
1072.000000	61.396482
1071.000000	61.392442
1070.000000	61.341871
1069.000000	61.339497
1068.000000	61.328488
1067.000000	61.311794
1066.000000	61.272520
1065.000000	61.244702
1064.000000	61.226378
1063.000000	61.220399
1062.000000	61.206623
1061.000000	61.162342
1060.000000	61.167047
1059.000000	61.149367
1058.000000	61.129560
1057.000000	61.130474
1056.000000	61.107331
1055.000000	61.086435
1054.000000	61.076973
1053.000000	61.071643
1052.000000	61.041500
1051.000000	61.018873
1050.000000	60.992761
1049.000000	60.975873
1048.000000	60.952368
1047.000000	60.937409
1046.000000	60.930902
1045.000000	60.915946
1044.000000	60.903547
1043.000000	60.877572
1042.000000	60.852985
1041.000000	60.849315
1040.000000	60.804781
1039.000000	60.805016
1038.000000	60.791539
1037.000000	60.773370
1036.000000	60.757466
1035.000000	60.716103
1034.000000	60.704971
1033.000000	60.707346
1032.000000	60.676698
1031.000000	60.652289
1030.000000	60.633913
1029.000000	60.611302
1028.000000	60.612218
1027.000000	60.578071
1026.000000	60.568653
1025.000000	60.545063
1024.000000	60.523602
1023.000000	60.508766
1022.000000	60.505243
1021.000000	60.479278
1020.000000	60.457996
1019.000000	60.460172
1018.000000	60.436687
1017.000000	60.412161
1016.000000	60.405622
1015.000000	60.378606
1014.000000	60.348429
1013.000000	60.349816
1012.000000	60.335928
1011.000000	60.325228
1010.000000	60.296019
1009.000000	60.285264
1008.000000	60.255840
1007.000000	60.234842
1006.000000	60.207100
1005.000000	60.208050
1004.000000	60.189290
1003.000000	60.170474
1002.000000	60.153199
1001.000000	60.151135
1000.000000	60.120251
999.000000	60.103910
998.000000	60.081449
997.000000	60.079866
996.000000	60.038017
995.000000	60.017243
994.000000	60.017451
993.000000	60.005497
992.000000	59.961576
991.000000	59.962097
990.000000	59.942431
989.000000	59.913193
988.000000	59.905213
987.000000	59.880698
986.000000	59.860309
985.000000	59.846547
984.000000	59.826472
983.000000	59.823107
982.000000	59.802920
981.000000	59.775728
980.000000	59.772444
979.000000	59.755693
978.000000	59.725038
977.000000	59.728269
976.000000	59.715272
975.000000	59.694071
974.000000	59.668799
973.000000	59.651170
972.000000	59.634017
971.000000	59.604316
970.000000	59.592606
969.000000	59.603439
968.000000	59.572683
967.000000	59.558291
966.000000	59.545395
965.000000	59.521950
964.000000	59.503161
963.000000	59.488563
962.000000	59.478161
961.000000	59.464823
960.000000	59.419515
959.000000	59.408041
958.000000	59.392466
957.000000	59.386450
956.000000	59.354815
955.000000	59.329054
954.000000	59.337819
953.000000	59.335585
952.000000	59.304307
951.000000	59.260799
950.000000	59.230554
949.000000	59.212954
948.000000	59.190361
947.000000	59.160635
946.000000	59.137145
945.000000	59.125619
944.000000	59.104850
943.000000	59.058655
942.000000	59.032112
941.000000	59.040986
940.000000	59.034162
939.000000	58.997560
938.000000	58.944211
937.000000	58.895214
936.000000	58.863018
935.000000	58.868138
934.000000	58.840690
933.000000	58.792094
932.000000	58.768298
931.000000	58.746066
930.000000	58.710656
929.000000	58.668462
928.000000	58.629985
927.000000	58.621342
926.000000	58.602660
925.000000	58.593970
924.000000	58.541226
923.000000	58.504045
922.000000	58.494921
921.000000	58.433103
920.000000	58.368012
919.000000	58.366281
918.000000	58.338108
917.000000	58.307077
916.000000	58.304448
915.000000	58.293324
914.000000	58.192621
913.000000	58.178991
912.000000	58.179752
911.000000	58.119369
910.000000	58.088732
909.000000	58.075440
908.000000	58.018951
907.000000	58.027470
906.000000	58.005607
905.000000	57.921607
904.000000	57.891023
903.000000	57.850883
902.000000	57.873239
901.000000	57.893500
900.000000	57.836510
899.000000	57.791153
898.000000	57.742463
897.000000	57.694292
896.000000	57.665827
895.000000	57.642638
894.000000	57.558988
893.000000	57.535365
892.000000	57.580088
891.000000	57.500742
890.000000	57.460331
889.000000	57.428208
888.000000	57.419321
887.000000	57.459108
886.000000	57.397941
885.000000	57.263056
884.000000	57.273045
883.000000	57.217315
882.000000	57.213486
881.000000	57.105123
880.000000	57.144201
879.000000	57.184398
878.000000	57.068348
877.000000	57.083532
876.000000	57.028773
875.000000	57.000395
874.000000	56.918630
873.000000	56.843009
872.000000	56.826780
871.000000	56.840617
870.000000	56.780343
869.000000	56.761387
868.000000	56.695604
867.000000	56.626613
866.000000	56.609563
865.000000	56.577042
864.000000	56.496599
863.000000	56.428648
862.000000	56.388235
861.000000	56.369303
860.000000	56.342584
859.000000	56.417524
858.000000	56.602441
857.000000	56.209417
856.000000	56.361463
855.000000	56.481493
854.000000	56.357545
853.000000	56.296986
852.000000	56.310875
851.000000	56.110939
850.000000	55.932048
849.000000	56.390028
848.000000	56.123327
847.000000	55.767075
846.000000	56.118182
845.000000	55.874808
844.000000	55.717970
843.000000	56.183432
842.000000	55.837439
841.000000	55.432615
840.000000	55.946092
839.000000	55.736490
838.000000	55.527079
837.000000	55.483969
836.000000	55.271030
835.000000	55.372123
834.000000	55.290213
833.000000	55.326792
832.000000	55.258997
831.000000	54.905732
830.000000	55.061480
829.000000	55.040394
828.000000	54.886346
827.000000	54.819834
826.000000	54.646035
825.000000	54.807360
824.000000	54.604168
823.000000	54.665975
822.000000	54.595256
821.000000	54.499196
820.000000	54.434769
819.000000	54.429953
818.000000	54.203328
817.000000	54.233097
816.000000	53.974300
815.000000	54.023292
814.000000	53.990286
813.000000	53.847930
812.000000	53.962225
811.000000	53.677046
810.000000	53.814448
809.000000	53.673669
808.000000	53.531856
807.000000	53.471801
806.000000	53.439329
805.000000	53.445505
804.000000	53.299393
803.000000	53.251711
802.000000	53.143236
801.000000	53.086376
800.000000	53.095308
799.000000	53.037849
798.000000	52.841333
797.000000	52.826001
796.000000	52.694257
795.000000	52.736695
794.000000	52.645209
793.000000	52.622912
792.000000	52.466112
791.000000	52.306199
790.000000	52.303955
789.000000	52.209798
788.000000	52.141153
787.000000	52.073474
786.000000	52.050926
785.000000	51.951959
784.000000	51.832323
783.000000	51.816471
782.000000	51.640199
781.000000	51.569595
780.000000	51.516267
779.000000	51.440310
778.000000	51.427163
777.000000	51.334314
776.000000	51.183673
775.000000	51.123183
774.000000	50.951411
773.000000	50.871315
772.000000	50.840486
771.000000	50.712169
770.000000	50.740924
769.000000	50.606381
768.000000	50.463653
767.000000	50.433836
766.000000	50.382582
765.000000	50.252871
764.000000	50.150138
763.000000	50.106560
762.000000	49.976123
761.000000	49.842793
760.000000	49.788280
759.000000	49.766177
758.000000	49.660857
757.000000	49.482219
756.000000	49.406256
755.000000	49.298789
754.000000	49.242597
753.000000	49.189127
752.000000	49.001263
751.000000	48.869706
750.000000	48.736430
749.000000	48.683082
748.000000	48.617080
747.000000	48.520516
746.000000	48.385646
745.000000	48.296410
744.000000	48.198559
743.000000	48.125213
742.000000	48.012052
741.000000	47.908283
740.000000	47.798671
739.000000	47.735310
738.000000	47.659511
737.000000	47.565298
736.000000	47.419883
735.000000	47.271592
734.000000	47.175714
733.000000	47.087852
732.000000	47.024403
731.000000	46.877865
730.000000	46.741457
729.000000	46.641324
728.000000	46.547607
727.000000	46.492470
726.000000	46.370880
725.000000	46.275182
724.000000	46.162817
723.000000	46.033125
722.000000	45.953984
721.000000	45.881918
720.000000	45.747738
719.000000	45.571296
718.000000	45.478626
717.000000	45.400672
716.000000	45.261333
715.000000	45.104882
714.000000	44.962166
713.000000	44.887064
712.000000	44.850738
711.000000	44.753552
710.000000	44.595213
709.000000	44.460523
708.000000	44.339854
707.000000	44.204695
706.000000	44.109553
705.000000	44.012202
704.000000	43.835645
703.000000	43.699870
702.000000	43.614073
701.000000	43.496353
700.000000	43.383893
699.000000	43.234864
698.000000	43.089832
697.000000	42.990402
696.000000	42.895079
695.000000	42.753201
694.000000	42.664802
693.000000	42.576196
692.000000	42.411684
691.000000	42.255606
690.000000	42.141181
689.000000	41.945567
688.000000	41.771754
687.000000	41.709913
686.000000	41.570545
685.000000	41.443125
684.000000	41.283739
683.000000	41.144074
682.000000	41.052527
681.000000	40.907929
680.000000	40.793571
679.000000	40.703533
678.000000	40.566453
677.000000	40.426204
676.000000	40.307454
675.000000	40.184779
674.000000	40.056345
673.000000	39.904944
672.000000	39.771671
671.000000	39.649392
670.000000	39.531978
669.000000	39.406642
668.000000	39.256185
667.000000	39.086450
666.000000	38.969866
665.000000	38.896381
664.000000	38.759479
663.000000	38.598801
662.000000	38.437166
661.000000	38.298395
660.000000	38.187042
659.000000	38.118885
658.000000	37.957559
657.000000	37.798533
656.000000	37.650698
655.000000	37.535928
654.000000	37.444862
653.000000	37.279934
652.000000	37.151481
651.000000	37.041788
650.000000	36.861556
649.000000	36.750811
648.000000	36.604469
647.000000	36.467011
646.000000	36.331091
645.000000	36.220370
644.000000	36.067389
643.000000	35.961566
642.000000	35.786277
641.000000	35.678753
640.000000	35.533064
639.000000	35.412245
638.000000	35.260798
637.000000	35.131395
636.000000	35.001529
635.000000	34.891369
634.000000	34.711455
633.000000	34.593668
632.000000	34.477578
631.000000	34.364975
630.000000	34.214250
629.000000	34.073648
628.000000	33.957316
627.000000	33.813831
626.000000	33.663967
625.000000	33.565101
624.000000	33.421521
623.000000	33.280444
622.000000	33.124186
621.000000	33.000482
620.000000	32.862292
619.000000	32.731045
618.000000	32.591806
617.000000	32.473560
616.000000	32.303175
615.000000	32.215408
614.000000	32.109699
613.000000	31.938447
612.000000	31.805144
611.000000	31.682537
610.000000	31.568317
609.000000	31.437643
608.000000	31.282206
607.000000	31.144250
606.000000	31.038111
605.000000	30.887675
604.000000	30.770773
603.000000	30.674322
602.000000	30.464408
601.000000	30.380708
600.000000	30.294042
599.000000	30.140034
598.000000	30.007133
597.000000	29.852408
596.000000	29.690074
595.000000	29.584000
594.000000	29.483846
593.000000	29.356920
592.000000	29.210182
591.000000	29.073841
590.000000	28.929850
589.000000	28.816192
588.000000	28.714139
587.000000	28.533644
586.000000	28.469925
585.000000	28.306540
584.000000	28.158003
583.000000	28.059274
582.000000	27.901816
581.000000	27.792049
580.000000	27.690364
579.000000	27.537950
578.000000	27.448962
577.000000	27.282366
576.000000	27.177175
575.000000	27.057810
574.000000	26.904212
573.000000	26.796547
572.000000	26.692985
571.000000	26.577181
570.000000	26.454347
569.000000	26.308491
568.000000	26.180616
567.000000	26.068952
566.000000	25.946718
565.000000	25.858372
564.000000	25.720016
563.000000	25.611487
562.000000	25.488627
561.000000	25.453373
560.000000	25.349786
559.000000	25.221265
558.000000	25.130367
557.000000	25.025916
556.000000	24.914916
555.000000	24.799616
554.000000	24.693355
553.000000	24.587989
552.000000	24.468620
551.000000	24.376107
550.000000	24.287680
549.000000	24.161461
548.000000	24.058002
547.000000	23.954220
546.000000	23.874485
545.000000	23.749374
544.000000	23.648684
543.000000	23.549687
542.000000	23.434326
541.000000	23.371726
540.000000	23.238670
539.000000	23.165042
538.000000	23.047871
537.000000	22.949199
536.000000	22.821779
535.000000	22.734286
534.000000	22.640053
533.000000	22.539698
532.000000	22.438312
531.000000	22.334108
530.000000	22.260940
529.000000	22.159228
528.000000	22.020642
527.000000	21.942660
526.000000	21.863053
525.000000	21.773092
524.000000	21.669321
523.000000	21.561424
522.000000	21.462831
521.000000	21.384739
520.000000	21.287156
519.000000	21.182915
518.000000	21.075621
517.000000	20.997241
516.000000	20.897061
515.000000	20.824734
514.000000	20.748086
513.000000	20.654921
512.000000	20.572225
511.000000	20.486424
510.000000	20.399803
509.000000	20.308861
508.000000	20.211678
507.000000	20.141263
506.000000	20.048705
505.000000	19.967063
504.000000	19.859110
503.000000	19.781358
502.000000	19.678998
501.000000	19.554479
500.000000	19.463734
499.000000	19.408149
498.000000	19.302492
497.000000	19.201595
496.000000	19.100550
495.000000	18.996693
494.000000	18.893768
493.000000	18.793453
492.000000	18.699290
491.000000	18.608066
490.000000	18.519645
489.000000	18.430010
488.000000	18.313758
487.000000	18.226850
486.000000	18.136111
485.000000	18.042614
484.000000	17.950107
483.000000	17.856441
482.000000	17.746509
481.000000	17.658973
480.000000	17.567105
479.000000	17.479441
478.000000	17.395231
477.000000	17.313089
476.000000	17.226592
475.000000	17.133634
474.000000	17.041125
473.000000	16.952405
472.000000	16.858576
471.000000	16.778116
470.000000	16.691477
469.000000	16.599077
468.000000	16.514835
467.000000	16.438821
466.000000	16.349445
465.000000	16.267738
464.000000	16.181463
463.000000	16.085891
462.000000	15.987566
461.000000	15.882269
460.000000	15.791332
459.000000	15.684873
458.000000	15.581893
457.000000	15.508732
456.000000	15.415460
455.000000	15.311920
454.000000	15.228444
453.000000	15.145730
452.000000	15.041487
451.000000	14.933526
450.000000	14.848046
449.000000	14.759302
448.000000	14.640145
447.000000	14.534017
446.000000	14.431345
445.000000	14.353970
444.000000	14.273315
443.000000	14.183062
442.000000	14.084614
441.000000	13.972126
440.000000	13.896465
439.000000	13.801032
438.000000	13.698951
437.000000	13.611197
436.000000	13.509585
435.000000	13.430488
434.000000	13.352731
433.000000	13.243475
432.000000	13.156617
431.000000	13.078963
430.000000	12.979143
429.000000	12.883399
428.000000	12.790455
427.000000	12.693489
426.000000	12.622390
425.000000	12.533227
424.000000	12.428581
423.000000	12.329071
422.000000	12.225645
421.000000	12.144529
420.000000	12.055754
419.000000	11.981661
418.000000	11.887318
417.000000	11.788018
416.000000	11.703801
415.000000	11.609147
414.000000	11.530038
413.000000	11.444300
412.000000	11.352195
411.000000	11.247455
410.000000	11.175753
409.000000	11.075513
408.000000	10.985190
407.000000	10.893405
406.000000	10.803884
405.000000	10.715238
404.000000	10.643909
403.000000	10.552577
402.000000	10.478872
401.000000	10.367251
400.000000	10.285475
399.000000	10.201183
398.000000	10.117558
397.000000	10.025133
396.000000	9.971803
395.000000	9.849608
394.000000	9.770982
393.000000	9.672371
392.000000	9.599259
391.000000	9.525014
390.000000	9.459633
389.000000	9.360388
388.000000	9.300973
387.000000	9.223132
386.000000	9.121351
385.000000	9.063937
384.000000	8.959684
383.000000	8.865147
382.000000	8.805963
381.000000	8.747702
380.000000	8.670228
379.000000	8.589597
378.000000	8.405775
377.000000	8.376824
376.000000	8.312846
375.000000	8.244425
374.000000	8.178033
373.000000	8.139947
372.000000	8.075820
371.000000	8.001452
370.000000	7.958826
369.000000	7.900017
368.000000	7.856368
367.000000	7.764287
366.000000	7.718675
365.000000	7.649633
364.000000	7.605113
363.000000	7.562930
362.000000	7.501032
361.000000	7.499743
360.000000	7.458708
359.000000	7.395946
358.000000	7.364442
357.000000	7.336328
356.000000	7.271936
355.000000	7.232137
354.000000	7.182067
353.000000	7.175681
352.000000	7.108447
351.000000	7.147329
350.000000	7.061383
349.000000	7.024296
348.000000	7.018139
347.000000	6.931993
346.000000	6.920347
345.000000	6.934072
344.000000	6.930343
343.000000	6.830711
342.000000	6.841887
341.000000	6.816862
340.000000	6.775739
339.000000	6.769726
338.000000	6.723590
337.000000	6.736245
336.000000	6.685191
335.000000	6.639650
334.000000	6.617634
333.000000	6.536358
332.000000	6.549168
331.000000	6.572273
330.000000	6.527787
329.000000	6.531919
328.000000	6.517736
327.000000	6.490804
326.000000	6.472933
325.000000	6.403582
324.000000	6.400046
323.000000	6.396873
322.000000	6.401024
321.000000	6.433679
320.000000	6.425537
319.000000	6.375603
318.000000	6.437486
317.000000	6.464635
316.000000	6.398689
315.000000	6.416615
314.000000	6.399722
313.000000	6.449257
312.000000	6.420998
311.000000	6.401342
310.000000	6.429485
309.000000	6.436955
308.000000	6.433595
307.000000	6.419156
306.000000	6.443472
305.000000	6.446972
304.000000	6.441267
303.000000	6.458377
302.000000	6.512648
301.000000	6.515022
300.000000	6.538906
299.000000	6.552730
298.000000	6.547307
297.000000	6.550384
296.000000	6.558191
295.000000	6.583915
294.000000	6.590080
293.000000	6.619498
292.000000	6.589183
291.000000	6.656042
290.000000	6.664845
289.000000	6.695700
288.000000	6.734965
287.000000	6.733033
286.000000	6.788543
285.000000	6.838868
284.000000	6.860841
283.000000	6.923410
282.000000	6.914462
281.000000	6.915510
280.000000	6.959108
279.000000	7.022533
278.000000	7.034825
277.000000	7.087670
276.000000	7.108386
275.000000	7.129177
274.000000	7.185303
273.000000	7.247685
272.000000	7.290588
271.000000	7.390460
270.000000	7.434277
269.000000	7.473251
268.000000	7.461055
267.000000	7.513549
266.000000	7.603776
265.000000	7.639309
264.000000	7.700236
263.000000	7.786194
262.000000	7.843328
261.000000	7.892168
260.000000	7.959905
259.000000	8.067191
258.000000	8.146845
257.000000	8.225492
256.000000	8.248285
255.000000	8.335254
254.000000	8.435438
253.000000	8.514462
252.000000	8.648678
251.000000	8.756128
250.000000	8.889745
249.000000	9.002329
248.000000	9.096751
247.000000	9.139111
246.000000	9.252672
245.000000	9.396506
244.000000	9.535253
243.000000	9.681093
242.000000	9.796136
241.000000	9.919031
240.000000	10.031785
239.000000	10.098632
238.000000	10.192692
237.000000	10.363395
236.000000	10.458052
235.000000	10.600468
234.000000	10.745974
233.000000	10.863592
232.000000	10.957387
231.000000	11.018945
230.000000	11.172209
229.000000	11.273271
228.000000	11.431982
227.000000	11.599258
226.000000	11.720608
225.000000	11.844044
224.000000	12.036649
223.000000	12.196938
222.000000	12.297769
221.000000	12.504655
220.000000	12.694537
219.000000	12.827144
218.000000	13.004584
217.000000	13.212860
216.000000	13.403169
215.000000	13.582348
214.000000	13.867062
213.000000	14.110228
212.000000	14.280944
211.000000	14.653039
210.000000	15.041460
209.000000	15.280412
208.000000	15.609141
207.000000	16.062597
206.000000	16.485382
205.000000	16.924129
204.000000	17.541829
203.000000	18.078492
202.000000	18.556977
201.000000	19.239857
200.000000	19.974804
