PE UV       SUBTECH     SPECTRUM    ASCII       PEDS        4.00        
   -1
RDms499172.Sample.asc
18/03/23
10:40:24.00
18/03/23
10:40:24.00
Administrator

200.000000
1
Lambda 750
750N8071901
PerkinElmer UV WinLab 6.0.4.0738 / 1.61.00 Lambda 900

0
0
3350/servo 860.8/2
0
0
UV/VIS
1
1
1
CommonBeamDepol,150mm sphere / downward view
0
0
0
0
Program
Program
3350/servo 860.8/2
3350/0.2 860.8/0.2
3350/0.2 860.8/0.2
0
1
 
 
 
0
 
860.8
319.2
860.8
Front
100
on
 
 
0
0
0
 
0
 
 
 
0
 
 
0
0
0
0
0
 
 
 
 
0
0


0
0
#HDR
-1
-1
#GR
nm
%R
1.0
0.0
2350.000000
-1.000000
2151
8
55.946739
7.078209
#DATA
2350.000000	31.990100
2349.000000	31.838412
2348.000000	31.952048
2347.000000	32.797023
2346.000000	32.160498
2345.000000	31.903599
2344.000000	32.033394
2343.000000	31.708689
2342.000000	32.334412
2341.000000	32.319915
2340.000000	31.924536
2339.000000	32.272711
2338.000000	32.560506
2337.000000	32.309544
2336.000000	32.572217
2335.000000	32.852002
2334.000000	32.870249
2333.000000	32.702414
2332.000000	32.679933
2331.000000	32.855004
2330.000000	32.650745
2329.000000	32.519477
2328.000000	32.484096
2327.000000	32.331896
2326.000000	32.423158
2325.000000	32.604503
2324.000000	32.625540
2323.000000	32.726352
2322.000000	32.510005
2321.000000	32.269738
2320.000000	32.576174
2319.000000	32.205576
2318.000000	32.225523
2317.000000	32.199270
2316.000000	32.294765
2315.000000	31.674373
2314.000000	31.968261
2313.000000	31.725680
2312.000000	31.604016
2311.000000	31.606437
2310.000000	31.525736
2309.000000	31.872225
2308.000000	31.796369
2307.000000	31.404116
2306.000000	31.610214
2305.000000	31.686438
2304.000000	31.578174
2303.000000	31.643012
2302.000000	31.528698
2301.000000	31.362307
2300.000000	31.149732
2299.000000	31.249480
2298.000000	31.159250
2297.000000	31.244518
2296.000000	31.152696
2295.000000	31.147180
2294.000000	31.135065
2293.000000	30.946592
2292.000000	31.008462
2291.000000	30.795243
2290.000000	30.852436
2289.000000	30.885335
2288.000000	30.641678
2287.000000	30.745354
2286.000000	30.705105
2285.000000	30.752175
2284.000000	30.656135
2283.000000	30.647417
2282.000000	30.651110
2281.000000	30.531760
2280.000000	30.727563
2279.000000	30.772680
2278.000000	30.797146
2277.000000	30.861142
2276.000000	30.828190
2275.000000	30.862523
2274.000000	31.045423
2273.000000	31.120503
2272.000000	31.195532
2271.000000	31.041359
2270.000000	31.018808
2269.000000	31.257058
2268.000000	31.462130
2267.000000	31.567934
2266.000000	31.713184
2265.000000	31.855196
2264.000000	31.838922
2263.000000	31.877600
2262.000000	32.014570
2261.000000	32.188313
2260.000000	32.360815
2259.000000	32.559847
2258.000000	32.685495
2257.000000	32.959436
2256.000000	33.044539
2255.000000	33.213138
2254.000000	33.455263
2253.000000	33.665792
2252.000000	33.831515
2251.000000	33.955426
2250.000000	34.088820
2249.000000	34.372070
2248.000000	34.466753
2247.000000	34.553930
2246.000000	34.881530
2245.000000	35.049163
2244.000000	35.201149
2243.000000	35.301679
2242.000000	35.378915
2241.000000	35.578726
2240.000000	35.786640
2239.000000	35.879930
2238.000000	35.902007
2237.000000	35.983700
2236.000000	36.037631
2235.000000	36.234879
2234.000000	36.306161
2233.000000	36.415519
2232.000000	36.588654
2231.000000	36.604068
2230.000000	36.574618
2229.000000	36.515943
2228.000000	36.604877
2227.000000	36.674452
2226.000000	36.623467
2225.000000	36.581668
2224.000000	36.670282
2223.000000	36.725387
2222.000000	36.687973
2221.000000	36.574446
2220.000000	36.686452
2219.000000	36.671157
2218.000000	36.518096
2217.000000	36.451631
2216.000000	36.425494
2215.000000	36.320089
2214.000000	36.407270
2213.000000	36.466343
2212.000000	36.374552
2211.000000	36.269355
2210.000000	36.360147
2209.000000	36.291197
2208.000000	36.103421
2207.000000	36.071798
2206.000000	35.988111
2205.000000	35.931332
2204.000000	36.027001
2203.000000	35.776413
2202.000000	35.694200
2201.000000	35.772467
2200.000000	35.706190
2199.000000	35.649653
2198.000000	35.626004
2197.000000	35.449004
2196.000000	35.370434
2195.000000	35.289634
2194.000000	35.261227
2193.000000	35.078094
2192.000000	35.132835
2191.000000	35.305836
2190.000000	35.201201
2189.000000	35.157146
2188.000000	35.136229
2187.000000	34.748360
2186.000000	34.701323
2185.000000	34.827679
2184.000000	34.991622
2183.000000	34.964344
2182.000000	34.805001
2181.000000	34.817774
2180.000000	34.810093
2179.000000	34.648663
2178.000000	34.731474
2177.000000	34.684379
2176.000000	34.572870
2175.000000	34.705321
2174.000000	34.862858
2173.000000	34.709579
2172.000000	34.907086
2171.000000	35.020724
2170.000000	34.975498
2169.000000	35.006837
2168.000000	35.192227
2167.000000	35.175773
2166.000000	35.120361
2165.000000	35.250711
2164.000000	35.355869
2163.000000	35.251860
2162.000000	35.482864
2161.000000	35.546034
2160.000000	35.739686
2159.000000	35.869993
2158.000000	35.809666
2157.000000	36.057621
2156.000000	36.040632
2155.000000	36.177339
2154.000000	36.408935
2153.000000	36.630116
2152.000000	36.507932
2151.000000	36.778810
2150.000000	36.713032
2149.000000	36.938717
2148.000000	37.009742
2147.000000	37.146282
2146.000000	37.307837
2145.000000	37.511112
2144.000000	37.440667
2143.000000	37.465488
2142.000000	37.451532
2141.000000	37.640456
2140.000000	37.608003
2139.000000	37.874628
2138.000000	38.044350
2137.000000	38.178987
2136.000000	38.246883
2135.000000	38.254032
2134.000000	38.376377
2133.000000	38.273462
2132.000000	38.451692
2131.000000	38.615123
2130.000000	38.591820
2129.000000	38.558035
2128.000000	38.494273
2127.000000	38.674187
2126.000000	38.757979
2125.000000	38.752985
2124.000000	38.775725
2123.000000	38.687820
2122.000000	38.806357
2121.000000	38.889631
2120.000000	38.788925
2119.000000	38.760717
2118.000000	38.792787
2117.000000	38.868201
2116.000000	39.193771
2115.000000	39.179114
2114.000000	38.883493
2113.000000	38.937170
2112.000000	38.938227
2111.000000	38.993536
2110.000000	38.958134
2109.000000	38.935223
2108.000000	39.086315
2107.000000	39.005816
2106.000000	39.008106
2105.000000	39.041608
2104.000000	39.104483
2103.000000	39.073147
2102.000000	39.197649
2101.000000	39.174926
2100.000000	39.206373
2099.000000	39.116426
2098.000000	39.052533
2097.000000	39.095355
2096.000000	39.147440
2095.000000	39.044004
2094.000000	39.058824
2093.000000	39.157506
2092.000000	39.203513
2091.000000	39.248922
2090.000000	39.137540
2089.000000	39.168577
2088.000000	39.036841
2087.000000	38.936492
2086.000000	38.988372
2085.000000	39.042334
2084.000000	38.958433
2083.000000	38.871793
2082.000000	38.827624
2081.000000	38.846064
2080.000000	38.759883
2079.000000	38.823222
2078.000000	38.703869
2077.000000	38.695945
2076.000000	38.575185
2075.000000	38.474086
2074.000000	38.354197
2073.000000	38.361393
2072.000000	38.250807
2071.000000	38.139750
2070.000000	38.076615
2069.000000	37.923012
2068.000000	37.732438
2067.000000	37.606650
2066.000000	37.558558
2065.000000	37.560904
2064.000000	37.459892
2063.000000	37.359206
2062.000000	37.312610
2061.000000	37.181289
2060.000000	36.992946
2059.000000	36.862687
2058.000000	36.719177
2057.000000	36.651048
2056.000000	36.595391
2055.000000	36.442759
2054.000000	36.308923
2053.000000	36.218132
2052.000000	36.176603
2051.000000	36.071138
2050.000000	35.965529
2049.000000	35.848614
2048.000000	35.775863
2047.000000	35.746574
2046.000000	35.695602
2045.000000	35.650351
2044.000000	35.693856
2043.000000	35.708795
2042.000000	35.674123
2041.000000	35.713648
2040.000000	35.666456
2039.000000	35.667825
2038.000000	35.802256
2037.000000	35.850060
2036.000000	35.889229
2035.000000	35.914635
2034.000000	35.960232
2033.000000	36.060289
2032.000000	36.214241
2031.000000	36.258670
2030.000000	36.304766
2029.000000	36.470635
2028.000000	36.533578
2027.000000	36.603884
2026.000000	36.683964
2025.000000	36.733815
2024.000000	36.776123
2023.000000	36.859902
2022.000000	36.913621
2021.000000	36.913531
2020.000000	36.915505
2019.000000	36.888774
2018.000000	36.895721
2017.000000	36.924901
2016.000000	36.914224
2015.000000	36.902529
2014.000000	36.876415
2013.000000	36.844340
2012.000000	36.829284
2011.000000	36.801353
2010.000000	36.693509
2009.000000	36.593976
2008.000000	36.521589
2007.000000	36.429971
2006.000000	36.334471
2005.000000	36.287173
2004.000000	36.197584
2003.000000	36.115983
2002.000000	36.047778
2001.000000	35.948341
2000.000000	35.828207
1999.000000	35.744977
1998.000000	35.648433
1997.000000	35.533328
1996.000000	35.441950
1995.000000	35.362200
1994.000000	35.230852
1993.000000	35.095665
1992.000000	35.020087
1991.000000	34.910604
1990.000000	34.812330
1989.000000	34.689980
1988.000000	34.606699
1987.000000	34.503289
1986.000000	34.400799
1985.000000	34.263674
1984.000000	34.174031
1983.000000	34.092012
1982.000000	34.025044
1981.000000	33.919276
1980.000000	33.805354
1979.000000	33.668351
1978.000000	33.598269
1977.000000	33.468256
1976.000000	33.327228
1975.000000	33.265892
1974.000000	33.174638
1973.000000	33.076378
1972.000000	32.939798
1971.000000	32.849959
1970.000000	32.796938
1969.000000	32.687033
1968.000000	32.594890
1967.000000	32.519613
1966.000000	32.414502
1965.000000	32.282537
1964.000000	32.201375
1963.000000	32.129839
1962.000000	31.985073
1961.000000	31.897820
1960.000000	31.850682
1959.000000	31.765812
1958.000000	31.672498
1957.000000	31.607199
1956.000000	31.488656
1955.000000	31.425256
1954.000000	31.386072
1953.000000	31.282306
1952.000000	31.262441
1951.000000	31.254765
1950.000000	31.198917
1949.000000	31.092711
1948.000000	31.070328
1947.000000	31.004997
1946.000000	31.052756
1945.000000	31.081959
1944.000000	31.047202
1943.000000	31.027558
1942.000000	31.045403
1941.000000	31.090260
1940.000000	31.152472
1939.000000	31.154067
1938.000000	31.211238
1937.000000	31.292719
1936.000000	31.384140
1935.000000	31.401760
1934.000000	31.511757
1933.000000	31.595414
1932.000000	31.659339
1931.000000	31.865172
1930.000000	32.017985
1929.000000	32.213247
1928.000000	32.296100
1927.000000	32.432018
1926.000000	32.645281
1925.000000	32.816225
1924.000000	33.132938
1923.000000	33.280100
1922.000000	33.570964
1921.000000	33.836641
1920.000000	34.030510
1919.000000	34.260410
1918.000000	34.576610
1917.000000	34.936854
1916.000000	35.155556
1915.000000	35.472488
1914.000000	35.828181
1913.000000	36.183801
1912.000000	36.464791
1911.000000	36.841972
1910.000000	37.262062
1909.000000	37.612211
1908.000000	37.968327
1907.000000	38.444739
1906.000000	38.682878
1905.000000	39.117778
1904.000000	39.677390
1903.000000	40.066983
1902.000000	40.454981
1901.000000	40.909493
1900.000000	41.343030
1899.000000	41.769396
1898.000000	42.210378
1897.000000	42.643489
1896.000000	43.040315
1895.000000	43.377429
1894.000000	43.845097
1893.000000	44.241424
1892.000000	44.546859
1891.000000	44.985216
1890.000000	45.374816
1889.000000	45.679562
1888.000000	45.916669
1887.000000	46.304429
1886.000000	46.686121
1885.000000	46.991953
1884.000000	47.259397
1883.000000	47.551375
1882.000000	47.778511
1881.000000	47.968562
1880.000000	48.218958
1879.000000	48.471471
1878.000000	48.718074
1877.000000	48.908459
1876.000000	49.060524
1875.000000	49.311379
1874.000000	49.476290
1873.000000	49.591159
1872.000000	49.742833
1871.000000	49.810886
1870.000000	49.932650
1869.000000	50.039881
1868.000000	50.088982
1867.000000	50.158397
1866.000000	50.274945
1865.000000	50.275966
1864.000000	50.372989
1863.000000	50.382502
1862.000000	50.454124
1861.000000	50.505283
1860.000000	50.585722
1859.000000	50.592408
1858.000000	50.637990
1857.000000	50.681775
1856.000000	50.686611
1855.000000	50.722470
1854.000000	50.779686
1853.000000	50.752762
1852.000000	50.803827
1851.000000	50.811848
1850.000000	50.789463
1849.000000	50.794545
1848.000000	50.846099
1847.000000	50.843759
1846.000000	50.787555
1845.000000	50.780086
1844.000000	50.769120
1843.000000	50.761827
1842.000000	50.781831
1841.000000	50.737501
1840.000000	50.659236
1839.000000	50.679838
1838.000000	50.656097
1837.000000	50.587238
1836.000000	50.567566
1835.000000	50.495901
1834.000000	50.462995
1833.000000	50.501753
1832.000000	50.463747
1831.000000	50.408490
1830.000000	50.375906
1829.000000	50.372034
1828.000000	50.314752
1827.000000	50.306191
1826.000000	50.301074
1825.000000	50.292121
1824.000000	50.252453
1823.000000	50.192900
1822.000000	50.154024
1821.000000	50.126927
1820.000000	50.080775
1819.000000	50.085466
1818.000000	50.099537
1817.000000	50.074719
1816.000000	50.044041
1815.000000	50.026294
1814.000000	50.021874
1813.000000	49.999898
1812.000000	49.956551
1811.000000	49.931618
1810.000000	49.914218
1809.000000	49.885211
1808.000000	49.846541
1807.000000	49.822773
1806.000000	49.790039
1805.000000	49.796513
1804.000000	49.754450
1803.000000	49.738618
1802.000000	49.755400
1801.000000	49.720935
1800.000000	49.696873
1799.000000	49.681025
1798.000000	49.661675
1797.000000	49.635430
1796.000000	49.632618
1795.000000	49.648025
1794.000000	49.630758
1793.000000	49.595093
1792.000000	49.586402
1791.000000	49.593668
1790.000000	49.604581
1789.000000	49.592221
1788.000000	49.579960
1787.000000	49.560498
1786.000000	49.529852
1785.000000	49.507816
1784.000000	49.516816
1783.000000	49.496013
1782.000000	49.477382
1781.000000	49.458774
1780.000000	49.425780
1779.000000	49.413134
1778.000000	49.385568
1777.000000	49.337267
1776.000000	49.296477
1775.000000	49.280319
1774.000000	49.246289
1773.000000	49.223381
1772.000000	49.158324
1771.000000	49.100552
1770.000000	49.092553
1769.000000	49.086258
1768.000000	49.051069
1767.000000	49.001392
1766.000000	48.968912
1765.000000	48.925403
1764.000000	48.934614
1763.000000	48.885779
1762.000000	48.866418
1761.000000	48.812990
1760.000000	48.766002
1759.000000	48.746537
1758.000000	48.722757
1757.000000	48.701992
1756.000000	48.663630
1755.000000	48.652674
1754.000000	48.628526
1753.000000	48.591349
1752.000000	48.567211
1751.000000	48.546770
1750.000000	48.503975
1749.000000	48.461668
1748.000000	48.396477
1747.000000	48.400260
1746.000000	48.333159
1745.000000	48.299805
1744.000000	48.267308
1743.000000	48.229793
1742.000000	48.175338
1741.000000	48.138360
1740.000000	48.120043
1739.000000	48.094316
1738.000000	48.073349
1737.000000	48.015686
1736.000000	48.005701
1735.000000	47.960307
1734.000000	47.958787
1733.000000	47.924530
1732.000000	47.938658
1731.000000	47.952334
1730.000000	47.963633
1729.000000	48.007698
1728.000000	48.027246
1727.000000	48.055027
1726.000000	48.113316
1725.000000	48.142503
1724.000000	48.202167
1723.000000	48.255189
1722.000000	48.307525
1721.000000	48.422161
1720.000000	48.506413
1719.000000	48.567158
1718.000000	48.632606
1717.000000	48.731988
1716.000000	48.817272
1715.000000	48.828183
1714.000000	48.878123
1713.000000	48.953002
1712.000000	48.999511
1711.000000	49.069786
1710.000000	49.110164
1709.000000	49.148821
1708.000000	49.195326
1707.000000	49.241601
1706.000000	49.277354
1705.000000	49.291519
1704.000000	49.358836
1703.000000	49.319930
1702.000000	49.386506
1701.000000	49.393572
1700.000000	49.411966
1699.000000	49.382230
1698.000000	49.438637
1697.000000	49.487178
1696.000000	49.517874
1695.000000	49.505895
1694.000000	49.562975
1693.000000	49.570989
1692.000000	49.586204
1691.000000	49.677840
1690.000000	49.723351
1689.000000	49.779316
1688.000000	49.840551
1687.000000	49.902321
1686.000000	49.988192
1685.000000	50.084280
1684.000000	50.141807
1683.000000	50.240987
1682.000000	50.346084
1681.000000	50.457657
1680.000000	50.550056
1679.000000	50.600305
1678.000000	50.707916
1677.000000	50.796092
1676.000000	50.901156
1675.000000	50.973464
1674.000000	51.073739
1673.000000	51.184269
1672.000000	51.256294
1671.000000	51.330467
1670.000000	51.434689
1669.000000	51.531683
1668.000000	51.591844
1667.000000	51.676261
1666.000000	51.724450
1665.000000	51.759113
1664.000000	51.812601
1663.000000	51.855560
1662.000000	51.884979
1661.000000	51.939735
1660.000000	51.975191
1659.000000	51.992927
1658.000000	52.023462
1657.000000	52.051782
1656.000000	52.084628
1655.000000	52.098570
1654.000000	52.104917
1653.000000	52.128492
1652.000000	52.117847
1651.000000	52.103593
1650.000000	52.096052
1649.000000	52.082628
1648.000000	52.073472
1647.000000	52.072988
1646.000000	52.062744
1645.000000	52.027802
1644.000000	52.036282
1643.000000	52.009739
1642.000000	52.006975
1641.000000	51.994636
1640.000000	52.001127
1639.000000	51.970750
1638.000000	51.917048
1637.000000	51.903209
1636.000000	51.867987
1635.000000	51.855647
1634.000000	51.824061
1633.000000	51.798091
1632.000000	51.773391
1631.000000	51.727277
1630.000000	51.702441
1629.000000	51.685657
1628.000000	51.669975
1627.000000	51.631581
1626.000000	51.597357
1625.000000	51.583285
1624.000000	51.557194
1623.000000	51.523839
1622.000000	51.491689
1621.000000	51.473438
1620.000000	51.442091
1619.000000	51.378403
1618.000000	51.339931
1617.000000	51.319526
1616.000000	51.280729
1615.000000	51.241227
1614.000000	51.206360
1613.000000	51.175207
1612.000000	51.138621
1611.000000	51.083114
1610.000000	51.036119
1609.000000	51.014583
1608.000000	50.991370
1607.000000	50.948811
1606.000000	50.897600
1605.000000	50.871415
1604.000000	50.842856
1603.000000	50.791955
1602.000000	50.759392
1601.000000	50.725913
1600.000000	50.685861
1599.000000	50.652847
1598.000000	50.607126
1597.000000	50.570758
1596.000000	50.548586
1595.000000	50.514774
1594.000000	50.476398
1593.000000	50.453268
1592.000000	50.432359
1591.000000	50.399644
1590.000000	50.364064
1589.000000	50.333694
1588.000000	50.307300
1587.000000	50.279628
1586.000000	50.240267
1585.000000	50.198877
1584.000000	50.177391
1583.000000	50.156247
1582.000000	50.111685
1581.000000	50.080865
1580.000000	50.088046
1579.000000	50.062301
1578.000000	50.026699
1577.000000	49.982099
1576.000000	49.942224
1575.000000	49.913335
1574.000000	49.883286
1573.000000	49.865282
1572.000000	49.833412
1571.000000	49.804105
1570.000000	49.786709
1569.000000	49.746649
1568.000000	49.724777
1567.000000	49.693348
1566.000000	49.665282
1565.000000	49.646767
1564.000000	49.647609
1563.000000	49.648040
1562.000000	49.605364
1561.000000	49.580490
1560.000000	49.565114
1559.000000	49.534214
1558.000000	49.531895
1557.000000	49.508478
1556.000000	49.480040
1555.000000	49.458709
1554.000000	49.442177
1553.000000	49.415554
1552.000000	49.408799
1551.000000	49.383666
1550.000000	49.355033
1549.000000	49.322934
1548.000000	49.298126
1547.000000	49.241681
1546.000000	49.197187
1545.000000	49.152680
1544.000000	49.118440
1543.000000	49.078833
1542.000000	49.041341
1541.000000	48.993204
1540.000000	48.932495
1539.000000	48.874832
1538.000000	48.803449
1537.000000	48.748316
1536.000000	48.686051
1535.000000	48.643180
1534.000000	48.587528
1533.000000	48.549742
1532.000000	48.493200
1531.000000	48.442124
1530.000000	48.391460
1529.000000	48.343022
1528.000000	48.300203
1527.000000	48.243758
1526.000000	48.202882
1525.000000	48.147071
1524.000000	48.113081
1523.000000	48.091826
1522.000000	48.054237
1521.000000	48.015718
1520.000000	47.998474
1519.000000	47.961576
1518.000000	47.958662
1517.000000	47.917932
1516.000000	47.901726
1515.000000	47.875975
1514.000000	47.845620
1513.000000	47.840495
1512.000000	47.837027
1511.000000	47.814605
1510.000000	47.790018
1509.000000	47.758124
1508.000000	47.742258
1507.000000	47.747936
1506.000000	47.736091
1505.000000	47.719653
1504.000000	47.712553
1503.000000	47.720481
1502.000000	47.688110
1501.000000	47.694518
1500.000000	47.686631
1499.000000	47.679048
1498.000000	47.668529
1497.000000	47.691583
1496.000000	47.683157
1495.000000	47.679164
1494.000000	47.682209
1493.000000	47.689112
1492.000000	47.703749
1491.000000	47.712422
1490.000000	47.715325
1489.000000	47.737889
1488.000000	47.760040
1487.000000	47.777918
1486.000000	47.775350
1485.000000	47.777218
1484.000000	47.783009
1483.000000	47.800281
1482.000000	47.820852
1481.000000	47.843214
1480.000000	47.884614
1479.000000	47.888461
1478.000000	47.888748
1477.000000	47.900705
1476.000000	47.921367
1475.000000	47.932288
1474.000000	47.967237
1473.000000	47.974258
1472.000000	47.977121
1471.000000	48.004229
1470.000000	48.026993
1469.000000	48.053134
1468.000000	48.047548
1467.000000	48.081014
1466.000000	48.083987
1465.000000	48.132244
1464.000000	48.113145
1463.000000	48.140338
1462.000000	48.186627
1461.000000	48.217680
1460.000000	48.211443
1459.000000	48.233885
1458.000000	48.268609
1457.000000	48.295818
1456.000000	48.327359
1455.000000	48.354591
1454.000000	48.389825
1453.000000	48.441221
1452.000000	48.484023
1451.000000	48.518740
1450.000000	48.569041
1449.000000	48.622769
1448.000000	48.673301
1447.000000	48.705738
1446.000000	48.743852
1445.000000	48.799452
1444.000000	48.881633
1443.000000	48.939466
1442.000000	48.991422
1441.000000	49.047213
1440.000000	49.110107
1439.000000	49.187072
1438.000000	49.252876
1437.000000	49.311314
1436.000000	49.395903
1435.000000	49.489558
1434.000000	49.557845
1433.000000	49.658592
1432.000000	49.746673
1431.000000	49.837159
1430.000000	49.915801
1429.000000	50.016259
1428.000000	50.121908
1427.000000	50.233166
1426.000000	50.328885
1425.000000	50.423289
1424.000000	50.531311
1423.000000	50.643496
1422.000000	50.765640
1421.000000	50.864235
1420.000000	51.000296
1419.000000	51.115220
1418.000000	51.228974
1417.000000	51.354553
1416.000000	51.476544
1415.000000	51.595608
1414.000000	51.707408
1413.000000	51.831977
1412.000000	51.966231
1411.000000	52.088226
1410.000000	52.195158
1409.000000	52.315353
1408.000000	52.440141
1407.000000	52.557724
1406.000000	52.676243
1405.000000	52.776328
1404.000000	52.878511
1403.000000	52.973494
1402.000000	53.067473
1401.000000	53.174389
1400.000000	53.270977
1399.000000	53.357751
1398.000000	53.454019
1397.000000	53.549753
1396.000000	53.634795
1395.000000	53.731987
1394.000000	53.802025
1393.000000	53.854902
1392.000000	53.932323
1391.000000	54.016007
1390.000000	54.068707
1389.000000	54.120137
1388.000000	54.186916
1387.000000	54.242581
1386.000000	54.288011
1385.000000	54.338362
1384.000000	54.394058
1383.000000	54.428150
1382.000000	54.469773
1381.000000	54.527035
1380.000000	54.582931
1379.000000	54.620432
1378.000000	54.663700
1377.000000	54.694319
1376.000000	54.731001
1375.000000	54.777711
1374.000000	54.814237
1373.000000	54.839294
1372.000000	54.864314
1371.000000	54.885172
1370.000000	54.925486
1369.000000	54.945660
1368.000000	54.960939
1367.000000	54.984806
1366.000000	55.004672
1365.000000	55.036063
1364.000000	55.055088
1363.000000	55.058188
1362.000000	55.079471
1361.000000	55.109731
1360.000000	55.128216
1359.000000	55.144238
1358.000000	55.156590
1357.000000	55.188996
1356.000000	55.201926
1355.000000	55.214241
1354.000000	55.256443
1353.000000	55.289624
1352.000000	55.300797
1351.000000	55.322853
1350.000000	55.349357
1349.000000	55.386379
1348.000000	55.401876
1347.000000	55.429568
1346.000000	55.465877
1345.000000	55.489962
1344.000000	55.510407
1343.000000	55.530391
1342.000000	55.564959
1341.000000	55.590848
1340.000000	55.610845
1339.000000	55.642916
1338.000000	55.659650
1337.000000	55.666976
1336.000000	55.678409
1335.000000	55.709626
1334.000000	55.716490
1333.000000	55.726414
1332.000000	55.743834
1331.000000	55.746173
1330.000000	55.764453
1329.000000	55.785302
1328.000000	55.805227
1327.000000	55.841428
1326.000000	55.865217
1325.000000	55.882669
1324.000000	55.883869
1323.000000	55.860397
1322.000000	55.850007
1321.000000	55.841454
1320.000000	55.822094
1319.000000	55.843579
1318.000000	55.858993
1317.000000	55.872087
1316.000000	55.889348
1315.000000	55.856475
1314.000000	55.871333
1313.000000	55.878516
1312.000000	55.894465
1311.000000	55.887167
1310.000000	55.926161
1309.000000	55.901215
1308.000000	55.895172
1307.000000	55.920669
1306.000000	55.930263
1305.000000	55.925054
1304.000000	55.910269
1303.000000	55.917130
1302.000000	55.914021
1301.000000	55.904199
1300.000000	55.917749
1299.000000	55.941047
1298.000000	55.935111
1297.000000	55.942893
1296.000000	55.946739
1295.000000	55.926064
1294.000000	55.918231
1293.000000	55.915690
1292.000000	55.929203
1291.000000	55.910089
1290.000000	55.905777
1289.000000	55.905632
1288.000000	55.883765
1287.000000	55.863654
1286.000000	55.888307
1285.000000	55.868438
1284.000000	55.873628
1283.000000	55.889527
1282.000000	55.868904
1281.000000	55.864618
1280.000000	55.868709
1279.000000	55.850246
1278.000000	55.844193
1277.000000	55.821064
1276.000000	55.848810
1275.000000	55.813524
1274.000000	55.801661
1273.000000	55.794642
1272.000000	55.792475
1271.000000	55.782834
1270.000000	55.781676
1269.000000	55.772647
1268.000000	55.776187
1267.000000	55.764359
1266.000000	55.763978
1265.000000	55.751928
1264.000000	55.763372
1263.000000	55.756781
1262.000000	55.800573
1261.000000	55.789213
1260.000000	55.760273
1259.000000	55.764760
1258.000000	55.760492
1257.000000	55.752055
1256.000000	55.751385
1255.000000	55.773855
1254.000000	55.776851
1253.000000	55.781985
1252.000000	55.780045
1251.000000	55.761930
1250.000000	55.768588
1249.000000	55.755548
1248.000000	55.750714
1247.000000	55.760270
1246.000000	55.745696
1245.000000	55.747237
1244.000000	55.720979
1243.000000	55.699413
1242.000000	55.699396
1241.000000	55.690758
1240.000000	55.691748
1239.000000	55.683664
1238.000000	55.647589
1237.000000	55.619531
1236.000000	55.634005
1235.000000	55.618402
1234.000000	55.587525
1233.000000	55.569178
1232.000000	55.577918
1231.000000	55.562857
1230.000000	55.521898
1229.000000	55.493842
1228.000000	55.471233
1227.000000	55.466456
1226.000000	55.450135
1225.000000	55.442641
1224.000000	55.422736
1223.000000	55.404108
1222.000000	55.368235
1221.000000	55.344560
1220.000000	55.329094
1219.000000	55.308345
1218.000000	55.282713
1217.000000	55.272488
1216.000000	55.242808
1215.000000	55.231685
1214.000000	55.195594
1213.000000	55.166284
1212.000000	55.174352
1211.000000	55.196942
1210.000000	55.180241
1209.000000	55.146579
1208.000000	55.131793
1207.000000	55.091149
1206.000000	55.060957
1205.000000	55.064314
1204.000000	55.062803
1203.000000	55.036120
1202.000000	55.041973
1201.000000	55.052244
1200.000000	55.022548
1199.000000	55.002704
1198.000000	54.986135
1197.000000	54.998732
1196.000000	55.000177
1195.000000	54.979608
1194.000000	54.958026
1193.000000	54.960162
1192.000000	54.952384
1191.000000	54.951451
1190.000000	54.930404
1189.000000	54.899274
1188.000000	54.910847
1187.000000	54.913814
1186.000000	54.897851
1185.000000	54.894084
1184.000000	54.900497
1183.000000	54.900713
1182.000000	54.912083
1181.000000	54.930057
1180.000000	54.937710
1179.000000	54.944744
1178.000000	54.960666
1177.000000	54.972064
1176.000000	54.993709
1175.000000	55.012625
1174.000000	55.038033
1173.000000	55.057268
1172.000000	55.065788
1171.000000	55.077395
1170.000000	55.099089
1169.000000	55.126515
1168.000000	55.146177
1167.000000	55.166719
1166.000000	55.200295
1165.000000	55.221874
1164.000000	55.241264
1163.000000	55.264355
1162.000000	55.272380
1161.000000	55.284090
1160.000000	55.305770
1159.000000	55.332954
1158.000000	55.355233
1157.000000	55.387284
1156.000000	55.408105
1155.000000	55.427930
1154.000000	55.442024
1153.000000	55.460528
1152.000000	55.480085
1151.000000	55.495552
1150.000000	55.521315
1149.000000	55.537574
1148.000000	55.549424
1147.000000	55.573724
1146.000000	55.588801
1145.000000	55.605843
1144.000000	55.616579
1143.000000	55.611312
1142.000000	55.614576
1141.000000	55.626770
1140.000000	55.645368
1139.000000	55.646982
1138.000000	55.656141
1137.000000	55.675650
1136.000000	55.684570
1135.000000	55.694564
1134.000000	55.702377
1133.000000	55.717746
1132.000000	55.716559
1131.000000	55.713951
1130.000000	55.721389
1129.000000	55.723155
1128.000000	55.726932
1127.000000	55.732415
1126.000000	55.726332
1125.000000	55.714945
1124.000000	55.728296
1123.000000	55.731217
1122.000000	55.728493
1121.000000	55.728370
1120.000000	55.721337
1119.000000	55.728121
1118.000000	55.735783
1117.000000	55.718931
1116.000000	55.720207
1115.000000	55.737218
1114.000000	55.712810
1113.000000	55.703231
1112.000000	55.701668
1111.000000	55.697557
1110.000000	55.700438
1109.000000	55.689715
1108.000000	55.689031
1107.000000	55.691632
1106.000000	55.687879
1105.000000	55.692184
1104.000000	55.683927
1103.000000	55.687346
1102.000000	55.664106
1101.000000	55.654606
1100.000000	55.650237
1099.000000	55.637310
1098.000000	55.645168
1097.000000	55.639567
1096.000000	55.627148
1095.000000	55.608091
1094.000000	55.586321
1093.000000	55.577836
1092.000000	55.584725
1091.000000	55.590734
1090.000000	55.607074
1089.000000	55.610921
1088.000000	55.579076
1087.000000	55.557343
1086.000000	55.549461
1085.000000	55.541471
1084.000000	55.553114
1083.000000	55.540012
1082.000000	55.550152
1081.000000	55.526438
1080.000000	55.507375
1079.000000	55.493669
1078.000000	55.504065
1077.000000	55.505591
1076.000000	55.492503
1075.000000	55.464707
1074.000000	55.452211
1073.000000	55.445279
1072.000000	55.435747
1071.000000	55.435849
1070.000000	55.424139
1069.000000	55.417564
1068.000000	55.415587
1067.000000	55.403803
1066.000000	55.379582
1065.000000	55.369403
1064.000000	55.352184
1063.000000	55.333664
1062.000000	55.371163
1061.000000	55.344369
1060.000000	55.353284
1059.000000	55.320540
1058.000000	55.324863
1057.000000	55.342584
1056.000000	55.312824
1055.000000	55.300852
1054.000000	55.302143
1053.000000	55.294581
1052.000000	55.276329
1051.000000	55.248209
1050.000000	55.254147
1049.000000	55.255961
1048.000000	55.226107
1047.000000	55.245716
1046.000000	55.204156
1045.000000	55.210207
1044.000000	55.189324
1043.000000	55.172236
1042.000000	55.160479
1041.000000	55.164679
1040.000000	55.159932
1039.000000	55.147311
1038.000000	55.129350
1037.000000	55.114017
1036.000000	55.116128
1035.000000	55.102128
1034.000000	55.078144
1033.000000	55.079632
1032.000000	55.063780
1031.000000	55.043935
1030.000000	55.044955
1029.000000	55.039587
1028.000000	55.001006
1027.000000	54.993271
1026.000000	54.986631
1025.000000	54.986507
1024.000000	54.957183
1023.000000	54.966144
1022.000000	54.959804
1021.000000	54.939549
1020.000000	54.925135
1019.000000	54.937301
1018.000000	54.924062
1017.000000	54.912228
1016.000000	54.900978
1015.000000	54.884703
1014.000000	54.868512
1013.000000	54.848189
1012.000000	54.838450
1011.000000	54.848636
1010.000000	54.833824
1009.000000	54.807451
1008.000000	54.792560
1007.000000	54.801256
1006.000000	54.796456
1005.000000	54.777766
1004.000000	54.778836
1003.000000	54.759703
1002.000000	54.740572
1001.000000	54.739504
1000.000000	54.726074
999.000000	54.717197
998.000000	54.688048
997.000000	54.673846
996.000000	54.665530
995.000000	54.659772
994.000000	54.652342
993.000000	54.655365
992.000000	54.645014
991.000000	54.617840
990.000000	54.610754
989.000000	54.599621
988.000000	54.595889
987.000000	54.603979
986.000000	54.571720
985.000000	54.565458
984.000000	54.537510
983.000000	54.531864
982.000000	54.529885
981.000000	54.528552
980.000000	54.524849
979.000000	54.521950
978.000000	54.507580
977.000000	54.500891
976.000000	54.503129
975.000000	54.490213
974.000000	54.487928
973.000000	54.473424
972.000000	54.477401
971.000000	54.446282
970.000000	54.429666
969.000000	54.423249
968.000000	54.415973
967.000000	54.420274
966.000000	54.409821
965.000000	54.388528
964.000000	54.384616
963.000000	54.380739
962.000000	54.365260
961.000000	54.366306
960.000000	54.357050
959.000000	54.355694
958.000000	54.350118
957.000000	54.335420
956.000000	54.312704
955.000000	54.319183
954.000000	54.313585
953.000000	54.287833
952.000000	54.278044
951.000000	54.270921
950.000000	54.261354
949.000000	54.238435
948.000000	54.247910
947.000000	54.245877
946.000000	54.218181
945.000000	54.206190
944.000000	54.211970
943.000000	54.192135
942.000000	54.177555
941.000000	54.174079
940.000000	54.157686
939.000000	54.133922
938.000000	54.099815
937.000000	54.098418
936.000000	54.089888
935.000000	54.064165
934.000000	54.054627
933.000000	54.046277
932.000000	54.036832
931.000000	54.049548
930.000000	54.021525
929.000000	54.002087
928.000000	54.006254
927.000000	53.988705
926.000000	53.970784
925.000000	53.959276
924.000000	53.899252
923.000000	53.858875
922.000000	53.877954
921.000000	53.859773
920.000000	53.821643
919.000000	53.830458
918.000000	53.808538
917.000000	53.754331
916.000000	53.745443
915.000000	53.757580
914.000000	53.732013
913.000000	53.728231
912.000000	53.688189
911.000000	53.619986
910.000000	53.639298
909.000000	53.628068
908.000000	53.598298
907.000000	53.606881
906.000000	53.585573
905.000000	53.560698
904.000000	53.547642
903.000000	53.558666
902.000000	53.536824
901.000000	53.488983
900.000000	53.504596
899.000000	53.522163
898.000000	53.499740
897.000000	53.462262
896.000000	53.433483
895.000000	53.377483
894.000000	53.317313
893.000000	53.326384
892.000000	53.328630
891.000000	53.317201
890.000000	53.313589
889.000000	53.384691
888.000000	53.388616
887.000000	53.350775
886.000000	53.264938
885.000000	53.286322
884.000000	53.189736
883.000000	53.249095
882.000000	53.193692
881.000000	53.144254
880.000000	53.139216
879.000000	53.144882
878.000000	53.174111
877.000000	53.169961
876.000000	53.144033
875.000000	53.097771
874.000000	53.100853
873.000000	53.046958
872.000000	53.029737
871.000000	52.983791
870.000000	52.967634
869.000000	52.946081
868.000000	53.001351
867.000000	52.889531
866.000000	52.972826
865.000000	52.825000
864.000000	52.673818
863.000000	52.692685
862.000000	52.815975
861.000000	52.758467
860.000000	52.729049
859.000000	51.823791
858.000000	51.564101
857.000000	51.738669
856.000000	51.953459
855.000000	51.638125
854.000000	51.930201
853.000000	51.524081
852.000000	51.407776
851.000000	51.719507
850.000000	51.819477
849.000000	51.802110
848.000000	51.604791
847.000000	51.357587
846.000000	51.556005
845.000000	51.494177
844.000000	51.209079
843.000000	51.594073
842.000000	51.486477
841.000000	51.315978
840.000000	51.252994
839.000000	51.247255
838.000000	51.319971
837.000000	51.388440
836.000000	51.112048
835.000000	51.055260
834.000000	51.075323
833.000000	51.248114
832.000000	51.208593
831.000000	51.062259
830.000000	51.168339
829.000000	51.083184
828.000000	50.885437
827.000000	50.918650
826.000000	50.914574
825.000000	50.947174
824.000000	50.997835
823.000000	50.958978
822.000000	50.843043
821.000000	50.724694
820.000000	50.769466
819.000000	50.658645
818.000000	50.639326
817.000000	50.691879
816.000000	50.572464
815.000000	50.623370
814.000000	50.518394
813.000000	50.451552
812.000000	50.445030
811.000000	50.494992
810.000000	50.567884
809.000000	50.388024
808.000000	50.295345
807.000000	50.307937
806.000000	50.226019
805.000000	50.243635
804.000000	50.261297
803.000000	50.207411
802.000000	50.200363
801.000000	50.055226
800.000000	50.141744
799.000000	49.928573
798.000000	49.934163
797.000000	50.052320
796.000000	49.981728
795.000000	49.939459
794.000000	49.772288
793.000000	49.819638
792.000000	49.738506
791.000000	49.804160
790.000000	49.725407
789.000000	49.539611
788.000000	49.644932
787.000000	49.571261
786.000000	49.606106
785.000000	49.598666
784.000000	49.446042
783.000000	49.445256
782.000000	49.419441
781.000000	49.342760
780.000000	49.307426
779.000000	49.228901
778.000000	49.237641
777.000000	49.287241
776.000000	49.137658
775.000000	49.086259
774.000000	48.980341
773.000000	48.955976
772.000000	48.980227
771.000000	48.912299
770.000000	48.934037
769.000000	48.928082
768.000000	48.796652
767.000000	48.762841
766.000000	48.716643
765.000000	48.653165
764.000000	48.621919
763.000000	48.598363
762.000000	48.566716
761.000000	48.430310
760.000000	48.439322
759.000000	48.459075
758.000000	48.379321
757.000000	48.288005
756.000000	48.259747
755.000000	48.193100
754.000000	48.177100
753.000000	48.106638
752.000000	48.091932
751.000000	48.012628
750.000000	47.961016
749.000000	47.922851
748.000000	47.829838
747.000000	47.776092
746.000000	47.768611
745.000000	47.764423
744.000000	47.681701
743.000000	47.614903
742.000000	47.507458
741.000000	47.503239
740.000000	47.457981
739.000000	47.388391
738.000000	47.365065
737.000000	47.291148
736.000000	47.280459
735.000000	47.178227
734.000000	47.045644
733.000000	47.021187
732.000000	47.003648
731.000000	46.959441
730.000000	46.890533
729.000000	46.837998
728.000000	46.779115
727.000000	46.722716
726.000000	46.707228
725.000000	46.629192
724.000000	46.529371
723.000000	46.446550
722.000000	46.395643
721.000000	46.394223
720.000000	46.350287
719.000000	46.248205
718.000000	46.175354
717.000000	46.142645
716.000000	46.088925
715.000000	45.992841
714.000000	45.919937
713.000000	45.900546
712.000000	45.901011
711.000000	45.836044
710.000000	45.759976
709.000000	45.675827
708.000000	45.589371
707.000000	45.521180
706.000000	45.484522
705.000000	45.449711
704.000000	45.329853
703.000000	45.237826
702.000000	45.197318
701.000000	45.134177
700.000000	45.093073
699.000000	45.000566
698.000000	44.919952
697.000000	44.901312
696.000000	44.883357
695.000000	44.804591
694.000000	44.689223
693.000000	44.633056
692.000000	44.555247
691.000000	44.462632
690.000000	44.410739
689.000000	44.300623
688.000000	44.153356
687.000000	44.107587
686.000000	44.063675
685.000000	44.034150
684.000000	43.952777
683.000000	43.845601
682.000000	43.778804
681.000000	43.677262
680.000000	43.596848
679.000000	43.548409
678.000000	43.508350
677.000000	43.417299
676.000000	43.357602
675.000000	43.322503
674.000000	43.242613
673.000000	43.158642
672.000000	43.073110
671.000000	42.996209
670.000000	42.896290
669.000000	42.834120
668.000000	42.788381
667.000000	42.701351
666.000000	42.631001
665.000000	42.572578
664.000000	42.492671
663.000000	42.411164
662.000000	42.339336
661.000000	42.275880
660.000000	42.189495
659.000000	42.119074
658.000000	42.000269
657.000000	41.927143
656.000000	41.833253
655.000000	41.782726
654.000000	41.735659
653.000000	41.651641
652.000000	41.569313
651.000000	41.438876
650.000000	41.356310
649.000000	41.303325
648.000000	41.262332
647.000000	41.172555
646.000000	41.042983
645.000000	41.007500
644.000000	40.946944
643.000000	40.833694
642.000000	40.749005
641.000000	40.658485
640.000000	40.575880
639.000000	40.546650
638.000000	40.413183
637.000000	40.344933
636.000000	40.215166
635.000000	40.166660
634.000000	40.052984
633.000000	40.003808
632.000000	39.909530
631.000000	39.856649
630.000000	39.742935
629.000000	39.640809
628.000000	39.539536
627.000000	39.535877
626.000000	39.387607
625.000000	39.293186
624.000000	39.215809
623.000000	39.119819
622.000000	38.998092
621.000000	38.938311
620.000000	38.872866
619.000000	38.777564
618.000000	38.723984
617.000000	38.597537
616.000000	38.495913
615.000000	38.414311
614.000000	38.335710
613.000000	38.247020
612.000000	38.159900
611.000000	38.059459
610.000000	37.985553
609.000000	37.915218
608.000000	37.768127
607.000000	37.707378
606.000000	37.598200
605.000000	37.497143
604.000000	37.385285
603.000000	37.336486
602.000000	37.174658
601.000000	37.088822
600.000000	37.024551
599.000000	36.923197
598.000000	36.821219
597.000000	36.742587
596.000000	36.623537
595.000000	36.465214
594.000000	36.470733
593.000000	36.317840
592.000000	36.201718
591.000000	36.154279
590.000000	35.967256
589.000000	35.956037
588.000000	35.854380
587.000000	35.717410
586.000000	35.602671
585.000000	35.507908
584.000000	35.389847
583.000000	35.261471
582.000000	35.158705
581.000000	35.077589
580.000000	34.958897
579.000000	34.888780
578.000000	34.756765
577.000000	34.664684
576.000000	34.546128
575.000000	34.438247
574.000000	34.325205
573.000000	34.217316
572.000000	34.145093
571.000000	34.015308
570.000000	33.908991
569.000000	33.821224
568.000000	33.679334
567.000000	33.600711
566.000000	33.466749
565.000000	33.369905
564.000000	33.236099
563.000000	33.176062
562.000000	33.026941
561.000000	32.915622
560.000000	32.818533
559.000000	32.696476
558.000000	32.602242
557.000000	32.504228
556.000000	32.413593
555.000000	32.248091
554.000000	32.157011
553.000000	32.046407
552.000000	31.942677
551.000000	31.837967
550.000000	31.718392
549.000000	31.622024
548.000000	31.487631
547.000000	31.397621
546.000000	31.277402
545.000000	31.185208
544.000000	31.055017
543.000000	30.955688
542.000000	30.844348
541.000000	30.746840
540.000000	30.620352
539.000000	30.532682
538.000000	30.411676
537.000000	30.281621
536.000000	30.176754
535.000000	30.067209
534.000000	29.954058
533.000000	29.836684
532.000000	29.728718
531.000000	29.596259
530.000000	29.504886
529.000000	29.395440
528.000000	29.266409
527.000000	29.167539
526.000000	29.054145
525.000000	28.947259
524.000000	28.818404
523.000000	28.707967
522.000000	28.596981
521.000000	28.485880
520.000000	28.394386
519.000000	28.263160
518.000000	28.142989
517.000000	28.048944
516.000000	27.924256
515.000000	27.834759
514.000000	27.745197
513.000000	27.632969
512.000000	27.520642
511.000000	27.403332
510.000000	27.301266
509.000000	27.211555
508.000000	27.106866
507.000000	27.009816
506.000000	26.885804
505.000000	26.784979
504.000000	26.681694
503.000000	26.580164
502.000000	26.452187
501.000000	26.333127
500.000000	26.238388
499.000000	26.124207
498.000000	25.995971
497.000000	25.879655
496.000000	25.775952
495.000000	25.663555
494.000000	25.540630
493.000000	25.416231
492.000000	25.296234
491.000000	25.169164
490.000000	25.034420
489.000000	24.931863
488.000000	24.816835
487.000000	24.680748
486.000000	24.553246
485.000000	24.439827
484.000000	24.322643
483.000000	24.205830
482.000000	24.081657
481.000000	23.958627
480.000000	23.851007
479.000000	23.783063
478.000000	23.690478
477.000000	23.592496
476.000000	23.483236
475.000000	23.381846
474.000000	23.270969
473.000000	23.170830
472.000000	23.054743
471.000000	22.937609
470.000000	22.833897
469.000000	22.725084
468.000000	22.612286
467.000000	22.519514
466.000000	22.423427
465.000000	22.316236
464.000000	22.201918
463.000000	22.088553
462.000000	21.976887
461.000000	21.860750
460.000000	21.747601
459.000000	21.623555
458.000000	21.499567
457.000000	21.364687
456.000000	21.247496
455.000000	21.122059
454.000000	20.984152
453.000000	20.857804
452.000000	20.750036
451.000000	20.639425
450.000000	20.522519
449.000000	20.402167
448.000000	20.261101
447.000000	20.145220
446.000000	20.014753
445.000000	19.859694
444.000000	19.763059
443.000000	19.648495
442.000000	19.509415
441.000000	19.386565
440.000000	19.294370
439.000000	19.176148
438.000000	19.052252
437.000000	18.930838
436.000000	18.815488
435.000000	18.711581
434.000000	18.612246
433.000000	18.486904
432.000000	18.371470
431.000000	18.244914
430.000000	18.125595
429.000000	18.016316
428.000000	17.910563
427.000000	17.790478
426.000000	17.674186
425.000000	17.557005
424.000000	17.423333
423.000000	17.290791
422.000000	17.154886
421.000000	17.031009
420.000000	16.900328
419.000000	16.784514
418.000000	16.676720
417.000000	16.556582
416.000000	16.421082
415.000000	16.266150
414.000000	16.157603
413.000000	16.019172
412.000000	15.887395
411.000000	15.759493
410.000000	15.648501
409.000000	15.497558
408.000000	15.376532
407.000000	15.235543
406.000000	15.099045
405.000000	14.939088
404.000000	14.821834
403.000000	14.683938
402.000000	14.568958
401.000000	14.430414
400.000000	14.291922
399.000000	14.141027
398.000000	14.035911
397.000000	13.918756
396.000000	13.797800
395.000000	13.660245
394.000000	13.551589
393.000000	13.397546
392.000000	13.261270
391.000000	13.124029
390.000000	13.013336
389.000000	12.876168
388.000000	12.748550
387.000000	12.616947
386.000000	12.526506
385.000000	12.383002
384.000000	12.252923
383.000000	12.107885
382.000000	11.999819
381.000000	11.856148
380.000000	11.715434
379.000000	11.579516
378.000000	11.354610
377.000000	11.324160
376.000000	11.234754
375.000000	11.111260
374.000000	10.933012
373.000000	10.902744
372.000000	10.790565
371.000000	10.715692
370.000000	10.642911
369.000000	10.525260
368.000000	10.395283
367.000000	10.220422
366.000000	10.196734
365.000000	10.113444
364.000000	10.012776
363.000000	9.925222
362.000000	9.853905
361.000000	9.801872
360.000000	9.708279
359.000000	9.624328
358.000000	9.582923
357.000000	9.447442
356.000000	9.401587
355.000000	9.299598
354.000000	9.275796
353.000000	9.196947
352.000000	9.151460
351.000000	9.093345
350.000000	8.960185
349.000000	8.930915
348.000000	8.892709
347.000000	8.744915
346.000000	8.714330
345.000000	8.686045
344.000000	8.552550
343.000000	8.574738
342.000000	8.489251
341.000000	8.420694
340.000000	8.336765
339.000000	8.342179
338.000000	8.245332
337.000000	8.188379
336.000000	8.072312
335.000000	8.040682
334.000000	7.964664
333.000000	7.982203
332.000000	7.908943
331.000000	7.813626
330.000000	7.796959
329.000000	7.718505
328.000000	7.710089
327.000000	7.641434
326.000000	7.633473
325.000000	7.559031
324.000000	7.474639
323.000000	7.464103
322.000000	7.464082
321.000000	7.403827
320.000000	7.415535
319.000000	7.321801
318.000000	7.332369
317.000000	7.292459
316.000000	7.243654
315.000000	7.252994
314.000000	7.239841
313.000000	7.159904
312.000000	7.233667
311.000000	7.144726
310.000000	7.170385
309.000000	7.181986
308.000000	7.124412
307.000000	7.144240
306.000000	7.118005
305.000000	7.087980
304.000000	7.114910
303.000000	7.095234
302.000000	7.078209
301.000000	7.120964
300.000000	7.149238
299.000000	7.115877
298.000000	7.091353
297.000000	7.117699
296.000000	7.153094
295.000000	7.160843
294.000000	7.115692
293.000000	7.130148
292.000000	7.146390
291.000000	7.150699
290.000000	7.153211
289.000000	7.208147
288.000000	7.235444
287.000000	7.245598
286.000000	7.220306
285.000000	7.315633
284.000000	7.349184
283.000000	7.367687
282.000000	7.408435
281.000000	7.429407
280.000000	7.474644
279.000000	7.522063
278.000000	7.550743
277.000000	7.599333
276.000000	7.641326
275.000000	7.687504
274.000000	7.786164
273.000000	7.853562
272.000000	7.868434
271.000000	7.905722
270.000000	7.977330
269.000000	8.013792
268.000000	8.094856
267.000000	8.109696
266.000000	8.196527
265.000000	8.282704
264.000000	8.369552
263.000000	8.450556
262.000000	8.482651
261.000000	8.560262
260.000000	8.710505
259.000000	8.830073
258.000000	8.918033
257.000000	8.979904
256.000000	9.077843
255.000000	9.187304
254.000000	9.261622
253.000000	9.354337
252.000000	9.473628
251.000000	9.617808
250.000000	9.757106
249.000000	9.849815
248.000000	9.980049
247.000000	10.076637
246.000000	10.200422
245.000000	10.262506
244.000000	10.316518
243.000000	10.459948
242.000000	10.611337
241.000000	10.703979
240.000000	10.730868
239.000000	10.785428
238.000000	10.865198
237.000000	10.962409
236.000000	11.073684
235.000000	11.129746
234.000000	11.184634
233.000000	11.273358
232.000000	11.345996
231.000000	11.412780
230.000000	11.489722
229.000000	11.577228
228.000000	11.678672
227.000000	11.801715
226.000000	11.905112
225.000000	12.016456
224.000000	12.158463
223.000000	12.274974
222.000000	12.355840
221.000000	12.522691
220.000000	12.724032
219.000000	12.894409
218.000000	13.040499
217.000000	13.217156
216.000000	13.456558
215.000000	13.660027
214.000000	13.922446
213.000000	14.214424
212.000000	14.373715
211.000000	14.653802
210.000000	15.025596
209.000000	15.295002
208.000000	15.700258
207.000000	16.228665
206.000000	16.625489
205.000000	17.101230
204.000000	17.840783
203.000000	18.419266
202.000000	18.823952
201.000000	19.242341
200.000000	19.849163
