PE UV       SUBTECH     SPECTRUM    ASCII       PEDS        4.00        
   -1
RTms499182.Sample.asc
18/03/23
09:37:41.00
18/03/23
09:37:41.00
Administrator

200.000000
1
Lambda 750
750N8071901
PerkinElmer UV WinLab 6.0.4.0738 / 1.61.00 Lambda 900

0
0
3350/servo 860.8/2
0
0
UV/VIS
1
1
1
CommonBeamDepol,150mm sphere / downward view
0
0
0
0
Program
Program
3350/servo 860.8/2
3350/0.2 860.8/0.2
3350/0.2 860.8/0.2
0
1
 
 
 
0
 
860.8
319.2
860.8
Front
100
on
 
 
0
0
0
 
0
 
 
 
0
 
 
0
0
0
0
0
 
 
 
 
0
0


0
0
#HDR
-1
-1
#GR
nm
%R
1.0
0.0
2350.000000
-1.000000
2151
8
62.302314
6.465938
#DATA
2350.000000	33.872878
2349.000000	34.064885
2348.000000	33.866053
2347.000000	34.771307
2346.000000	34.466824
2345.000000	34.029346
2344.000000	33.826197
2343.000000	33.840357
2342.000000	34.284271
2341.000000	34.308553
2340.000000	34.733333
2339.000000	34.698207
2338.000000	34.761038
2337.000000	34.751891
2336.000000	34.636501
2335.000000	35.124617
2334.000000	34.727817
2333.000000	34.952689
2332.000000	34.839778
2331.000000	34.756571
2330.000000	34.838134
2329.000000	34.666741
2328.000000	34.814420
2327.000000	34.487876
2326.000000	34.548164
2325.000000	34.720413
2324.000000	34.522354
2323.000000	34.540280
2322.000000	34.257016
2321.000000	34.271578
2320.000000	34.099866
2319.000000	33.990731
2318.000000	34.377915
2317.000000	34.355284
2316.000000	34.052800
2315.000000	33.888992
2314.000000	34.047448
2313.000000	33.819994
2312.000000	33.715399
2311.000000	33.850965
2310.000000	33.570749
2309.000000	33.794228
2308.000000	33.580634
2307.000000	33.630167
2306.000000	33.392234
2305.000000	33.496167
2304.000000	33.362230
2303.000000	33.615583
2302.000000	33.433107
2301.000000	33.336990
2300.000000	33.298911
2299.000000	33.122241
2298.000000	32.936112
2297.000000	33.078726
2296.000000	33.160720
2295.000000	33.171974
2294.000000	33.108185
2293.000000	32.985275
2292.000000	32.790324
2291.000000	32.680173
2290.000000	32.685254
2289.000000	32.752145
2288.000000	32.805955
2287.000000	32.789189
2286.000000	32.629318
2285.000000	32.633375
2284.000000	32.723835
2283.000000	32.597034
2282.000000	32.569284
2281.000000	32.719662
2280.000000	32.762574
2279.000000	32.717597
2278.000000	32.666798
2277.000000	32.697080
2276.000000	32.884470
2275.000000	32.876904
2274.000000	32.865004
2273.000000	32.988295
2272.000000	33.073612
2271.000000	33.049809
2270.000000	33.175657
2269.000000	33.311310
2268.000000	33.383399
2267.000000	33.386664
2266.000000	33.463047
2265.000000	33.705161
2264.000000	33.840870
2263.000000	33.894129
2262.000000	34.057247
2261.000000	34.214958
2260.000000	34.285190
2259.000000	34.516346
2258.000000	34.829175
2257.000000	35.025642
2256.000000	35.149336
2255.000000	35.332140
2254.000000	35.386089
2253.000000	35.455915
2252.000000	35.727761
2251.000000	35.937571
2250.000000	36.075998
2249.000000	36.276031
2248.000000	36.494191
2247.000000	36.594742
2246.000000	36.840312
2245.000000	37.101225
2244.000000	37.386289
2243.000000	37.569133
2242.000000	37.600629
2241.000000	37.690493
2240.000000	37.766381
2239.000000	37.980685
2238.000000	38.104700
2237.000000	38.155430
2236.000000	38.251640
2235.000000	38.243938
2234.000000	38.342446
2233.000000	38.469723
2232.000000	38.495780
2231.000000	38.569834
2230.000000	38.563759
2229.000000	38.722146
2228.000000	38.887073
2227.000000	38.907176
2226.000000	38.833922
2225.000000	38.721271
2224.000000	38.675881
2223.000000	38.628590
2222.000000	38.654221
2221.000000	38.656765
2220.000000	38.712517
2219.000000	38.794888
2218.000000	38.704170
2217.000000	38.684581
2216.000000	38.590706
2215.000000	38.515508
2214.000000	38.489790
2213.000000	38.567434
2212.000000	38.440724
2211.000000	38.434277
2210.000000	38.388019
2209.000000	38.330693
2208.000000	38.167039
2207.000000	38.166359
2206.000000	38.109580
2205.000000	38.117309
2204.000000	38.004955
2203.000000	37.834051
2202.000000	37.828045
2201.000000	37.762385
2200.000000	37.668852
2199.000000	37.676111
2198.000000	37.657307
2197.000000	37.561294
2196.000000	37.387487
2195.000000	37.379792
2194.000000	37.373913
2193.000000	37.319433
2192.000000	37.158008
2191.000000	37.112212
2190.000000	36.935080
2189.000000	37.060494
2188.000000	37.100018
2187.000000	36.852087
2186.000000	36.824536
2185.000000	36.784983
2184.000000	36.835986
2183.000000	36.805656
2182.000000	36.903943
2181.000000	36.841956
2180.000000	36.794934
2179.000000	36.820348
2178.000000	36.555769
2177.000000	36.680940
2176.000000	36.672667
2175.000000	36.835974
2174.000000	36.851699
2173.000000	36.856220
2172.000000	36.963164
2171.000000	37.019155
2170.000000	36.866553
2169.000000	36.955661
2168.000000	37.271037
2167.000000	37.090834
2166.000000	37.142314
2165.000000	37.319038
2164.000000	37.384548
2163.000000	37.377415
2162.000000	37.440528
2161.000000	37.584357
2160.000000	37.762416
2159.000000	37.885972
2158.000000	37.927955
2157.000000	38.191280
2156.000000	38.560096
2155.000000	38.458705
2154.000000	38.635726
2153.000000	38.696182
2152.000000	38.732178
2151.000000	38.742430
2150.000000	38.877888
2149.000000	39.154476
2148.000000	39.051028
2147.000000	39.277249
2146.000000	39.588171
2145.000000	39.760075
2144.000000	39.660148
2143.000000	39.740865
2142.000000	39.766486
2141.000000	40.021452
2140.000000	40.119744
2139.000000	40.129803
2138.000000	40.461022
2137.000000	40.496005
2136.000000	40.499206
2135.000000	40.669725
2134.000000	40.787189
2133.000000	40.665850
2132.000000	40.637485
2131.000000	41.014641
2130.000000	41.104266
2129.000000	41.108622
2128.000000	40.909095
2127.000000	40.998630
2126.000000	41.099204
2125.000000	41.079616
2124.000000	41.298075
2123.000000	41.393245
2122.000000	41.361129
2121.000000	41.604912
2120.000000	41.308001
2119.000000	41.410227
2118.000000	41.464722
2117.000000	41.477520
2116.000000	41.541899
2115.000000	41.582372
2114.000000	41.448075
2113.000000	41.453681
2112.000000	41.643387
2111.000000	41.524765
2110.000000	41.582498
2109.000000	41.665301
2108.000000	41.641355
2107.000000	41.711889
2106.000000	41.664542
2105.000000	41.766162
2104.000000	41.648445
2103.000000	41.734408
2102.000000	41.723993
2101.000000	41.768091
2100.000000	41.754810
2099.000000	41.679755
2098.000000	41.683351
2097.000000	41.727502
2096.000000	41.806108
2095.000000	41.695937
2094.000000	41.713539
2093.000000	41.747870
2092.000000	41.738259
2091.000000	41.703878
2090.000000	41.670422
2089.000000	41.599296
2088.000000	41.617693
2087.000000	41.614890
2086.000000	41.649753
2085.000000	41.633880
2084.000000	41.600557
2083.000000	41.443373
2082.000000	41.341755
2081.000000	41.354805
2080.000000	41.349629
2079.000000	41.298023
2078.000000	41.149449
2077.000000	41.187159
2076.000000	41.124628
2075.000000	40.964964
2074.000000	40.871606
2073.000000	40.795021
2072.000000	40.720808
2071.000000	40.672649
2070.000000	40.464446
2069.000000	40.278083
2068.000000	40.147317
2067.000000	40.098038
2066.000000	40.017308
2065.000000	39.900505
2064.000000	39.800666
2063.000000	39.702999
2062.000000	39.598423
2061.000000	39.413802
2060.000000	39.234620
2059.000000	39.144806
2058.000000	38.986386
2057.000000	38.815167
2056.000000	38.722916
2055.000000	38.656778
2054.000000	38.480837
2053.000000	38.361497
2052.000000	38.208514
2051.000000	38.158186
2050.000000	38.108771
2049.000000	38.043019
2048.000000	37.922948
2047.000000	37.841180
2046.000000	37.809620
2045.000000	37.827793
2044.000000	37.826971
2043.000000	37.748599
2042.000000	37.710119
2041.000000	37.786262
2040.000000	37.836760
2039.000000	37.819480
2038.000000	37.855541
2037.000000	37.877600
2036.000000	37.913744
2035.000000	38.005129
2034.000000	38.080603
2033.000000	38.152632
2032.000000	38.293724
2031.000000	38.387847
2030.000000	38.457712
2029.000000	38.582382
2028.000000	38.680737
2027.000000	38.759103
2026.000000	38.837338
2025.000000	38.884449
2024.000000	38.921752
2023.000000	38.988686
2022.000000	39.049381
2021.000000	39.056938
2020.000000	39.103621
2019.000000	39.111064
2018.000000	39.093034
2017.000000	39.089269
2016.000000	39.098818
2015.000000	39.078559
2014.000000	39.040847
2013.000000	39.005530
2012.000000	38.952800
2011.000000	38.912588
2010.000000	38.876054
2009.000000	38.795118
2008.000000	38.723363
2007.000000	38.647549
2006.000000	38.547902
2005.000000	38.481815
2004.000000	38.387853
2003.000000	38.288218
2002.000000	38.189166
2001.000000	38.082752
2000.000000	37.977753
1999.000000	37.896529
1998.000000	37.810217
1997.000000	37.674592
1996.000000	37.590665
1995.000000	37.510694
1994.000000	37.370290
1993.000000	37.252320
1992.000000	37.160183
1991.000000	37.028116
1990.000000	36.890309
1989.000000	36.747346
1988.000000	36.672294
1987.000000	36.594885
1986.000000	36.468307
1985.000000	36.353787
1984.000000	36.261021
1983.000000	36.159082
1982.000000	36.044002
1981.000000	35.934067
1980.000000	35.812569
1979.000000	35.687514
1978.000000	35.608493
1977.000000	35.476622
1976.000000	35.389993
1975.000000	35.275805
1974.000000	35.167948
1973.000000	35.088205
1972.000000	34.996798
1971.000000	34.844945
1970.000000	34.740824
1969.000000	34.633971
1968.000000	34.557580
1967.000000	34.455036
1966.000000	34.369046
1965.000000	34.235358
1964.000000	34.145188
1963.000000	34.055226
1962.000000	33.949082
1961.000000	33.853702
1960.000000	33.777339
1959.000000	33.689977
1958.000000	33.603091
1957.000000	33.507036
1956.000000	33.461092
1955.000000	33.358009
1954.000000	33.303645
1953.000000	33.219508
1952.000000	33.198800
1951.000000	33.122864
1950.000000	33.048623
1949.000000	33.022252
1948.000000	32.985507
1947.000000	32.916330
1946.000000	32.927549
1945.000000	32.933948
1944.000000	32.819661
1943.000000	32.901494
1942.000000	32.914841
1941.000000	32.904091
1940.000000	32.973892
1939.000000	33.026652
1938.000000	33.050085
1937.000000	33.173949
1936.000000	33.259416
1935.000000	33.280928
1934.000000	33.423168
1933.000000	33.571259
1932.000000	33.663217
1931.000000	33.784338
1930.000000	33.967489
1929.000000	34.156830
1928.000000	34.244353
1927.000000	34.501738
1926.000000	34.656631
1925.000000	34.850137
1924.000000	35.082806
1923.000000	35.359649
1922.000000	35.585714
1921.000000	35.962540
1920.000000	36.102734
1919.000000	36.405682
1918.000000	36.690667
1917.000000	37.132291
1916.000000	37.283244
1915.000000	37.756375
1914.000000	38.025606
1913.000000	38.437175
1912.000000	38.794145
1911.000000	39.120225
1910.000000	39.605420
1909.000000	39.985558
1908.000000	40.365875
1907.000000	40.770408
1906.000000	41.177038
1905.000000	41.709878
1904.000000	42.151073
1903.000000	42.620414
1902.000000	43.056469
1901.000000	43.577976
1900.000000	43.991763
1899.000000	44.499495
1898.000000	44.956185
1897.000000	45.416070
1896.000000	45.866228
1895.000000	46.303286
1894.000000	46.719606
1893.000000	47.202226
1892.000000	47.618481
1891.000000	47.998122
1890.000000	48.387143
1889.000000	48.803768
1888.000000	49.109052
1887.000000	49.504183
1886.000000	49.860999
1885.000000	50.217583
1884.000000	50.531447
1883.000000	50.874186
1882.000000	51.174536
1881.000000	51.377064
1880.000000	51.681284
1879.000000	51.956787
1878.000000	52.246225
1877.000000	52.514982
1876.000000	52.703656
1875.000000	52.923873
1874.000000	53.114176
1873.000000	53.325951
1872.000000	53.547336
1871.000000	53.706626
1870.000000	53.827590
1869.000000	53.949554
1868.000000	54.133579
1867.000000	54.233629
1866.000000	54.331413
1865.000000	54.419762
1864.000000	54.474900
1863.000000	54.535053
1862.000000	54.617355
1861.000000	54.617949
1860.000000	54.668828
1859.000000	54.746825
1858.000000	54.785099
1857.000000	54.825391
1856.000000	54.835397
1855.000000	54.849767
1854.000000	54.872312
1853.000000	54.886208
1852.000000	54.885900
1851.000000	54.879608
1850.000000	54.858962
1849.000000	54.876687
1848.000000	54.918800
1847.000000	54.926044
1846.000000	54.907307
1845.000000	54.912403
1844.000000	54.900654
1843.000000	54.874838
1842.000000	54.848467
1841.000000	54.823504
1840.000000	54.796499
1839.000000	54.789302
1838.000000	54.763463
1837.000000	54.715564
1836.000000	54.688407
1835.000000	54.658118
1834.000000	54.610000
1833.000000	54.590325
1832.000000	54.544393
1831.000000	54.502323
1830.000000	54.459234
1829.000000	54.429516
1828.000000	54.396314
1827.000000	54.377259
1826.000000	54.347848
1825.000000	54.317787
1824.000000	54.298514
1823.000000	54.250294
1822.000000	54.190267
1821.000000	54.166518
1820.000000	54.132528
1819.000000	54.105754
1818.000000	54.066558
1817.000000	54.030830
1816.000000	54.003995
1815.000000	53.974967
1814.000000	53.956455
1813.000000	53.929493
1812.000000	53.884374
1811.000000	53.842123
1810.000000	53.827916
1809.000000	53.808908
1808.000000	53.764313
1807.000000	53.726954
1806.000000	53.713048
1805.000000	53.696461
1804.000000	53.659641
1803.000000	53.619042
1802.000000	53.583396
1801.000000	53.560962
1800.000000	53.532710
1799.000000	53.514123
1798.000000	53.487951
1797.000000	53.455098
1796.000000	53.428085
1795.000000	53.393572
1794.000000	53.381418
1793.000000	53.363396
1792.000000	53.354612
1791.000000	53.338297
1790.000000	53.300077
1789.000000	53.262641
1788.000000	53.247909
1787.000000	53.227379
1786.000000	53.197334
1785.000000	53.162146
1784.000000	53.146986
1783.000000	53.099032
1782.000000	53.059838
1781.000000	53.043118
1780.000000	52.995241
1779.000000	52.950929
1778.000000	52.910149
1777.000000	52.865634
1776.000000	52.835983
1775.000000	52.779243
1774.000000	52.734208
1773.000000	52.700262
1772.000000	52.650723
1771.000000	52.591819
1770.000000	52.556738
1769.000000	52.498432
1768.000000	52.484514
1767.000000	52.426340
1766.000000	52.387746
1765.000000	52.373546
1764.000000	52.338939
1763.000000	52.270053
1762.000000	52.235937
1761.000000	52.190362
1760.000000	52.143839
1759.000000	52.103977
1758.000000	52.090817
1757.000000	52.023959
1756.000000	51.990759
1755.000000	51.965243
1754.000000	51.903303
1753.000000	51.856655
1752.000000	51.794817
1751.000000	51.756896
1750.000000	51.749554
1749.000000	51.705236
1748.000000	51.633254
1747.000000	51.605241
1746.000000	51.531812
1745.000000	51.471704
1744.000000	51.413352
1743.000000	51.348673
1742.000000	51.301162
1741.000000	51.267675
1740.000000	51.227861
1739.000000	51.158786
1738.000000	51.134261
1737.000000	51.088156
1736.000000	51.041075
1735.000000	51.036465
1734.000000	51.066574
1733.000000	51.026176
1732.000000	51.008397
1731.000000	51.026048
1730.000000	51.036889
1729.000000	51.080791
1728.000000	51.116983
1727.000000	51.136477
1726.000000	51.236964
1725.000000	51.274032
1724.000000	51.332254
1723.000000	51.404534
1722.000000	51.505186
1721.000000	51.605734
1720.000000	51.692950
1719.000000	51.799261
1718.000000	51.853273
1717.000000	51.977142
1716.000000	52.079450
1715.000000	52.132460
1714.000000	52.226448
1713.000000	52.286760
1712.000000	52.360331
1711.000000	52.440443
1710.000000	52.514975
1709.000000	52.548854
1708.000000	52.624630
1707.000000	52.666410
1706.000000	52.712174
1705.000000	52.751516
1704.000000	52.788285
1703.000000	52.802789
1702.000000	52.799657
1701.000000	52.866077
1700.000000	52.898426
1699.000000	52.874921
1698.000000	52.912990
1697.000000	52.957101
1696.000000	53.009581
1695.000000	53.012113
1694.000000	53.048484
1693.000000	53.102023
1692.000000	53.154488
1691.000000	53.217525
1690.000000	53.319689
1689.000000	53.388755
1688.000000	53.435263
1687.000000	53.535343
1686.000000	53.631409
1685.000000	53.746198
1684.000000	53.848541
1683.000000	53.980456
1682.000000	54.101255
1681.000000	54.251872
1680.000000	54.373366
1679.000000	54.501093
1678.000000	54.642479
1677.000000	54.742148
1676.000000	54.885092
1675.000000	55.020589
1674.000000	55.151911
1673.000000	55.281506
1672.000000	55.419852
1671.000000	55.519450
1670.000000	55.660291
1669.000000	55.795504
1668.000000	55.909140
1667.000000	55.969118
1666.000000	56.051854
1665.000000	56.111548
1664.000000	56.184470
1663.000000	56.259030
1662.000000	56.330453
1661.000000	56.419797
1660.000000	56.430547
1659.000000	56.480154
1658.000000	56.527415
1657.000000	56.547013
1656.000000	56.582868
1655.000000	56.599090
1654.000000	56.612722
1653.000000	56.633092
1652.000000	56.638179
1651.000000	56.633173
1650.000000	56.640152
1649.000000	56.647001
1648.000000	56.643800
1647.000000	56.621444
1646.000000	56.625402
1645.000000	56.591971
1644.000000	56.586222
1643.000000	56.583632
1642.000000	56.559611
1641.000000	56.536540
1640.000000	56.520350
1639.000000	56.472488
1638.000000	56.459839
1637.000000	56.445274
1636.000000	56.415560
1635.000000	56.386991
1634.000000	56.342701
1633.000000	56.288765
1632.000000	56.279689
1631.000000	56.230304
1630.000000	56.195147
1629.000000	56.175860
1628.000000	56.144606
1627.000000	56.097144
1626.000000	56.041049
1625.000000	56.004578
1624.000000	55.979429
1623.000000	55.942194
1622.000000	55.877605
1621.000000	55.828495
1620.000000	55.791767
1619.000000	55.747355
1618.000000	55.713809
1617.000000	55.666529
1616.000000	55.594045
1615.000000	55.545824
1614.000000	55.511499
1613.000000	55.462900
1612.000000	55.402157
1611.000000	55.345388
1610.000000	55.296342
1609.000000	55.248496
1608.000000	55.211714
1607.000000	55.160268
1606.000000	55.087522
1605.000000	55.021410
1604.000000	54.955604
1603.000000	54.901434
1602.000000	54.860961
1601.000000	54.817581
1600.000000	54.760434
1599.000000	54.700456
1598.000000	54.656942
1597.000000	54.613065
1596.000000	54.552021
1595.000000	54.495943
1594.000000	54.457857
1593.000000	54.420994
1592.000000	54.374453
1591.000000	54.325376
1590.000000	54.278479
1589.000000	54.224894
1588.000000	54.179253
1587.000000	54.149859
1586.000000	54.113637
1585.000000	54.061972
1584.000000	54.013577
1583.000000	53.973121
1582.000000	53.938559
1581.000000	53.900314
1580.000000	53.858917
1579.000000	53.816007
1578.000000	53.778391
1577.000000	53.742590
1576.000000	53.708937
1575.000000	53.670954
1574.000000	53.619259
1573.000000	53.590808
1572.000000	53.546860
1571.000000	53.511768
1570.000000	53.483454
1569.000000	53.433209
1568.000000	53.401227
1567.000000	53.374600
1566.000000	53.352976
1565.000000	53.326268
1564.000000	53.297645
1563.000000	53.290827
1562.000000	53.256766
1561.000000	53.214209
1560.000000	53.202334
1559.000000	53.178024
1558.000000	53.158249
1557.000000	53.141620
1556.000000	53.119301
1555.000000	53.103855
1554.000000	53.083335
1553.000000	53.058819
1552.000000	53.030243
1551.000000	52.983242
1550.000000	52.979902
1549.000000	52.960360
1548.000000	52.908315
1547.000000	52.860157
1546.000000	52.799196
1545.000000	52.747053
1544.000000	52.685958
1543.000000	52.626436
1542.000000	52.576780
1541.000000	52.513965
1540.000000	52.448074
1539.000000	52.375457
1538.000000	52.295045
1537.000000	52.222510
1536.000000	52.147519
1535.000000	52.076485
1534.000000	52.013148
1533.000000	51.961659
1532.000000	51.888267
1531.000000	51.810488
1530.000000	51.752653
1529.000000	51.685862
1528.000000	51.625455
1527.000000	51.562003
1526.000000	51.506149
1525.000000	51.433597
1524.000000	51.382649
1523.000000	51.344330
1522.000000	51.293125
1521.000000	51.241823
1520.000000	51.233813
1519.000000	51.169253
1518.000000	51.135139
1517.000000	51.102541
1516.000000	51.070675
1515.000000	51.042308
1514.000000	51.062824
1513.000000	51.118837
1512.000000	51.153064
1511.000000	51.132499
1510.000000	51.084292
1509.000000	51.031641
1508.000000	50.992715
1507.000000	50.982830
1506.000000	50.947271
1505.000000	50.927289
1504.000000	50.900573
1503.000000	50.891225
1502.000000	50.875219
1501.000000	50.869649
1500.000000	50.852412
1499.000000	50.831229
1498.000000	50.827844
1497.000000	50.837468
1496.000000	50.838604
1495.000000	50.832343
1494.000000	50.835463
1493.000000	50.841678
1492.000000	50.852594
1491.000000	50.852209
1490.000000	50.861565
1489.000000	50.908690
1488.000000	50.905291
1487.000000	50.930190
1486.000000	50.955572
1485.000000	50.971491
1484.000000	50.992771
1483.000000	51.008802
1482.000000	51.057615
1481.000000	51.078139
1480.000000	51.110142
1479.000000	51.131445
1478.000000	51.184354
1477.000000	51.193402
1476.000000	51.205635
1475.000000	51.239509
1474.000000	51.281300
1473.000000	51.292908
1472.000000	51.317532
1471.000000	51.333920
1470.000000	51.351360
1469.000000	51.382587
1468.000000	51.416208
1467.000000	51.485303
1466.000000	51.509662
1465.000000	51.532102
1464.000000	51.542589
1463.000000	51.595100
1462.000000	51.623423
1461.000000	51.695866
1460.000000	51.713127
1459.000000	51.725761
1458.000000	51.750909
1457.000000	51.816713
1456.000000	51.873728
1455.000000	51.921321
1454.000000	51.931193
1453.000000	51.975422
1452.000000	52.037974
1451.000000	52.098570
1450.000000	52.143948
1449.000000	52.186948
1448.000000	52.241461
1447.000000	52.283687
1446.000000	52.359590
1445.000000	52.437279
1444.000000	52.500036
1443.000000	52.556300
1442.000000	52.610715
1441.000000	52.659265
1440.000000	52.745295
1439.000000	52.861889
1438.000000	52.964816
1437.000000	53.018288
1436.000000	53.080950
1435.000000	53.173888
1434.000000	53.267556
1433.000000	53.367578
1432.000000	53.456584
1431.000000	53.563587
1430.000000	53.665256
1429.000000	53.765053
1428.000000	53.900183
1427.000000	54.016773
1426.000000	54.140352
1425.000000	54.246198
1424.000000	54.387801
1423.000000	54.503050
1422.000000	54.643609
1421.000000	54.757253
1420.000000	54.894040
1419.000000	55.057251
1418.000000	55.212795
1417.000000	55.356648
1416.000000	55.487583
1415.000000	55.640851
1414.000000	55.802406
1413.000000	55.968625
1412.000000	56.119463
1411.000000	56.277560
1410.000000	56.439737
1409.000000	56.608152
1408.000000	56.747364
1407.000000	56.900172
1406.000000	57.044160
1405.000000	57.211235
1404.000000	57.378458
1403.000000	57.519778
1402.000000	57.644714
1401.000000	57.783005
1400.000000	57.937881
1399.000000	58.077782
1398.000000	58.204789
1397.000000	58.334557
1396.000000	58.470889
1395.000000	58.593635
1394.000000	58.715585
1393.000000	58.818329
1392.000000	58.925351
1391.000000	59.044927
1390.000000	59.148477
1389.000000	59.241955
1388.000000	59.366396
1387.000000	59.488280
1386.000000	59.561809
1385.000000	59.650052
1384.000000	59.757992
1383.000000	59.849220
1382.000000	59.929922
1381.000000	60.002653
1380.000000	60.062095
1379.000000	60.129262
1378.000000	60.184101
1377.000000	60.219036
1376.000000	60.270346
1375.000000	60.309243
1374.000000	60.336591
1373.000000	60.358444
1372.000000	60.388048
1371.000000	60.432240
1370.000000	60.483213
1369.000000	60.513793
1368.000000	60.539053
1367.000000	60.577984
1366.000000	60.612094
1365.000000	60.645040
1364.000000	60.677858
1363.000000	60.708781
1362.000000	60.751726
1361.000000	60.811555
1360.000000	60.851287
1359.000000	60.908406
1358.000000	60.973661
1357.000000	61.025033
1356.000000	61.068596
1355.000000	61.116847
1354.000000	61.187055
1353.000000	61.251541
1352.000000	61.267754
1351.000000	61.286708
1350.000000	61.329766
1349.000000	61.394455
1348.000000	61.441082
1347.000000	61.462399
1346.000000	61.489933
1345.000000	61.529681
1344.000000	61.579328
1343.000000	61.600203
1342.000000	61.617632
1341.000000	61.669050
1340.000000	61.718326
1339.000000	61.764395
1338.000000	61.780774
1337.000000	61.803486
1336.000000	61.826980
1335.000000	61.840224
1334.000000	61.886073
1333.000000	61.935758
1332.000000	61.943759
1331.000000	61.963636
1330.000000	62.001589
1329.000000	62.018593
1328.000000	62.023324
1327.000000	62.047203
1326.000000	62.071043
1325.000000	62.119392
1324.000000	62.144433
1323.000000	62.135535
1322.000000	62.168730
1321.000000	62.172874
1320.000000	62.167244
1319.000000	62.191914
1318.000000	62.215125
1317.000000	62.206157
1316.000000	62.222700
1315.000000	62.232299
1314.000000	62.229419
1313.000000	62.214758
1312.000000	62.256999
1311.000000	62.263142
1310.000000	62.289809
1309.000000	62.279164
1308.000000	62.284479
1307.000000	62.267515
1306.000000	62.295851
1305.000000	62.299440
1304.000000	62.302314
1303.000000	62.289877
1302.000000	62.272420
1301.000000	62.259336
1300.000000	62.247077
1299.000000	62.264812
1298.000000	62.260069
1297.000000	62.248163
1296.000000	62.247473
1295.000000	62.230620
1294.000000	62.227168
1293.000000	62.225468
1292.000000	62.223711
1291.000000	62.210083
1290.000000	62.195862
1289.000000	62.187940
1288.000000	62.179546
1287.000000	62.169788
1286.000000	62.156653
1285.000000	62.149351
1284.000000	62.136107
1283.000000	62.154163
1282.000000	62.111720
1281.000000	62.108347
1280.000000	62.104184
1279.000000	62.083639
1278.000000	62.096240
1277.000000	62.080494
1276.000000	62.095830
1275.000000	62.066522
1274.000000	62.061083
1273.000000	62.060531
1272.000000	62.056478
1271.000000	62.051934
1270.000000	62.053599
1269.000000	62.028962
1268.000000	62.025205
1267.000000	62.047387
1266.000000	62.058984
1265.000000	62.068246
1264.000000	62.084686
1263.000000	62.062242
1262.000000	62.042948
1261.000000	62.056216
1260.000000	62.050077
1259.000000	62.074292
1258.000000	62.057287
1257.000000	62.052949
1256.000000	62.041955
1255.000000	62.020593
1254.000000	62.023748
1253.000000	62.023084
1252.000000	62.009495
1251.000000	62.014172
1250.000000	62.029065
1249.000000	61.987254
1248.000000	61.986418
1247.000000	61.957026
1246.000000	61.937725
1245.000000	61.905968
1244.000000	61.903213
1243.000000	61.866372
1242.000000	61.832897
1241.000000	61.823211
1240.000000	61.808556
1239.000000	61.753290
1238.000000	61.732576
1237.000000	61.687890
1236.000000	61.651471
1235.000000	61.642509
1234.000000	61.618494
1233.000000	61.588640
1232.000000	61.567875
1231.000000	61.522550
1230.000000	61.486284
1229.000000	61.465632
1228.000000	61.458942
1227.000000	61.437739
1226.000000	61.377545
1225.000000	61.362997
1224.000000	61.351764
1223.000000	61.317366
1222.000000	61.304079
1221.000000	61.272489
1220.000000	61.248007
1219.000000	61.238272
1218.000000	61.216875
1217.000000	61.197422
1216.000000	61.176964
1215.000000	61.166398
1214.000000	61.140130
1213.000000	61.121414
1212.000000	61.105064
1211.000000	61.076643
1210.000000	61.047125
1209.000000	61.054300
1208.000000	61.040673
1207.000000	61.004950
1206.000000	60.983770
1205.000000	60.952607
1204.000000	60.912098
1203.000000	60.901092
1202.000000	60.867408
1201.000000	60.845270
1200.000000	60.822794
1199.000000	60.802276
1198.000000	60.753337
1197.000000	60.738497
1196.000000	60.728875
1195.000000	60.696218
1194.000000	60.680702
1193.000000	60.670330
1192.000000	60.656228
1191.000000	60.639429
1190.000000	60.582737
1189.000000	60.531508
1188.000000	60.533827
1187.000000	60.530308
1186.000000	60.520284
1185.000000	60.522484
1184.000000	60.506982
1183.000000	60.517705
1182.000000	60.547163
1181.000000	60.559444
1180.000000	60.568211
1179.000000	60.584063
1178.000000	60.588752
1177.000000	60.609745
1176.000000	60.634276
1175.000000	60.653563
1174.000000	60.695283
1173.000000	60.733758
1172.000000	60.753720
1171.000000	60.776128
1170.000000	60.811527
1169.000000	60.859516
1168.000000	60.893438
1167.000000	60.927942
1166.000000	60.977738
1165.000000	61.007926
1164.000000	61.049524
1163.000000	61.090181
1162.000000	61.118322
1161.000000	61.160375
1160.000000	61.201686
1159.000000	61.240681
1158.000000	61.258363
1157.000000	61.270093
1156.000000	61.315569
1155.000000	61.359431
1154.000000	61.380784
1153.000000	61.420756
1152.000000	61.455017
1151.000000	61.479265
1150.000000	61.509814
1149.000000	61.544984
1148.000000	61.567632
1147.000000	61.588062
1146.000000	61.612227
1145.000000	61.643229
1144.000000	61.663034
1143.000000	61.668478
1142.000000	61.692815
1141.000000	61.693217
1140.000000	61.683224
1139.000000	61.689694
1138.000000	61.718207
1137.000000	61.738566
1136.000000	61.750136
1135.000000	61.765977
1134.000000	61.784759
1133.000000	61.805800
1132.000000	61.812385
1131.000000	61.814065
1130.000000	61.839619
1129.000000	61.844933
1128.000000	61.845665
1127.000000	61.856385
1126.000000	61.840151
1125.000000	61.822955
1124.000000	61.832810
1123.000000	61.843263
1122.000000	61.848731
1121.000000	61.852024
1120.000000	61.845945
1119.000000	61.840827
1118.000000	61.839493
1117.000000	61.817098
1116.000000	61.811279
1115.000000	61.815354
1114.000000	61.808760
1113.000000	61.802298
1112.000000	61.787580
1111.000000	61.780434
1110.000000	61.776126
1109.000000	61.767787
1108.000000	61.764202
1107.000000	61.760613
1106.000000	61.737930
1105.000000	61.731039
1104.000000	61.697723
1103.000000	61.677633
1102.000000	61.683298
1101.000000	61.655239
1100.000000	61.667648
1099.000000	61.660486
1098.000000	61.658751
1097.000000	61.648079
1096.000000	61.587171
1095.000000	61.564643
1094.000000	61.562369
1093.000000	61.542978
1092.000000	61.554132
1091.000000	61.546923
1090.000000	61.544976
1089.000000	61.533770
1088.000000	61.487474
1087.000000	61.477481
1086.000000	61.467167
1085.000000	61.449749
1084.000000	61.448035
1083.000000	61.420862
1082.000000	61.424981
1081.000000	61.383364
1080.000000	61.347530
1079.000000	61.333328
1078.000000	61.341547
1077.000000	61.337322
1076.000000	61.325498
1075.000000	61.269522
1074.000000	61.242306
1073.000000	61.238632
1072.000000	61.204046
1071.000000	61.227944
1070.000000	61.198211
1069.000000	61.190981
1068.000000	61.178617
1067.000000	61.120353
1066.000000	61.098449
1065.000000	61.091843
1064.000000	61.081710
1063.000000	61.067409
1062.000000	61.076411
1061.000000	61.047297
1060.000000	60.986215
1059.000000	60.967002
1058.000000	60.947027
1057.000000	60.950543
1056.000000	60.925663
1055.000000	60.914647
1054.000000	60.876974
1053.000000	60.841919
1052.000000	60.827424
1051.000000	60.822612
1050.000000	60.793379
1049.000000	60.739585
1048.000000	60.726949
1047.000000	60.742743
1046.000000	60.728149
1045.000000	60.672712
1044.000000	60.643350
1043.000000	60.627185
1042.000000	60.625879
1041.000000	60.609258
1040.000000	60.576102
1039.000000	60.553652
1038.000000	60.536469
1037.000000	60.537514
1036.000000	60.500646
1035.000000	60.441477
1034.000000	60.442879
1033.000000	60.441331
1032.000000	60.388084
1031.000000	60.360407
1030.000000	60.366353
1029.000000	60.335716
1028.000000	60.301789
1027.000000	60.280211
1026.000000	60.283429
1025.000000	60.247014
1024.000000	60.227480
1023.000000	60.196105
1022.000000	60.230472
1021.000000	60.164865
1020.000000	60.161293
1019.000000	60.147022
1018.000000	60.081779
1017.000000	60.078295
1016.000000	60.063492
1015.000000	60.024639
1014.000000	60.008525
1013.000000	59.997742
1012.000000	59.946763
1011.000000	59.941458
1010.000000	59.940243
1009.000000	59.889538
1008.000000	59.872306
1007.000000	59.870682
1006.000000	59.833689
1005.000000	59.812828
1004.000000	59.803682
1003.000000	59.748887
1002.000000	59.723452
1001.000000	59.714782
1000.000000	59.699412
999.000000	59.684205
998.000000	59.666392
997.000000	59.653391
996.000000	59.643213
995.000000	59.624702
994.000000	59.598526
993.000000	59.607722
992.000000	59.594285
991.000000	59.574493
990.000000	59.557050
989.000000	59.529656
988.000000	59.520771
987.000000	59.506748
986.000000	59.481297
985.000000	59.462915
984.000000	59.462811
983.000000	59.449946
982.000000	59.438841
981.000000	59.429000
980.000000	59.402976
979.000000	59.379785
978.000000	59.360146
977.000000	59.354470
976.000000	59.331679
975.000000	59.321309
974.000000	59.318701
973.000000	59.287048
972.000000	59.269000
971.000000	59.257614
970.000000	59.240353
969.000000	59.236789
968.000000	59.200965
967.000000	59.184915
966.000000	59.188925
965.000000	59.159782
964.000000	59.137784
963.000000	59.134618
962.000000	59.119774
961.000000	59.094321
960.000000	59.058020
959.000000	59.052754
958.000000	59.036205
957.000000	59.012080
956.000000	58.995814
955.000000	58.975879
954.000000	58.953675
953.000000	58.938353
952.000000	58.918959
951.000000	58.894343
950.000000	58.880953
949.000000	58.842693
948.000000	58.816403
947.000000	58.815206
946.000000	58.791160
945.000000	58.754381
944.000000	58.733982
943.000000	58.710999
942.000000	58.691876
941.000000	58.687587
940.000000	58.654352
939.000000	58.604716
938.000000	58.574030
937.000000	58.547612
936.000000	58.506676
935.000000	58.490429
934.000000	58.469534
933.000000	58.465500
932.000000	58.427308
931.000000	58.363536
930.000000	58.340241
929.000000	58.329179
928.000000	58.305517
927.000000	58.277943
926.000000	58.249545
925.000000	58.233703
924.000000	58.181861
923.000000	58.135872
922.000000	58.112923
921.000000	58.104122
920.000000	58.041888
919.000000	58.011869
918.000000	58.006028
917.000000	57.963432
916.000000	57.938978
915.000000	57.906456
914.000000	57.833935
913.000000	57.822658
912.000000	57.805873
911.000000	57.783184
910.000000	57.775413
909.000000	57.694666
908.000000	57.641997
907.000000	57.627307
906.000000	57.641760
905.000000	57.622736
904.000000	57.554736
903.000000	57.530808
902.000000	57.494194
901.000000	57.466573
900.000000	57.446599
899.000000	57.383576
898.000000	57.348208
897.000000	57.350857
896.000000	57.273849
895.000000	57.216049
894.000000	57.247465
893.000000	57.183405
892.000000	57.182319
891.000000	57.162972
890.000000	57.154040
889.000000	57.148863
888.000000	57.134434
887.000000	57.101319
886.000000	57.021387
885.000000	56.943482
884.000000	56.946525
883.000000	56.897432
882.000000	56.848231
881.000000	56.792938
880.000000	56.821838
879.000000	56.788008
878.000000	56.662026
877.000000	56.575448
876.000000	56.675828
875.000000	56.610322
874.000000	56.584096
873.000000	56.570939
872.000000	56.411138
871.000000	56.290806
870.000000	56.326628
869.000000	56.259639
868.000000	56.351008
867.000000	56.348339
866.000000	56.236408
865.000000	56.156770
864.000000	56.077783
863.000000	55.946841
862.000000	56.041130
861.000000	56.088736
860.000000	55.956882
859.000000	56.460779
858.000000	56.259174
857.000000	56.025161
856.000000	56.150206
855.000000	56.024863
854.000000	56.009316
853.000000	55.962389
852.000000	55.853245
851.000000	56.061863
850.000000	55.881466
849.000000	55.797887
848.000000	55.804733
847.000000	55.656236
846.000000	55.750108
845.000000	55.463936
844.000000	55.390543
843.000000	55.656133
842.000000	55.494818
841.000000	55.250132
840.000000	55.257460
839.000000	55.268328
838.000000	55.140431
837.000000	55.266938
836.000000	54.846149
835.000000	55.167944
834.000000	55.022011
833.000000	55.013714
832.000000	54.985336
831.000000	54.697628
830.000000	54.998808
829.000000	54.720025
828.000000	54.805167
827.000000	54.517665
826.000000	54.576831
825.000000	54.350678
824.000000	54.303787
823.000000	54.339853
822.000000	54.309016
821.000000	54.195017
820.000000	54.017131
819.000000	53.981109
818.000000	54.092011
817.000000	53.966804
816.000000	53.894577
815.000000	53.756039
814.000000	53.681740
813.000000	53.817004
812.000000	53.663309
811.000000	53.393804
810.000000	53.518993
809.000000	53.445155
808.000000	53.353830
807.000000	53.316929
806.000000	53.277478
805.000000	53.247612
804.000000	53.107291
803.000000	53.113731
802.000000	52.833307
801.000000	52.762609
800.000000	52.742803
799.000000	52.703522
798.000000	52.628921
797.000000	52.646112
796.000000	52.518442
795.000000	52.517681
794.000000	52.306963
793.000000	52.356136
792.000000	52.195133
791.000000	52.105482
790.000000	52.006908
789.000000	51.912154
788.000000	51.942393
787.000000	51.771106
786.000000	51.699849
785.000000	51.676901
784.000000	51.520071
783.000000	51.472979
782.000000	51.484778
781.000000	51.349371
780.000000	51.244227
779.000000	51.204428
778.000000	51.116772
777.000000	51.017641
776.000000	50.925019
775.000000	50.840446
774.000000	50.777932
773.000000	50.609126
772.000000	50.518645
771.000000	50.486761
770.000000	50.403969
769.000000	50.331861
768.000000	50.242802
767.000000	50.275433
766.000000	50.247870
765.000000	50.086743
764.000000	49.875356
763.000000	49.785801
762.000000	49.771529
761.000000	49.673590
760.000000	49.615342
759.000000	49.501730
758.000000	49.386030
757.000000	49.218489
756.000000	49.113639
755.000000	49.039115
754.000000	48.949973
753.000000	48.915797
752.000000	48.770521
751.000000	48.671037
750.000000	48.595036
749.000000	48.555759
748.000000	48.407022
747.000000	48.257086
746.000000	48.244012
745.000000	48.106861
744.000000	47.973039
743.000000	47.912576
742.000000	47.785836
741.000000	47.743292
740.000000	47.624288
739.000000	47.531026
738.000000	47.452891
737.000000	47.285064
736.000000	47.197750
735.000000	47.127135
734.000000	46.988562
733.000000	46.895677
732.000000	46.777802
731.000000	46.659541
730.000000	46.535009
729.000000	46.463962
728.000000	46.385551
727.000000	46.278182
726.000000	46.146678
725.000000	46.051577
724.000000	45.973015
723.000000	45.863101
722.000000	45.743100
721.000000	45.611149
720.000000	45.498618
719.000000	45.419825
718.000000	45.298866
717.000000	45.163043
716.000000	45.056951
715.000000	44.935011
714.000000	44.809475
713.000000	44.736104
712.000000	44.652683
711.000000	44.511438
710.000000	44.384163
709.000000	44.260524
708.000000	44.127750
707.000000	44.036866
706.000000	43.925263
705.000000	43.785691
704.000000	43.635542
703.000000	43.515991
702.000000	43.427442
701.000000	43.307317
700.000000	43.178269
699.000000	43.073635
698.000000	42.968450
697.000000	42.867174
696.000000	42.784271
695.000000	42.645311
694.000000	42.496169
693.000000	42.386058
692.000000	42.234006
691.000000	42.063827
690.000000	41.955414
689.000000	41.774763
688.000000	41.591196
687.000000	41.515674
686.000000	41.385630
685.000000	41.278517
684.000000	41.161006
683.000000	41.020816
682.000000	40.907916
681.000000	40.738070
680.000000	40.594583
679.000000	40.493489
678.000000	40.377211
677.000000	40.253561
676.000000	40.116820
675.000000	39.977538
674.000000	39.867758
673.000000	39.712577
672.000000	39.599328
671.000000	39.494937
670.000000	39.359196
669.000000	39.242798
668.000000	39.091356
667.000000	38.959681
666.000000	38.813891
665.000000	38.690160
664.000000	38.557675
663.000000	38.423067
662.000000	38.297385
661.000000	38.160387
660.000000	38.038201
659.000000	37.957632
658.000000	37.812931
657.000000	37.668690
656.000000	37.546991
655.000000	37.404807
654.000000	37.275544
653.000000	37.139802
652.000000	37.014008
651.000000	36.861056
650.000000	36.690670
649.000000	36.625450
648.000000	36.495197
647.000000	36.348765
646.000000	36.177968
645.000000	36.086660
644.000000	35.921531
643.000000	35.793896
642.000000	35.651980
641.000000	35.529742
640.000000	35.389364
639.000000	35.272449
638.000000	35.110543
637.000000	34.997846
636.000000	34.839195
635.000000	34.720548
634.000000	34.576848
633.000000	34.499670
632.000000	34.352470
631.000000	34.221568
630.000000	34.092002
629.000000	33.946459
628.000000	33.798635
627.000000	33.652980
626.000000	33.555459
625.000000	33.398680
624.000000	33.274147
623.000000	33.163079
622.000000	32.989000
621.000000	32.888055
620.000000	32.729031
619.000000	32.594206
618.000000	32.484465
617.000000	32.330977
616.000000	32.219358
615.000000	32.096623
614.000000	31.958754
613.000000	31.825677
612.000000	31.717800
611.000000	31.574290
610.000000	31.462834
609.000000	31.340997
608.000000	31.179728
607.000000	31.075295
606.000000	30.931865
605.000000	30.768813
604.000000	30.648024
603.000000	30.545321
602.000000	30.351343
601.000000	30.248527
600.000000	30.151650
599.000000	30.034804
598.000000	29.871227
597.000000	29.756347
596.000000	29.627218
595.000000	29.467202
594.000000	29.389312
593.000000	29.250051
592.000000	29.112134
591.000000	28.976567
590.000000	28.828828
589.000000	28.738163
588.000000	28.614965
587.000000	28.469538
586.000000	28.358519
585.000000	28.199202
584.000000	28.079394
583.000000	27.943465
582.000000	27.833512
581.000000	27.701259
580.000000	27.545964
579.000000	27.456912
578.000000	27.339070
577.000000	27.223150
576.000000	27.060369
575.000000	26.960216
574.000000	26.799800
573.000000	26.707697
572.000000	26.588764
571.000000	26.465660
570.000000	26.342720
569.000000	26.228712
568.000000	26.108287
567.000000	26.000924
566.000000	25.860648
565.000000	25.781118
564.000000	25.635355
563.000000	25.523769
562.000000	25.397678
561.000000	25.380246
560.000000	25.256648
559.000000	25.133304
558.000000	25.037369
557.000000	24.940877
556.000000	24.851351
555.000000	24.733378
554.000000	24.603759
553.000000	24.507776
552.000000	24.395949
551.000000	24.307374
550.000000	24.193040
549.000000	24.086217
548.000000	23.992814
547.000000	23.884319
546.000000	23.771896
545.000000	23.674854
544.000000	23.571068
543.000000	23.473176
542.000000	23.371266
541.000000	23.288250
540.000000	23.165536
539.000000	23.079447
538.000000	22.974616
537.000000	22.872479
536.000000	22.761551
535.000000	22.652572
534.000000	22.582166
533.000000	22.484724
532.000000	22.381744
531.000000	22.267831
530.000000	22.164628
529.000000	22.092134
528.000000	21.968783
527.000000	21.882869
526.000000	21.785327
525.000000	21.709407
524.000000	21.591587
523.000000	21.489819
522.000000	21.396603
521.000000	21.307479
520.000000	21.207423
519.000000	21.123395
518.000000	21.023085
517.000000	20.936283
516.000000	20.850082
515.000000	20.768776
514.000000	20.688431
513.000000	20.597056
512.000000	20.522850
511.000000	20.427240
510.000000	20.341472
509.000000	20.257601
508.000000	20.171283
507.000000	20.091689
506.000000	19.981190
505.000000	19.889915
504.000000	19.798038
503.000000	19.703083
502.000000	19.614299
501.000000	19.526627
500.000000	19.413788
499.000000	19.320498
498.000000	19.238277
497.000000	19.153698
496.000000	19.053129
495.000000	18.959379
494.000000	18.861642
493.000000	18.733013
492.000000	18.646502
491.000000	18.560097
490.000000	18.466952
489.000000	18.369171
488.000000	18.256143
487.000000	18.160917
486.000000	18.074350
485.000000	17.996691
484.000000	17.910973
483.000000	17.818245
482.000000	17.700368
481.000000	17.603684
480.000000	17.530602
479.000000	17.441588
478.000000	17.352728
477.000000	17.284665
476.000000	17.191441
475.000000	17.094038
474.000000	17.011464
473.000000	16.931841
472.000000	16.841330
471.000000	16.757640
470.000000	16.659239
469.000000	16.570069
468.000000	16.486298
467.000000	16.397375
466.000000	16.313776
465.000000	16.222761
464.000000	16.137060
463.000000	16.048314
462.000000	15.960703
461.000000	15.869365
460.000000	15.787061
459.000000	15.699392
458.000000	15.595559
457.000000	15.501232
456.000000	15.404451
455.000000	15.305087
454.000000	15.203953
453.000000	15.108306
452.000000	15.020394
451.000000	14.924691
450.000000	14.831515
449.000000	14.748465
448.000000	14.629121
447.000000	14.529074
446.000000	14.438475
445.000000	14.339814
444.000000	14.245651
443.000000	14.160523
442.000000	14.064366
441.000000	13.973362
440.000000	13.891992
439.000000	13.786477
438.000000	13.685636
437.000000	13.601395
436.000000	13.513010
435.000000	13.422590
434.000000	13.339687
433.000000	13.246046
432.000000	13.160616
431.000000	13.060678
430.000000	12.975428
429.000000	12.873206
428.000000	12.780545
427.000000	12.693489
426.000000	12.618959
425.000000	12.535038
424.000000	12.442977
423.000000	12.332885
422.000000	12.248055
421.000000	12.164093
420.000000	12.076270
419.000000	11.977654
418.000000	11.886937
417.000000	11.809796
416.000000	11.723955
415.000000	11.626806
414.000000	11.543314
413.000000	11.452995
412.000000	11.360799
411.000000	11.277848
410.000000	11.188275
409.000000	11.085163
408.000000	11.016936
407.000000	10.903254
406.000000	10.814212
405.000000	10.725947
404.000000	10.646110
403.000000	10.555638
402.000000	10.480499
401.000000	10.401034
400.000000	10.316679
399.000000	10.232887
398.000000	10.133843
397.000000	10.051663
396.000000	9.976787
395.000000	9.891099
394.000000	9.796858
393.000000	9.705700
392.000000	9.623212
391.000000	9.541779
390.000000	9.475550
389.000000	9.403070
388.000000	9.308747
387.000000	9.243564
386.000000	9.144571
385.000000	9.084101
384.000000	8.994062
383.000000	8.917050
382.000000	8.848028
381.000000	8.773530
380.000000	8.700287
379.000000	8.622237
378.000000	8.447530
377.000000	8.399911
376.000000	8.351568
375.000000	8.303357
374.000000	8.247499
373.000000	8.155578
372.000000	8.084156
371.000000	8.051870
370.000000	7.971693
369.000000	7.940720
368.000000	7.896337
367.000000	7.867065
366.000000	7.795360
365.000000	7.727718
364.000000	7.660265
363.000000	7.625622
362.000000	7.574463
361.000000	7.572483
360.000000	7.539198
359.000000	7.478880
358.000000	7.435572
357.000000	7.346391
356.000000	7.362954
355.000000	7.298108
354.000000	7.280703
353.000000	7.267474
352.000000	7.206177
351.000000	7.163269
350.000000	7.125450
349.000000	7.162713
348.000000	7.104486
347.000000	7.011415
346.000000	6.971061
345.000000	6.964310
344.000000	6.963098
343.000000	6.912000
342.000000	6.885541
341.000000	6.868026
340.000000	6.845597
339.000000	6.791205
338.000000	6.806549
337.000000	6.763220
336.000000	6.749115
335.000000	6.702850
334.000000	6.666558
333.000000	6.653048
332.000000	6.593127
331.000000	6.595662
330.000000	6.604428
329.000000	6.573473
328.000000	6.539038
327.000000	6.572092
326.000000	6.567843
325.000000	6.467923
324.000000	6.503789
323.000000	6.466925
322.000000	6.514978
321.000000	6.478313
320.000000	6.505950
319.000000	6.519340
318.000000	6.502643
317.000000	6.523596
316.000000	6.534799
315.000000	6.522256
314.000000	6.512061
313.000000	6.491474
312.000000	6.494868
311.000000	6.465938
310.000000	6.518099
309.000000	6.525027
308.000000	6.521581
307.000000	6.532424
306.000000	6.516844
305.000000	6.524858
304.000000	6.546423
303.000000	6.547229
302.000000	6.566129
301.000000	6.580831
300.000000	6.611025
299.000000	6.586503
298.000000	6.621556
297.000000	6.605212
296.000000	6.638653
295.000000	6.673440
294.000000	6.642316
293.000000	6.665895
292.000000	6.721405
291.000000	6.744902
290.000000	6.753804
289.000000	6.758420
288.000000	6.799389
287.000000	6.844876
286.000000	6.833116
285.000000	6.893426
284.000000	6.939486
283.000000	6.980742
282.000000	6.988361
281.000000	7.072068
280.000000	7.108355
279.000000	7.120183
278.000000	7.180397
277.000000	7.229219
276.000000	7.213909
275.000000	7.291849
274.000000	7.360359
273.000000	7.430791
272.000000	7.456764
271.000000	7.486900
270.000000	7.554649
269.000000	7.597802
268.000000	7.626738
267.000000	7.661447
266.000000	7.736283
265.000000	7.786245
264.000000	7.889086
263.000000	7.921651
262.000000	8.006951
261.000000	8.075326
260.000000	8.130510
259.000000	8.214024
258.000000	8.285880
257.000000	8.352823
256.000000	8.436241
255.000000	8.464865
254.000000	8.596093
253.000000	8.729050
252.000000	8.794981
251.000000	8.878943
250.000000	9.055160
249.000000	9.105584
248.000000	9.213621
247.000000	9.361775
246.000000	9.453854
245.000000	9.573787
244.000000	9.729616
243.000000	9.871057
242.000000	9.991695
241.000000	10.051643
240.000000	10.129341
239.000000	10.260921
238.000000	10.414605
237.000000	10.523512
236.000000	10.643068
235.000000	10.728301
234.000000	10.874000
233.000000	10.952385
232.000000	11.091134
231.000000	11.237036
230.000000	11.294498
229.000000	11.439816
228.000000	11.547069
227.000000	11.637801
226.000000	11.793864
225.000000	11.887409
224.000000	12.005933
223.000000	12.134847
222.000000	12.298086
221.000000	12.512718
220.000000	12.692514
219.000000	12.838444
218.000000	13.024359
217.000000	13.279014
216.000000	13.425666
215.000000	13.590967
214.000000	13.808001
213.000000	14.082957
212.000000	14.356748
211.000000	14.576506
210.000000	14.910608
209.000000	15.284800
208.000000	15.628863
207.000000	15.953581
206.000000	16.270248
205.000000	16.705782
204.000000	17.259360
203.000000	17.887784
202.000000	18.730777
201.000000	19.216263
200.000000	19.476763
