PE UV       SUBTECH     SPECTRUM    ASCII       PEDS        4.00        
   -1
RTms499172.Sample.asc
18/03/23
10:30:47.00
18/03/23
10:30:47.00
Administrator

200.000000
1
Lambda 750
750N8071901
PerkinElmer UV WinLab 6.0.4.0738 / 1.61.00 Lambda 900

0
0
3350/servo 860.8/2
0
0
UV/VIS
1
1
1
CommonBeamDepol,150mm sphere / downward view
0
0
0
0
Program
Program
3350/servo 860.8/2
3350/0.2 860.8/0.2
3350/0.2 860.8/0.2
0
1
 
 
 
0
 
860.8
319.2
860.8
Front
100
on
 
 
0
0
0
 
0
 
 
 
0
 
 
0
0
0
0
0
 
 
 
 
0
0


0
0
#HDR
-1
-1
#GR
nm
%R
1.0
0.0
2350.000000
-1.000000
2151
8
55.420581
7.213899
#DATA
2350.000000	31.887265
2349.000000	31.802364
2348.000000	31.874909
2347.000000	32.476109
2346.000000	32.052086
2345.000000	31.754381
2344.000000	31.822196
2343.000000	32.012315
2342.000000	32.037358
2341.000000	32.131392
2340.000000	31.903521
2339.000000	31.880185
2338.000000	32.007535
2337.000000	32.391471
2336.000000	32.406427
2335.000000	32.624498
2334.000000	32.694036
2333.000000	32.658015
2332.000000	32.629718
2331.000000	32.590819
2330.000000	32.534121
2329.000000	32.548755
2328.000000	32.489774
2327.000000	32.348409
2326.000000	32.537784
2325.000000	32.436530
2324.000000	32.362822
2323.000000	32.342032
2322.000000	31.980433
2321.000000	32.173698
2320.000000	32.188881
2319.000000	32.083648
2318.000000	32.048798
2317.000000	31.929489
2316.000000	31.742692
2315.000000	31.720340
2314.000000	31.704956
2313.000000	31.793173
2312.000000	31.577402
2311.000000	31.462640
2310.000000	31.605869
2309.000000	31.469133
2308.000000	31.699741
2307.000000	31.434739
2306.000000	31.204906
2305.000000	31.390680
2304.000000	31.314759
2303.000000	31.409590
2302.000000	31.437997
2301.000000	30.992441
2300.000000	30.916671
2299.000000	31.002395
2298.000000	30.868931
2297.000000	30.753286
2296.000000	30.954877
2295.000000	30.844922
2294.000000	30.911236
2293.000000	30.936131
2292.000000	30.905422
2291.000000	30.711058
2290.000000	30.726534
2289.000000	30.662989
2288.000000	30.731543
2287.000000	30.649018
2286.000000	30.658019
2285.000000	30.850335
2284.000000	30.712562
2283.000000	30.626005
2282.000000	30.552770
2281.000000	30.557820
2280.000000	30.676024
2279.000000	30.729458
2278.000000	30.730547
2277.000000	30.745927
2276.000000	30.687063
2275.000000	30.704618
2274.000000	30.947174
2273.000000	31.059751
2272.000000	31.043376
2271.000000	30.953775
2270.000000	30.959223
2269.000000	31.030084
2268.000000	31.206652
2267.000000	31.390876
2266.000000	31.543855
2265.000000	31.589377
2264.000000	31.653077
2263.000000	31.939775
2262.000000	32.055086
2261.000000	32.105024
2260.000000	32.294265
2259.000000	32.413513
2258.000000	32.485837
2257.000000	32.624787
2256.000000	32.819004
2255.000000	33.013129
2254.000000	33.191257
2253.000000	33.387266
2252.000000	33.533845
2251.000000	33.731509
2250.000000	33.990614
2249.000000	34.124906
2248.000000	34.175247
2247.000000	34.438921
2246.000000	34.579321
2245.000000	34.646028
2244.000000	34.912048
2243.000000	35.179825
2242.000000	35.437287
2241.000000	35.456738
2240.000000	35.460082
2239.000000	35.668261
2238.000000	35.758038
2237.000000	35.868981
2236.000000	35.990354
2235.000000	36.039704
2234.000000	36.242206
2233.000000	36.345908
2232.000000	36.343601
2231.000000	36.373922
2230.000000	36.441387
2229.000000	36.493822
2228.000000	36.445394
2227.000000	36.508802
2226.000000	36.524386
2225.000000	36.388570
2224.000000	36.476693
2223.000000	36.405869
2222.000000	36.306129
2221.000000	36.338770
2220.000000	36.316267
2219.000000	36.319333
2218.000000	36.307173
2217.000000	36.321152
2216.000000	36.374690
2215.000000	36.273870
2214.000000	36.178131
2213.000000	36.272769
2212.000000	36.328878
2211.000000	36.263063
2210.000000	36.137254
2209.000000	35.983958
2208.000000	35.853470
2207.000000	35.816057
2206.000000	35.788437
2205.000000	35.700647
2204.000000	35.680410
2203.000000	35.624926
2202.000000	35.578391
2201.000000	35.439106
2200.000000	35.514475
2199.000000	35.536216
2198.000000	35.537563
2197.000000	35.396987
2196.000000	35.271143
2195.000000	35.097464
2194.000000	35.029916
2193.000000	35.014354
2192.000000	34.936347
2191.000000	34.809889
2190.000000	34.830257
2189.000000	34.838704
2188.000000	34.925975
2187.000000	34.766870
2186.000000	34.714485
2185.000000	34.697671
2184.000000	34.751485
2183.000000	34.737247
2182.000000	34.623053
2181.000000	34.577761
2180.000000	34.595256
2179.000000	34.622744
2178.000000	34.542443
2177.000000	34.576292
2176.000000	34.524833
2175.000000	34.552690
2174.000000	34.686452
2173.000000	34.540389
2172.000000	34.659904
2171.000000	34.668691
2170.000000	34.610991
2169.000000	34.742153
2168.000000	34.918716
2167.000000	34.923014
2166.000000	35.039523
2165.000000	35.137069
2164.000000	35.205916
2163.000000	35.154559
2162.000000	35.338888
2161.000000	35.592764
2160.000000	35.575074
2159.000000	35.628209
2158.000000	35.542319
2157.000000	35.870320
2156.000000	35.999220
2155.000000	35.961997
2154.000000	36.143795
2153.000000	36.360181
2152.000000	36.451352
2151.000000	36.415087
2150.000000	36.486252
2149.000000	36.592993
2148.000000	36.771144
2147.000000	36.955606
2146.000000	37.047828
2145.000000	37.180209
2144.000000	37.164494
2143.000000	37.239263
2142.000000	37.350509
2141.000000	37.549745
2140.000000	37.583077
2139.000000	37.660641
2138.000000	37.888064
2137.000000	38.005276
2136.000000	37.966731
2135.000000	38.101762
2134.000000	38.201339
2133.000000	38.083712
2132.000000	38.096414
2131.000000	38.388147
2130.000000	38.423584
2129.000000	38.255472
2128.000000	38.215150
2127.000000	38.371818
2126.000000	38.357910
2125.000000	38.369117
2124.000000	38.520196
2123.000000	38.354598
2122.000000	38.563970
2121.000000	38.618841
2120.000000	38.503036
2119.000000	38.563784
2118.000000	38.772693
2117.000000	38.763565
2116.000000	38.876295
2115.000000	38.789213
2114.000000	38.720074
2113.000000	38.656244
2112.000000	38.679122
2111.000000	38.697006
2110.000000	38.714468
2109.000000	38.892126
2108.000000	38.875649
2107.000000	38.825195
2106.000000	38.808894
2105.000000	38.808691
2104.000000	38.817324
2103.000000	38.831048
2102.000000	38.873369
2101.000000	38.949530
2100.000000	38.889917
2099.000000	38.847949
2098.000000	38.895850
2097.000000	38.939319
2096.000000	38.924339
2095.000000	38.890706
2094.000000	38.784520
2093.000000	38.861030
2092.000000	38.957418
2091.000000	38.874274
2090.000000	38.854017
2089.000000	38.884723
2088.000000	38.836663
2087.000000	38.836227
2086.000000	38.784896
2085.000000	38.757437
2084.000000	38.623493
2083.000000	38.568020
2082.000000	38.613594
2081.000000	38.621175
2080.000000	38.579864
2079.000000	38.558658
2078.000000	38.497756
2077.000000	38.469702
2076.000000	38.334868
2075.000000	38.194200
2074.000000	38.109511
2073.000000	38.061002
2072.000000	38.040373
2071.000000	37.996527
2070.000000	37.873827
2069.000000	37.771664
2068.000000	37.647408
2067.000000	37.458082
2066.000000	37.311102
2065.000000	37.280979
2064.000000	37.222822
2063.000000	37.059994
2062.000000	37.010535
2061.000000	36.855082
2060.000000	36.714118
2059.000000	36.635640
2058.000000	36.541867
2057.000000	36.379886
2056.000000	36.344133
2055.000000	36.264631
2054.000000	36.091205
2053.000000	35.980600
2052.000000	35.911469
2051.000000	35.790837
2050.000000	35.708121
2049.000000	35.632848
2048.000000	35.560444
2047.000000	35.567323
2046.000000	35.536099
2045.000000	35.478985
2044.000000	35.495398
2043.000000	35.408701
2042.000000	35.409004
2041.000000	35.515855
2040.000000	35.535538
2039.000000	35.499154
2038.000000	35.555898
2037.000000	35.610069
2036.000000	35.611683
2035.000000	35.679177
2034.000000	35.814678
2033.000000	35.952224
2032.000000	36.021623
2031.000000	36.027196
2030.000000	36.086508
2029.000000	36.236436
2028.000000	36.353049
2027.000000	36.415952
2026.000000	36.457726
2025.000000	36.522692
2024.000000	36.577862
2023.000000	36.627638
2022.000000	36.675829
2021.000000	36.680747
2020.000000	36.709455
2019.000000	36.741346
2018.000000	36.730730
2017.000000	36.716439
2016.000000	36.682631
2015.000000	36.685779
2014.000000	36.710014
2013.000000	36.636926
2012.000000	36.574194
2011.000000	36.554126
2010.000000	36.471922
2009.000000	36.357308
2008.000000	36.290203
2007.000000	36.240490
2006.000000	36.188541
2005.000000	36.127472
2004.000000	36.008014
2003.000000	35.919764
2002.000000	35.844601
2001.000000	35.730283
2000.000000	35.624956
1999.000000	35.536084
1998.000000	35.440622
1997.000000	35.345545
1996.000000	35.257696
1995.000000	35.186423
1994.000000	35.059583
1993.000000	34.938045
1992.000000	34.820594
1991.000000	34.698538
1990.000000	34.633084
1989.000000	34.542880
1988.000000	34.446829
1987.000000	34.324428
1986.000000	34.195168
1985.000000	34.096941
1984.000000	34.010613
1983.000000	33.895967
1982.000000	33.785292
1981.000000	33.692131
1980.000000	33.596939
1979.000000	33.448499
1978.000000	33.387657
1977.000000	33.259816
1976.000000	33.170722
1975.000000	33.095219
1974.000000	32.979399
1973.000000	32.901251
1972.000000	32.805814
1971.000000	32.709343
1970.000000	32.592190
1969.000000	32.466773
1968.000000	32.431010
1967.000000	32.352085
1966.000000	32.274143
1965.000000	32.151196
1964.000000	32.047188
1963.000000	31.975308
1962.000000	31.839018
1961.000000	31.755208
1960.000000	31.726565
1959.000000	31.606482
1958.000000	31.573196
1957.000000	31.484172
1956.000000	31.385487
1955.000000	31.316757
1954.000000	31.246066
1953.000000	31.169023
1952.000000	31.109643
1951.000000	31.062628
1950.000000	31.037547
1949.000000	30.946781
1948.000000	30.950420
1947.000000	30.914935
1946.000000	30.902048
1945.000000	30.873912
1944.000000	30.829482
1943.000000	30.888978
1942.000000	30.919439
1941.000000	30.895282
1940.000000	30.975714
1939.000000	31.046525
1938.000000	31.082750
1937.000000	31.084619
1936.000000	31.259792
1935.000000	31.327877
1934.000000	31.341705
1933.000000	31.478315
1932.000000	31.545180
1931.000000	31.683768
1930.000000	31.849347
1929.000000	32.049503
1928.000000	32.212002
1927.000000	32.342198
1926.000000	32.532964
1925.000000	32.727282
1924.000000	32.913624
1923.000000	33.181355
1922.000000	33.462679
1921.000000	33.636970
1920.000000	33.897509
1919.000000	34.112230
1918.000000	34.415693
1917.000000	34.768044
1916.000000	34.963663
1915.000000	35.403556
1914.000000	35.706992
1913.000000	36.104771
1912.000000	36.305602
1911.000000	36.697340
1910.000000	37.140642
1909.000000	37.441286
1908.000000	37.776024
1907.000000	38.257536
1906.000000	38.604704
1905.000000	39.073204
1904.000000	39.447854
1903.000000	39.830632
1902.000000	40.341957
1901.000000	40.713742
1900.000000	41.105633
1899.000000	41.535272
1898.000000	42.031300
1897.000000	42.474096
1896.000000	42.805635
1895.000000	43.230827
1894.000000	43.585173
1893.000000	43.952152
1892.000000	44.372656
1891.000000	44.731201
1890.000000	45.134602
1889.000000	45.429585
1888.000000	45.758639
1887.000000	46.127308
1886.000000	46.409541
1885.000000	46.739096
1884.000000	47.064833
1883.000000	47.323018
1882.000000	47.548313
1881.000000	47.807581
1880.000000	48.081447
1879.000000	48.265916
1878.000000	48.469592
1877.000000	48.643649
1876.000000	48.802690
1875.000000	49.014286
1874.000000	49.175752
1873.000000	49.321403
1872.000000	49.452754
1871.000000	49.567118
1870.000000	49.617743
1869.000000	49.749514
1868.000000	49.892461
1867.000000	49.910154
1866.000000	49.962722
1865.000000	50.016883
1864.000000	50.087276
1863.000000	50.157423
1862.000000	50.190017
1861.000000	50.218303
1860.000000	50.298695
1859.000000	50.338193
1858.000000	50.387827
1857.000000	50.428811
1856.000000	50.431611
1855.000000	50.448379
1854.000000	50.511147
1853.000000	50.498156
1852.000000	50.507533
1851.000000	50.527909
1850.000000	50.537281
1849.000000	50.498296
1848.000000	50.488095
1847.000000	50.490692
1846.000000	50.456770
1845.000000	50.478542
1844.000000	50.459646
1843.000000	50.425694
1842.000000	50.424365
1841.000000	50.396265
1840.000000	50.357610
1839.000000	50.346641
1838.000000	50.300218
1837.000000	50.257139
1836.000000	50.227859
1835.000000	50.201609
1834.000000	50.184762
1833.000000	50.148429
1832.000000	50.093684
1831.000000	50.088502
1830.000000	50.054383
1829.000000	50.014983
1828.000000	49.995784
1827.000000	49.969569
1826.000000	49.948381
1825.000000	49.919666
1824.000000	49.908970
1823.000000	49.867471
1822.000000	49.831950
1821.000000	49.813804
1820.000000	49.797529
1819.000000	49.776041
1818.000000	49.756321
1817.000000	49.733421
1816.000000	49.706764
1815.000000	49.669978
1814.000000	49.628141
1813.000000	49.613970
1812.000000	49.615368
1811.000000	49.601206
1810.000000	49.574755
1809.000000	49.529242
1808.000000	49.485690
1807.000000	49.457634
1806.000000	49.441766
1805.000000	49.436262
1804.000000	49.419992
1803.000000	49.403849
1802.000000	49.367480
1801.000000	49.353362
1800.000000	49.372928
1799.000000	49.349730
1798.000000	49.311592
1797.000000	49.313968
1796.000000	49.302595
1795.000000	49.297118
1794.000000	49.292621
1793.000000	49.284793
1792.000000	49.285956
1791.000000	49.283534
1790.000000	49.260239
1789.000000	49.216318
1788.000000	49.226489
1787.000000	49.235850
1786.000000	49.215639
1785.000000	49.203493
1784.000000	49.192792
1783.000000	49.176521
1782.000000	49.151408
1781.000000	49.127286
1780.000000	49.095923
1779.000000	49.083064
1778.000000	49.040676
1777.000000	48.985051
1776.000000	48.950775
1775.000000	48.917424
1774.000000	48.912234
1773.000000	48.902485
1772.000000	48.840315
1771.000000	48.815300
1770.000000	48.813292
1769.000000	48.765959
1768.000000	48.705494
1767.000000	48.668845
1766.000000	48.651387
1765.000000	48.627252
1764.000000	48.613730
1763.000000	48.562773
1762.000000	48.540398
1761.000000	48.486926
1760.000000	48.450297
1759.000000	48.449316
1758.000000	48.437782
1757.000000	48.385445
1756.000000	48.344734
1755.000000	48.357467
1754.000000	48.315416
1753.000000	48.248093
1752.000000	48.231958
1751.000000	48.224678
1750.000000	48.200046
1749.000000	48.193848
1748.000000	48.124718
1747.000000	48.082155
1746.000000	48.039474
1745.000000	47.990669
1744.000000	47.964160
1743.000000	47.948194
1742.000000	47.899635
1741.000000	47.859811
1740.000000	47.819303
1739.000000	47.772442
1738.000000	47.727048
1737.000000	47.717000
1736.000000	47.691963
1735.000000	47.680360
1734.000000	47.677075
1733.000000	47.668699
1732.000000	47.670865
1731.000000	47.666130
1730.000000	47.685615
1729.000000	47.710581
1728.000000	47.739104
1727.000000	47.793436
1726.000000	47.845587
1725.000000	47.879430
1724.000000	47.920520
1723.000000	47.976920
1722.000000	48.050816
1721.000000	48.121731
1720.000000	48.176518
1719.000000	48.263557
1718.000000	48.290465
1717.000000	48.399927
1716.000000	48.472904
1715.000000	48.495923
1714.000000	48.574849
1713.000000	48.635885
1712.000000	48.695130
1711.000000	48.763566
1710.000000	48.768523
1709.000000	48.803973
1708.000000	48.887505
1707.000000	48.933558
1706.000000	48.957083
1705.000000	48.997417
1704.000000	49.016319
1703.000000	49.020538
1702.000000	49.042962
1701.000000	49.054212
1700.000000	49.071088
1699.000000	49.062150
1698.000000	49.126525
1697.000000	49.123814
1696.000000	49.193505
1695.000000	49.186602
1694.000000	49.218221
1693.000000	49.249828
1692.000000	49.276073
1691.000000	49.323516
1690.000000	49.401187
1689.000000	49.456054
1688.000000	49.507809
1687.000000	49.582966
1686.000000	49.661830
1685.000000	49.742172
1684.000000	49.819014
1683.000000	49.908714
1682.000000	49.989670
1681.000000	50.087805
1680.000000	50.192718
1679.000000	50.277530
1678.000000	50.395594
1677.000000	50.467415
1676.000000	50.563267
1675.000000	50.655218
1674.000000	50.757520
1673.000000	50.858803
1672.000000	50.938722
1671.000000	51.029029
1670.000000	51.124385
1669.000000	51.220197
1668.000000	51.284352
1667.000000	51.361155
1666.000000	51.408657
1665.000000	51.423191
1664.000000	51.483009
1663.000000	51.532531
1662.000000	51.590765
1661.000000	51.628096
1660.000000	51.632980
1659.000000	51.692592
1658.000000	51.721387
1657.000000	51.722577
1656.000000	51.739776
1655.000000	51.758669
1654.000000	51.772257
1653.000000	51.771310
1652.000000	51.774410
1651.000000	51.781505
1650.000000	51.781698
1649.000000	51.765612
1648.000000	51.752958
1647.000000	51.750373
1646.000000	51.746338
1645.000000	51.716701
1644.000000	51.707245
1643.000000	51.699617
1642.000000	51.669113
1641.000000	51.658602
1640.000000	51.650920
1639.000000	51.624353
1638.000000	51.595099
1637.000000	51.594036
1636.000000	51.562964
1635.000000	51.533120
1634.000000	51.512725
1633.000000	51.482429
1632.000000	51.464303
1631.000000	51.430243
1630.000000	51.396430
1629.000000	51.379840
1628.000000	51.350925
1627.000000	51.315824
1626.000000	51.277662
1625.000000	51.263830
1624.000000	51.245216
1623.000000	51.202458
1622.000000	51.165797
1621.000000	51.136016
1620.000000	51.107869
1619.000000	51.073595
1618.000000	51.040789
1617.000000	51.006242
1616.000000	50.962810
1615.000000	50.917937
1614.000000	50.885837
1613.000000	50.864721
1612.000000	50.821628
1611.000000	50.768218
1610.000000	50.730989
1609.000000	50.707670
1608.000000	50.680957
1607.000000	50.643698
1606.000000	50.611524
1605.000000	50.573025
1604.000000	50.522092
1603.000000	50.489396
1602.000000	50.468515
1601.000000	50.422118
1600.000000	50.375461
1599.000000	50.332375
1598.000000	50.304453
1597.000000	50.283141
1596.000000	50.251633
1595.000000	50.213976
1594.000000	50.175515
1593.000000	50.144545
1592.000000	50.117195
1591.000000	50.095536
1590.000000	50.066383
1589.000000	50.026451
1588.000000	49.987842
1587.000000	49.963120
1586.000000	49.947755
1585.000000	49.909056
1584.000000	49.863498
1583.000000	49.836123
1582.000000	49.816809
1581.000000	49.788430
1580.000000	49.765668
1579.000000	49.735184
1578.000000	49.709261
1577.000000	49.683481
1576.000000	49.648463
1575.000000	49.615907
1574.000000	49.583643
1573.000000	49.549668
1572.000000	49.522610
1571.000000	49.497854
1570.000000	49.478011
1569.000000	49.460548
1568.000000	49.428399
1567.000000	49.403681
1566.000000	49.382943
1565.000000	49.365442
1564.000000	49.347550
1563.000000	49.333615
1562.000000	49.293927
1561.000000	49.266747
1560.000000	49.247530
1559.000000	49.227487
1558.000000	49.220265
1557.000000	49.209446
1556.000000	49.186829
1555.000000	49.156489
1554.000000	49.144806
1553.000000	49.133324
1552.000000	49.115613
1551.000000	49.079541
1550.000000	49.053266
1549.000000	49.021823
1548.000000	48.980771
1547.000000	48.961944
1546.000000	48.915025
1545.000000	48.865936
1544.000000	48.807523
1543.000000	48.775421
1542.000000	48.732382
1541.000000	48.683452
1540.000000	48.620753
1539.000000	48.574563
1538.000000	48.513195
1537.000000	48.460393
1536.000000	48.407686
1535.000000	48.345777
1534.000000	48.300712
1533.000000	48.261755
1532.000000	48.205295
1531.000000	48.147817
1530.000000	48.100792
1529.000000	48.051333
1528.000000	47.995716
1527.000000	47.950873
1526.000000	47.920050
1525.000000	47.877922
1524.000000	47.842490
1523.000000	47.796837
1522.000000	47.779372
1521.000000	47.729249
1520.000000	47.708153
1519.000000	47.680870
1518.000000	47.668226
1517.000000	47.619324
1516.000000	47.599131
1515.000000	47.605647
1514.000000	47.614228
1513.000000	47.613666
1512.000000	47.617870
1511.000000	47.577576
1510.000000	47.539593
1509.000000	47.514469
1508.000000	47.482661
1507.000000	47.461226
1506.000000	47.428370
1505.000000	47.418781
1504.000000	47.394626
1503.000000	47.394189
1502.000000	47.389299
1501.000000	47.374675
1500.000000	47.372871
1499.000000	47.369792
1498.000000	47.353828
1497.000000	47.361744
1496.000000	47.352252
1495.000000	47.363908
1494.000000	47.369610
1493.000000	47.364180
1492.000000	47.367452
1491.000000	47.379696
1490.000000	47.370964
1489.000000	47.405154
1488.000000	47.412388
1487.000000	47.431576
1486.000000	47.457470
1485.000000	47.447846
1484.000000	47.472682
1483.000000	47.488012
1482.000000	47.514637
1481.000000	47.532371
1480.000000	47.548922
1479.000000	47.562170
1478.000000	47.593918
1477.000000	47.586301
1476.000000	47.607185
1475.000000	47.590821
1474.000000	47.629129
1473.000000	47.647548
1472.000000	47.637407
1471.000000	47.668932
1470.000000	47.700462
1469.000000	47.707652
1468.000000	47.727774
1467.000000	47.763250
1466.000000	47.788957
1465.000000	47.817537
1464.000000	47.805878
1463.000000	47.824633
1462.000000	47.872314
1461.000000	47.906650
1460.000000	47.895594
1459.000000	47.912681
1458.000000	47.932731
1457.000000	47.968288
1456.000000	48.009158
1455.000000	48.034964
1454.000000	48.069620
1453.000000	48.105589
1452.000000	48.152527
1451.000000	48.197987
1450.000000	48.218951
1449.000000	48.254864
1448.000000	48.312601
1447.000000	48.344691
1446.000000	48.398093
1445.000000	48.456119
1444.000000	48.505489
1443.000000	48.540724
1442.000000	48.597037
1441.000000	48.645061
1440.000000	48.718009
1439.000000	48.776060
1438.000000	48.853447
1437.000000	48.925401
1436.000000	48.983010
1435.000000	49.059049
1434.000000	49.137389
1433.000000	49.234893
1432.000000	49.314822
1431.000000	49.404951
1430.000000	49.486119
1429.000000	49.569737
1428.000000	49.672186
1427.000000	49.763988
1426.000000	49.873131
1425.000000	49.976834
1424.000000	50.090880
1423.000000	50.189646
1422.000000	50.293336
1421.000000	50.402565
1420.000000	50.516015
1419.000000	50.644195
1418.000000	50.772531
1417.000000	50.878894
1416.000000	51.004155
1415.000000	51.140227
1414.000000	51.265958
1413.000000	51.405143
1412.000000	51.536765
1411.000000	51.657200
1410.000000	51.767789
1409.000000	51.886986
1408.000000	52.017268
1407.000000	52.130364
1406.000000	52.233024
1405.000000	52.330526
1404.000000	52.440364
1403.000000	52.557063
1402.000000	52.675361
1401.000000	52.780187
1400.000000	52.878539
1399.000000	52.977300
1398.000000	53.063778
1397.000000	53.151323
1396.000000	53.244747
1395.000000	53.339749
1394.000000	53.424340
1393.000000	53.485174
1392.000000	53.547854
1391.000000	53.628887
1390.000000	53.699906
1389.000000	53.764810
1388.000000	53.828736
1387.000000	53.877645
1386.000000	53.921333
1385.000000	53.977743
1384.000000	54.038264
1383.000000	54.074837
1382.000000	54.113512
1381.000000	54.175873
1380.000000	54.231243
1379.000000	54.269630
1378.000000	54.304876
1377.000000	54.328482
1376.000000	54.346673
1375.000000	54.366757
1374.000000	54.410511
1373.000000	54.465822
1372.000000	54.489369
1371.000000	54.489300
1370.000000	54.515096
1369.000000	54.531758
1368.000000	54.547903
1367.000000	54.569270
1366.000000	54.592884
1365.000000	54.618083
1364.000000	54.627340
1363.000000	54.644461
1362.000000	54.680571
1361.000000	54.704845
1360.000000	54.702754
1359.000000	54.704253
1358.000000	54.725452
1357.000000	54.779655
1356.000000	54.789501
1355.000000	54.788161
1354.000000	54.826022
1353.000000	54.871544
1352.000000	54.884674
1351.000000	54.892105
1350.000000	54.910436
1349.000000	54.945267
1348.000000	54.976382
1347.000000	54.996891
1346.000000	55.007787
1345.000000	55.020974
1344.000000	55.066822
1343.000000	55.092035
1342.000000	55.109213
1341.000000	55.116128
1340.000000	55.130290
1339.000000	55.161916
1338.000000	55.187420
1337.000000	55.194500
1336.000000	55.205356
1335.000000	55.220631
1334.000000	55.235343
1333.000000	55.264640
1332.000000	55.287894
1331.000000	55.261391
1330.000000	55.270011
1329.000000	55.306724
1328.000000	55.304712
1327.000000	55.303731
1326.000000	55.298718
1325.000000	55.305937
1324.000000	55.320094
1323.000000	55.313021
1322.000000	55.336493
1321.000000	55.349966
1320.000000	55.345693
1319.000000	55.345264
1318.000000	55.359065
1317.000000	55.344831
1316.000000	55.357578
1315.000000	55.360510
1314.000000	55.360583
1313.000000	55.347444
1312.000000	55.375820
1311.000000	55.382681
1310.000000	55.381283
1309.000000	55.387952
1308.000000	55.380386
1307.000000	55.390420
1306.000000	55.420581
1305.000000	55.396756
1304.000000	55.397586
1303.000000	55.397165
1302.000000	55.393678
1301.000000	55.391871
1300.000000	55.388158
1299.000000	55.403315
1298.000000	55.397110
1297.000000	55.401153
1296.000000	55.403820
1295.000000	55.387404
1294.000000	55.396242
1293.000000	55.380732
1292.000000	55.410354
1291.000000	55.385445
1290.000000	55.385181
1289.000000	55.372078
1288.000000	55.376214
1287.000000	55.376631
1286.000000	55.365048
1285.000000	55.366834
1284.000000	55.350766
1283.000000	55.359382
1282.000000	55.319527
1281.000000	55.326467
1280.000000	55.309557
1279.000000	55.302806
1278.000000	55.315295
1277.000000	55.295287
1276.000000	55.314380
1275.000000	55.284575
1274.000000	55.269947
1273.000000	55.263793
1272.000000	55.266098
1271.000000	55.262259
1270.000000	55.258991
1269.000000	55.258221
1268.000000	55.255874
1267.000000	55.254256
1266.000000	55.267257
1265.000000	55.269831
1264.000000	55.276376
1263.000000	55.268604
1262.000000	55.238897
1261.000000	55.258213
1260.000000	55.250607
1259.000000	55.260832
1258.000000	55.254085
1257.000000	55.251810
1256.000000	55.247665
1255.000000	55.237384
1254.000000	55.233533
1253.000000	55.245582
1252.000000	55.240230
1251.000000	55.240910
1250.000000	55.261392
1249.000000	55.256586
1248.000000	55.241147
1247.000000	55.220716
1246.000000	55.218749
1245.000000	55.198612
1244.000000	55.183159
1243.000000	55.192956
1242.000000	55.171722
1241.000000	55.168365
1240.000000	55.159790
1239.000000	55.139294
1238.000000	55.116530
1237.000000	55.096516
1236.000000	55.072691
1235.000000	55.060380
1234.000000	55.062098
1233.000000	55.040482
1232.000000	55.031637
1231.000000	55.001038
1230.000000	54.980325
1229.000000	54.975969
1228.000000	54.977680
1227.000000	54.956723
1226.000000	54.898348
1225.000000	54.891072
1224.000000	54.872845
1223.000000	54.869721
1222.000000	54.859243
1221.000000	54.828033
1220.000000	54.812731
1219.000000	54.794681
1218.000000	54.780719
1217.000000	54.766890
1216.000000	54.749053
1215.000000	54.747295
1214.000000	54.727935
1213.000000	54.705740
1212.000000	54.675670
1211.000000	54.673765
1210.000000	54.657427
1209.000000	54.629111
1208.000000	54.619867
1207.000000	54.609988
1206.000000	54.616739
1205.000000	54.579722
1204.000000	54.548615
1203.000000	54.532089
1202.000000	54.534218
1201.000000	54.532075
1200.000000	54.517726
1199.000000	54.511110
1198.000000	54.483782
1197.000000	54.483045
1196.000000	54.475710
1195.000000	54.457242
1194.000000	54.456882
1193.000000	54.459047
1192.000000	54.451713
1191.000000	54.441904
1190.000000	54.399936
1189.000000	54.354809
1188.000000	54.366388
1187.000000	54.374005
1186.000000	54.364167
1185.000000	54.350987
1184.000000	54.351406
1183.000000	54.359450
1182.000000	54.367586
1181.000000	54.383968
1180.000000	54.387336
1179.000000	54.410619
1178.000000	54.420589
1177.000000	54.428885
1176.000000	54.448939
1175.000000	54.467753
1174.000000	54.493127
1173.000000	54.513063
1172.000000	54.521879
1171.000000	54.531553
1170.000000	54.547858
1169.000000	54.568980
1168.000000	54.588737
1167.000000	54.624728
1166.000000	54.658205
1165.000000	54.674088
1164.000000	54.695349
1163.000000	54.733597
1162.000000	54.748586
1161.000000	54.756976
1160.000000	54.799153
1159.000000	54.817305
1158.000000	54.825027
1157.000000	54.837686
1156.000000	54.856440
1155.000000	54.883948
1154.000000	54.903026
1153.000000	54.930659
1152.000000	54.944391
1151.000000	54.951597
1150.000000	54.970946
1149.000000	54.999008
1148.000000	55.024101
1147.000000	55.036550
1146.000000	55.053601
1145.000000	55.072830
1144.000000	55.075421
1143.000000	55.086151
1142.000000	55.100601
1141.000000	55.082920
1140.000000	55.090665
1139.000000	55.098724
1138.000000	55.104149
1137.000000	55.123863
1136.000000	55.131501
1135.000000	55.154369
1134.000000	55.188133
1133.000000	55.190632
1132.000000	55.185171
1131.000000	55.198197
1130.000000	55.199235
1129.000000	55.201100
1128.000000	55.189532
1127.000000	55.185734
1126.000000	55.182034
1125.000000	55.186342
1124.000000	55.194544
1123.000000	55.200184
1122.000000	55.204225
1121.000000	55.197210
1120.000000	55.190935
1119.000000	55.192493
1118.000000	55.201557
1117.000000	55.182413
1116.000000	55.185353
1115.000000	55.196444
1114.000000	55.185702
1113.000000	55.169031
1112.000000	55.165472
1111.000000	55.161299
1110.000000	55.168852
1109.000000	55.165956
1108.000000	55.145839
1107.000000	55.147562
1106.000000	55.154867
1105.000000	55.115786
1104.000000	55.104051
1103.000000	55.121642
1102.000000	55.112316
1101.000000	55.108074
1100.000000	55.116903
1099.000000	55.103365
1098.000000	55.110765
1097.000000	55.105368
1096.000000	55.066170
1095.000000	55.046231
1094.000000	55.058949
1093.000000	55.053062
1092.000000	55.058180
1091.000000	55.059126
1090.000000	55.064511
1089.000000	55.048349
1088.000000	55.021578
1087.000000	55.013426
1086.000000	55.009807
1085.000000	55.009440
1084.000000	55.005743
1083.000000	54.998627
1082.000000	54.972196
1081.000000	54.970485
1080.000000	54.950694
1079.000000	54.940286
1078.000000	54.948671
1077.000000	54.946977
1076.000000	54.951168
1075.000000	54.922410
1074.000000	54.903061
1073.000000	54.906822
1072.000000	54.890827
1071.000000	54.888752
1070.000000	54.887458
1069.000000	54.888543
1068.000000	54.871668
1067.000000	54.846504
1066.000000	54.831990
1065.000000	54.846241
1064.000000	54.832015
1063.000000	54.839778
1062.000000	54.842358
1061.000000	54.799074
1060.000000	54.781162
1059.000000	54.765494
1058.000000	54.771004
1057.000000	54.775966
1056.000000	54.770998
1055.000000	54.722731
1054.000000	54.740280
1053.000000	54.737842
1052.000000	54.729973
1051.000000	54.727987
1050.000000	54.690324
1049.000000	54.682046
1048.000000	54.664544
1047.000000	54.679163
1046.000000	54.672498
1045.000000	54.647252
1044.000000	54.649022
1043.000000	54.615326
1042.000000	54.627760
1041.000000	54.620617
1040.000000	54.621531
1039.000000	54.602245
1038.000000	54.605363
1037.000000	54.605814
1036.000000	54.589335
1035.000000	54.563350
1034.000000	54.567593
1033.000000	54.560047
1032.000000	54.533848
1031.000000	54.527687
1030.000000	54.542700
1029.000000	54.533901
1028.000000	54.507298
1027.000000	54.501965
1026.000000	54.510042
1025.000000	54.490054
1024.000000	54.477536
1023.000000	54.464015
1022.000000	54.480876
1021.000000	54.449719
1020.000000	54.457199
1019.000000	54.464182
1018.000000	54.411221
1017.000000	54.428830
1016.000000	54.424394
1015.000000	54.404004
1014.000000	54.391604
1013.000000	54.397051
1012.000000	54.389021
1011.000000	54.399515
1010.000000	54.389374
1009.000000	54.371230
1008.000000	54.365605
1007.000000	54.372417
1006.000000	54.358393
1005.000000	54.356203
1004.000000	54.345162
1003.000000	54.321680
1002.000000	54.325984
1001.000000	54.321630
1000.000000	54.299958
999.000000	54.306088
998.000000	54.311566
997.000000	54.304391
996.000000	54.291998
995.000000	54.298635
994.000000	54.303514
993.000000	54.291705
992.000000	54.273241
991.000000	54.272698
990.000000	54.264407
989.000000	54.249359
988.000000	54.247342
987.000000	54.246072
986.000000	54.224000
985.000000	54.219324
984.000000	54.214924
983.000000	54.210832
982.000000	54.198118
981.000000	54.184444
980.000000	54.187761
979.000000	54.183933
978.000000	54.183759
977.000000	54.180644
976.000000	54.166675
975.000000	54.140283
974.000000	54.141892
973.000000	54.126605
972.000000	54.118181
971.000000	54.111362
970.000000	54.104925
969.000000	54.101080
968.000000	54.077618
967.000000	54.063765
966.000000	54.072331
965.000000	54.053130
964.000000	54.051003
963.000000	54.059023
962.000000	54.049664
961.000000	54.027808
960.000000	53.999205
959.000000	54.000599
958.000000	53.975627
957.000000	53.956926
956.000000	53.967696
955.000000	53.958824
954.000000	53.955580
953.000000	53.954430
952.000000	53.951421
951.000000	53.925971
950.000000	53.897330
949.000000	53.888601
948.000000	53.882442
947.000000	53.888054
946.000000	53.878390
945.000000	53.862095
944.000000	53.847574
943.000000	53.816514
942.000000	53.797868
941.000000	53.802340
940.000000	53.778825
939.000000	53.743544
938.000000	53.726790
937.000000	53.725615
936.000000	53.717168
935.000000	53.701594
934.000000	53.695386
933.000000	53.688592
932.000000	53.662602
931.000000	53.644654
930.000000	53.633664
929.000000	53.629629
928.000000	53.591651
927.000000	53.555434
926.000000	53.574787
925.000000	53.584158
924.000000	53.557072
923.000000	53.516028
922.000000	53.520798
921.000000	53.509808
920.000000	53.473247
919.000000	53.477355
918.000000	53.454494
917.000000	53.454014
916.000000	53.436701
915.000000	53.406610
914.000000	53.406486
913.000000	53.380181
912.000000	53.362673
911.000000	53.325708
910.000000	53.345015
909.000000	53.347869
908.000000	53.331733
907.000000	53.307292
906.000000	53.301604
905.000000	53.269410
904.000000	53.254118
903.000000	53.249112
902.000000	53.251112
901.000000	53.228349
900.000000	53.192925
899.000000	53.177580
898.000000	53.167227
897.000000	53.138931
896.000000	53.101484
895.000000	53.085760
894.000000	53.085891
893.000000	53.053155
892.000000	53.054953
891.000000	53.049834
890.000000	53.002828
889.000000	53.029377
888.000000	53.038294
887.000000	53.015297
886.000000	52.955022
885.000000	52.925156
884.000000	52.901604
883.000000	52.803125
882.000000	52.829977
881.000000	52.829806
880.000000	52.823816
879.000000	52.797724
878.000000	52.741278
877.000000	52.730174
876.000000	52.722084
875.000000	52.702568
874.000000	52.697595
873.000000	52.617827
872.000000	52.681664
871.000000	52.568232
870.000000	52.504161
869.000000	52.571358
868.000000	52.446458
867.000000	52.488246
866.000000	52.499598
865.000000	52.484983
864.000000	52.429189
863.000000	52.414507
862.000000	52.381715
861.000000	52.319925
860.000000	52.345479
859.000000	51.463869
858.000000	51.545507
857.000000	51.864490
856.000000	51.736109
855.000000	51.415652
854.000000	51.606501
853.000000	51.369789
852.000000	51.257814
851.000000	51.456910
850.000000	51.225350
849.000000	51.276207
848.000000	51.296420
847.000000	51.262341
846.000000	51.305853
845.000000	51.042350
844.000000	50.963355
843.000000	51.225684
842.000000	51.248120
841.000000	50.992791
840.000000	51.198579
839.000000	51.115021
838.000000	51.009275
837.000000	51.097590
836.000000	50.747700
835.000000	50.952200
834.000000	50.877918
833.000000	51.047026
832.000000	50.985548
831.000000	50.698053
830.000000	50.903442
829.000000	50.820703
828.000000	50.665850
827.000000	50.683092
826.000000	50.593383
825.000000	50.536890
824.000000	50.595742
823.000000	50.613295
822.000000	50.746514
821.000000	50.485331
820.000000	50.442535
819.000000	50.473417
818.000000	50.334700
817.000000	50.274524
816.000000	50.315677
815.000000	50.447933
814.000000	50.213721
813.000000	50.286438
812.000000	50.294075
811.000000	50.119857
810.000000	50.165328
809.000000	50.150962
808.000000	50.012722
807.000000	50.006923
806.000000	49.975171
805.000000	50.064640
804.000000	50.074133
803.000000	49.887312
802.000000	49.860492
801.000000	49.768775
800.000000	49.779519
799.000000	49.684591
798.000000	49.711405
797.000000	49.713080
796.000000	49.632133
795.000000	49.713792
794.000000	49.597541
793.000000	49.585124
792.000000	49.503693
791.000000	49.504060
790.000000	49.488976
789.000000	49.364980
788.000000	49.385070
787.000000	49.327219
786.000000	49.288376
785.000000	49.326366
784.000000	49.245880
783.000000	49.191378
782.000000	49.122930
781.000000	49.109525
780.000000	49.047683
779.000000	49.013619
778.000000	49.004312
777.000000	48.995669
776.000000	48.848380
775.000000	48.773524
774.000000	48.816152
773.000000	48.777373
772.000000	48.685645
771.000000	48.629041
770.000000	48.673236
769.000000	48.542105
768.000000	48.503319
767.000000	48.550859
766.000000	48.516102
765.000000	48.400070
764.000000	48.383674
763.000000	48.354244
762.000000	48.343236
761.000000	48.240529
760.000000	48.188012
759.000000	48.143288
758.000000	48.064409
757.000000	48.009148
756.000000	47.956233
755.000000	47.916926
754.000000	47.902157
753.000000	47.863097
752.000000	47.825789
751.000000	47.759505
750.000000	47.657460
749.000000	47.683116
748.000000	47.608929
747.000000	47.546496
746.000000	47.487425
745.000000	47.459461
744.000000	47.391088
743.000000	47.343765
742.000000	47.249636
741.000000	47.252216
740.000000	47.240139
739.000000	47.188556
738.000000	47.102589
737.000000	47.023809
736.000000	46.966528
735.000000	46.937041
734.000000	46.878943
733.000000	46.856569
732.000000	46.809390
731.000000	46.698144
730.000000	46.631812
729.000000	46.593226
728.000000	46.571487
727.000000	46.534507
726.000000	46.443729
725.000000	46.380692
724.000000	46.332178
723.000000	46.230711
722.000000	46.173535
721.000000	46.150312
720.000000	46.102721
719.000000	46.028267
718.000000	45.954449
717.000000	45.890930
716.000000	45.854352
715.000000	45.801656
714.000000	45.730468
713.000000	45.700488
712.000000	45.686168
711.000000	45.591086
710.000000	45.486006
709.000000	45.444467
708.000000	45.418532
707.000000	45.357572
706.000000	45.255972
705.000000	45.190408
704.000000	45.131862
703.000000	45.048715
702.000000	44.980653
701.000000	44.931907
700.000000	44.859677
699.000000	44.769805
698.000000	44.716636
697.000000	44.675562
696.000000	44.608226
695.000000	44.528277
694.000000	44.511283
693.000000	44.458863
692.000000	44.336560
691.000000	44.217059
690.000000	44.174938
689.000000	44.126318
688.000000	43.997842
687.000000	43.903765
686.000000	43.814325
685.000000	43.723286
684.000000	43.681678
683.000000	43.620566
682.000000	43.575316
681.000000	43.469832
680.000000	43.383000
679.000000	43.353138
678.000000	43.267479
677.000000	43.189048
676.000000	43.117808
675.000000	43.064608
674.000000	43.013979
673.000000	42.945003
672.000000	42.873385
671.000000	42.751803
670.000000	42.679733
669.000000	42.659255
668.000000	42.563513
667.000000	42.461888
666.000000	42.395651
665.000000	42.356440
664.000000	42.247186
663.000000	42.166156
662.000000	42.126465
661.000000	42.054027
660.000000	41.964100
659.000000	41.891129
658.000000	41.793313
657.000000	41.747238
656.000000	41.642086
655.000000	41.606349
654.000000	41.538167
653.000000	41.442048
652.000000	41.399007
651.000000	41.291073
650.000000	41.188306
649.000000	41.092127
648.000000	41.038388
647.000000	40.964088
646.000000	40.849742
645.000000	40.806142
644.000000	40.693135
643.000000	40.611717
642.000000	40.509097
641.000000	40.465860
640.000000	40.387915
639.000000	40.298580
638.000000	40.231516
637.000000	40.139480
636.000000	40.041083
635.000000	39.955630
634.000000	39.832558
633.000000	39.806572
632.000000	39.737832
631.000000	39.647887
630.000000	39.571658
629.000000	39.472999
628.000000	39.355732
627.000000	39.305208
626.000000	39.218442
625.000000	39.136204
624.000000	39.021990
623.000000	38.941809
622.000000	38.829273
621.000000	38.789687
620.000000	38.709587
619.000000	38.605651
618.000000	38.535412
617.000000	38.399847
616.000000	38.319953
615.000000	38.268100
614.000000	38.162011
613.000000	38.058914
612.000000	37.965085
611.000000	37.891189
610.000000	37.822457
609.000000	37.701868
608.000000	37.594832
607.000000	37.485150
606.000000	37.411099
605.000000	37.306158
604.000000	37.203972
603.000000	37.136933
602.000000	36.999956
601.000000	36.909582
600.000000	36.834882
599.000000	36.748096
598.000000	36.656499
597.000000	36.531139
596.000000	36.399414
595.000000	36.277738
594.000000	36.255191
593.000000	36.127841
592.000000	36.043340
591.000000	35.981796
590.000000	35.833686
589.000000	35.751717
588.000000	35.638564
587.000000	35.522277
586.000000	35.444673
585.000000	35.307320
584.000000	35.235259
583.000000	35.135331
582.000000	35.001052
581.000000	34.886151
580.000000	34.779737
579.000000	34.721816
578.000000	34.595358
577.000000	34.492959
576.000000	34.381584
575.000000	34.302574
574.000000	34.142319
573.000000	34.055694
572.000000	33.967033
571.000000	33.850566
570.000000	33.747522
569.000000	33.649531
568.000000	33.500722
567.000000	33.436144
566.000000	33.332142
565.000000	33.234595
564.000000	33.092646
563.000000	33.018978
562.000000	32.856330
561.000000	32.776709
560.000000	32.639877
559.000000	32.552447
558.000000	32.445613
557.000000	32.337065
556.000000	32.250300
555.000000	32.115803
554.000000	31.986854
553.000000	31.898973
552.000000	31.781427
551.000000	31.688355
550.000000	31.581093
549.000000	31.460800
548.000000	31.360552
547.000000	31.253674
546.000000	31.154653
545.000000	31.040597
544.000000	30.915609
543.000000	30.812277
542.000000	30.713422
541.000000	30.609694
540.000000	30.491424
539.000000	30.394862
538.000000	30.272993
537.000000	30.156456
536.000000	30.030566
535.000000	29.913960
534.000000	29.815092
533.000000	29.728341
532.000000	29.589938
531.000000	29.471059
530.000000	29.370842
529.000000	29.269556
528.000000	29.144021
527.000000	29.027774
526.000000	28.933594
525.000000	28.820643
524.000000	28.707275
523.000000	28.579475
522.000000	28.473584
521.000000	28.381924
520.000000	28.269834
519.000000	28.137424
518.000000	28.024240
517.000000	27.935237
516.000000	27.812090
515.000000	27.728786
514.000000	27.629663
513.000000	27.511953
512.000000	27.395930
511.000000	27.300256
510.000000	27.195553
509.000000	27.097330
508.000000	26.983227
507.000000	26.885455
506.000000	26.785429
505.000000	26.676292
504.000000	26.563326
503.000000	26.467047
502.000000	26.370487
501.000000	26.232481
500.000000	26.119423
499.000000	26.016722
498.000000	25.880195
497.000000	25.790946
496.000000	25.671191
495.000000	25.541788
494.000000	25.427624
493.000000	25.298091
492.000000	25.161196
491.000000	25.043483
490.000000	24.935739
489.000000	24.835503
488.000000	24.705477
487.000000	24.594506
486.000000	24.462681
485.000000	24.350343
484.000000	24.228873
483.000000	24.094835
482.000000	23.982663
481.000000	23.857027
480.000000	23.765329
479.000000	23.691931
478.000000	23.614088
477.000000	23.512720
476.000000	23.390289
475.000000	23.276700
474.000000	23.182271
473.000000	23.089615
472.000000	22.975718
471.000000	22.865374
470.000000	22.756528
469.000000	22.650764
468.000000	22.548387
467.000000	22.458625
466.000000	22.357592
465.000000	22.248201
464.000000	22.133322
463.000000	22.023459
462.000000	21.919081
461.000000	21.799171
460.000000	21.687055
459.000000	21.558742
458.000000	21.428388
457.000000	21.322726
456.000000	21.185711
455.000000	21.053925
454.000000	20.952067
453.000000	20.845456
452.000000	20.711842
451.000000	20.570457
450.000000	20.448413
449.000000	20.337053
448.000000	20.200188
447.000000	20.083722
446.000000	19.962756
445.000000	19.817036
444.000000	19.722846
443.000000	19.631282
442.000000	19.481942
441.000000	19.359559
440.000000	19.266011
439.000000	19.158550
438.000000	19.046356
437.000000	18.935881
436.000000	18.808162
435.000000	18.711390
434.000000	18.599012
433.000000	18.458237
432.000000	18.345383
431.000000	18.242438
430.000000	18.124071
429.000000	18.001932
428.000000	17.875496
427.000000	17.750165
426.000000	17.632444
425.000000	17.528784
424.000000	17.412751
423.000000	17.268766
422.000000	17.145732
421.000000	17.047709
420.000000	16.925424
419.000000	16.788234
418.000000	16.667653
417.000000	16.554098
416.000000	16.402553
415.000000	16.254791
414.000000	16.151968
413.000000	16.031021
412.000000	15.902690
411.000000	15.767139
410.000000	15.630625
409.000000	15.509502
408.000000	15.388771
407.000000	15.256677
406.000000	15.113676
405.000000	14.960314
404.000000	14.860504
403.000000	14.711972
402.000000	14.591269
401.000000	14.470704
400.000000	14.317862
399.000000	14.202233
398.000000	14.067715
397.000000	13.935422
396.000000	13.820131
395.000000	13.691195
394.000000	13.572864
393.000000	13.406740
392.000000	13.286565
391.000000	13.144818
390.000000	13.043828
389.000000	12.923647
388.000000	12.805274
387.000000	12.650330
386.000000	12.515088
385.000000	12.401149
384.000000	12.294311
383.000000	12.150962
382.000000	12.047839
381.000000	11.918271
380.000000	11.766045
379.000000	11.656700
378.000000	11.449709
377.000000	11.359508
376.000000	11.259291
375.000000	11.185523
374.000000	11.061692
373.000000	10.985693
372.000000	10.886767
371.000000	10.772257
370.000000	10.655010
369.000000	10.552619
368.000000	10.497416
367.000000	10.378085
366.000000	10.284634
365.000000	10.209800
364.000000	10.108787
363.000000	10.048490
362.000000	9.969092
361.000000	9.853376
360.000000	9.777435
359.000000	9.719453
358.000000	9.681507
357.000000	9.583250
356.000000	9.491548
355.000000	9.474979
354.000000	9.333558
353.000000	9.318026
352.000000	9.219813
351.000000	9.162770
350.000000	9.105104
349.000000	9.038305
348.000000	8.969548
347.000000	8.924619
346.000000	8.831001
345.000000	8.749208
344.000000	8.734041
343.000000	8.615911
342.000000	8.625300
341.000000	8.532140
340.000000	8.483313
339.000000	8.384177
338.000000	8.324070
337.000000	8.290903
336.000000	8.269650
335.000000	8.142951
334.000000	8.067883
333.000000	8.029204
332.000000	7.989408
331.000000	7.936324
330.000000	7.869864
329.000000	7.869306
328.000000	7.765360
327.000000	7.765385
326.000000	7.781698
325.000000	7.667768
324.000000	7.667564
323.000000	7.565161
322.000000	7.563527
321.000000	7.522276
320.000000	7.502857
319.000000	7.447751
318.000000	7.530122
317.000000	7.442999
316.000000	7.420986
315.000000	7.427002
314.000000	7.403736
313.000000	7.369846
312.000000	7.359198
311.000000	7.318157
310.000000	7.328579
309.000000	7.329408
308.000000	7.275382
307.000000	7.266660
306.000000	7.245718
305.000000	7.258528
304.000000	7.253242
303.000000	7.226461
302.000000	7.249062
301.000000	7.213899
300.000000	7.256843
299.000000	7.295843
298.000000	7.248271
297.000000	7.242185
296.000000	7.224850
295.000000	7.256982
294.000000	7.284474
293.000000	7.288853
292.000000	7.302626
291.000000	7.305106
290.000000	7.307050
289.000000	7.385518
288.000000	7.378438
287.000000	7.400840
286.000000	7.464691
285.000000	7.486104
284.000000	7.488369
283.000000	7.566050
282.000000	7.633203
281.000000	7.614361
280.000000	7.682743
279.000000	7.706085
278.000000	7.743199
277.000000	7.786324
276.000000	7.838335
275.000000	7.930491
274.000000	7.994245
273.000000	8.094404
272.000000	8.067806
271.000000	8.137551
270.000000	8.215223
269.000000	8.279337
268.000000	8.328964
267.000000	8.429265
266.000000	8.527247
265.000000	8.590414
264.000000	8.651380
263.000000	8.744515
262.000000	8.828377
261.000000	8.913308
260.000000	8.953622
259.000000	9.092086
258.000000	9.229188
257.000000	9.338367
256.000000	9.399513
255.000000	9.545194
254.000000	9.636348
253.000000	9.764005
252.000000	9.896604
251.000000	9.975354
250.000000	10.112044
249.000000	10.224336
248.000000	10.337590
247.000000	10.452132
246.000000	10.587797
245.000000	10.698361
244.000000	10.740604
243.000000	10.846351
242.000000	10.970128
241.000000	11.011567
240.000000	11.068611
239.000000	11.144262
238.000000	11.251618
237.000000	11.331163
236.000000	11.396093
235.000000	11.454051
234.000000	11.515489
233.000000	11.536808
232.000000	11.547401
231.000000	11.616269
230.000000	11.683381
229.000000	11.736882
228.000000	11.800553
227.000000	11.906348
226.000000	12.024546
225.000000	12.072737
224.000000	12.185498
223.000000	12.378669
222.000000	12.502869
221.000000	12.624120
220.000000	12.777804
219.000000	12.896221
218.000000	13.107733
217.000000	13.396609
216.000000	13.605853
215.000000	13.725423
214.000000	13.917146
213.000000	14.174441
212.000000	14.436359
211.000000	14.723576
210.000000	14.949886
209.000000	15.294892
208.000000	15.716785
207.000000	16.119759
206.000000	16.550131
205.000000	17.087667
204.000000	17.629295
203.000000	18.032560
202.000000	18.703412
201.000000	19.339766
200.000000	20.082125
