PE UV       SUBTECH     SPECTRUM    ASCII       PEDS        4.00        
   -1
SFRAG1_1.Sample.asc
23/09/07
11:09:43.00
23/09/07
11:09:43.00
Administrator

250.000000
1
Lambda 750
750N8071901
PerkinElmer UV WinLab 6.0.4.0738 / 1.61.00 Lambda 900

0
0
3350/servo 860.8/2
0
0
UV/VIS
1
1
1
CommonBeamDepol,150mm sphere / downward view
0
0
0
0
Program
Program
3350/servo 860.8/2
3350/0.2 860.8/0.2
3350/0.2 860.8/0.2
0
1
 
 
 
0
 
860.8
319.2
860.8
Front
100
on
 
 
0
0
0
 
0
 
 
 
0
 
 
0
0
0
0
0
 
 
 
 
0
0


0
0
#HDR
-1
-1
#GR
nm
%R
1.0
0.0
2500.000000
-10.000000
226
8
79.375979
23.987664
#DATA
2500.000000	36.359873
2490.000000	35.626271
2480.000000	40.084949
2470.000000	40.745207
2460.000000	40.157833
2450.000000	42.015865
2440.000000	42.370207
2430.000000	44.298020
2420.000000	42.862561
2410.000000	43.388954
2400.000000	43.692680
2390.000000	45.199242
2380.000000	44.846211
2370.000000	43.532787
2360.000000	44.420937
2350.000000	44.538632
2340.000000	44.416896
2330.000000	44.113389
2320.000000	43.480482
2310.000000	42.739115
2300.000000	42.821368
2290.000000	43.016197
2280.000000	43.355126
2270.000000	44.614598
2260.000000	46.658599
2250.000000	48.227602
2240.000000	49.227516
2230.000000	48.838448
2220.000000	47.417493
2210.000000	47.202926
2200.000000	46.191516
2190.000000	46.834906
2180.000000	47.217129
2170.000000	48.444947
2160.000000	50.551529
2150.000000	51.096421
2140.000000	51.775999
2130.000000	51.607680
2120.000000	51.574788
2110.000000	51.458448
2100.000000	51.345170
2090.000000	50.345527
2080.000000	48.844462
2070.000000	47.489350
2060.000000	46.750930
2050.000000	46.843699
2040.000000	47.317138
2030.000000	47.205605
2020.000000	46.135500
2010.000000	44.914262
2000.000000	43.589218
1990.000000	42.450828
1980.000000	40.920848
1970.000000	40.419873
1960.000000	40.033490
1950.000000	40.717655
1940.000000	42.681849
1930.000000	45.604700
1920.000000	49.725419
1910.000000	55.486475
1900.000000	59.809401
1890.000000	63.261363
1880.000000	65.272706
1870.000000	65.743810
1860.000000	66.088857
1850.000000	65.925555
1840.000000	65.710527
1830.000000	65.505270
1820.000000	65.111918
1810.000000	64.917610
1800.000000	64.647662
1790.000000	64.464100
1780.000000	64.185248
1770.000000	63.964238
1760.000000	63.644232
1750.000000	63.636921
1740.000000	63.856466
1730.000000	64.652682
1720.000000	65.062267
1710.000000	65.415004
1700.000000	65.940262
1690.000000	67.056420
1680.000000	68.017732
1670.000000	68.436399
1660.000000	68.476300
1650.000000	68.250987
1640.000000	67.832439
1630.000000	67.441424
1620.000000	66.899126
1610.000000	66.352703
1600.000000	65.848381
1590.000000	65.450069
1580.000000	65.080999
1570.000000	64.780673
1560.000000	64.447614
1550.000000	63.674772
1540.000000	62.990415
1530.000000	62.596533
1520.000000	62.340054
1510.000000	62.095596
1500.000000	62.097281
1490.000000	62.190586
1480.000000	62.263606
1470.000000	62.702667
1460.000000	63.334046
1450.000000	64.219455
1440.000000	65.490221
1430.000000	67.035770
1420.000000	69.042813
1410.000000	71.099886
1400.000000	72.590073
1390.000000	73.413663
1380.000000	73.874939
1370.000000	74.304868
1360.000000	74.794285
1350.000000	75.225047
1340.000000	75.326873
1330.000000	75.677865
1320.000000	76.087179
1310.000000	76.311564
1300.000000	76.319222
1290.000000	76.337561
1280.000000	76.224114
1270.000000	76.273430
1260.000000	76.278886
1250.000000	76.280600
1240.000000	76.224656
1230.000000	76.037026
1220.000000	75.915723
1210.000000	75.730807
1200.000000	75.728987
1190.000000	75.905736
1180.000000	76.352717
1170.000000	76.802980
1160.000000	77.115098
1150.000000	77.399709
1140.000000	77.591369
1130.000000	77.642564
1120.000000	77.808567
1110.000000	77.864574
1100.000000	78.002718
1090.000000	77.958285
1080.000000	77.893652
1070.000000	77.898957
1060.000000	77.889381
1050.000000	77.832171
1040.000000	77.809719
1030.000000	77.741964
1020.000000	77.794856
1010.000000	77.992273
1000.000000	78.026076
990.000000	78.084891
980.000000	78.232483
970.000000	78.319898
960.000000	78.488323
950.000000	78.529621
940.000000	78.492585
930.000000	78.553889
920.000000	78.663358
910.000000	78.748518
900.000000	78.826294
890.000000	78.804901
880.000000	78.893351
870.000000	79.145835
860.000000	79.375979
850.000000	78.225562
840.000000	78.822544
830.000000	78.702280
820.000000	78.875949
810.000000	78.601061
800.000000	78.912472
790.000000	78.680273
780.000000	78.615820
770.000000	78.650839
760.000000	78.655567
750.000000	78.467006
740.000000	78.560611
730.000000	78.646568
720.000000	78.501083
710.000000	78.579222
700.000000	78.452101
690.000000	78.345624
680.000000	78.386826
670.000000	78.379947
660.000000	78.213800
650.000000	78.110213
640.000000	78.004084
630.000000	77.863939
620.000000	77.697086
610.000000	77.588520
600.000000	77.369147
590.000000	77.181768
580.000000	77.108088
570.000000	76.847914
560.000000	76.596454
550.000000	76.363872
540.000000	76.096255
530.000000	75.811203
520.000000	75.537642
510.000000	75.274820
500.000000	74.708403
490.000000	74.336178
480.000000	73.843863
470.000000	73.509850
460.000000	72.996660
450.000000	72.087985
440.000000	71.260588
430.000000	70.127623
420.000000	68.844136
410.000000	67.138228
400.000000	65.226905
390.000000	63.634006
380.000000	61.599763
370.000000	59.442002
360.000000	56.796630
350.000000	54.689046
340.000000	51.405725
330.000000	49.110801
320.000000	44.690775
310.000000	43.834561
300.000000	39.098995
290.000000	33.018740
280.000000	27.040344
270.000000	25.953515
260.000000	25.666066
250.000000	23.987664
