PE UV       SUBTECH     SPECTRUM    ASCII       PEDS        4.00        
   -1
blanc1.Sample.asc
23/09/07
11:06:50.00
23/09/07
11:06:50.00
Administrator

250.000000
1
Lambda 750
750N8071901
PerkinElmer UV WinLab 6.0.4.0738 / 1.61.00 Lambda 900

0
0
3350/servo 860.8/2
0
0
UV/VIS
1
1
1
CommonBeamDepol,150mm sphere / downward view
0
0
0
0
Program
Program
3350/servo 860.8/2
3350/0.2 860.8/0.2
3350/0.2 860.8/0.2
0
1
 
 
 
0
 
860.8
319.2
860.8
Front
100
on
 
 
0
0
0
 
0
 
 
 
0
 
 
0
0
0
0
0
 
 
 
 
0
0


0
0
#HDR
-1
-1
#GR
nm
%R
1.0
0.0
2500.000000
-10.000000
226
8
101.262989
97.203638
#DATA
2500.000000	99.542758
2490.000000	97.203638
2480.000000	99.563600
2470.000000	101.262989
2460.000000	99.345911
2450.000000	100.016017
2440.000000	100.654311
2430.000000	100.429728
2420.000000	100.349509
2410.000000	100.407793
2400.000000	100.856541
2390.000000	99.728554
2380.000000	98.513720
2370.000000	100.082390
2360.000000	99.620271
2350.000000	99.972687
2340.000000	100.768100
2330.000000	100.869400
2320.000000	100.319229
2310.000000	100.393144
2300.000000	99.748097
2290.000000	99.616778
2280.000000	99.996284
2270.000000	99.700606
2260.000000	99.880708
2250.000000	99.972069
2240.000000	100.753998
2230.000000	99.903572
2220.000000	99.778530
2210.000000	99.945752
2200.000000	100.128572
2190.000000	99.912261
2180.000000	99.861128
2170.000000	99.450927
2160.000000	100.248459
2150.000000	99.883022
2140.000000	100.373286
2130.000000	100.011601
2120.000000	100.425810
2110.000000	99.593608
2100.000000	100.237549
2090.000000	99.995580
2080.000000	99.846893
2070.000000	99.963828
2060.000000	100.185527
2050.000000	99.890968
2040.000000	100.029423
2030.000000	99.937238
2020.000000	99.892059
2010.000000	100.084656
2000.000000	99.954565
1990.000000	99.952757
1980.000000	99.939604
1970.000000	99.934627
1960.000000	99.955412
1950.000000	99.859448
1940.000000	100.175752
1930.000000	99.657939
1920.000000	99.793116
1910.000000	99.908074
1900.000000	99.864771
1890.000000	99.976335
1880.000000	99.998048
1870.000000	99.893395
1860.000000	99.856440
1850.000000	100.097660
1840.000000	99.913918
1830.000000	99.968793
1820.000000	99.982177
1810.000000	99.988731
1800.000000	99.895636
1790.000000	99.973041
1780.000000	100.013746
1770.000000	99.989444
1760.000000	99.970085
1750.000000	99.910556
1740.000000	99.975515
1730.000000	99.946181
1720.000000	99.898788
1710.000000	99.996579
1700.000000	100.004643
1690.000000	99.948918
1680.000000	99.914225
1670.000000	99.854824
1660.000000	99.883775
1650.000000	99.940234
1640.000000	99.929805
1630.000000	99.900162
1620.000000	99.838692
1610.000000	99.909738
1600.000000	99.878368
1590.000000	99.914763
1580.000000	99.969688
1570.000000	99.905123
1560.000000	99.932813
1550.000000	99.919537
1540.000000	99.918831
1530.000000	99.900855
1520.000000	99.875912
1510.000000	99.855866
1500.000000	99.950094
1490.000000	99.942627
1480.000000	99.941971
1470.000000	99.906970
1460.000000	99.893172
1450.000000	99.917480
1440.000000	99.886809
1430.000000	99.882753
1420.000000	99.862440
1410.000000	99.903094
1400.000000	99.864032
1390.000000	99.871115
1380.000000	99.947309
1370.000000	99.853783
1360.000000	99.942260
1350.000000	99.961828
1340.000000	99.883843
1330.000000	99.918742
1320.000000	99.831342
1310.000000	99.827937
1300.000000	99.871024
1290.000000	99.877176
1280.000000	99.864222
1270.000000	99.869774
1260.000000	99.870172
1250.000000	99.845512
1240.000000	99.901336
1230.000000	99.904828
1220.000000	99.879925
1210.000000	99.870010
1200.000000	99.921281
1190.000000	99.916170
1180.000000	99.888332
1170.000000	99.838178
1160.000000	99.890567
1150.000000	99.912589
1140.000000	99.820655
1130.000000	99.847707
1120.000000	99.861568
1110.000000	99.908864
1100.000000	99.865304
1090.000000	99.895334
1080.000000	99.881139
1070.000000	99.839629
1060.000000	99.930875
1050.000000	99.876034
1040.000000	99.880046
1030.000000	99.885522
1020.000000	99.857581
1010.000000	99.855421
1000.000000	99.848790
990.000000	99.842096
980.000000	99.832658
970.000000	99.832808
960.000000	99.836123
950.000000	99.893624
940.000000	99.798790
930.000000	99.899516
920.000000	99.858048
910.000000	99.883466
900.000000	99.900040
890.000000	99.747904
880.000000	99.820849
870.000000	99.955996
860.000000	99.914405
850.000000	99.084729
840.000000	100.231096
830.000000	99.814260
820.000000	99.891140
810.000000	99.969503
800.000000	100.130554
790.000000	99.892216
780.000000	99.675120
770.000000	99.827149
760.000000	99.766884
750.000000	99.629093
740.000000	99.702675
730.000000	99.733158
720.000000	99.640943
710.000000	99.796808
700.000000	99.839228
690.000000	99.795243
680.000000	99.867338
670.000000	99.821208
660.000000	99.879837
650.000000	99.854355
640.000000	99.826007
630.000000	99.698048
620.000000	99.787304
610.000000	99.737467
600.000000	99.774570
590.000000	99.634409
580.000000	99.790711
570.000000	99.771341
560.000000	99.765013
550.000000	99.745850
540.000000	99.753203
530.000000	99.781988
520.000000	99.789501
510.000000	99.760663
500.000000	99.655171
490.000000	99.702236
480.000000	99.687104
470.000000	99.853756
460.000000	99.682571
450.000000	99.736486
440.000000	99.716422
430.000000	99.775795
420.000000	99.736170
410.000000	99.631786
400.000000	99.858627
390.000000	99.573333
380.000000	99.688265
370.000000	99.784199
360.000000	99.045190
350.000000	99.819539
340.000000	99.878511
330.000000	99.902094
320.000000	98.902521
310.000000	100.756750
300.000000	98.989822
290.000000	99.007554
280.000000	98.872192
270.000000	98.336411
260.000000	98.734668
250.000000	98.077112
