PE UV       SUBTECH     SPECTRUM    ASCII       PEDS        4.00        
   -1
RDmshap22.Sample.asc
18/03/19
16:25:53.00
18/03/19
16:25:53.00
Administrator

200.000000
1
Lambda 750
750N8071901
PerkinElmer UV WinLab 6.0.4.0738 / 1.61.00 Lambda 900

0
0
3350/servo 860.8/2
0
0
UV/VIS
1
1
1
CommonBeamDepol,150mm sphere / downward view
0
0
0
0
Program
Program
3350/servo 860.8/2
3350/0.2 860.8/0.2
3350/0.2 860.8/0.2
0
1
 
 
 
0
 
860.8
319.2
860.8
Front
100
on
 
 
0
0
0
 
0
 
 
 
0
 
 
0
0
0
0
0
 
 
 
 
0
0


0
0
#HDR
-1
-1
#GR
nm
%R
1.0
0.0
2350.000000
-1.000000
2151
8
74.505049
21.321423
#DATA
2350.000000	40.827287
2349.000000	41.036775
2348.000000	41.163600
2347.000000	41.286890
2346.000000	41.136984
2345.000000	40.794522
2344.000000	41.040325
2343.000000	40.802747
2342.000000	41.247683
2341.000000	41.126033
2340.000000	40.965610
2339.000000	41.298300
2338.000000	41.419972
2337.000000	41.271718
2336.000000	41.347954
2335.000000	41.306654
2334.000000	41.371460
2333.000000	41.429890
2332.000000	41.461862
2331.000000	41.534303
2330.000000	41.500840
2329.000000	41.571935
2328.000000	41.499654
2327.000000	41.211554
2326.000000	41.301561
2325.000000	41.003695
2324.000000	41.364820
2323.000000	41.183549
2322.000000	41.186770
2321.000000	41.500694
2320.000000	41.290489
2319.000000	41.085587
2318.000000	41.130413
2317.000000	41.244857
2316.000000	41.087497
2315.000000	40.930618
2314.000000	41.081023
2313.000000	40.796990
2312.000000	40.737052
2311.000000	40.661835
2310.000000	40.719073
2309.000000	40.687365
2308.000000	40.477937
2307.000000	40.532855
2306.000000	40.537314
2305.000000	40.463750
2304.000000	40.396995
2303.000000	40.280706
2302.000000	40.206392
2301.000000	40.000567
2300.000000	39.905242
2299.000000	40.236627
2298.000000	40.194528
2297.000000	39.915657
2296.000000	39.659707
2295.000000	39.543769
2294.000000	39.795527
2293.000000	39.608337
2292.000000	39.428264
2291.000000	39.363399
2290.000000	39.364155
2289.000000	39.325740
2288.000000	39.506797
2287.000000	39.422124
2286.000000	39.141382
2285.000000	38.986011
2284.000000	39.012244
2283.000000	39.114347
2282.000000	39.204112
2281.000000	39.250501
2280.000000	39.224332
2279.000000	39.117848
2278.000000	39.145352
2277.000000	39.212166
2276.000000	39.387237
2275.000000	39.552656
2274.000000	39.445342
2273.000000	39.537301
2272.000000	39.446882
2271.000000	39.443976
2270.000000	39.577829
2269.000000	39.776861
2268.000000	39.693140
2267.000000	39.657418
2266.000000	39.842292
2265.000000	39.955316
2264.000000	39.926214
2263.000000	40.169634
2262.000000	40.292986
2261.000000	40.378923
2260.000000	40.462563
2259.000000	40.525670
2258.000000	40.859982
2257.000000	41.171025
2256.000000	41.190255
2255.000000	41.334087
2254.000000	41.500481
2253.000000	41.621673
2252.000000	41.766544
2251.000000	41.976956
2250.000000	42.277951
2249.000000	42.407596
2248.000000	42.532018
2247.000000	42.763885
2246.000000	43.051254
2245.000000	43.228811
2244.000000	43.243027
2243.000000	43.433675
2242.000000	43.637831
2241.000000	43.851812
2240.000000	44.047151
2239.000000	44.008106
2238.000000	44.108274
2237.000000	44.293270
2236.000000	44.416440
2235.000000	44.337749
2234.000000	44.337141
2233.000000	44.492515
2232.000000	44.740021
2231.000000	44.846130
2230.000000	44.804021
2229.000000	45.034125
2228.000000	45.107591
2227.000000	45.001331
2226.000000	44.778509
2225.000000	44.785754
2224.000000	44.939364
2223.000000	44.816777
2222.000000	44.887738
2221.000000	44.947449
2220.000000	44.873804
2219.000000	44.883851
2218.000000	44.752559
2217.000000	44.821014
2216.000000	44.865885
2215.000000	44.716698
2214.000000	44.655753
2213.000000	44.693423
2212.000000	44.781958
2211.000000	44.754036
2210.000000	44.489312
2209.000000	44.482312
2208.000000	44.448938
2207.000000	44.377530
2206.000000	44.205585
2205.000000	44.081889
2204.000000	44.207664
2203.000000	44.198115
2202.000000	44.128305
2201.000000	44.175762
2200.000000	44.185115
2199.000000	44.180701
2198.000000	44.186737
2197.000000	44.060927
2196.000000	43.888722
2195.000000	43.766559
2194.000000	43.626559
2193.000000	43.534813
2192.000000	43.440667
2191.000000	43.462217
2190.000000	43.495795
2189.000000	43.431233
2188.000000	43.267729
2187.000000	43.377328
2186.000000	43.345230
2185.000000	43.352363
2184.000000	43.278383
2183.000000	43.173350
2182.000000	43.276179
2181.000000	43.254775
2180.000000	43.099554
2179.000000	43.126302
2178.000000	43.120635
2177.000000	43.258500
2176.000000	43.184697
2175.000000	43.159520
2174.000000	43.220580
2173.000000	43.292718
2172.000000	43.256943
2171.000000	43.191529
2170.000000	43.395607
2169.000000	43.505443
2168.000000	43.522768
2167.000000	43.519764
2166.000000	43.554554
2165.000000	43.682599
2164.000000	43.717641
2163.000000	43.899788
2162.000000	44.112926
2161.000000	44.090168
2160.000000	44.368550
2159.000000	44.498641
2158.000000	44.544764
2157.000000	44.591863
2156.000000	44.744967
2155.000000	44.946294
2154.000000	45.083528
2153.000000	45.257172
2152.000000	45.287291
2151.000000	45.577624
2150.000000	45.582157
2149.000000	45.737012
2148.000000	45.888859
2147.000000	45.939741
2146.000000	46.202382
2145.000000	46.307827
2144.000000	46.439592
2143.000000	46.497740
2142.000000	46.638402
2141.000000	46.831785
2140.000000	46.922433
2139.000000	46.967747
2138.000000	47.242574
2137.000000	47.457002
2136.000000	47.409953
2135.000000	47.399218
2134.000000	47.548420
2133.000000	47.528480
2132.000000	47.650529
2131.000000	47.846080
2130.000000	47.830689
2129.000000	47.918346
2128.000000	47.989668
2127.000000	47.997494
2126.000000	48.029268
2125.000000	47.956050
2124.000000	48.168144
2123.000000	48.289050
2122.000000	48.327556
2121.000000	48.369381
2120.000000	48.249343
2119.000000	48.409514
2118.000000	48.592596
2117.000000	48.273657
2116.000000	48.494969
2115.000000	48.684397
2114.000000	48.543873
2113.000000	48.494289
2112.000000	48.591411
2111.000000	48.462790
2110.000000	48.541017
2109.000000	48.473077
2108.000000	48.501008
2107.000000	48.629113
2106.000000	48.567752
2105.000000	48.644057
2104.000000	48.797811
2103.000000	48.698931
2102.000000	48.704650
2101.000000	48.770841
2100.000000	48.804231
2099.000000	48.641844
2098.000000	48.711860
2097.000000	48.787105
2096.000000	48.720572
2095.000000	48.680694
2094.000000	48.692737
2093.000000	48.697671
2092.000000	48.743110
2091.000000	48.690442
2090.000000	48.688768
2089.000000	48.700715
2088.000000	48.631910
2087.000000	48.655246
2086.000000	48.671658
2085.000000	48.665424
2084.000000	48.625964
2083.000000	48.571825
2082.000000	48.525726
2081.000000	48.314489
2080.000000	48.253447
2079.000000	48.274857
2078.000000	48.158742
2077.000000	48.139033
2076.000000	48.072784
2075.000000	47.965524
2074.000000	47.952433
2073.000000	47.838431
2072.000000	47.679696
2071.000000	47.672686
2070.000000	47.617799
2069.000000	47.502324
2068.000000	47.375481
2067.000000	47.236874
2066.000000	47.069777
2065.000000	46.985275
2064.000000	46.960338
2063.000000	46.733004
2062.000000	46.645843
2061.000000	46.449863
2060.000000	46.320162
2059.000000	46.167468
2058.000000	46.089285
2057.000000	46.019723
2056.000000	45.878074
2055.000000	45.689575
2054.000000	45.574833
2053.000000	45.492055
2052.000000	45.345625
2051.000000	45.173247
2050.000000	45.103756
2049.000000	45.085427
2048.000000	45.049885
2047.000000	45.035606
2046.000000	44.883987
2045.000000	44.737388
2044.000000	44.704275
2043.000000	44.723833
2042.000000	44.739358
2041.000000	44.783277
2040.000000	44.757182
2039.000000	44.738397
2038.000000	44.797469
2037.000000	44.843723
2036.000000	44.869469
2035.000000	44.926286
2034.000000	44.965564
2033.000000	45.052022
2032.000000	45.166010
2031.000000	45.263032
2030.000000	45.395540
2029.000000	45.487290
2028.000000	45.531734
2027.000000	45.678403
2026.000000	45.828818
2025.000000	45.861141
2024.000000	45.893155
2023.000000	45.958036
2022.000000	46.032597
2021.000000	46.096837
2020.000000	46.132705
2019.000000	46.158174
2018.000000	46.170146
2017.000000	46.214372
2016.000000	46.189878
2015.000000	46.153963
2014.000000	46.178872
2013.000000	46.177966
2012.000000	46.154993
2011.000000	46.176585
2010.000000	46.110805
2009.000000	46.036673
2008.000000	46.014677
2007.000000	45.954490
2006.000000	45.862996
2005.000000	45.790785
2004.000000	45.725613
2003.000000	45.691203
2002.000000	45.620792
2001.000000	45.482318
2000.000000	45.444464
1999.000000	45.382128
1998.000000	45.285718
1997.000000	45.188062
1996.000000	45.092163
1995.000000	44.999452
1994.000000	44.921161
1993.000000	44.855267
1992.000000	44.748575
1991.000000	44.623654
1990.000000	44.529580
1989.000000	44.451723
1988.000000	44.384551
1987.000000	44.342465
1986.000000	44.182718
1985.000000	44.082462
1984.000000	44.045196
1983.000000	43.954630
1982.000000	43.829824
1981.000000	43.719935
1980.000000	43.629471
1979.000000	43.566074
1978.000000	43.461438
1977.000000	43.346728
1976.000000	43.246912
1975.000000	43.156624
1974.000000	43.048582
1973.000000	42.973170
1972.000000	42.898918
1971.000000	42.816595
1970.000000	42.690392
1969.000000	42.639656
1968.000000	42.548920
1967.000000	42.454184
1966.000000	42.404174
1965.000000	42.301193
1964.000000	42.141452
1963.000000	42.106220
1962.000000	42.026048
1961.000000	41.938156
1960.000000	41.851295
1959.000000	41.783316
1958.000000	41.694168
1957.000000	41.582939
1956.000000	41.506198
1955.000000	41.504304
1954.000000	41.451334
1953.000000	41.339705
1952.000000	41.314322
1951.000000	41.323563
1950.000000	41.239353
1949.000000	41.207041
1948.000000	41.187327
1947.000000	41.169311
1946.000000	41.072612
1945.000000	41.106217
1944.000000	41.123311
1943.000000	41.128964
1942.000000	41.146076
1941.000000	41.144372
1940.000000	41.195393
1939.000000	41.244788
1938.000000	41.318425
1937.000000	41.349609
1936.000000	41.556826
1935.000000	41.636855
1934.000000	41.628784
1933.000000	41.742491
1932.000000	41.889795
1931.000000	41.986802
1930.000000	42.179395
1929.000000	42.230627
1928.000000	42.533351
1927.000000	42.656263
1926.000000	42.826883
1925.000000	43.089372
1924.000000	43.266245
1923.000000	43.441131
1922.000000	43.718351
1921.000000	43.972988
1920.000000	44.272069
1919.000000	44.449457
1918.000000	44.759841
1917.000000	45.138756
1916.000000	45.326654
1915.000000	45.717229
1914.000000	46.032363
1913.000000	46.312205
1912.000000	46.663873
1911.000000	46.932507
1910.000000	47.361758
1909.000000	47.640962
1908.000000	48.003266
1907.000000	48.390627
1906.000000	48.723630
1905.000000	49.228829
1904.000000	49.638905
1903.000000	49.917359
1902.000000	50.375691
1901.000000	50.784750
1900.000000	51.211084
1899.000000	51.765594
1898.000000	52.083800
1897.000000	52.477998
1896.000000	52.867528
1895.000000	53.287755
1894.000000	53.712715
1893.000000	54.091303
1892.000000	54.490297
1891.000000	54.897136
1890.000000	55.246204
1889.000000	55.673943
1888.000000	55.976953
1887.000000	56.308585
1886.000000	56.641843
1885.000000	56.912302
1884.000000	57.237762
1883.000000	57.632703
1882.000000	57.849461
1881.000000	58.075556
1880.000000	58.344396
1879.000000	58.559363
1878.000000	58.828151
1877.000000	59.131987
1876.000000	59.330746
1875.000000	59.563695
1874.000000	59.759504
1873.000000	59.893314
1872.000000	60.035276
1871.000000	60.188948
1870.000000	60.347608
1869.000000	60.532028
1868.000000	60.634918
1867.000000	60.763806
1866.000000	60.862228
1865.000000	60.919978
1864.000000	60.957306
1863.000000	61.046042
1862.000000	61.100033
1861.000000	61.127865
1860.000000	61.220832
1859.000000	61.257458
1858.000000	61.312085
1857.000000	61.361456
1856.000000	61.387976
1855.000000	61.427703
1854.000000	61.500449
1853.000000	61.482849
1852.000000	61.452287
1851.000000	61.437682
1850.000000	61.517304
1849.000000	61.512117
1848.000000	61.539225
1847.000000	61.553324
1846.000000	61.521971
1845.000000	61.533046
1844.000000	61.488035
1843.000000	61.470961
1842.000000	61.511721
1841.000000	61.520207
1840.000000	61.524269
1839.000000	61.500733
1838.000000	61.488552
1837.000000	61.409877
1836.000000	61.394860
1835.000000	61.387423
1834.000000	61.309400
1833.000000	61.295938
1832.000000	61.304150
1831.000000	61.278760
1830.000000	61.266903
1829.000000	61.204747
1828.000000	61.161249
1827.000000	61.164710
1826.000000	61.153690
1825.000000	61.166009
1824.000000	61.162657
1823.000000	61.140586
1822.000000	61.100285
1821.000000	61.081008
1820.000000	61.059888
1819.000000	61.020088
1818.000000	61.002906
1817.000000	60.978596
1816.000000	60.972494
1815.000000	60.965773
1814.000000	60.913854
1813.000000	60.867972
1812.000000	60.878455
1811.000000	60.849643
1810.000000	60.827448
1809.000000	60.820139
1808.000000	60.791817
1807.000000	60.751717
1806.000000	60.736830
1805.000000	60.735143
1804.000000	60.705019
1803.000000	60.685893
1802.000000	60.676999
1801.000000	60.681951
1800.000000	60.656884
1799.000000	60.605657
1798.000000	60.592164
1797.000000	60.605805
1796.000000	60.585295
1795.000000	60.545469
1794.000000	60.550791
1793.000000	60.557823
1792.000000	60.527073
1791.000000	60.503825
1790.000000	60.490021
1789.000000	60.470475
1788.000000	60.449977
1787.000000	60.441871
1786.000000	60.437355
1785.000000	60.417556
1784.000000	60.396725
1783.000000	60.384254
1782.000000	60.354203
1781.000000	60.322346
1780.000000	60.287425
1779.000000	60.267832
1778.000000	60.231109
1777.000000	60.210434
1776.000000	60.216058
1775.000000	60.165152
1774.000000	60.118658
1773.000000	60.081636
1772.000000	60.014493
1771.000000	59.993902
1770.000000	59.949942
1769.000000	59.904091
1768.000000	59.889224
1767.000000	59.882140
1766.000000	59.835499
1765.000000	59.811728
1764.000000	59.778163
1763.000000	59.756412
1762.000000	59.700159
1761.000000	59.680487
1760.000000	59.640324
1759.000000	59.618543
1758.000000	59.594555
1757.000000	59.549252
1756.000000	59.511277
1755.000000	59.468710
1754.000000	59.425124
1753.000000	59.397684
1752.000000	59.386230
1751.000000	59.344030
1750.000000	59.306712
1749.000000	59.287735
1748.000000	59.219100
1747.000000	59.212198
1746.000000	59.203848
1745.000000	59.133950
1744.000000	59.122687
1743.000000	59.085297
1742.000000	59.018564
1741.000000	59.007497
1740.000000	59.001562
1739.000000	58.951492
1738.000000	58.930309
1737.000000	58.910957
1736.000000	58.888364
1735.000000	58.916735
1734.000000	58.921663
1733.000000	58.919467
1732.000000	58.886018
1731.000000	58.902976
1730.000000	58.897643
1729.000000	58.937388
1728.000000	58.987569
1727.000000	59.038621
1726.000000	59.097057
1725.000000	59.136365
1724.000000	59.196652
1723.000000	59.237138
1722.000000	59.326127
1721.000000	59.412853
1720.000000	59.469836
1719.000000	59.575093
1718.000000	59.646807
1717.000000	59.707222
1716.000000	59.776655
1715.000000	59.850034
1714.000000	59.951040
1713.000000	60.012803
1712.000000	60.060369
1711.000000	60.097361
1710.000000	60.147597
1709.000000	60.179347
1708.000000	60.231292
1707.000000	60.237363
1706.000000	60.338337
1705.000000	60.350299
1704.000000	60.390360
1703.000000	60.365122
1702.000000	60.431853
1701.000000	60.459844
1700.000000	60.450294
1699.000000	60.447414
1698.000000	60.473558
1697.000000	60.486049
1696.000000	60.581101
1695.000000	60.516681
1694.000000	60.584000
1693.000000	60.625924
1692.000000	60.672998
1691.000000	60.702599
1690.000000	60.768902
1689.000000	60.828288
1688.000000	60.918013
1687.000000	60.992978
1686.000000	61.062199
1685.000000	61.144925
1684.000000	61.260598
1683.000000	61.365589
1682.000000	61.511271
1681.000000	61.616998
1680.000000	61.704844
1679.000000	61.822626
1678.000000	61.973632
1677.000000	62.045638
1676.000000	62.170526
1675.000000	62.328106
1674.000000	62.448494
1673.000000	62.584532
1672.000000	62.693347
1671.000000	62.780550
1670.000000	62.942195
1669.000000	63.045227
1668.000000	63.152246
1667.000000	63.259348
1666.000000	63.342332
1665.000000	63.384335
1664.000000	63.451340
1663.000000	63.515904
1662.000000	63.597072
1661.000000	63.650719
1660.000000	63.705883
1659.000000	63.757804
1658.000000	63.788107
1657.000000	63.818225
1656.000000	63.843601
1655.000000	63.893069
1654.000000	63.907591
1653.000000	63.909432
1652.000000	63.955243
1651.000000	63.954734
1650.000000	63.968033
1649.000000	63.991013
1648.000000	63.939460
1647.000000	63.957553
1646.000000	63.957739
1645.000000	63.968018
1644.000000	63.959851
1643.000000	63.952584
1642.000000	63.937333
1641.000000	63.925859
1640.000000	63.906319
1639.000000	63.896619
1638.000000	63.877437
1637.000000	63.880507
1636.000000	63.831036
1635.000000	63.817089
1634.000000	63.804384
1633.000000	63.763567
1632.000000	63.761813
1631.000000	63.749096
1630.000000	63.723336
1629.000000	63.696363
1628.000000	63.684175
1627.000000	63.643156
1626.000000	63.611797
1625.000000	63.600006
1624.000000	63.565812
1623.000000	63.546537
1622.000000	63.531230
1621.000000	63.482011
1620.000000	63.447688
1619.000000	63.416132
1618.000000	63.378074
1617.000000	63.361126
1616.000000	63.334938
1615.000000	63.307058
1614.000000	63.270948
1613.000000	63.239133
1612.000000	63.194007
1611.000000	63.150794
1610.000000	63.135403
1609.000000	63.100632
1608.000000	63.055808
1607.000000	63.017882
1606.000000	62.956045
1605.000000	62.913189
1604.000000	62.881370
1603.000000	62.857134
1602.000000	62.816172
1601.000000	62.776064
1600.000000	62.738318
1599.000000	62.680172
1598.000000	62.644024
1597.000000	62.625447
1596.000000	62.594306
1595.000000	62.550824
1594.000000	62.503096
1593.000000	62.469094
1592.000000	62.450423
1591.000000	62.411935
1590.000000	62.368031
1589.000000	62.332873
1588.000000	62.315145
1587.000000	62.294265
1586.000000	62.260862
1585.000000	62.232001
1584.000000	62.206785
1583.000000	62.168068
1582.000000	62.141794
1581.000000	62.132323
1580.000000	62.111577
1579.000000	62.085410
1578.000000	62.047754
1577.000000	62.011411
1576.000000	61.975715
1575.000000	61.950411
1574.000000	61.925714
1573.000000	61.899435
1572.000000	61.884723
1571.000000	61.873022
1570.000000	61.836952
1569.000000	61.798868
1568.000000	61.784420
1567.000000	61.763565
1566.000000	61.742677
1565.000000	61.720662
1564.000000	61.722653
1563.000000	61.715930
1562.000000	61.673835
1561.000000	61.666174
1560.000000	61.667181
1559.000000	61.651239
1558.000000	61.630882
1557.000000	61.625160
1556.000000	61.619145
1555.000000	61.590349
1554.000000	61.582876
1553.000000	61.573086
1552.000000	61.556586
1551.000000	61.534519
1550.000000	61.524551
1549.000000	61.495799
1548.000000	61.482652
1547.000000	61.447782
1546.000000	61.407814
1545.000000	61.363293
1544.000000	61.335398
1543.000000	61.295867
1542.000000	61.237627
1541.000000	61.182898
1540.000000	61.130653
1539.000000	61.084493
1538.000000	61.024338
1537.000000	60.969612
1536.000000	60.900069
1535.000000	60.831385
1534.000000	60.781976
1533.000000	60.733720
1532.000000	60.669712
1531.000000	60.607773
1530.000000	60.553720
1529.000000	60.476509
1528.000000	60.431760
1527.000000	60.396489
1526.000000	60.352177
1525.000000	60.325412
1524.000000	60.272705
1523.000000	60.237973
1522.000000	60.201512
1521.000000	60.175111
1520.000000	60.130387
1519.000000	60.117105
1518.000000	60.092323
1517.000000	60.062873
1516.000000	60.035236
1515.000000	60.042821
1514.000000	59.975399
1513.000000	59.961440
1512.000000	59.953301
1511.000000	59.939241
1510.000000	59.912583
1509.000000	59.924277
1508.000000	59.900057
1507.000000	59.910549
1506.000000	59.913740
1505.000000	59.903554
1504.000000	59.871857
1503.000000	59.878660
1502.000000	59.874956
1501.000000	59.876732
1500.000000	59.868786
1499.000000	59.878974
1498.000000	59.881287
1497.000000	59.875589
1496.000000	59.913123
1495.000000	59.926892
1494.000000	59.923217
1493.000000	59.942874
1492.000000	59.961193
1491.000000	59.996063
1490.000000	60.048675
1489.000000	60.046772
1488.000000	60.091180
1487.000000	60.131147
1486.000000	60.148959
1485.000000	60.194630
1484.000000	60.233090
1483.000000	60.270748
1482.000000	60.313813
1481.000000	60.379857
1480.000000	60.410645
1479.000000	60.443183
1478.000000	60.481111
1477.000000	60.529156
1476.000000	60.570916
1475.000000	60.630016
1474.000000	60.681922
1473.000000	60.709851
1472.000000	60.770581
1471.000000	60.793038
1470.000000	60.842684
1469.000000	60.886760
1468.000000	60.921855
1467.000000	61.009637
1466.000000	61.014929
1465.000000	61.049012
1464.000000	61.076399
1463.000000	61.148139
1462.000000	61.158568
1461.000000	61.184878
1460.000000	61.216895
1459.000000	61.277894
1458.000000	61.312582
1457.000000	61.357937
1456.000000	61.401672
1455.000000	61.462337
1454.000000	61.515586
1453.000000	61.566820
1452.000000	61.617841
1451.000000	61.654705
1450.000000	61.733274
1449.000000	61.780523
1448.000000	61.823093
1447.000000	61.877629
1446.000000	61.935925
1445.000000	61.999963
1444.000000	62.048695
1443.000000	62.122678
1442.000000	62.211157
1441.000000	62.266549
1440.000000	62.323326
1439.000000	62.393030
1438.000000	62.475950
1437.000000	62.554962
1436.000000	62.639508
1435.000000	62.726205
1434.000000	62.790146
1433.000000	62.879477
1432.000000	62.951460
1431.000000	63.031469
1430.000000	63.123580
1429.000000	63.225364
1428.000000	63.323452
1427.000000	63.425119
1426.000000	63.532672
1425.000000	63.638087
1424.000000	63.742937
1423.000000	63.845017
1422.000000	63.956725
1421.000000	64.070904
1420.000000	64.180954
1419.000000	64.304895
1418.000000	64.431341
1417.000000	64.551102
1416.000000	64.669866
1415.000000	64.802868
1414.000000	64.920731
1413.000000	65.043953
1412.000000	65.186486
1411.000000	65.325271
1410.000000	65.448555
1409.000000	65.562937
1408.000000	65.702592
1407.000000	65.834396
1406.000000	65.953884
1405.000000	66.082967
1404.000000	66.203400
1403.000000	66.322429
1402.000000	66.431356
1401.000000	66.549964
1400.000000	66.671555
1399.000000	66.769941
1398.000000	66.887060
1397.000000	67.011586
1396.000000	67.114648
1395.000000	67.202287
1394.000000	67.306005
1393.000000	67.413207
1392.000000	67.513460
1391.000000	67.599845
1390.000000	67.685632
1389.000000	67.784069
1388.000000	67.853031
1387.000000	67.913764
1386.000000	67.993008
1385.000000	68.075184
1384.000000	68.141497
1383.000000	68.207101
1382.000000	68.280341
1381.000000	68.362663
1380.000000	68.414744
1379.000000	68.450176
1378.000000	68.529155
1377.000000	68.581463
1376.000000	68.626333
1375.000000	68.669743
1374.000000	68.710294
1373.000000	68.759943
1372.000000	68.786926
1371.000000	68.810425
1370.000000	68.855204
1369.000000	68.892962
1368.000000	68.929172
1367.000000	68.963061
1366.000000	68.983579
1365.000000	69.024355
1364.000000	69.054455
1363.000000	69.080502
1362.000000	69.124386
1361.000000	69.188338
1360.000000	69.227154
1359.000000	69.245977
1358.000000	69.277779
1357.000000	69.314545
1356.000000	69.383135
1355.000000	69.411860
1354.000000	69.433335
1353.000000	69.493466
1352.000000	69.543547
1351.000000	69.586387
1350.000000	69.621519
1349.000000	69.670817
1348.000000	69.699332
1347.000000	69.712500
1346.000000	69.776418
1345.000000	69.809714
1344.000000	69.829124
1343.000000	69.875484
1342.000000	69.905176
1341.000000	69.918982
1340.000000	69.954847
1339.000000	70.009730
1338.000000	70.042880
1337.000000	70.076614
1336.000000	70.093158
1335.000000	70.124914
1334.000000	70.155430
1333.000000	70.172837
1332.000000	70.215710
1331.000000	70.256088
1330.000000	70.310790
1329.000000	70.355770
1328.000000	70.359518
1327.000000	70.360764
1326.000000	70.402093
1325.000000	70.408408
1324.000000	70.419789
1323.000000	70.456669
1322.000000	70.487174
1321.000000	70.506220
1320.000000	70.528965
1319.000000	70.512003
1318.000000	70.530761
1317.000000	70.600315
1316.000000	70.613543
1315.000000	70.628052
1314.000000	70.612680
1313.000000	70.613160
1312.000000	70.653771
1311.000000	70.681518
1310.000000	70.686572
1309.000000	70.696579
1308.000000	70.727192
1307.000000	70.711922
1306.000000	70.726077
1305.000000	70.769475
1304.000000	70.768447
1303.000000	70.793782
1302.000000	70.787159
1301.000000	70.808726
1300.000000	70.805205
1299.000000	70.819447
1298.000000	70.828553
1297.000000	70.836291
1296.000000	70.841286
1295.000000	70.856134
1294.000000	70.845308
1293.000000	70.863475
1292.000000	70.865820
1291.000000	70.879413
1290.000000	70.865344
1289.000000	70.888480
1288.000000	70.855157
1287.000000	70.855567
1286.000000	70.868315
1285.000000	70.891408
1284.000000	70.872998
1283.000000	70.884488
1282.000000	70.886830
1281.000000	70.895984
1280.000000	70.878417
1279.000000	70.898285
1278.000000	70.908605
1277.000000	70.878871
1276.000000	70.877147
1275.000000	70.905959
1274.000000	70.888791
1273.000000	70.913807
1272.000000	70.899416
1271.000000	70.933009
1270.000000	70.924389
1269.000000	70.934002
1268.000000	70.979527
1267.000000	70.960638
1266.000000	70.973218
1265.000000	70.975641
1264.000000	71.011464
1263.000000	71.037906
1262.000000	71.006061
1261.000000	71.034569
1260.000000	71.057263
1259.000000	71.031953
1258.000000	71.064004
1257.000000	71.085825
1256.000000	71.070324
1255.000000	71.071427
1254.000000	71.089956
1253.000000	71.120973
1252.000000	71.125514
1251.000000	71.132416
1250.000000	71.136330
1249.000000	71.124517
1248.000000	71.133761
1247.000000	71.145863
1246.000000	71.118232
1245.000000	71.126933
1244.000000	71.113321
1243.000000	71.099638
1242.000000	71.118413
1241.000000	71.135016
1240.000000	71.122864
1239.000000	71.125640
1238.000000	71.082695
1237.000000	71.091486
1236.000000	71.069524
1235.000000	71.062257
1234.000000	71.044325
1233.000000	71.055393
1232.000000	71.041317
1231.000000	71.053684
1230.000000	71.032049
1229.000000	71.031601
1228.000000	71.008486
1227.000000	71.016285
1226.000000	71.024352
1225.000000	71.016001
1224.000000	71.008168
1223.000000	70.973188
1222.000000	70.971787
1221.000000	70.959483
1220.000000	70.952672
1219.000000	70.969746
1218.000000	70.951034
1217.000000	70.946182
1216.000000	70.946445
1215.000000	70.956351
1214.000000	70.921680
1213.000000	70.915289
1212.000000	70.911067
1211.000000	70.894949
1210.000000	70.916507
1209.000000	70.902270
1208.000000	70.885236
1207.000000	70.882646
1206.000000	70.862006
1205.000000	70.828181
1204.000000	70.833758
1203.000000	70.850350
1202.000000	70.828183
1201.000000	70.805139
1200.000000	70.813721
1199.000000	70.807041
1198.000000	70.780942
1197.000000	70.773273
1196.000000	70.753919
1195.000000	70.769302
1194.000000	70.782884
1193.000000	70.760842
1192.000000	70.748447
1191.000000	70.751010
1190.000000	70.737628
1189.000000	70.712523
1188.000000	70.712678
1187.000000	70.728422
1186.000000	70.727695
1185.000000	70.734744
1184.000000	70.739027
1183.000000	70.748978
1182.000000	70.774062
1181.000000	70.782320
1180.000000	70.793583
1179.000000	70.827322
1178.000000	70.863737
1177.000000	70.878266
1176.000000	70.895788
1175.000000	70.934785
1174.000000	70.962711
1173.000000	70.988337
1172.000000	71.028041
1171.000000	71.061973
1170.000000	71.091204
1169.000000	71.125483
1168.000000	71.161071
1167.000000	71.206338
1166.000000	71.253546
1165.000000	71.294752
1164.000000	71.346338
1163.000000	71.371223
1162.000000	71.387719
1161.000000	71.431531
1160.000000	71.483750
1159.000000	71.533780
1158.000000	71.581925
1157.000000	71.619062
1156.000000	71.660120
1155.000000	71.704084
1154.000000	71.729689
1153.000000	71.769516
1152.000000	71.818298
1151.000000	71.851530
1150.000000	71.871615
1149.000000	71.889808
1148.000000	71.915467
1147.000000	71.941089
1146.000000	71.977223
1145.000000	72.012461
1144.000000	72.035682
1143.000000	72.048447
1142.000000	72.067646
1141.000000	72.106715
1140.000000	72.136680
1139.000000	72.158552
1138.000000	72.192411
1137.000000	72.219575
1136.000000	72.237102
1135.000000	72.260499
1134.000000	72.299422
1133.000000	72.319271
1132.000000	72.317328
1131.000000	72.327306
1130.000000	72.347283
1129.000000	72.350633
1128.000000	72.378619
1127.000000	72.414716
1126.000000	72.431782
1125.000000	72.443060
1124.000000	72.456973
1123.000000	72.484846
1122.000000	72.503190
1121.000000	72.516127
1120.000000	72.510325
1119.000000	72.520929
1118.000000	72.545043
1117.000000	72.548694
1116.000000	72.563617
1115.000000	72.566674
1114.000000	72.555191
1113.000000	72.558344
1112.000000	72.549528
1111.000000	72.565345
1110.000000	72.584602
1109.000000	72.592503
1108.000000	72.601855
1107.000000	72.613373
1106.000000	72.624198
1105.000000	72.632292
1104.000000	72.639464
1103.000000	72.644249
1102.000000	72.649603
1101.000000	72.647390
1100.000000	72.638884
1099.000000	72.666396
1098.000000	72.668183
1097.000000	72.667413
1096.000000	72.658840
1095.000000	72.676345
1094.000000	72.685418
1093.000000	72.687224
1092.000000	72.692064
1091.000000	72.695277
1090.000000	72.686114
1089.000000	72.690830
1088.000000	72.706875
1087.000000	72.697330
1086.000000	72.714164
1085.000000	72.720624
1084.000000	72.731221
1083.000000	72.729763
1082.000000	72.737847
1081.000000	72.709750
1080.000000	72.716395
1079.000000	72.741588
1078.000000	72.738599
1077.000000	72.731053
1076.000000	72.733566
1075.000000	72.741161
1074.000000	72.716535
1073.000000	72.716184
1072.000000	72.728447
1071.000000	72.749927
1070.000000	72.761434
1069.000000	72.735382
1068.000000	72.752726
1067.000000	72.765213
1066.000000	72.747641
1065.000000	72.749099
1064.000000	72.760212
1063.000000	72.755459
1062.000000	72.762739
1061.000000	72.751300
1060.000000	72.772688
1059.000000	72.754076
1058.000000	72.772091
1057.000000	72.773268
1056.000000	72.803735
1055.000000	72.785028
1054.000000	72.779077
1053.000000	72.797770
1052.000000	72.780600
1051.000000	72.780276
1050.000000	72.787127
1049.000000	72.792303
1048.000000	72.767958
1047.000000	72.784440
1046.000000	72.779541
1045.000000	72.804587
1044.000000	72.804577
1043.000000	72.802155
1042.000000	72.799154
1041.000000	72.830364
1040.000000	72.827000
1039.000000	72.808037
1038.000000	72.835052
1037.000000	72.816218
1036.000000	72.806279
1035.000000	72.821535
1034.000000	72.824583
1033.000000	72.835144
1032.000000	72.816752
1031.000000	72.827921
1030.000000	72.845364
1029.000000	72.858585
1028.000000	72.847075
1027.000000	72.857274
1026.000000	72.849385
1025.000000	72.845134
1024.000000	72.866166
1023.000000	72.853931
1022.000000	72.851412
1021.000000	72.859969
1020.000000	72.887485
1019.000000	72.887406
1018.000000	72.887191
1017.000000	72.880907
1016.000000	72.872586
1015.000000	72.885565
1014.000000	72.896063
1013.000000	72.923798
1012.000000	72.922268
1011.000000	72.917054
1010.000000	72.905218
1009.000000	72.926219
1008.000000	72.940534
1007.000000	72.948528
1006.000000	72.942287
1005.000000	72.942074
1004.000000	72.944242
1003.000000	72.952869
1002.000000	72.967448
1001.000000	72.958242
1000.000000	72.965588
999.000000	72.978522
998.000000	72.963207
997.000000	72.987238
996.000000	73.004631
995.000000	73.012360
994.000000	73.009063
993.000000	72.988023
992.000000	72.992716
991.000000	73.024903
990.000000	73.049343
989.000000	73.036477
988.000000	73.022200
987.000000	73.066860
986.000000	73.075220
985.000000	73.080970
984.000000	73.095281
983.000000	73.110166
982.000000	73.116822
981.000000	73.127462
980.000000	73.110641
979.000000	73.136675
978.000000	73.170018
977.000000	73.165445
976.000000	73.184382
975.000000	73.199319
974.000000	73.198512
973.000000	73.190330
972.000000	73.204950
971.000000	73.226775
970.000000	73.225294
969.000000	73.247370
968.000000	73.256177
967.000000	73.272810
966.000000	73.271827
965.000000	73.261281
964.000000	73.290320
963.000000	73.296179
962.000000	73.295455
961.000000	73.316699
960.000000	73.316561
959.000000	73.318466
958.000000	73.316060
957.000000	73.322519
956.000000	73.346205
955.000000	73.364707
954.000000	73.394969
953.000000	73.415227
952.000000	73.408457
951.000000	73.414125
950.000000	73.433686
949.000000	73.454633
948.000000	73.439695
947.000000	73.449207
946.000000	73.474240
945.000000	73.486471
944.000000	73.496405
943.000000	73.477078
942.000000	73.480828
941.000000	73.491703
940.000000	73.500949
939.000000	73.507380
938.000000	73.518889
937.000000	73.546049
936.000000	73.515314
935.000000	73.510798
934.000000	73.557497
933.000000	73.537220
932.000000	73.541915
931.000000	73.564645
930.000000	73.572825
929.000000	73.597540
928.000000	73.587917
927.000000	73.596285
926.000000	73.565019
925.000000	73.558979
924.000000	73.581217
923.000000	73.578210
922.000000	73.614307
921.000000	73.601665
920.000000	73.602340
919.000000	73.593923
918.000000	73.607336
917.000000	73.611549
916.000000	73.588062
915.000000	73.660816
914.000000	73.621575
913.000000	73.596877
912.000000	73.650758
911.000000	73.640129
910.000000	73.642315
909.000000	73.679421
908.000000	73.693730
907.000000	73.753033
906.000000	73.688366
905.000000	73.647411
904.000000	73.774226
903.000000	73.736779
902.000000	73.655913
901.000000	73.728069
900.000000	73.705703
899.000000	73.732330
898.000000	73.719453
897.000000	73.742956
896.000000	73.717316
895.000000	73.786936
894.000000	73.763609
893.000000	73.765184
892.000000	73.809474
891.000000	73.803546
890.000000	73.832595
889.000000	73.790068
888.000000	73.779503
887.000000	73.916235
886.000000	73.935572
885.000000	73.876831
884.000000	73.862676
883.000000	73.913413
882.000000	73.894965
881.000000	73.748918
880.000000	73.817909
879.000000	73.970300
878.000000	74.000592
877.000000	74.016941
876.000000	73.985202
875.000000	73.894880
874.000000	73.874290
873.000000	73.822017
872.000000	73.988050
871.000000	74.166011
870.000000	74.045002
869.000000	73.893136
868.000000	73.924970
867.000000	73.924575
866.000000	73.943447
865.000000	73.922018
864.000000	74.068914
863.000000	74.143256
862.000000	74.186603
861.000000	74.002871
860.000000	74.192903
859.000000	74.036793
858.000000	74.199636
857.000000	74.092705
856.000000	73.990720
855.000000	74.496546
854.000000	74.215767
853.000000	73.768387
852.000000	74.231839
851.000000	74.491261
850.000000	74.161467
849.000000	73.873989
848.000000	74.073298
847.000000	74.253737
846.000000	74.291975
845.000000	73.974219
844.000000	74.253273
843.000000	74.156971
842.000000	74.129536
841.000000	74.193073
840.000000	74.062022
839.000000	74.478746
838.000000	74.275785
837.000000	74.193458
836.000000	74.350475
835.000000	74.201731
834.000000	74.243831
833.000000	74.332365
832.000000	74.332501
831.000000	74.356377
830.000000	74.145221
829.000000	74.298686
828.000000	74.268222
827.000000	74.277083
826.000000	74.262640
825.000000	74.216170
824.000000	74.243430
823.000000	74.230945
822.000000	74.123529
821.000000	74.154153
820.000000	74.120290
819.000000	74.093646
818.000000	74.230711
817.000000	74.355244
816.000000	74.265339
815.000000	74.245228
814.000000	74.280414
813.000000	74.195328
812.000000	74.180108
811.000000	74.195271
810.000000	74.310586
809.000000	74.099822
808.000000	74.288115
807.000000	74.270628
806.000000	74.128142
805.000000	74.404826
804.000000	74.150862
803.000000	74.203632
802.000000	74.115466
801.000000	74.215763
800.000000	74.272211
799.000000	74.108462
798.000000	74.188568
797.000000	74.250608
796.000000	74.505049
795.000000	74.267940
794.000000	74.223593
793.000000	74.467731
792.000000	74.307143
791.000000	74.345032
790.000000	74.362707
789.000000	74.344944
788.000000	74.291530
787.000000	74.248824
786.000000	74.425903
785.000000	74.454617
784.000000	74.428948
783.000000	74.331790
782.000000	74.374827
781.000000	74.357596
780.000000	74.290822
779.000000	74.255909
778.000000	74.323361
777.000000	74.364376
776.000000	74.383716
775.000000	74.284182
774.000000	74.277509
773.000000	74.359563
772.000000	74.270747
771.000000	74.295430
770.000000	74.234296
769.000000	74.280569
768.000000	74.303314
767.000000	74.319960
766.000000	74.287197
765.000000	74.329588
764.000000	74.297639
763.000000	74.335405
762.000000	74.394907
761.000000	74.307409
760.000000	74.273602
759.000000	74.279462
758.000000	74.263879
757.000000	74.294170
756.000000	74.313606
755.000000	74.302553
754.000000	74.235854
753.000000	74.329484
752.000000	74.232111
751.000000	74.306788
750.000000	74.273706
749.000000	74.197605
748.000000	74.207347
747.000000	74.367773
746.000000	74.256867
745.000000	74.314067
744.000000	74.251871
743.000000	74.240057
742.000000	74.245561
741.000000	74.251970
740.000000	74.199817
739.000000	74.231295
738.000000	74.252339
737.000000	74.212282
736.000000	74.254801
735.000000	74.242053
734.000000	74.270809
733.000000	74.330762
732.000000	74.252719
731.000000	74.173584
730.000000	74.196783
729.000000	74.297742
728.000000	74.299324
727.000000	74.220513
726.000000	74.182013
725.000000	74.255419
724.000000	74.229814
723.000000	74.191590
722.000000	74.247668
721.000000	74.196073
720.000000	74.156359
719.000000	74.153551
718.000000	74.104061
717.000000	74.135690
716.000000	74.181352
715.000000	74.133707
714.000000	74.068896
713.000000	74.090033
712.000000	74.105328
711.000000	74.104193
710.000000	74.083710
709.000000	74.102634
708.000000	74.063457
707.000000	74.085812
706.000000	74.172692
705.000000	74.123657
704.000000	74.077211
703.000000	74.044114
702.000000	74.078266
701.000000	74.069419
700.000000	74.018233
699.000000	74.003309
698.000000	73.963950
697.000000	73.899859
696.000000	73.947623
695.000000	74.047917
694.000000	73.975228
693.000000	73.963301
692.000000	74.051545
691.000000	73.989544
690.000000	73.911255
689.000000	73.830238
688.000000	73.772678
687.000000	73.756489
686.000000	73.727377
685.000000	73.800398
684.000000	73.823793
683.000000	73.759119
682.000000	73.739668
681.000000	73.786713
680.000000	73.756360
679.000000	73.782662
678.000000	73.739461
677.000000	73.691727
676.000000	73.605096
675.000000	73.549889
674.000000	73.546726
673.000000	73.582353
672.000000	73.602754
671.000000	73.660280
670.000000	73.560958
669.000000	73.484428
668.000000	73.480370
667.000000	73.483716
666.000000	73.503587
665.000000	73.475686
664.000000	73.437673
663.000000	73.454816
662.000000	73.418222
661.000000	73.385508
660.000000	73.391265
659.000000	73.391945
658.000000	73.322535
657.000000	73.305355
656.000000	73.280366
655.000000	73.351199
654.000000	73.261169
653.000000	73.247631
652.000000	73.216902
651.000000	73.218813
650.000000	73.139888
649.000000	73.174789
648.000000	73.152489
647.000000	73.082940
646.000000	73.038418
645.000000	73.002737
644.000000	73.023959
643.000000	72.967352
642.000000	72.971763
641.000000	72.946316
640.000000	72.944410
639.000000	72.914985
638.000000	72.819291
637.000000	72.792883
636.000000	72.761356
635.000000	72.821854
634.000000	72.784292
633.000000	72.734210
632.000000	72.736555
631.000000	72.754512
630.000000	72.707623
629.000000	72.664744
628.000000	72.593205
627.000000	72.601015
626.000000	72.546897
625.000000	72.618698
624.000000	72.534992
623.000000	72.511310
622.000000	72.427318
621.000000	72.421991
620.000000	72.419506
619.000000	72.357503
618.000000	72.350514
617.000000	72.375653
616.000000	72.249714
615.000000	72.275215
614.000000	72.213749
613.000000	72.193082
612.000000	72.175666
611.000000	72.100023
610.000000	72.056834
609.000000	72.083558
608.000000	72.069984
607.000000	71.887873
606.000000	71.918756
605.000000	71.954397
604.000000	71.803328
603.000000	71.806934
602.000000	71.751484
601.000000	71.824429
600.000000	71.722506
599.000000	71.709351
598.000000	71.685739
597.000000	71.642720
596.000000	71.631181
595.000000	71.565306
594.000000	71.532992
593.000000	71.455832
592.000000	71.391794
591.000000	71.372060
590.000000	71.295753
589.000000	71.286679
588.000000	71.212950
587.000000	71.225230
586.000000	71.178076
585.000000	71.130882
584.000000	71.052208
583.000000	71.046839
582.000000	70.971697
581.000000	70.984634
580.000000	70.805977
579.000000	70.947305
578.000000	70.773548
577.000000	70.801492
576.000000	70.686410
575.000000	70.676985
574.000000	70.636425
573.000000	70.611137
572.000000	70.485613
571.000000	70.474256
570.000000	70.484777
569.000000	70.403808
568.000000	70.315347
567.000000	70.310755
566.000000	70.271349
565.000000	70.235938
564.000000	70.158474
563.000000	70.105250
562.000000	69.993393
561.000000	69.994883
560.000000	69.965022
559.000000	69.914413
558.000000	69.939566
557.000000	69.834021
556.000000	69.785828
555.000000	69.734174
554.000000	69.655858
553.000000	69.640758
552.000000	69.514739
551.000000	69.493997
550.000000	69.368227
549.000000	69.375196
548.000000	69.318614
547.000000	69.284739
546.000000	69.200094
545.000000	69.186874
544.000000	69.104804
543.000000	69.041964
542.000000	68.982193
541.000000	68.982695
540.000000	68.917287
539.000000	68.861173
538.000000	68.747189
537.000000	68.709665
536.000000	68.669569
535.000000	68.606297
534.000000	68.505109
533.000000	68.488824
532.000000	68.447009
531.000000	68.409620
530.000000	68.334947
529.000000	68.258587
528.000000	68.132133
527.000000	68.116819
526.000000	68.065551
525.000000	67.973801
524.000000	67.900166
523.000000	67.869665
522.000000	67.775182
521.000000	67.725675
520.000000	67.670626
519.000000	67.596141
518.000000	67.527915
517.000000	67.460696
516.000000	67.382629
515.000000	67.338966
514.000000	67.259303
513.000000	67.205456
512.000000	67.157013
511.000000	67.107649
510.000000	66.986102
509.000000	66.914761
508.000000	66.840277
507.000000	66.771988
506.000000	66.771271
505.000000	66.688746
504.000000	66.620763
503.000000	66.543076
502.000000	66.430585
501.000000	66.357758
500.000000	66.309805
499.000000	66.262239
498.000000	66.167699
497.000000	66.131980
496.000000	66.059117
495.000000	65.953807
494.000000	65.919963
493.000000	65.869852
492.000000	65.793083
491.000000	65.702060
490.000000	65.624708
489.000000	65.534099
488.000000	65.445374
487.000000	65.371788
486.000000	65.284592
485.000000	65.302986
484.000000	65.278519
483.000000	65.235869
482.000000	65.103600
481.000000	65.028558
480.000000	64.942245
479.000000	64.853236
478.000000	64.804620
477.000000	64.725648
476.000000	64.684289
475.000000	64.597297
474.000000	64.519119
473.000000	64.407900
472.000000	64.338240
471.000000	64.281356
470.000000	64.187185
469.000000	64.072826
468.000000	63.967128
467.000000	63.924868
466.000000	63.819074
465.000000	63.713229
464.000000	63.676472
463.000000	63.576025
462.000000	63.458300
461.000000	63.370375
460.000000	63.270283
459.000000	63.162773
458.000000	63.097557
457.000000	63.046089
456.000000	62.932270
455.000000	62.811257
454.000000	62.708015
453.000000	62.551222
452.000000	62.391728
451.000000	62.336820
450.000000	62.219659
449.000000	62.053304
448.000000	61.953536
447.000000	61.795567
446.000000	61.665613
445.000000	61.598825
444.000000	61.479487
443.000000	61.310957
442.000000	61.195106
441.000000	61.088511
440.000000	60.923239
439.000000	60.736413
438.000000	60.554998
437.000000	60.463339
436.000000	60.324450
435.000000	60.160546
434.000000	60.052383
433.000000	59.914230
432.000000	59.686910
431.000000	59.454080
430.000000	59.297068
429.000000	59.130490
428.000000	58.962948
427.000000	58.762138
426.000000	58.554409
425.000000	58.442068
424.000000	58.289536
423.000000	58.072308
422.000000	57.887702
421.000000	57.709676
420.000000	57.541397
419.000000	57.295939
418.000000	57.140638
417.000000	56.916068
416.000000	56.679851
415.000000	56.470371
414.000000	56.321004
413.000000	56.187567
412.000000	55.893682
411.000000	55.665750
410.000000	55.579448
409.000000	55.335005
408.000000	55.109655
407.000000	54.894635
406.000000	54.710694
405.000000	54.532718
404.000000	54.305283
403.000000	54.115642
402.000000	53.868766
401.000000	53.690577
400.000000	53.405359
399.000000	53.241463
398.000000	53.004648
397.000000	52.740149
396.000000	52.530894
395.000000	52.309581
394.000000	52.153011
393.000000	51.900326
392.000000	51.698460
391.000000	51.451292
390.000000	51.282934
389.000000	51.081436
388.000000	50.846097
387.000000	50.590172
386.000000	50.314148
385.000000	50.176059
384.000000	50.014806
383.000000	49.638293
382.000000	49.419037
381.000000	49.250160
380.000000	49.075860
379.000000	48.844375
378.000000	48.530346
377.000000	48.326216
376.000000	48.008137
375.000000	47.931076
374.000000	47.555501
373.000000	47.312536
372.000000	47.348662
371.000000	46.952081
370.000000	46.709364
369.000000	46.625029
368.000000	46.548051
367.000000	46.185896
366.000000	46.044568
365.000000	45.798250
364.000000	45.730030
363.000000	45.444254
362.000000	45.187491
361.000000	45.049159
360.000000	44.800812
359.000000	44.597128
358.000000	44.648403
357.000000	44.346118
356.000000	44.341948
355.000000	43.861178
354.000000	43.802722
353.000000	43.601466
352.000000	43.390338
351.000000	43.122034
350.000000	42.911820
349.000000	42.705776
348.000000	42.791684
347.000000	42.448958
346.000000	42.209478
345.000000	42.255753
344.000000	41.977358
343.000000	41.782157
342.000000	41.468020
341.000000	41.388263
340.000000	41.205370
339.000000	40.911587
338.000000	40.867069
337.000000	40.536692
336.000000	40.484002
335.000000	40.049682
334.000000	40.101844
333.000000	40.014021
332.000000	39.742517
331.000000	39.826138
330.000000	39.578866
329.000000	39.380322
328.000000	39.424780
327.000000	39.082789
326.000000	38.939465
325.000000	38.859438
324.000000	38.764287
323.000000	38.708750
322.000000	38.512449
321.000000	38.424057
320.000000	38.429626
319.000000	38.241970
318.000000	38.415781
317.000000	38.402250
316.000000	38.542751
315.000000	38.476954
314.000000	38.423526
313.000000	38.205092
312.000000	38.039063
311.000000	38.188422
310.000000	37.996133
309.000000	37.915372
308.000000	38.089796
307.000000	37.811632
306.000000	37.926515
305.000000	37.792004
304.000000	37.886190
303.000000	37.746516
302.000000	37.534294
301.000000	37.378841
300.000000	37.587444
299.000000	37.260752
298.000000	37.193645
297.000000	37.044871
296.000000	36.976300
295.000000	36.747984
294.000000	36.602616
293.000000	36.347366
292.000000	35.888326
291.000000	35.618765
290.000000	35.568097
289.000000	35.254968
288.000000	34.975470
287.000000	34.615453
286.000000	34.504044
285.000000	34.460430
284.000000	34.505191
283.000000	34.426375
282.000000	34.285053
281.000000	34.325922
280.000000	34.286883
279.000000	34.305508
278.000000	34.338736
277.000000	34.434637
276.000000	34.476047
275.000000	34.718549
274.000000	34.822964
273.000000	34.859330
272.000000	35.060186
271.000000	35.156365
270.000000	35.222561
269.000000	35.257867
268.000000	35.546539
267.000000	35.676827
266.000000	35.697229
265.000000	35.918700
264.000000	36.148884
263.000000	36.381441
262.000000	36.597966
261.000000	36.774311
260.000000	37.004848
259.000000	37.230590
258.000000	37.385030
257.000000	37.664752
256.000000	37.885005
255.000000	38.107473
254.000000	38.262548
253.000000	38.482169
252.000000	38.683352
251.000000	39.038504
250.000000	39.128281
249.000000	39.115255
248.000000	39.170239
247.000000	39.283008
246.000000	39.280092
245.000000	39.249929
244.000000	38.971730
243.000000	38.621552
242.000000	38.355875
241.000000	37.807637
240.000000	37.243714
239.000000	36.616002
238.000000	35.673682
237.000000	34.860634
236.000000	33.966281
235.000000	33.064393
234.000000	32.298693
233.000000	31.475740
232.000000	30.612091
231.000000	29.869362
230.000000	29.099182
229.000000	28.294701
228.000000	27.596987
227.000000	27.033035
226.000000	26.402233
225.000000	25.719845
224.000000	25.193817
223.000000	24.772863
222.000000	24.260822
221.000000	23.645293
220.000000	23.227648
219.000000	23.010745
218.000000	22.752865
217.000000	22.520345
216.000000	22.231376
215.000000	21.956712
214.000000	21.829068
213.000000	21.740338
212.000000	21.599411
211.000000	21.327320
210.000000	21.321423
209.000000	21.415572
208.000000	21.434648
207.000000	21.381087
206.000000	21.527484
205.000000	21.793259
204.000000	21.859257
203.000000	22.307335
202.000000	22.998038
201.000000	23.465287
200.000000	24.032308
