PE UV       SUBTECH     SPECTRUM    ASCII       PEDS        4.00        
   -1
RDmshap12.Sample.asc
18/03/19
15:07:22.00
18/03/19
15:07:22.00
Administrator

200.000000
1
Lambda 750
750N8071901
PerkinElmer UV WinLab 6.0.4.0738 / 1.61.00 Lambda 900

0
0
3350/servo 860.8/2
0
0
UV/VIS
1
1
1
CommonBeamDepol,150mm sphere / downward view
0
0
0
0
Program
Program
3350/servo 860.8/2
3350/0.2 860.8/0.2
3350/0.2 860.8/0.2
0
1
 
 
 
0
 
860.8
319.2
860.8
Front
100
on
 
 
0
0
0
 
0
 
 
 
0
 
 
0
0
0
0
0
 
 
 
 
0
0


0
0
#HDR
-1
-1
#GR
nm
%R
1.0
0.0
2350.000000
-1.000000
2151
8
77.689169
23.215435
#DATA
2350.000000	46.234082
2349.000000	46.656771
2348.000000	46.601929
2347.000000	47.406330
2346.000000	46.877850
2345.000000	46.948016
2344.000000	46.776458
2343.000000	46.833686
2342.000000	46.884741
2341.000000	46.875386
2340.000000	46.720677
2339.000000	46.990389
2338.000000	46.855507
2337.000000	47.226491
2336.000000	47.306741
2335.000000	47.522639
2334.000000	47.550027
2333.000000	47.429088
2332.000000	47.498707
2331.000000	47.416340
2330.000000	47.590693
2329.000000	47.389932
2328.000000	47.333184
2327.000000	47.352721
2326.000000	47.265473
2325.000000	47.413579
2324.000000	47.215203
2323.000000	47.105241
2322.000000	46.979799
2321.000000	46.892781
2320.000000	47.085509
2319.000000	47.230402
2318.000000	46.961519
2317.000000	47.122421
2316.000000	46.965890
2315.000000	46.727172
2314.000000	46.654434
2313.000000	46.807900
2312.000000	46.939832
2311.000000	46.826613
2310.000000	46.670492
2309.000000	46.590678
2308.000000	46.537662
2307.000000	46.527018
2306.000000	46.528588
2305.000000	46.387228
2304.000000	46.274059
2303.000000	46.320513
2302.000000	46.329772
2301.000000	46.008636
2300.000000	45.982852
2299.000000	46.201855
2298.000000	45.958657
2297.000000	45.771327
2296.000000	45.773016
2295.000000	45.672316
2294.000000	45.728455
2293.000000	45.587368
2292.000000	45.527372
2291.000000	45.391714
2290.000000	45.104660
2289.000000	45.280810
2288.000000	45.598279
2287.000000	45.704546
2286.000000	45.625835
2285.000000	45.424589
2284.000000	45.315182
2283.000000	45.186816
2282.000000	45.280498
2281.000000	45.408138
2280.000000	45.313191
2279.000000	45.284360
2278.000000	45.354692
2277.000000	45.489118
2276.000000	45.413679
2275.000000	45.426027
2274.000000	45.564237
2273.000000	45.684470
2272.000000	45.609581
2271.000000	45.548510
2270.000000	45.726517
2269.000000	45.876460
2268.000000	45.906206
2267.000000	45.963447
2266.000000	46.026527
2265.000000	46.064064
2264.000000	46.004199
2263.000000	46.075705
2262.000000	46.276390
2261.000000	46.450370
2260.000000	46.558722
2259.000000	46.739811
2258.000000	47.078087
2257.000000	47.177427
2256.000000	47.307558
2255.000000	47.461242
2254.000000	47.465831
2253.000000	47.574475
2252.000000	47.745309
2251.000000	48.031778
2250.000000	48.299921
2249.000000	48.537284
2248.000000	48.471772
2247.000000	48.615120
2246.000000	49.007293
2245.000000	49.054138
2244.000000	49.139201
2243.000000	49.482051
2242.000000	49.522345
2241.000000	49.470800
2240.000000	49.675660
2239.000000	49.873502
2238.000000	50.018650
2237.000000	50.201393
2236.000000	50.243477
2235.000000	50.294011
2234.000000	50.357454
2233.000000	50.252802
2232.000000	50.286468
2231.000000	50.456341
2230.000000	50.700324
2229.000000	50.738471
2228.000000	50.702950
2227.000000	50.700384
2226.000000	50.615794
2225.000000	50.640559
2224.000000	50.704763
2223.000000	50.620974
2222.000000	50.727817
2221.000000	50.711345
2220.000000	50.692765
2219.000000	50.714141
2218.000000	50.672138
2217.000000	50.652075
2216.000000	50.605036
2215.000000	50.568709
2214.000000	50.558874
2213.000000	50.550927
2212.000000	50.489549
2211.000000	50.452907
2210.000000	50.407858
2209.000000	50.284243
2208.000000	50.140427
2207.000000	50.289708
2206.000000	50.256429
2205.000000	50.183422
2204.000000	50.279335
2203.000000	50.289618
2202.000000	50.207218
2201.000000	49.982683
2200.000000	49.827185
2199.000000	49.876957
2198.000000	49.889392
2197.000000	49.887055
2196.000000	49.829698
2195.000000	49.617867
2194.000000	49.667312
2193.000000	49.496900
2192.000000	49.456722
2191.000000	49.473421
2190.000000	49.491298
2189.000000	49.419616
2188.000000	49.265706
2187.000000	49.308960
2186.000000	49.421364
2185.000000	49.459437
2184.000000	49.428181
2183.000000	49.246460
2182.000000	49.351932
2181.000000	49.389558
2180.000000	49.257876
2179.000000	49.159194
2178.000000	49.252222
2177.000000	49.238294
2176.000000	49.209714
2175.000000	49.210555
2174.000000	49.302451
2173.000000	49.323554
2172.000000	49.370596
2171.000000	49.320900
2170.000000	49.470361
2169.000000	49.573902
2168.000000	49.818214
2167.000000	49.598098
2166.000000	49.775206
2165.000000	49.551596
2164.000000	49.763918
2163.000000	49.968257
2162.000000	50.236028
2161.000000	50.302719
2160.000000	50.234610
2159.000000	50.556920
2158.000000	50.513786
2157.000000	50.672297
2156.000000	50.993915
2155.000000	50.921121
2154.000000	51.107357
2153.000000	51.395555
2152.000000	51.468877
2151.000000	51.474226
2150.000000	51.637731
2149.000000	51.708090
2148.000000	51.684197
2147.000000	52.032373
2146.000000	52.044064
2145.000000	52.332831
2144.000000	52.310551
2143.000000	52.294122
2142.000000	52.446374
2141.000000	52.566811
2140.000000	52.853095
2139.000000	53.024183
2138.000000	53.309799
2137.000000	53.183432
2136.000000	53.155744
2135.000000	53.331747
2134.000000	53.467654
2133.000000	53.314506
2132.000000	53.705531
2131.000000	53.705850
2130.000000	53.824002
2129.000000	53.689096
2128.000000	53.768471
2127.000000	53.741333
2126.000000	53.849310
2125.000000	53.878400
2124.000000	53.920791
2123.000000	54.088419
2122.000000	54.077634
2121.000000	54.312136
2120.000000	54.039155
2119.000000	54.227027
2118.000000	54.267531
2117.000000	54.024844
2116.000000	54.165801
2115.000000	54.348182
2114.000000	54.138393
2113.000000	54.260496
2112.000000	54.201743
2111.000000	54.216829
2110.000000	54.199514
2109.000000	54.186469
2108.000000	54.196845
2107.000000	54.291753
2106.000000	54.351188
2105.000000	54.424607
2104.000000	54.219442
2103.000000	54.437304
2102.000000	54.485739
2101.000000	54.337619
2100.000000	54.470114
2099.000000	54.404602
2098.000000	54.456600
2097.000000	54.487528
2096.000000	54.394358
2095.000000	54.278730
2094.000000	54.378571
2093.000000	54.411674
2092.000000	54.284568
2091.000000	54.400987
2090.000000	54.363897
2089.000000	54.437172
2088.000000	54.337185
2087.000000	54.241994
2086.000000	54.231861
2085.000000	54.323526
2084.000000	54.202642
2083.000000	54.178773
2082.000000	54.224012
2081.000000	54.112227
2080.000000	53.982129
2079.000000	54.010661
2078.000000	53.986443
2077.000000	53.900767
2076.000000	53.865466
2075.000000	53.666224
2074.000000	53.626056
2073.000000	53.631465
2072.000000	53.517688
2071.000000	53.446638
2070.000000	53.389089
2069.000000	53.168747
2068.000000	53.072839
2067.000000	52.956896
2066.000000	52.892880
2065.000000	52.740204
2064.000000	52.697540
2063.000000	52.587129
2062.000000	52.468828
2061.000000	52.294552
2060.000000	52.181186
2059.000000	52.079262
2058.000000	51.958543
2057.000000	51.862130
2056.000000	51.793783
2055.000000	51.643329
2054.000000	51.543437
2053.000000	51.438454
2052.000000	51.366240
2051.000000	51.238664
2050.000000	51.108698
2049.000000	51.060840
2048.000000	50.983822
2047.000000	50.937887
2046.000000	50.853521
2045.000000	50.744152
2044.000000	50.765307
2043.000000	50.770591
2042.000000	50.711505
2041.000000	50.765791
2040.000000	50.810407
2039.000000	50.801360
2038.000000	50.823308
2037.000000	50.840704
2036.000000	50.892339
2035.000000	51.000027
2034.000000	51.005833
2033.000000	51.025750
2032.000000	51.151973
2031.000000	51.215452
2030.000000	51.319143
2029.000000	51.420252
2028.000000	51.500093
2027.000000	51.560309
2026.000000	51.631056
2025.000000	51.689881
2024.000000	51.751157
2023.000000	51.833542
2022.000000	51.894818
2021.000000	51.921757
2020.000000	51.968090
2019.000000	52.028881
2018.000000	52.010259
2017.000000	51.986607
2016.000000	51.948034
2015.000000	51.953584
2014.000000	51.999830
2013.000000	51.949591
2012.000000	51.870014
2011.000000	51.891274
2010.000000	51.862016
2009.000000	51.772978
2008.000000	51.721256
2007.000000	51.671915
2006.000000	51.576429
2005.000000	51.551110
2004.000000	51.483412
2003.000000	51.403960
2002.000000	51.354662
2001.000000	51.231745
2000.000000	51.142080
1999.000000	51.117602
1998.000000	51.051352
1997.000000	50.987666
1996.000000	50.917060
1995.000000	50.776828
1994.000000	50.666698
1993.000000	50.606302
1992.000000	50.500962
1991.000000	50.357219
1990.000000	50.302679
1989.000000	50.212511
1988.000000	50.148341
1987.000000	50.076595
1986.000000	49.991824
1985.000000	49.908052
1984.000000	49.829503
1983.000000	49.722658
1982.000000	49.667170
1981.000000	49.591613
1980.000000	49.455562
1979.000000	49.393695
1978.000000	49.289435
1977.000000	49.234974
1976.000000	49.116600
1975.000000	49.028545
1974.000000	48.894715
1973.000000	48.802125
1972.000000	48.750160
1971.000000	48.639767
1970.000000	48.589837
1969.000000	48.498100
1968.000000	48.415696
1967.000000	48.354178
1966.000000	48.294755
1965.000000	48.154053
1964.000000	48.041734
1963.000000	48.018101
1962.000000	47.942108
1961.000000	47.851925
1960.000000	47.801163
1959.000000	47.714976
1958.000000	47.601810
1957.000000	47.574274
1956.000000	47.505192
1955.000000	47.458408
1954.000000	47.419109
1953.000000	47.328627
1952.000000	47.276463
1951.000000	47.220852
1950.000000	47.141232
1949.000000	47.156679
1948.000000	47.114316
1947.000000	47.066825
1946.000000	47.011284
1945.000000	47.017582
1944.000000	47.072834
1943.000000	47.053881
1942.000000	47.052143
1941.000000	47.108991
1940.000000	47.139003
1939.000000	47.233488
1938.000000	47.287252
1937.000000	47.397359
1936.000000	47.442650
1935.000000	47.496417
1934.000000	47.584789
1933.000000	47.735821
1932.000000	47.834363
1931.000000	47.966753
1930.000000	48.106140
1929.000000	48.169264
1928.000000	48.421879
1927.000000	48.624307
1926.000000	48.686385
1925.000000	48.868451
1924.000000	49.175787
1923.000000	49.269660
1922.000000	49.545065
1921.000000	49.809739
1920.000000	49.985404
1919.000000	50.256767
1918.000000	50.451391
1917.000000	50.744050
1916.000000	51.022711
1915.000000	51.370840
1914.000000	51.662915
1913.000000	52.035490
1912.000000	52.299808
1911.000000	52.564087
1910.000000	52.879272
1909.000000	53.203048
1908.000000	53.580835
1907.000000	53.840606
1906.000000	54.283683
1905.000000	54.639305
1904.000000	55.012097
1903.000000	55.319056
1902.000000	55.749547
1901.000000	56.069093
1900.000000	56.464236
1899.000000	56.969124
1898.000000	57.294593
1897.000000	57.605935
1896.000000	58.031898
1895.000000	58.459182
1894.000000	58.794982
1893.000000	59.131588
1892.000000	59.598030
1891.000000	59.904675
1890.000000	60.311460
1889.000000	60.631929
1888.000000	60.883424
1887.000000	61.297351
1886.000000	61.586769
1885.000000	61.874178
1884.000000	62.169859
1883.000000	62.435200
1882.000000	62.732554
1881.000000	62.984362
1880.000000	63.199901
1879.000000	63.440171
1878.000000	63.703533
1877.000000	64.004819
1876.000000	64.201080
1875.000000	64.379315
1874.000000	64.532460
1873.000000	64.669663
1872.000000	64.878835
1871.000000	65.150704
1870.000000	65.259466
1869.000000	65.355200
1868.000000	65.522305
1867.000000	65.587619
1866.000000	65.714297
1865.000000	65.793941
1864.000000	65.840352
1863.000000	65.908564
1862.000000	66.032176
1861.000000	66.081768
1860.000000	66.072547
1859.000000	66.102529
1858.000000	66.194994
1857.000000	66.243105
1856.000000	66.284901
1855.000000	66.260855
1854.000000	66.314084
1853.000000	66.343919
1852.000000	66.336202
1851.000000	66.354730
1850.000000	66.388681
1849.000000	66.365811
1848.000000	66.382968
1847.000000	66.373888
1846.000000	66.368438
1845.000000	66.414401
1844.000000	66.372669
1843.000000	66.375652
1842.000000	66.373705
1841.000000	66.363960
1840.000000	66.377062
1839.000000	66.378350
1838.000000	66.344415
1837.000000	66.284439
1836.000000	66.259350
1835.000000	66.271642
1834.000000	66.247849
1833.000000	66.213263
1832.000000	66.206807
1831.000000	66.159918
1830.000000	66.166438
1829.000000	66.140918
1828.000000	66.079819
1827.000000	66.074996
1826.000000	66.064656
1825.000000	66.040660
1824.000000	66.039292
1823.000000	66.028869
1822.000000	65.959768
1821.000000	65.943991
1820.000000	65.929787
1819.000000	65.887554
1818.000000	65.888620
1817.000000	65.859293
1816.000000	65.833949
1815.000000	65.824702
1814.000000	65.797515
1813.000000	65.759615
1812.000000	65.752265
1811.000000	65.733336
1810.000000	65.710282
1809.000000	65.702299
1808.000000	65.696191
1807.000000	65.672659
1806.000000	65.662810
1805.000000	65.624174
1804.000000	65.575176
1803.000000	65.579355
1802.000000	65.577627
1801.000000	65.552372
1800.000000	65.507097
1799.000000	65.498903
1798.000000	65.486147
1797.000000	65.465190
1796.000000	65.446633
1795.000000	65.418539
1794.000000	65.415572
1793.000000	65.405388
1792.000000	65.377293
1791.000000	65.363684
1790.000000	65.334110
1789.000000	65.311541
1788.000000	65.312698
1787.000000	65.295098
1786.000000	65.272140
1785.000000	65.265292
1784.000000	65.224523
1783.000000	65.193778
1782.000000	65.192278
1781.000000	65.173800
1780.000000	65.141208
1779.000000	65.132280
1778.000000	65.083490
1777.000000	65.056496
1776.000000	65.039860
1775.000000	64.987982
1774.000000	64.948415
1773.000000	64.943316
1772.000000	64.912586
1771.000000	64.872630
1770.000000	64.829465
1769.000000	64.756138
1768.000000	64.755570
1767.000000	64.752774
1766.000000	64.708542
1765.000000	64.695361
1764.000000	64.629486
1763.000000	64.586094
1762.000000	64.557760
1761.000000	64.550540
1760.000000	64.499868
1759.000000	64.452105
1758.000000	64.430640
1757.000000	64.365294
1756.000000	64.339252
1755.000000	64.334586
1754.000000	64.296487
1753.000000	64.268751
1752.000000	64.235079
1751.000000	64.211936
1750.000000	64.204869
1749.000000	64.188000
1748.000000	64.127032
1747.000000	64.103364
1746.000000	64.056385
1745.000000	64.039591
1744.000000	64.000902
1743.000000	63.974618
1742.000000	63.964463
1741.000000	63.903461
1740.000000	63.883202
1739.000000	63.860754
1738.000000	63.832085
1737.000000	63.810300
1736.000000	63.807826
1735.000000	63.814610
1734.000000	63.841506
1733.000000	63.825272
1732.000000	63.814336
1731.000000	63.835701
1730.000000	63.844391
1729.000000	63.846729
1728.000000	63.888384
1727.000000	63.933205
1726.000000	64.022201
1725.000000	64.053398
1724.000000	64.093123
1723.000000	64.187798
1722.000000	64.242271
1721.000000	64.304319
1720.000000	64.382251
1719.000000	64.480189
1718.000000	64.545092
1717.000000	64.573785
1716.000000	64.675270
1715.000000	64.726460
1714.000000	64.825016
1713.000000	64.900043
1712.000000	64.949333
1711.000000	65.003286
1710.000000	65.061921
1709.000000	65.081561
1708.000000	65.147102
1707.000000	65.174340
1706.000000	65.235388
1705.000000	65.227488
1704.000000	65.292466
1703.000000	65.295926
1702.000000	65.335317
1701.000000	65.349105
1700.000000	65.338620
1699.000000	65.317490
1698.000000	65.359262
1697.000000	65.409015
1696.000000	65.434551
1695.000000	65.404821
1694.000000	65.436344
1693.000000	65.510792
1692.000000	65.531595
1691.000000	65.597529
1690.000000	65.663049
1689.000000	65.702938
1688.000000	65.756862
1687.000000	65.862264
1686.000000	65.914188
1685.000000	65.999740
1684.000000	66.131108
1683.000000	66.220957
1682.000000	66.348136
1681.000000	66.452267
1680.000000	66.545587
1679.000000	66.657185
1678.000000	66.786064
1677.000000	66.924026
1676.000000	67.008836
1675.000000	67.159214
1674.000000	67.260311
1673.000000	67.387521
1672.000000	67.532783
1671.000000	67.622105
1670.000000	67.748183
1669.000000	67.853110
1668.000000	67.950629
1667.000000	68.050953
1666.000000	68.114639
1665.000000	68.184602
1664.000000	68.246864
1663.000000	68.307743
1662.000000	68.366548
1661.000000	68.435157
1660.000000	68.496819
1659.000000	68.523567
1658.000000	68.551622
1657.000000	68.602300
1656.000000	68.642620
1655.000000	68.689496
1654.000000	68.672319
1653.000000	68.696924
1652.000000	68.722573
1651.000000	68.702469
1650.000000	68.720235
1649.000000	68.717240
1648.000000	68.710676
1647.000000	68.730094
1646.000000	68.735303
1645.000000	68.743438
1644.000000	68.733138
1643.000000	68.706265
1642.000000	68.691548
1641.000000	68.694009
1640.000000	68.690299
1639.000000	68.663025
1638.000000	68.654362
1637.000000	68.644002
1636.000000	68.622470
1635.000000	68.597765
1634.000000	68.566260
1633.000000	68.527642
1632.000000	68.512377
1631.000000	68.496637
1630.000000	68.484898
1629.000000	68.455313
1628.000000	68.415340
1627.000000	68.395610
1626.000000	68.382669
1625.000000	68.354641
1624.000000	68.325547
1623.000000	68.299514
1622.000000	68.260274
1621.000000	68.233512
1620.000000	68.207577
1619.000000	68.198267
1618.000000	68.157288
1617.000000	68.117132
1616.000000	68.088198
1615.000000	68.053356
1614.000000	68.012277
1613.000000	67.977623
1612.000000	67.922891
1611.000000	67.887259
1610.000000	67.878907
1609.000000	67.847922
1608.000000	67.804380
1607.000000	67.755800
1606.000000	67.716200
1605.000000	67.677617
1604.000000	67.642270
1603.000000	67.606808
1602.000000	67.548305
1601.000000	67.507612
1600.000000	67.466772
1599.000000	67.418349
1598.000000	67.385862
1597.000000	67.346108
1596.000000	67.309666
1595.000000	67.288467
1594.000000	67.255102
1593.000000	67.222473
1592.000000	67.188279
1591.000000	67.156481
1590.000000	67.131197
1589.000000	67.081513
1588.000000	67.051408
1587.000000	67.029891
1586.000000	67.008545
1585.000000	66.981449
1584.000000	66.946238
1583.000000	66.918765
1582.000000	66.888647
1581.000000	66.864514
1580.000000	66.842186
1579.000000	66.812603
1578.000000	66.771843
1577.000000	66.740715
1576.000000	66.710748
1575.000000	66.683177
1574.000000	66.659257
1573.000000	66.645182
1572.000000	66.614599
1571.000000	66.587803
1570.000000	66.573661
1569.000000	66.536685
1568.000000	66.528275
1567.000000	66.489718
1566.000000	66.466094
1565.000000	66.476860
1564.000000	66.462720
1563.000000	66.454019
1562.000000	66.425470
1561.000000	66.411405
1560.000000	66.381770
1559.000000	66.382533
1558.000000	66.386108
1557.000000	66.384450
1556.000000	66.364637
1555.000000	66.356443
1554.000000	66.326085
1553.000000	66.301172
1552.000000	66.283981
1551.000000	66.291292
1550.000000	66.271877
1549.000000	66.243518
1548.000000	66.231858
1547.000000	66.205937
1546.000000	66.175387
1545.000000	66.135243
1544.000000	66.091674
1543.000000	66.052433
1542.000000	66.006910
1541.000000	65.962609
1540.000000	65.896969
1539.000000	65.861516
1538.000000	65.801080
1537.000000	65.733874
1536.000000	65.662138
1535.000000	65.621053
1534.000000	65.566018
1533.000000	65.522909
1532.000000	65.458692
1531.000000	65.417072
1530.000000	65.384202
1529.000000	65.304110
1528.000000	65.248268
1527.000000	65.216765
1526.000000	65.168497
1525.000000	65.124894
1524.000000	65.075331
1523.000000	65.041482
1522.000000	65.013720
1521.000000	64.983246
1520.000000	64.953908
1519.000000	64.927038
1518.000000	64.909503
1517.000000	64.856481
1516.000000	64.879109
1515.000000	64.870940
1514.000000	64.824943
1513.000000	64.800020
1512.000000	64.783523
1511.000000	64.764729
1510.000000	64.734512
1509.000000	64.750222
1508.000000	64.741444
1507.000000	64.707476
1506.000000	64.707262
1505.000000	64.696329
1504.000000	64.710252
1503.000000	64.698259
1502.000000	64.709160
1501.000000	64.699960
1500.000000	64.700694
1499.000000	64.701560
1498.000000	64.690994
1497.000000	64.705876
1496.000000	64.711638
1495.000000	64.717057
1494.000000	64.732346
1493.000000	64.736693
1492.000000	64.773631
1491.000000	64.792789
1490.000000	64.807844
1489.000000	64.821968
1488.000000	64.884289
1487.000000	64.918888
1486.000000	64.918731
1485.000000	64.970877
1484.000000	64.998503
1483.000000	65.019897
1482.000000	65.049715
1481.000000	65.124160
1480.000000	65.165255
1479.000000	65.174815
1478.000000	65.220289
1477.000000	65.245933
1476.000000	65.303222
1475.000000	65.341436
1474.000000	65.389466
1473.000000	65.415847
1472.000000	65.459406
1471.000000	65.495958
1470.000000	65.538827
1469.000000	65.590328
1468.000000	65.604265
1467.000000	65.661989
1466.000000	65.701213
1465.000000	65.738067
1464.000000	65.763665
1463.000000	65.824470
1462.000000	65.833418
1461.000000	65.862919
1460.000000	65.900951
1459.000000	65.962510
1458.000000	65.996666
1457.000000	66.034019
1456.000000	66.064918
1455.000000	66.096185
1454.000000	66.166423
1453.000000	66.213167
1452.000000	66.249112
1451.000000	66.296423
1450.000000	66.372682
1449.000000	66.414189
1448.000000	66.469941
1447.000000	66.522006
1446.000000	66.580688
1445.000000	66.629479
1444.000000	66.694152
1443.000000	66.750544
1442.000000	66.828988
1441.000000	66.882327
1440.000000	66.928665
1439.000000	67.002562
1438.000000	67.082199
1437.000000	67.170905
1436.000000	67.227487
1435.000000	67.302232
1434.000000	67.376898
1433.000000	67.457389
1432.000000	67.533234
1431.000000	67.610847
1430.000000	67.699951
1429.000000	67.798074
1428.000000	67.883054
1427.000000	67.968159
1426.000000	68.089035
1425.000000	68.188104
1424.000000	68.287184
1423.000000	68.402450
1422.000000	68.510380
1421.000000	68.622103
1420.000000	68.735019
1419.000000	68.847291
1418.000000	68.972407
1417.000000	69.091445
1416.000000	69.201618
1415.000000	69.326081
1414.000000	69.455722
1413.000000	69.592919
1412.000000	69.728286
1411.000000	69.848356
1410.000000	69.981020
1409.000000	70.098795
1408.000000	70.232001
1407.000000	70.369077
1406.000000	70.513307
1405.000000	70.643452
1404.000000	70.760186
1403.000000	70.871672
1402.000000	70.986080
1401.000000	71.128189
1400.000000	71.243477
1399.000000	71.341033
1398.000000	71.454456
1397.000000	71.594942
1396.000000	71.700454
1395.000000	71.784886
1394.000000	71.898403
1393.000000	72.005459
1392.000000	72.126090
1391.000000	72.219442
1390.000000	72.295690
1389.000000	72.389536
1388.000000	72.476457
1387.000000	72.555110
1386.000000	72.631765
1385.000000	72.705841
1384.000000	72.794879
1383.000000	72.869738
1382.000000	72.932588
1381.000000	73.010709
1380.000000	73.070140
1379.000000	73.100841
1378.000000	73.169541
1377.000000	73.234523
1376.000000	73.272697
1375.000000	73.308452
1374.000000	73.358330
1373.000000	73.402324
1372.000000	73.431155
1371.000000	73.478786
1370.000000	73.528455
1369.000000	73.555572
1368.000000	73.578626
1367.000000	73.603538
1366.000000	73.637406
1365.000000	73.684673
1364.000000	73.720759
1363.000000	73.751631
1362.000000	73.794510
1361.000000	73.852865
1360.000000	73.907709
1359.000000	73.939797
1358.000000	73.956114
1357.000000	73.980731
1356.000000	74.049413
1355.000000	74.095947
1354.000000	74.118280
1353.000000	74.162749
1352.000000	74.209456
1351.000000	74.253037
1350.000000	74.293403
1349.000000	74.340388
1348.000000	74.376687
1347.000000	74.400994
1346.000000	74.458057
1345.000000	74.484647
1344.000000	74.510648
1343.000000	74.541760
1342.000000	74.561539
1341.000000	74.594911
1340.000000	74.636048
1339.000000	74.687366
1338.000000	74.737226
1337.000000	74.763157
1336.000000	74.771508
1335.000000	74.799267
1334.000000	74.830185
1333.000000	74.873801
1332.000000	74.900759
1331.000000	74.931878
1330.000000	74.963081
1329.000000	74.990866
1328.000000	75.000127
1327.000000	75.009032
1326.000000	75.048109
1325.000000	75.078069
1324.000000	75.095011
1323.000000	75.118305
1322.000000	75.128056
1321.000000	75.134128
1320.000000	75.149955
1319.000000	75.155655
1318.000000	75.167694
1317.000000	75.234382
1316.000000	75.213215
1315.000000	75.239999
1314.000000	75.249619
1313.000000	75.260199
1312.000000	75.259391
1311.000000	75.297707
1310.000000	75.296998
1309.000000	75.297450
1308.000000	75.335260
1307.000000	75.324482
1306.000000	75.340905
1305.000000	75.342140
1304.000000	75.349725
1303.000000	75.397742
1302.000000	75.387018
1301.000000	75.394024
1300.000000	75.403625
1299.000000	75.412833
1298.000000	75.407117
1297.000000	75.392601
1296.000000	75.400110
1295.000000	75.407268
1294.000000	75.397053
1293.000000	75.427030
1292.000000	75.431989
1291.000000	75.424086
1290.000000	75.417760
1289.000000	75.450153
1288.000000	75.444153
1287.000000	75.442411
1286.000000	75.442306
1285.000000	75.437272
1284.000000	75.434637
1283.000000	75.413180
1282.000000	75.418633
1281.000000	75.430901
1280.000000	75.429182
1279.000000	75.431192
1278.000000	75.442120
1277.000000	75.439395
1276.000000	75.433617
1275.000000	75.436008
1274.000000	75.440502
1273.000000	75.447246
1272.000000	75.448879
1271.000000	75.470175
1270.000000	75.479799
1269.000000	75.466384
1268.000000	75.472543
1267.000000	75.495890
1266.000000	75.486235
1265.000000	75.493522
1264.000000	75.530158
1263.000000	75.554340
1262.000000	75.542963
1261.000000	75.547382
1260.000000	75.534566
1259.000000	75.532333
1258.000000	75.574560
1257.000000	75.593259
1256.000000	75.576865
1255.000000	75.575392
1254.000000	75.583706
1253.000000	75.591319
1252.000000	75.607375
1251.000000	75.616059
1250.000000	75.609971
1249.000000	75.607808
1248.000000	75.615750
1247.000000	75.620510
1246.000000	75.592878
1245.000000	75.615197
1244.000000	75.606769
1243.000000	75.597970
1242.000000	75.591419
1241.000000	75.594436
1240.000000	75.576198
1239.000000	75.559688
1238.000000	75.568276
1237.000000	75.553422
1236.000000	75.508850
1235.000000	75.519866
1234.000000	75.513830
1233.000000	75.514687
1232.000000	75.480826
1231.000000	75.477758
1230.000000	75.486536
1229.000000	75.491020
1228.000000	75.452693
1227.000000	75.443863
1226.000000	75.439911
1225.000000	75.430692
1224.000000	75.426134
1223.000000	75.422263
1222.000000	75.412575
1221.000000	75.396493
1220.000000	75.389288
1219.000000	75.375686
1218.000000	75.381861
1217.000000	75.375956
1216.000000	75.339500
1215.000000	75.319241
1214.000000	75.301677
1213.000000	75.313530
1212.000000	75.329761
1211.000000	75.299516
1210.000000	75.305376
1209.000000	75.301850
1208.000000	75.268013
1207.000000	75.239366
1206.000000	75.236153
1205.000000	75.202860
1204.000000	75.191800
1203.000000	75.187135
1202.000000	75.193319
1201.000000	75.155156
1200.000000	75.155380
1199.000000	75.152412
1198.000000	75.136017
1197.000000	75.121331
1196.000000	75.091003
1195.000000	75.084398
1194.000000	75.068846
1193.000000	75.046715
1192.000000	75.035426
1191.000000	75.060526
1190.000000	75.055873
1189.000000	75.044893
1188.000000	75.050507
1187.000000	75.068328
1186.000000	75.061039
1185.000000	75.051536
1184.000000	75.041371
1183.000000	75.053684
1182.000000	75.089367
1181.000000	75.098601
1180.000000	75.105007
1179.000000	75.126039
1178.000000	75.154367
1177.000000	75.177634
1176.000000	75.190739
1175.000000	75.207636
1174.000000	75.250397
1173.000000	75.289401
1172.000000	75.316823
1171.000000	75.347276
1170.000000	75.380527
1169.000000	75.420448
1168.000000	75.456276
1167.000000	75.505622
1166.000000	75.547053
1165.000000	75.582720
1164.000000	75.635850
1163.000000	75.680339
1162.000000	75.713635
1161.000000	75.741620
1160.000000	75.793411
1159.000000	75.841240
1158.000000	75.886475
1157.000000	75.936178
1156.000000	75.961853
1155.000000	75.994226
1154.000000	76.033281
1153.000000	76.050196
1152.000000	76.098555
1151.000000	76.147778
1150.000000	76.156508
1149.000000	76.178412
1148.000000	76.206589
1147.000000	76.232261
1146.000000	76.262699
1145.000000	76.287624
1144.000000	76.318386
1143.000000	76.364084
1142.000000	76.389607
1141.000000	76.416132
1140.000000	76.447654
1139.000000	76.476178
1138.000000	76.497184
1137.000000	76.516940
1136.000000	76.535300
1135.000000	76.557091
1134.000000	76.580151
1133.000000	76.592615
1132.000000	76.597976
1131.000000	76.626309
1130.000000	76.641519
1129.000000	76.653885
1128.000000	76.681647
1127.000000	76.699301
1126.000000	76.719726
1125.000000	76.744223
1124.000000	76.754806
1123.000000	76.757032
1122.000000	76.780274
1121.000000	76.792019
1120.000000	76.797877
1119.000000	76.780376
1118.000000	76.799778
1117.000000	76.816270
1116.000000	76.813245
1115.000000	76.815895
1114.000000	76.834001
1113.000000	76.829654
1112.000000	76.845938
1111.000000	76.851922
1110.000000	76.857085
1109.000000	76.861209
1108.000000	76.867224
1107.000000	76.877549
1106.000000	76.858376
1105.000000	76.850612
1104.000000	76.872739
1103.000000	76.878436
1102.000000	76.883254
1101.000000	76.894675
1100.000000	76.892208
1099.000000	76.898428
1098.000000	76.914367
1097.000000	76.909570
1096.000000	76.896912
1095.000000	76.894540
1094.000000	76.904617
1093.000000	76.937645
1092.000000	76.937797
1091.000000	76.921903
1090.000000	76.906703
1089.000000	76.919917
1088.000000	76.913500
1087.000000	76.916147
1086.000000	76.918631
1085.000000	76.935317
1084.000000	76.946802
1083.000000	76.927574
1082.000000	76.942595
1081.000000	76.931685
1080.000000	76.942657
1079.000000	76.960243
1078.000000	76.951920
1077.000000	76.909027
1076.000000	76.915311
1075.000000	76.937277
1074.000000	76.940102
1073.000000	76.928674
1072.000000	76.920019
1071.000000	76.924957
1070.000000	76.924797
1069.000000	76.933981
1068.000000	76.931634
1067.000000	76.936895
1066.000000	76.918472
1065.000000	76.928536
1064.000000	76.937643
1063.000000	76.939898
1062.000000	76.930455
1061.000000	76.923214
1060.000000	76.938012
1059.000000	76.937604
1058.000000	76.924320
1057.000000	76.930356
1056.000000	76.917834
1055.000000	76.936045
1054.000000	76.929018
1053.000000	76.926367
1052.000000	76.918730
1051.000000	76.926373
1050.000000	76.910583
1049.000000	76.922818
1048.000000	76.900811
1047.000000	76.921799
1046.000000	76.908474
1045.000000	76.920029
1044.000000	76.906954
1043.000000	76.907966
1042.000000	76.920381
1041.000000	76.925393
1040.000000	76.911408
1039.000000	76.919244
1038.000000	76.911269
1037.000000	76.905333
1036.000000	76.888358
1035.000000	76.891229
1034.000000	76.905743
1033.000000	76.900195
1032.000000	76.879873
1031.000000	76.886091
1030.000000	76.896529
1029.000000	76.896921
1028.000000	76.900681
1027.000000	76.934554
1026.000000	76.908277
1025.000000	76.908404
1024.000000	76.912638
1023.000000	76.911963
1022.000000	76.890581
1021.000000	76.884782
1020.000000	76.913739
1019.000000	76.890938
1018.000000	76.908909
1017.000000	76.911583
1016.000000	76.888998
1015.000000	76.895374
1014.000000	76.907152
1013.000000	76.930511
1012.000000	76.929695
1011.000000	76.925613
1010.000000	76.901584
1009.000000	76.893694
1008.000000	76.896840
1007.000000	76.909405
1006.000000	76.904244
1005.000000	76.941050
1004.000000	76.919181
1003.000000	76.919580
1002.000000	76.927811
1001.000000	76.933546
1000.000000	76.908557
999.000000	76.914723
998.000000	76.929489
997.000000	76.948176
996.000000	76.954936
995.000000	76.956853
994.000000	76.935716
993.000000	76.913839
992.000000	76.917780
991.000000	76.947763
990.000000	76.965946
989.000000	76.937958
988.000000	76.927232
987.000000	76.950542
986.000000	76.973962
985.000000	76.979878
984.000000	76.986788
983.000000	77.000814
982.000000	76.999533
981.000000	77.007305
980.000000	77.007727
979.000000	77.016245
978.000000	77.030279
977.000000	77.027422
976.000000	77.027318
975.000000	77.043781
974.000000	77.047793
973.000000	77.051370
972.000000	77.060489
971.000000	77.053777
970.000000	77.073791
969.000000	77.086682
968.000000	77.092727
967.000000	77.099135
966.000000	77.081659
965.000000	77.072459
964.000000	77.109279
963.000000	77.115162
962.000000	77.130466
961.000000	77.137250
960.000000	77.141177
959.000000	77.130606
958.000000	77.115686
957.000000	77.137602
956.000000	77.145838
955.000000	77.153978
954.000000	77.175600
953.000000	77.192060
952.000000	77.192633
951.000000	77.181810
950.000000	77.212193
949.000000	77.241293
948.000000	77.211385
947.000000	77.196738
946.000000	77.232223
945.000000	77.239824
944.000000	77.234373
943.000000	77.211366
942.000000	77.206638
941.000000	77.218574
940.000000	77.211583
939.000000	77.226374
938.000000	77.252942
937.000000	77.264174
936.000000	77.235582
935.000000	77.212134
934.000000	77.265464
933.000000	77.252225
932.000000	77.232545
931.000000	77.267373
930.000000	77.285548
929.000000	77.298376
928.000000	77.267529
927.000000	77.278318
926.000000	77.261452
925.000000	77.226335
924.000000	77.228989
923.000000	77.239287
922.000000	77.269201
921.000000	77.254940
920.000000	77.222794
919.000000	77.250899
918.000000	77.205747
917.000000	77.193345
916.000000	77.227009
915.000000	77.275546
914.000000	77.187329
913.000000	77.160722
912.000000	77.238817
911.000000	77.245361
910.000000	77.217274
909.000000	77.277886
908.000000	77.271484
907.000000	77.249785
906.000000	77.208748
905.000000	77.229860
904.000000	77.293497
903.000000	77.248580
902.000000	77.238643
901.000000	77.293858
900.000000	77.248153
899.000000	77.245904
898.000000	77.229101
897.000000	77.292311
896.000000	77.237172
895.000000	77.265701
894.000000	77.264934
893.000000	77.246183
892.000000	77.354607
891.000000	77.281218
890.000000	77.362561
889.000000	77.367293
888.000000	77.333803
887.000000	77.359352
886.000000	77.406810
885.000000	77.361375
884.000000	77.311779
883.000000	77.347947
882.000000	77.332301
881.000000	77.223985
880.000000	77.326786
879.000000	77.410706
878.000000	77.424523
877.000000	77.408373
876.000000	77.293921
875.000000	77.377925
874.000000	77.418687
873.000000	77.385505
872.000000	77.384961
871.000000	77.429338
870.000000	77.390654
869.000000	77.322708
868.000000	77.335772
867.000000	77.357198
866.000000	77.284723
865.000000	77.256369
864.000000	77.397249
863.000000	77.631258
862.000000	77.664203
861.000000	77.425257
860.000000	77.570389
859.000000	77.136406
858.000000	77.474306
857.000000	77.631426
856.000000	77.344350
855.000000	77.346311
854.000000	77.335522
853.000000	77.192181
852.000000	77.426490
851.000000	77.681143
850.000000	77.194468
849.000000	77.405810
848.000000	77.308589
847.000000	77.316954
846.000000	77.463917
845.000000	77.066035
844.000000	77.470828
843.000000	77.318010
842.000000	77.689169
841.000000	77.422723
840.000000	77.326430
839.000000	77.245791
838.000000	77.448390
837.000000	77.107210
836.000000	77.368222
835.000000	77.573508
834.000000	77.394712
833.000000	77.452246
832.000000	77.506693
831.000000	77.186856
830.000000	77.323218
829.000000	77.355263
828.000000	77.153775
827.000000	77.535890
826.000000	77.403891
825.000000	77.427904
824.000000	77.418771
823.000000	77.197253
822.000000	77.101682
821.000000	77.063150
820.000000	77.286631
819.000000	77.330140
818.000000	77.197933
817.000000	77.200338
816.000000	77.007092
815.000000	77.103307
814.000000	77.206743
813.000000	77.186884
812.000000	77.149643
811.000000	77.043210
810.000000	77.283980
809.000000	77.209729
808.000000	77.244769
807.000000	77.063110
806.000000	77.302031
805.000000	77.078728
804.000000	77.112627
803.000000	77.282235
802.000000	77.173719
801.000000	77.133209
800.000000	77.179310
799.000000	76.885421
798.000000	77.065112
797.000000	77.159899
796.000000	77.015944
795.000000	76.907259
794.000000	77.090123
793.000000	77.320812
792.000000	77.194814
791.000000	77.279204
790.000000	77.277464
789.000000	77.193477
788.000000	77.251826
787.000000	77.045640
786.000000	77.168402
785.000000	77.115220
784.000000	77.089477
783.000000	77.103944
782.000000	76.994973
781.000000	76.992706
780.000000	77.046913
779.000000	76.976726
778.000000	77.016215
777.000000	76.986205
776.000000	76.930992
775.000000	76.836268
774.000000	77.020136
773.000000	77.132858
772.000000	77.021053
771.000000	77.050368
770.000000	77.023928
769.000000	76.954272
768.000000	76.886452
767.000000	76.970185
766.000000	76.929409
765.000000	76.997979
764.000000	76.897943
763.000000	76.926028
762.000000	76.911604
761.000000	76.904833
760.000000	76.872058
759.000000	76.912530
758.000000	76.840292
757.000000	76.838349
756.000000	76.826117
755.000000	76.886329
754.000000	76.788748
753.000000	76.754785
752.000000	76.771788
751.000000	76.797118
750.000000	76.778135
749.000000	76.751443
748.000000	76.804984
747.000000	76.841597
746.000000	76.782788
745.000000	76.816624
744.000000	76.811785
743.000000	76.736170
742.000000	76.673217
741.000000	76.662018
740.000000	76.575376
739.000000	76.605071
738.000000	76.617590
737.000000	76.538133
736.000000	76.627256
735.000000	76.640154
734.000000	76.591573
733.000000	76.619419
732.000000	76.644508
731.000000	76.563727
730.000000	76.493010
729.000000	76.510420
728.000000	76.489892
727.000000	76.406954
726.000000	76.397140
725.000000	76.443806
724.000000	76.419655
723.000000	76.307551
722.000000	76.415820
721.000000	76.485833
720.000000	76.401727
719.000000	76.329035
718.000000	76.268769
717.000000	76.263945
716.000000	76.291197
715.000000	76.307604
714.000000	76.280727
713.000000	76.238135
712.000000	76.235798
711.000000	76.223677
710.000000	76.217290
709.000000	76.201011
708.000000	76.123555
707.000000	76.108252
706.000000	76.124184
705.000000	76.090847
704.000000	76.087215
703.000000	76.048923
702.000000	76.051903
701.000000	76.009000
700.000000	75.984424
699.000000	75.978642
698.000000	75.954651
697.000000	75.944304
696.000000	75.879761
695.000000	75.850111
694.000000	75.830871
693.000000	75.817259
692.000000	75.776009
691.000000	75.775119
690.000000	75.748159
689.000000	75.570492
688.000000	75.507013
687.000000	75.533241
686.000000	75.500325
685.000000	75.500420
684.000000	75.479483
683.000000	75.506111
682.000000	75.502222
681.000000	75.438772
680.000000	75.365660
679.000000	75.398178
678.000000	75.363643
677.000000	75.321085
676.000000	75.245565
675.000000	75.182566
674.000000	75.196806
673.000000	75.199208
672.000000	75.165251
671.000000	75.113579
670.000000	75.074038
669.000000	75.036899
668.000000	74.966269
667.000000	74.929747
666.000000	74.955609
665.000000	74.878615
664.000000	74.834148
663.000000	74.878913
662.000000	74.887780
661.000000	74.806051
660.000000	74.817635
659.000000	74.771649
658.000000	74.673842
657.000000	74.665408
656.000000	74.624887
655.000000	74.635492
654.000000	74.622256
653.000000	74.546000
652.000000	74.566823
651.000000	74.531690
650.000000	74.411596
649.000000	74.462488
648.000000	74.427195
647.000000	74.361072
646.000000	74.290582
645.000000	74.249937
644.000000	74.211299
643.000000	74.184639
642.000000	74.191092
641.000000	74.169041
640.000000	74.119786
639.000000	74.041715
638.000000	74.053747
637.000000	73.986609
636.000000	73.934414
635.000000	73.973039
634.000000	73.946093
633.000000	73.879341
632.000000	73.891568
631.000000	73.794344
630.000000	73.740082
629.000000	73.765678
628.000000	73.628530
627.000000	73.645007
626.000000	73.562684
625.000000	73.594398
624.000000	73.505441
623.000000	73.490803
622.000000	73.387297
621.000000	73.409297
620.000000	73.401080
619.000000	73.361588
618.000000	73.266766
617.000000	73.274912
616.000000	73.162639
615.000000	73.142145
614.000000	73.098472
613.000000	73.047769
612.000000	73.036718
611.000000	73.009556
610.000000	72.959859
609.000000	72.882950
608.000000	72.810788
607.000000	72.756516
606.000000	72.710937
605.000000	72.775828
604.000000	72.579253
603.000000	72.625153
602.000000	72.527224
601.000000	72.507489
600.000000	72.436016
599.000000	72.430541
598.000000	72.343636
597.000000	72.302676
596.000000	72.314259
595.000000	72.265693
594.000000	72.172033
593.000000	72.160290
592.000000	72.033022
591.000000	72.004972
590.000000	71.909181
589.000000	71.896454
588.000000	71.780491
587.000000	71.763340
586.000000	71.721113
585.000000	71.734056
584.000000	71.669402
583.000000	71.581804
582.000000	71.543059
581.000000	71.485304
580.000000	71.286919
579.000000	71.441246
578.000000	71.277869
577.000000	71.225339
576.000000	71.172892
575.000000	71.166204
574.000000	71.119820
573.000000	71.015649
572.000000	70.962907
571.000000	70.885668
570.000000	70.865473
569.000000	70.770585
568.000000	70.712571
567.000000	70.659840
566.000000	70.633289
565.000000	70.528321
564.000000	70.508639
563.000000	70.410132
562.000000	70.321707
561.000000	70.303032
560.000000	70.213771
559.000000	70.135094
558.000000	70.084962
557.000000	70.022638
556.000000	69.994806
555.000000	69.877385
554.000000	69.779125
553.000000	69.763802
552.000000	69.683527
551.000000	69.626493
550.000000	69.565959
549.000000	69.523683
548.000000	69.359469
547.000000	69.358817
546.000000	69.206997
545.000000	69.175583
544.000000	69.142218
543.000000	69.043457
542.000000	69.013928
541.000000	68.928548
540.000000	68.857643
539.000000	68.775034
538.000000	68.679352
537.000000	68.658794
536.000000	68.546620
535.000000	68.464309
534.000000	68.361779
533.000000	68.301300
532.000000	68.226474
531.000000	68.173728
530.000000	68.102607
529.000000	68.017781
528.000000	67.880905
527.000000	67.841863
526.000000	67.747379
525.000000	67.671343
524.000000	67.599706
523.000000	67.507373
522.000000	67.405293
521.000000	67.340864
520.000000	67.251207
519.000000	67.143747
518.000000	67.086298
517.000000	67.043670
516.000000	66.913033
515.000000	66.853775
514.000000	66.779557
513.000000	66.679405
512.000000	66.612104
511.000000	66.505154
510.000000	66.403886
509.000000	66.330808
508.000000	66.205770
507.000000	66.103357
506.000000	66.092247
505.000000	65.954618
504.000000	65.854005
503.000000	65.814708
502.000000	65.724771
501.000000	65.616750
500.000000	65.538801
499.000000	65.460392
498.000000	65.303799
497.000000	65.247491
496.000000	65.182784
495.000000	65.048618
494.000000	65.026704
493.000000	64.950415
492.000000	64.875871
491.000000	64.720544
490.000000	64.613860
489.000000	64.519339
488.000000	64.438473
487.000000	64.384154
486.000000	64.273988
485.000000	64.216042
484.000000	64.158438
483.000000	64.114011
482.000000	63.977529
481.000000	63.865955
480.000000	63.782087
479.000000	63.700783
478.000000	63.616359
477.000000	63.495725
476.000000	63.404282
475.000000	63.349923
474.000000	63.268135
473.000000	63.173553
472.000000	63.060964
471.000000	62.917911
470.000000	62.794932
469.000000	62.740488
468.000000	62.655108
467.000000	62.561844
466.000000	62.447666
465.000000	62.353994
464.000000	62.299762
463.000000	62.208513
462.000000	62.070353
461.000000	61.964434
460.000000	61.853520
459.000000	61.730197
458.000000	61.637352
457.000000	61.565161
456.000000	61.441860
455.000000	61.316039
454.000000	61.219659
453.000000	61.046308
452.000000	60.883163
451.000000	60.817435
450.000000	60.661771
449.000000	60.552507
448.000000	60.414003
447.000000	60.251035
446.000000	60.151744
445.000000	60.033230
444.000000	59.903237
443.000000	59.800280
442.000000	59.678120
441.000000	59.520172
440.000000	59.315036
439.000000	59.178428
438.000000	59.018246
437.000000	58.855836
436.000000	58.706809
435.000000	58.573424
434.000000	58.443162
433.000000	58.273073
432.000000	58.137644
431.000000	57.965952
430.000000	57.742765
429.000000	57.571871
428.000000	57.417881
427.000000	57.240208
426.000000	57.085037
425.000000	56.939549
424.000000	56.740517
423.000000	56.584592
422.000000	56.404673
421.000000	56.204287
420.000000	56.088545
419.000000	55.887044
418.000000	55.683353
417.000000	55.480744
416.000000	55.330759
415.000000	55.122210
414.000000	54.842348
413.000000	54.797957
412.000000	54.600185
411.000000	54.428344
410.000000	54.260648
409.000000	54.036527
408.000000	53.833361
407.000000	53.721327
406.000000	53.528126
405.000000	53.282996
404.000000	53.112793
403.000000	52.907106
402.000000	52.735682
401.000000	52.557652
400.000000	52.279205
399.000000	52.163730
398.000000	51.964334
397.000000	51.793209
396.000000	51.519650
395.000000	51.384445
394.000000	51.239736
393.000000	51.024204
392.000000	50.787389
391.000000	50.544152
390.000000	50.417435
389.000000	50.259416
388.000000	50.083485
387.000000	49.875990
386.000000	49.633660
385.000000	49.462646
384.000000	49.257842
383.000000	49.000659
382.000000	48.821384
381.000000	48.616029
380.000000	48.502526
379.000000	48.207424
378.000000	48.084572
377.000000	48.001892
376.000000	47.760595
375.000000	47.706701
374.000000	47.357362
373.000000	47.114426
372.000000	47.072019
371.000000	46.690960
370.000000	46.481630
369.000000	46.323792
368.000000	46.268062
367.000000	45.897872
366.000000	45.859499
365.000000	45.642213
364.000000	45.455688
363.000000	45.169662
362.000000	45.025725
361.000000	44.833954
360.000000	44.730979
359.000000	44.538154
358.000000	44.359839
357.000000	44.112308
356.000000	44.232733
355.000000	43.931977
354.000000	43.671878
353.000000	43.472142
352.000000	43.365721
351.000000	43.207457
350.000000	42.969805
349.000000	42.842598
348.000000	42.715300
347.000000	42.528364
346.000000	42.450940
345.000000	42.328486
344.000000	41.976417
343.000000	41.961844
342.000000	41.705776
341.000000	41.418469
340.000000	41.277504
339.000000	41.043739
338.000000	41.030297
337.000000	40.748480
336.000000	40.695088
335.000000	40.397797
334.000000	40.297414
333.000000	40.157515
332.000000	39.758253
331.000000	39.960885
330.000000	39.877132
329.000000	39.567723
328.000000	39.545483
327.000000	39.365220
326.000000	39.285875
325.000000	39.168388
324.000000	38.941679
323.000000	39.022067
322.000000	38.732469
321.000000	38.629679
320.000000	38.720749
319.000000	38.548176
318.000000	38.153740
317.000000	38.203066
316.000000	38.188747
315.000000	38.060203
314.000000	38.183780
313.000000	37.965672
312.000000	37.763034
311.000000	37.833995
310.000000	37.760395
309.000000	37.587404
308.000000	37.569624
307.000000	37.443982
306.000000	37.428286
305.000000	37.156285
304.000000	37.378851
303.000000	37.217383
302.000000	36.966192
301.000000	36.958862
300.000000	37.017340
299.000000	36.766146
298.000000	36.716736
297.000000	36.538102
296.000000	36.468740
295.000000	36.156753
294.000000	36.088882
293.000000	35.817628
292.000000	35.453208
291.000000	35.210039
290.000000	35.234880
289.000000	35.003849
288.000000	34.766318
287.000000	34.464979
286.000000	34.408024
285.000000	34.262782
284.000000	34.178606
283.000000	34.234952
282.000000	34.079468
281.000000	34.158733
280.000000	34.107029
279.000000	34.056439
278.000000	34.068375
277.000000	34.155913
276.000000	34.131557
275.000000	34.226856
274.000000	34.429796
273.000000	34.563148
272.000000	34.595270
271.000000	34.570821
270.000000	34.704083
269.000000	34.718276
268.000000	34.873610
267.000000	34.999203
266.000000	35.049751
265.000000	35.225488
264.000000	35.444315
263.000000	35.591388
262.000000	35.702606
261.000000	35.825395
260.000000	36.058069
259.000000	36.097548
258.000000	36.324397
257.000000	36.662521
256.000000	36.932035
255.000000	37.195012
254.000000	37.425439
253.000000	37.497605
252.000000	37.572049
251.000000	37.869078
250.000000	38.082095
249.000000	38.318822
248.000000	38.436554
247.000000	38.508068
246.000000	38.629461
245.000000	38.725510
244.000000	38.558124
243.000000	38.329818
242.000000	38.259326
241.000000	37.853843
240.000000	37.485472
239.000000	37.059391
238.000000	36.486422
237.000000	35.757768
236.000000	35.057889
235.000000	34.445484
234.000000	33.755854
233.000000	33.048291
232.000000	32.360820
231.000000	31.608929
230.000000	30.797498
229.000000	30.165083
228.000000	29.515104
227.000000	28.974079
226.000000	28.514395
225.000000	27.947033
224.000000	27.454193
223.000000	27.013082
222.000000	26.500154
221.000000	25.933474
220.000000	25.521866
219.000000	25.194929
218.000000	24.824668
217.000000	24.584353
216.000000	24.390834
215.000000	24.069591
214.000000	23.820783
213.000000	23.786415
212.000000	23.717402
211.000000	23.477656
210.000000	23.429916
209.000000	23.300148
208.000000	23.215435
207.000000	23.259349
206.000000	23.314280
205.000000	23.498554
204.000000	23.747323
203.000000	24.279706
202.000000	24.518877
201.000000	24.879792
200.000000	25.842989
