PE UV       SUBTECH     SPECTRUM    ASCII       PEDS        4.00        
   -1
RDms159342.Sample.asc
18/03/19
18:26:21.00
18/03/19
18:26:21.00
Administrator

200.000000
1
Lambda 750
750N8071901
PerkinElmer UV WinLab 6.0.4.0738 / 1.61.00 Lambda 900

0
0
3350/servo 860.8/2
0
0
UV/VIS
1
1
1
CommonBeamDepol,150mm sphere / downward view
0
0
0
0
Program
Program
3350/servo 860.8/2
3350/0.2 860.8/0.2
3350/0.2 860.8/0.2
0
1
 
 
 
0
 
860.8
319.2
860.8
Front
100
on
 
 
0
0
0
 
0
 
 
 
0
 
 
0
0
0
0
0
 
 
 
 
0
0


0
0
#HDR
-1
-1
#GR
nm
%R
1.0
0.0
2350.000000
-1.000000
2151
8
54.637967
7.619799
#DATA
2350.000000	35.176599
2349.000000	35.589513
2348.000000	35.965813
2347.000000	36.103387
2346.000000	36.135565
2345.000000	36.025048
2344.000000	35.997520
2343.000000	35.871078
2342.000000	36.111350
2341.000000	35.949526
2340.000000	36.091524
2339.000000	36.241605
2338.000000	36.373593
2337.000000	36.323298
2336.000000	36.430509
2335.000000	36.312727
2334.000000	36.612046
2333.000000	36.570666
2332.000000	36.824974
2331.000000	37.000772
2330.000000	36.643684
2329.000000	36.548452
2328.000000	36.609354
2327.000000	36.505122
2326.000000	36.366777
2325.000000	36.547750
2324.000000	36.479565
2323.000000	36.358917
2322.000000	36.518805
2321.000000	36.136308
2320.000000	36.072939
2319.000000	36.315213
2318.000000	36.180694
2317.000000	35.968320
2316.000000	35.987754
2315.000000	35.790859
2314.000000	35.827091
2313.000000	36.033699
2312.000000	35.854003
2311.000000	35.741342
2310.000000	35.528380
2309.000000	35.827866
2308.000000	35.663004
2307.000000	35.434047
2306.000000	35.289621
2305.000000	35.313154
2304.000000	35.271093
2303.000000	35.361862
2302.000000	35.540324
2301.000000	35.258270
2300.000000	34.989156
2299.000000	34.887388
2298.000000	34.650717
2297.000000	34.498917
2296.000000	34.839796
2295.000000	34.746335
2294.000000	34.669612
2293.000000	34.579736
2292.000000	34.348504
2291.000000	34.165873
2290.000000	34.402378
2289.000000	34.349236
2288.000000	34.420048
2287.000000	34.277574
2286.000000	34.322655
2285.000000	34.305757
2284.000000	34.043788
2283.000000	34.090776
2282.000000	34.046370
2281.000000	34.166358
2280.000000	34.129740
2279.000000	34.200541
2278.000000	34.078757
2277.000000	33.982959
2276.000000	34.150984
2275.000000	34.281802
2274.000000	34.295904
2273.000000	34.510359
2272.000000	34.609507
2271.000000	34.359380
2270.000000	34.298513
2269.000000	34.468680
2268.000000	34.466627
2267.000000	34.453770
2266.000000	34.570383
2265.000000	34.685607
2264.000000	34.851521
2263.000000	34.901613
2262.000000	34.889257
2261.000000	35.073579
2260.000000	35.203524
2259.000000	35.280493
2258.000000	35.491426
2257.000000	35.732616
2256.000000	35.748002
2255.000000	35.732663
2254.000000	35.812476
2253.000000	36.037405
2252.000000	36.316822
2251.000000	36.546867
2250.000000	36.643177
2249.000000	36.791928
2248.000000	36.872619
2247.000000	37.048905
2246.000000	37.335005
2245.000000	37.421102
2244.000000	37.515968
2243.000000	37.710613
2242.000000	37.718594
2241.000000	37.731556
2240.000000	37.940544
2239.000000	38.123053
2238.000000	38.180058
2237.000000	38.220161
2236.000000	38.296014
2235.000000	38.438093
2234.000000	38.588715
2233.000000	38.651964
2232.000000	38.742137
2231.000000	38.752836
2230.000000	38.776673
2229.000000	38.776141
2228.000000	38.796985
2227.000000	38.844739
2226.000000	38.747940
2225.000000	38.704798
2224.000000	38.743547
2223.000000	38.773143
2222.000000	38.959957
2221.000000	38.927825
2220.000000	38.768265
2219.000000	38.757760
2218.000000	38.819898
2217.000000	38.808990
2216.000000	38.670208
2215.000000	38.558237
2214.000000	38.553335
2213.000000	38.722509
2212.000000	38.550666
2211.000000	38.411918
2210.000000	38.403754
2209.000000	38.265741
2208.000000	38.242261
2207.000000	38.314390
2206.000000	38.289822
2205.000000	38.230826
2204.000000	38.132046
2203.000000	38.166177
2202.000000	38.100235
2201.000000	38.120940
2200.000000	38.069604
2199.000000	38.120890
2198.000000	37.931398
2197.000000	37.805407
2196.000000	37.661225
2195.000000	37.648178
2194.000000	37.593505
2193.000000	37.507732
2192.000000	37.417937
2191.000000	37.502152
2190.000000	37.457979
2189.000000	37.432226
2188.000000	37.260352
2187.000000	37.258591
2186.000000	37.419140
2185.000000	37.282703
2184.000000	37.364144
2183.000000	37.242808
2182.000000	37.233918
2181.000000	37.339597
2180.000000	37.143744
2179.000000	37.059642
2178.000000	37.114342
2177.000000	37.304817
2176.000000	37.041720
2175.000000	37.139404
2174.000000	37.104455
2173.000000	37.187097
2172.000000	37.188892
2171.000000	37.300541
2170.000000	37.326911
2169.000000	37.366541
2168.000000	37.602002
2167.000000	37.491081
2166.000000	37.676214
2165.000000	37.623211
2164.000000	37.547148
2163.000000	37.672049
2162.000000	37.884094
2161.000000	37.891437
2160.000000	38.243874
2159.000000	38.316702
2158.000000	38.325749
2157.000000	38.654661
2156.000000	38.537144
2155.000000	38.542700
2154.000000	38.834460
2153.000000	38.956327
2152.000000	39.153306
2151.000000	39.353305
2150.000000	39.192247
2149.000000	39.329190
2148.000000	39.432552
2147.000000	39.714626
2146.000000	39.638333
2145.000000	39.854958
2144.000000	39.994699
2143.000000	39.881633
2142.000000	40.109569
2141.000000	40.212016
2140.000000	40.354456
2139.000000	40.553613
2138.000000	40.619041
2137.000000	40.663081
2136.000000	40.618768
2135.000000	40.850593
2134.000000	40.927812
2133.000000	40.854061
2132.000000	41.126005
2131.000000	41.193828
2130.000000	41.214851
2129.000000	41.216908
2128.000000	41.262631
2127.000000	41.290230
2126.000000	41.338497
2125.000000	41.389223
2124.000000	41.495886
2123.000000	41.589404
2122.000000	41.647371
2121.000000	41.669328
2120.000000	41.546088
2119.000000	41.709992
2118.000000	41.596205
2117.000000	41.634505
2116.000000	41.687651
2115.000000	41.846716
2114.000000	41.765932
2113.000000	41.828389
2112.000000	41.919617
2111.000000	41.847074
2110.000000	41.723282
2109.000000	41.931316
2108.000000	41.919812
2107.000000	41.908513
2106.000000	41.899786
2105.000000	41.921059
2104.000000	41.962955
2103.000000	41.970206
2102.000000	42.045849
2101.000000	41.974752
2100.000000	41.982190
2099.000000	41.970990
2098.000000	41.999816
2097.000000	42.024464
2096.000000	41.928974
2095.000000	41.895575
2094.000000	41.952223
2093.000000	42.011006
2092.000000	41.998953
2091.000000	42.026573
2090.000000	41.944251
2089.000000	41.905732
2088.000000	41.887356
2087.000000	41.858376
2086.000000	41.922545
2085.000000	42.053800
2084.000000	41.951048
2083.000000	41.788840
2082.000000	41.669592
2081.000000	41.665732
2080.000000	41.561578
2079.000000	41.533656
2078.000000	41.451929
2077.000000	41.408075
2076.000000	41.422639
2075.000000	41.344968
2074.000000	41.250174
2073.000000	41.111875
2072.000000	41.120221
2071.000000	41.034229
2070.000000	40.992658
2069.000000	40.818823
2068.000000	40.654028
2067.000000	40.579672
2066.000000	40.543429
2065.000000	40.399392
2064.000000	40.341555
2063.000000	40.185853
2062.000000	40.046879
2061.000000	39.963669
2060.000000	39.787786
2059.000000	39.717226
2058.000000	39.628237
2057.000000	39.483272
2056.000000	39.367170
2055.000000	39.255108
2054.000000	39.173878
2053.000000	39.067640
2052.000000	38.956971
2051.000000	38.842510
2050.000000	38.739974
2049.000000	38.700733
2048.000000	38.684989
2047.000000	38.637609
2046.000000	38.466852
2045.000000	38.435454
2044.000000	38.454509
2043.000000	38.408128
2042.000000	38.422496
2041.000000	38.479822
2040.000000	38.521976
2039.000000	38.482324
2038.000000	38.457322
2037.000000	38.507239
2036.000000	38.548393
2035.000000	38.624214
2034.000000	38.677813
2033.000000	38.716247
2032.000000	38.825321
2031.000000	38.950182
2030.000000	39.004604
2029.000000	39.064104
2028.000000	39.156617
2027.000000	39.229287
2026.000000	39.312401
2025.000000	39.391770
2024.000000	39.448359
2023.000000	39.508068
2022.000000	39.570418
2021.000000	39.553507
2020.000000	39.578047
2019.000000	39.638040
2018.000000	39.678034
2017.000000	39.732342
2016.000000	39.722259
2015.000000	39.690610
2014.000000	39.632132
2013.000000	39.591976
2012.000000	39.602872
2011.000000	39.618784
2010.000000	39.556451
2009.000000	39.464004
2008.000000	39.398372
2007.000000	39.366358
2006.000000	39.296341
2005.000000	39.236692
2004.000000	39.171769
2003.000000	39.063174
2002.000000	39.017373
2001.000000	38.929011
2000.000000	38.838236
1999.000000	38.753141
1998.000000	38.694739
1997.000000	38.643013
1996.000000	38.551426
1995.000000	38.448700
1994.000000	38.336290
1993.000000	38.271634
1992.000000	38.180436
1991.000000	38.071821
1990.000000	37.996050
1989.000000	37.893398
1988.000000	37.790819
1987.000000	37.766405
1986.000000	37.622934
1985.000000	37.515701
1984.000000	37.456640
1983.000000	37.369605
1982.000000	37.280496
1981.000000	37.192034
1980.000000	37.164150
1979.000000	37.049437
1978.000000	37.007720
1977.000000	36.904030
1976.000000	36.745041
1975.000000	36.715285
1974.000000	36.597369
1973.000000	36.522960
1972.000000	36.464552
1971.000000	36.358522
1970.000000	36.335393
1969.000000	36.238610
1968.000000	36.117979
1967.000000	36.067110
1966.000000	35.980035
1965.000000	35.853734
1964.000000	35.761731
1963.000000	35.696427
1962.000000	35.640449
1961.000000	35.527894
1960.000000	35.447004
1959.000000	35.345521
1958.000000	35.310533
1957.000000	35.243933
1956.000000	35.210757
1955.000000	35.114333
1954.000000	35.063201
1953.000000	35.005927
1952.000000	34.980246
1951.000000	34.920577
1950.000000	34.883523
1949.000000	34.801652
1948.000000	34.745256
1947.000000	34.710834
1946.000000	34.672779
1945.000000	34.684195
1944.000000	34.690315
1943.000000	34.684553
1942.000000	34.686966
1941.000000	34.750543
1940.000000	34.760799
1939.000000	34.821615
1938.000000	34.889482
1937.000000	34.946844
1936.000000	35.001972
1935.000000	35.079372
1934.000000	35.136494
1933.000000	35.265063
1932.000000	35.293098
1931.000000	35.475283
1930.000000	35.654397
1929.000000	35.708275
1928.000000	35.875109
1927.000000	36.039838
1926.000000	36.123259
1925.000000	36.376510
1924.000000	36.492257
1923.000000	36.830302
1922.000000	36.950847
1921.000000	37.247071
1920.000000	37.437513
1919.000000	37.580005
1918.000000	37.946839
1917.000000	38.053170
1916.000000	38.255526
1915.000000	38.611557
1914.000000	38.855896
1913.000000	39.124429
1912.000000	39.476098
1911.000000	39.728238
1910.000000	40.024955
1909.000000	40.246011
1908.000000	40.621916
1907.000000	40.956799
1906.000000	41.237659
1905.000000	41.588755
1904.000000	41.905705
1903.000000	42.276438
1902.000000	42.606740
1901.000000	43.021177
1900.000000	43.302966
1899.000000	43.699569
1898.000000	44.027798
1897.000000	44.411845
1896.000000	44.653684
1895.000000	45.052138
1894.000000	45.343851
1893.000000	45.651248
1892.000000	46.018304
1891.000000	46.311420
1890.000000	46.612304
1889.000000	46.877634
1888.000000	47.147679
1887.000000	47.431519
1886.000000	47.646282
1885.000000	47.938169
1884.000000	48.218101
1883.000000	48.426109
1882.000000	48.621167
1881.000000	48.810372
1880.000000	49.050990
1879.000000	49.202110
1878.000000	49.402169
1877.000000	49.630518
1876.000000	49.816776
1875.000000	49.978632
1874.000000	50.068801
1873.000000	50.196656
1872.000000	50.376392
1871.000000	50.491145
1870.000000	50.557903
1869.000000	50.643403
1868.000000	50.774924
1867.000000	50.846299
1866.000000	50.882963
1865.000000	50.964117
1864.000000	50.985116
1863.000000	51.057539
1862.000000	51.116893
1861.000000	51.157231
1860.000000	51.164193
1859.000000	51.164065
1858.000000	51.203732
1857.000000	51.194858
1856.000000	51.238772
1855.000000	51.291611
1854.000000	51.307060
1853.000000	51.330131
1852.000000	51.326906
1851.000000	51.275445
1850.000000	51.298480
1849.000000	51.306814
1848.000000	51.300142
1847.000000	51.332246
1846.000000	51.312954
1845.000000	51.299301
1844.000000	51.285012
1843.000000	51.258629
1842.000000	51.254467
1841.000000	51.257403
1840.000000	51.253726
1839.000000	51.228090
1838.000000	51.236306
1837.000000	51.159245
1836.000000	51.121733
1835.000000	51.114325
1834.000000	51.057501
1833.000000	51.036507
1832.000000	51.017850
1831.000000	50.961296
1830.000000	50.939855
1829.000000	50.922325
1828.000000	50.898374
1827.000000	50.855056
1826.000000	50.832539
1825.000000	50.854710
1824.000000	50.854053
1823.000000	50.811347
1822.000000	50.748917
1821.000000	50.733401
1820.000000	50.703588
1819.000000	50.661933
1818.000000	50.659262
1817.000000	50.627894
1816.000000	50.599812
1815.000000	50.604535
1814.000000	50.599694
1813.000000	50.546911
1812.000000	50.491838
1811.000000	50.463535
1810.000000	50.460793
1809.000000	50.459283
1808.000000	50.426741
1807.000000	50.405499
1806.000000	50.404919
1805.000000	50.374704
1804.000000	50.338094
1803.000000	50.311137
1802.000000	50.278433
1801.000000	50.260416
1800.000000	50.244843
1799.000000	50.229931
1798.000000	50.207401
1797.000000	50.192038
1796.000000	50.173906
1795.000000	50.171081
1794.000000	50.156158
1793.000000	50.115968
1792.000000	50.093666
1791.000000	50.107035
1790.000000	50.113605
1789.000000	50.080964
1788.000000	50.068251
1787.000000	50.035930
1786.000000	50.020430
1785.000000	50.008741
1784.000000	49.980689
1783.000000	49.959298
1782.000000	49.946193
1781.000000	49.952085
1780.000000	49.919471
1779.000000	49.891562
1778.000000	49.849687
1777.000000	49.818523
1776.000000	49.809872
1775.000000	49.767416
1774.000000	49.718395
1773.000000	49.690917
1772.000000	49.654245
1771.000000	49.626961
1770.000000	49.599665
1769.000000	49.527211
1768.000000	49.502564
1767.000000	49.474426
1766.000000	49.427448
1765.000000	49.409096
1764.000000	49.404701
1763.000000	49.348909
1762.000000	49.301876
1761.000000	49.285233
1760.000000	49.241011
1759.000000	49.194847
1758.000000	49.179788
1757.000000	49.124116
1756.000000	49.099805
1755.000000	49.061386
1754.000000	49.025951
1753.000000	49.006895
1752.000000	48.958711
1751.000000	48.937536
1750.000000	48.904035
1749.000000	48.876360
1748.000000	48.810889
1747.000000	48.744687
1746.000000	48.708798
1745.000000	48.676574
1744.000000	48.616639
1743.000000	48.616007
1742.000000	48.567003
1741.000000	48.508310
1740.000000	48.505879
1739.000000	48.466306
1738.000000	48.444805
1737.000000	48.410885
1736.000000	48.396296
1735.000000	48.384003
1734.000000	48.392657
1733.000000	48.370948
1732.000000	48.361274
1731.000000	48.373051
1730.000000	48.353353
1729.000000	48.383905
1728.000000	48.396214
1727.000000	48.428947
1726.000000	48.470216
1725.000000	48.479440
1724.000000	48.545208
1723.000000	48.623631
1722.000000	48.697084
1721.000000	48.732918
1720.000000	48.749347
1719.000000	48.845836
1718.000000	48.927478
1717.000000	48.973723
1716.000000	49.013683
1715.000000	49.079733
1714.000000	49.136488
1713.000000	49.179668
1712.000000	49.227759
1711.000000	49.261312
1710.000000	49.295036
1709.000000	49.349978
1708.000000	49.346001
1707.000000	49.384300
1706.000000	49.450075
1705.000000	49.452638
1704.000000	49.436299
1703.000000	49.469261
1702.000000	49.489095
1701.000000	49.503514
1700.000000	49.504065
1699.000000	49.483800
1698.000000	49.513888
1697.000000	49.543338
1696.000000	49.541538
1695.000000	49.519686
1694.000000	49.554274
1693.000000	49.619884
1692.000000	49.598714
1691.000000	49.627214
1690.000000	49.682680
1689.000000	49.724717
1688.000000	49.784790
1687.000000	49.846387
1686.000000	49.876285
1685.000000	49.986190
1684.000000	50.058658
1683.000000	50.174099
1682.000000	50.271198
1681.000000	50.375233
1680.000000	50.428298
1679.000000	50.520586
1678.000000	50.621706
1677.000000	50.726014
1676.000000	50.819622
1675.000000	50.909826
1674.000000	51.009093
1673.000000	51.137307
1672.000000	51.229997
1671.000000	51.322396
1670.000000	51.418792
1669.000000	51.522309
1668.000000	51.605012
1667.000000	51.682419
1666.000000	51.685425
1665.000000	51.749655
1664.000000	51.789995
1663.000000	51.853762
1662.000000	51.905222
1661.000000	51.984614
1660.000000	52.003010
1659.000000	52.056459
1658.000000	52.079919
1657.000000	52.077932
1656.000000	52.110523
1655.000000	52.135638
1654.000000	52.187417
1653.000000	52.173317
1652.000000	52.194807
1651.000000	52.177678
1650.000000	52.171688
1649.000000	52.172554
1648.000000	52.151615
1647.000000	52.172858
1646.000000	52.166885
1645.000000	52.144872
1644.000000	52.152289
1643.000000	52.128236
1642.000000	52.110515
1641.000000	52.092226
1640.000000	52.090441
1639.000000	52.072993
1638.000000	52.054309
1637.000000	52.045023
1636.000000	52.009714
1635.000000	51.986052
1634.000000	51.963803
1633.000000	51.927995
1632.000000	51.909514
1631.000000	51.885371
1630.000000	51.842022
1629.000000	51.816096
1628.000000	51.793973
1627.000000	51.755726
1626.000000	51.719944
1625.000000	51.702608
1624.000000	51.672058
1623.000000	51.645874
1622.000000	51.632779
1621.000000	51.592294
1620.000000	51.559286
1619.000000	51.530551
1618.000000	51.488066
1617.000000	51.462481
1616.000000	51.430770
1615.000000	51.388009
1614.000000	51.343410
1613.000000	51.310263
1612.000000	51.267340
1611.000000	51.236749
1610.000000	51.201207
1609.000000	51.155450
1608.000000	51.109915
1607.000000	51.069085
1606.000000	51.027284
1605.000000	50.981563
1604.000000	50.933542
1603.000000	50.883051
1602.000000	50.862737
1601.000000	50.840793
1600.000000	50.783541
1599.000000	50.729825
1598.000000	50.694764
1597.000000	50.668681
1596.000000	50.632088
1595.000000	50.586953
1594.000000	50.546044
1593.000000	50.516729
1592.000000	50.491378
1591.000000	50.456111
1590.000000	50.404637
1589.000000	50.371586
1588.000000	50.342836
1587.000000	50.320233
1586.000000	50.271814
1585.000000	50.245705
1584.000000	50.225335
1583.000000	50.179889
1582.000000	50.171484
1581.000000	50.148208
1580.000000	50.102835
1579.000000	50.083441
1578.000000	50.048055
1577.000000	50.004567
1576.000000	49.976251
1575.000000	49.950216
1574.000000	49.916112
1573.000000	49.896772
1572.000000	49.867140
1571.000000	49.828875
1570.000000	49.796040
1569.000000	49.764327
1568.000000	49.756021
1567.000000	49.730517
1566.000000	49.706499
1565.000000	49.678908
1564.000000	49.653791
1563.000000	49.655099
1562.000000	49.628057
1561.000000	49.600969
1560.000000	49.591734
1559.000000	49.566796
1558.000000	49.546380
1557.000000	49.551504
1556.000000	49.516256
1555.000000	49.492246
1554.000000	49.469188
1553.000000	49.442779
1552.000000	49.434697
1551.000000	49.415577
1550.000000	49.412838
1549.000000	49.388106
1548.000000	49.355397
1547.000000	49.316466
1546.000000	49.279166
1545.000000	49.239193
1544.000000	49.182512
1543.000000	49.127708
1542.000000	49.093114
1541.000000	49.049801
1540.000000	48.992873
1539.000000	48.934786
1538.000000	48.878558
1537.000000	48.822275
1536.000000	48.757265
1535.000000	48.699459
1534.000000	48.638486
1533.000000	48.591704
1532.000000	48.520876
1531.000000	48.492287
1530.000000	48.440519
1529.000000	48.375850
1528.000000	48.308758
1527.000000	48.268723
1526.000000	48.237290
1525.000000	48.203391
1524.000000	48.150084
1523.000000	48.102260
1522.000000	48.055917
1521.000000	48.025946
1520.000000	47.999594
1519.000000	47.965477
1518.000000	47.935059
1517.000000	47.902391
1516.000000	47.874152
1515.000000	47.877045
1514.000000	47.847630
1513.000000	47.798980
1512.000000	47.781447
1511.000000	47.780870
1510.000000	47.751356
1509.000000	47.744715
1508.000000	47.721539
1507.000000	47.699624
1506.000000	47.678811
1505.000000	47.677657
1504.000000	47.661437
1503.000000	47.661141
1502.000000	47.651155
1501.000000	47.641008
1500.000000	47.645553
1499.000000	47.651687
1498.000000	47.657253
1497.000000	47.661230
1496.000000	47.657223
1495.000000	47.662153
1494.000000	47.643742
1493.000000	47.674473
1492.000000	47.694909
1491.000000	47.717727
1490.000000	47.736418
1489.000000	47.769610
1488.000000	47.798165
1487.000000	47.802921
1486.000000	47.843048
1485.000000	47.867189
1484.000000	47.908935
1483.000000	47.925456
1482.000000	47.929628
1481.000000	47.980483
1480.000000	48.022404
1479.000000	48.051374
1478.000000	48.075403
1477.000000	48.124185
1476.000000	48.145202
1475.000000	48.162810
1474.000000	48.190128
1473.000000	48.237902
1472.000000	48.263530
1471.000000	48.277314
1470.000000	48.305805
1469.000000	48.317872
1468.000000	48.343658
1467.000000	48.398160
1466.000000	48.408467
1465.000000	48.426482
1464.000000	48.445846
1463.000000	48.508903
1462.000000	48.488384
1461.000000	48.507161
1460.000000	48.521633
1459.000000	48.554056
1458.000000	48.564350
1457.000000	48.584810
1456.000000	48.610866
1455.000000	48.640693
1454.000000	48.671552
1453.000000	48.692153
1452.000000	48.721978
1451.000000	48.750923
1450.000000	48.798130
1449.000000	48.827989
1448.000000	48.859007
1447.000000	48.879297
1446.000000	48.929107
1445.000000	48.953932
1444.000000	48.997438
1443.000000	49.042255
1442.000000	49.084560
1441.000000	49.117110
1440.000000	49.150525
1439.000000	49.201843
1438.000000	49.266252
1437.000000	49.310433
1436.000000	49.351710
1435.000000	49.413723
1434.000000	49.471992
1433.000000	49.516409
1432.000000	49.569251
1431.000000	49.631001
1430.000000	49.688717
1429.000000	49.764059
1428.000000	49.830788
1427.000000	49.903475
1426.000000	49.971865
1425.000000	50.058295
1424.000000	50.139290
1423.000000	50.217011
1422.000000	50.296367
1421.000000	50.375652
1420.000000	50.472038
1419.000000	50.548103
1418.000000	50.641885
1417.000000	50.738303
1416.000000	50.818623
1415.000000	50.916503
1414.000000	51.008097
1413.000000	51.104306
1412.000000	51.210026
1411.000000	51.289714
1410.000000	51.385927
1409.000000	51.473124
1408.000000	51.584661
1407.000000	51.683668
1406.000000	51.783425
1405.000000	51.880210
1404.000000	51.955654
1403.000000	52.041252
1402.000000	52.128619
1401.000000	52.214812
1400.000000	52.293597
1399.000000	52.354508
1398.000000	52.434913
1397.000000	52.523040
1396.000000	52.593046
1395.000000	52.668549
1394.000000	52.735948
1393.000000	52.803821
1392.000000	52.878813
1391.000000	52.942514
1390.000000	52.993323
1389.000000	53.056884
1388.000000	53.103392
1387.000000	53.152318
1386.000000	53.205913
1385.000000	53.237802
1384.000000	53.288532
1383.000000	53.347764
1382.000000	53.389010
1381.000000	53.428882
1380.000000	53.471004
1379.000000	53.495173
1378.000000	53.524480
1377.000000	53.550562
1376.000000	53.581639
1375.000000	53.599373
1374.000000	53.623326
1373.000000	53.650473
1372.000000	53.655130
1371.000000	53.679280
1370.000000	53.717317
1369.000000	53.727077
1368.000000	53.730061
1367.000000	53.750825
1366.000000	53.770349
1365.000000	53.791718
1364.000000	53.819842
1363.000000	53.850163
1362.000000	53.866094
1361.000000	53.896839
1360.000000	53.931541
1359.000000	53.953361
1358.000000	53.969172
1357.000000	53.978588
1356.000000	54.010241
1355.000000	54.036486
1354.000000	54.065918
1353.000000	54.092603
1352.000000	54.107245
1351.000000	54.122161
1350.000000	54.155985
1349.000000	54.193250
1348.000000	54.197533
1347.000000	54.213815
1346.000000	54.260163
1345.000000	54.268421
1344.000000	54.271190
1343.000000	54.276551
1342.000000	54.281552
1341.000000	54.308394
1340.000000	54.333570
1339.000000	54.372419
1338.000000	54.395197
1337.000000	54.411504
1336.000000	54.421996
1335.000000	54.423817
1334.000000	54.433622
1333.000000	54.454943
1332.000000	54.464197
1331.000000	54.464846
1330.000000	54.477740
1329.000000	54.481102
1328.000000	54.498050
1327.000000	54.525868
1326.000000	54.580167
1325.000000	54.612318
1324.000000	54.637967
1323.000000	54.616541
1322.000000	54.597007
1321.000000	54.577354
1320.000000	54.600287
1319.000000	54.598109
1318.000000	54.624332
1317.000000	54.635130
1316.000000	54.595269
1315.000000	54.602884
1314.000000	54.609048
1313.000000	54.589037
1312.000000	54.602634
1311.000000	54.634869
1310.000000	54.603338
1309.000000	54.582396
1308.000000	54.603815
1307.000000	54.599449
1306.000000	54.587289
1305.000000	54.590789
1304.000000	54.587606
1303.000000	54.604061
1302.000000	54.591353
1301.000000	54.568994
1300.000000	54.570064
1299.000000	54.572373
1298.000000	54.554817
1297.000000	54.535404
1296.000000	54.540549
1295.000000	54.548502
1294.000000	54.520211
1293.000000	54.504275
1292.000000	54.511243
1291.000000	54.505088
1290.000000	54.487982
1289.000000	54.501835
1288.000000	54.483951
1287.000000	54.477362
1286.000000	54.476511
1285.000000	54.455216
1284.000000	54.442821
1283.000000	54.397139
1282.000000	54.391854
1281.000000	54.395221
1280.000000	54.391678
1279.000000	54.396209
1278.000000	54.393376
1277.000000	54.396076
1276.000000	54.371472
1275.000000	54.359671
1274.000000	54.362646
1273.000000	54.350798
1272.000000	54.334781
1271.000000	54.339813
1270.000000	54.343773
1269.000000	54.339639
1268.000000	54.333505
1267.000000	54.306037
1266.000000	54.328492
1265.000000	54.330744
1264.000000	54.345252
1263.000000	54.339298
1262.000000	54.305645
1261.000000	54.322593
1260.000000	54.306401
1259.000000	54.298648
1258.000000	54.304791
1257.000000	54.315310
1256.000000	54.287159
1255.000000	54.276963
1254.000000	54.277110
1253.000000	54.251489
1252.000000	54.252759
1251.000000	54.253597
1250.000000	54.234788
1249.000000	54.215765
1248.000000	54.211406
1247.000000	54.211783
1246.000000	54.192472
1245.000000	54.203130
1244.000000	54.180298
1243.000000	54.173232
1242.000000	54.151130
1241.000000	54.150363
1240.000000	54.108247
1239.000000	54.086320
1238.000000	54.072611
1237.000000	54.065336
1236.000000	54.021700
1235.000000	54.004030
1234.000000	53.994940
1233.000000	53.979478
1232.000000	53.940407
1231.000000	53.934553
1230.000000	53.936569
1229.000000	53.938256
1228.000000	53.904629
1227.000000	53.863873
1226.000000	53.856031
1225.000000	53.837375
1224.000000	53.843328
1223.000000	53.844213
1222.000000	53.808040
1221.000000	53.782334
1220.000000	53.778488
1219.000000	53.759579
1218.000000	53.740336
1217.000000	53.729404
1216.000000	53.695299
1215.000000	53.675907
1214.000000	53.666649
1213.000000	53.661084
1212.000000	53.654596
1211.000000	53.622629
1210.000000	53.615356
1209.000000	53.606930
1208.000000	53.568984
1207.000000	53.546804
1206.000000	53.515528
1205.000000	53.474899
1204.000000	53.453703
1203.000000	53.446150
1202.000000	53.440732
1201.000000	53.394687
1200.000000	53.374398
1199.000000	53.368787
1198.000000	53.328884
1197.000000	53.314904
1196.000000	53.289657
1195.000000	53.264068
1194.000000	53.240175
1193.000000	53.215816
1192.000000	53.191751
1191.000000	53.193231
1190.000000	53.166959
1189.000000	53.132798
1188.000000	53.105203
1187.000000	53.107285
1186.000000	53.096024
1185.000000	53.090472
1184.000000	53.077753
1183.000000	53.074884
1182.000000	53.093094
1181.000000	53.100117
1180.000000	53.104280
1179.000000	53.106638
1178.000000	53.122440
1177.000000	53.135356
1176.000000	53.132591
1175.000000	53.139311
1174.000000	53.157363
1173.000000	53.169287
1172.000000	53.178403
1171.000000	53.203457
1170.000000	53.215332
1169.000000	53.224495
1168.000000	53.245884
1167.000000	53.269825
1166.000000	53.292585
1165.000000	53.313398
1164.000000	53.339786
1163.000000	53.357225
1162.000000	53.368183
1161.000000	53.377426
1160.000000	53.400607
1159.000000	53.426199
1158.000000	53.451936
1157.000000	53.466402
1156.000000	53.481711
1155.000000	53.509508
1154.000000	53.524379
1153.000000	53.523534
1152.000000	53.524270
1151.000000	53.546171
1150.000000	53.569555
1149.000000	53.572178
1148.000000	53.574044
1147.000000	53.584612
1146.000000	53.602089
1145.000000	53.616430
1144.000000	53.617475
1143.000000	53.628638
1142.000000	53.644007
1141.000000	53.651031
1140.000000	53.667544
1139.000000	53.677463
1138.000000	53.687999
1137.000000	53.699659
1136.000000	53.669253
1135.000000	53.665872
1134.000000	53.683509
1133.000000	53.688979
1132.000000	53.686927
1131.000000	53.689435
1130.000000	53.690423
1129.000000	53.689111
1128.000000	53.707183
1127.000000	53.711614
1126.000000	53.715270
1125.000000	53.713854
1124.000000	53.709834
1123.000000	53.720698
1122.000000	53.704575
1121.000000	53.685078
1120.000000	53.668244
1119.000000	53.678686
1118.000000	53.679245
1117.000000	53.668276
1116.000000	53.657013
1115.000000	53.663610
1114.000000	53.654596
1113.000000	53.651705
1112.000000	53.640160
1111.000000	53.634829
1110.000000	53.625460
1109.000000	53.614820
1108.000000	53.607566
1107.000000	53.586339
1106.000000	53.583696
1105.000000	53.564904
1104.000000	53.557594
1103.000000	53.551637
1102.000000	53.543827
1101.000000	53.542201
1100.000000	53.540225
1099.000000	53.529239
1098.000000	53.499747
1097.000000	53.485117
1096.000000	53.466950
1095.000000	53.475889
1094.000000	53.465774
1093.000000	53.469177
1092.000000	53.463451
1091.000000	53.420645
1090.000000	53.405225
1089.000000	53.381744
1088.000000	53.386422
1087.000000	53.397785
1086.000000	53.384061
1085.000000	53.364660
1084.000000	53.355649
1083.000000	53.343419
1082.000000	53.334203
1081.000000	53.319375
1080.000000	53.305354
1079.000000	53.279357
1078.000000	53.269752
1077.000000	53.252708
1076.000000	53.257585
1075.000000	53.259380
1074.000000	53.209384
1073.000000	53.199753
1072.000000	53.181193
1071.000000	53.190344
1070.000000	53.172872
1069.000000	53.166954
1068.000000	53.155311
1067.000000	53.140279
1066.000000	53.111794
1065.000000	53.105944
1064.000000	53.093053
1063.000000	53.093707
1062.000000	53.085515
1061.000000	53.073176
1060.000000	53.057754
1059.000000	53.038979
1058.000000	53.038373
1057.000000	53.022913
1056.000000	53.012313
1055.000000	52.999057
1054.000000	52.978262
1053.000000	52.970248
1052.000000	52.952075
1051.000000	52.938208
1050.000000	52.915976
1049.000000	52.888492
1048.000000	52.878662
1047.000000	52.877447
1046.000000	52.853125
1045.000000	52.852056
1044.000000	52.841479
1043.000000	52.843874
1042.000000	52.819613
1041.000000	52.788929
1040.000000	52.792141
1039.000000	52.768136
1038.000000	52.753666
1037.000000	52.750912
1036.000000	52.722930
1035.000000	52.711766
1034.000000	52.701068
1033.000000	52.670537
1032.000000	52.651604
1031.000000	52.642605
1030.000000	52.646733
1029.000000	52.624992
1028.000000	52.626060
1027.000000	52.612700
1026.000000	52.593755
1025.000000	52.580866
1024.000000	52.587525
1023.000000	52.551003
1022.000000	52.525781
1021.000000	52.502542
1020.000000	52.520199
1019.000000	52.492851
1018.000000	52.496239
1017.000000	52.468692
1016.000000	52.451376
1015.000000	52.452284
1014.000000	52.429030
1013.000000	52.434948
1012.000000	52.422573
1011.000000	52.408619
1010.000000	52.397927
1009.000000	52.391865
1008.000000	52.364245
1007.000000	52.355148
1006.000000	52.335035
1005.000000	52.349042
1004.000000	52.325033
1003.000000	52.302989
1002.000000	52.319127
1001.000000	52.292354
1000.000000	52.274306
999.000000	52.274972
998.000000	52.253301
997.000000	52.249328
996.000000	52.239502
995.000000	52.235465
994.000000	52.209149
993.000000	52.181192
992.000000	52.164948
991.000000	52.176944
990.000000	52.171765
989.000000	52.146334
988.000000	52.124776
987.000000	52.125938
986.000000	52.132044
985.000000	52.115235
984.000000	52.096868
983.000000	52.088780
982.000000	52.084658
981.000000	52.083198
980.000000	52.064445
979.000000	52.056081
978.000000	52.053245
977.000000	52.040626
976.000000	52.035980
975.000000	52.027575
974.000000	52.005199
973.000000	51.992101
972.000000	51.996116
971.000000	51.989477
970.000000	51.975692
969.000000	51.959723
968.000000	51.952218
967.000000	51.949588
966.000000	51.936370
965.000000	51.911348
964.000000	51.903098
963.000000	51.888008
962.000000	51.875853
961.000000	51.879565
960.000000	51.880033
959.000000	51.860320
958.000000	51.826261
957.000000	51.821607
956.000000	51.810015
955.000000	51.817045
954.000000	51.838480
953.000000	51.819668
952.000000	51.791827
951.000000	51.777708
950.000000	51.766106
949.000000	51.750860
948.000000	51.733408
947.000000	51.723187
946.000000	51.737604
945.000000	51.725074
944.000000	51.688828
943.000000	51.676636
942.000000	51.684073
941.000000	51.659586
940.000000	51.642603
939.000000	51.641158
938.000000	51.635113
937.000000	51.609298
936.000000	51.591684
935.000000	51.576963
934.000000	51.571021
933.000000	51.560048
932.000000	51.542470
931.000000	51.530807
930.000000	51.502482
929.000000	51.502087
928.000000	51.496820
927.000000	51.480254
926.000000	51.460855
925.000000	51.441513
924.000000	51.441972
923.000000	51.423357
922.000000	51.393404
921.000000	51.361024
920.000000	51.355221
919.000000	51.353206
918.000000	51.323588
917.000000	51.318627
916.000000	51.285609
915.000000	51.280635
914.000000	51.242307
913.000000	51.224820
912.000000	51.247612
911.000000	51.217230
910.000000	51.174624
909.000000	51.183904
908.000000	51.174746
907.000000	51.180666
906.000000	51.189619
905.000000	51.197099
904.000000	51.177191
903.000000	51.112279
902.000000	51.100607
901.000000	51.095135
900.000000	51.087132
899.000000	51.033714
898.000000	51.024025
897.000000	51.063086
896.000000	51.059065
895.000000	51.034914
894.000000	51.001350
893.000000	50.973347
892.000000	50.973750
891.000000	50.958419
890.000000	50.967606
889.000000	50.939538
888.000000	50.945904
887.000000	50.927827
886.000000	50.983138
885.000000	50.938899
884.000000	50.939094
883.000000	50.915385
882.000000	50.853332
881.000000	50.795504
880.000000	50.838404
879.000000	50.865391
878.000000	50.900288
877.000000	50.894940
876.000000	50.793830
875.000000	50.805881
874.000000	50.785623
873.000000	50.657289
872.000000	50.682772
871.000000	50.729631
870.000000	50.697439
869.000000	50.672882
868.000000	50.570813
867.000000	50.543929
866.000000	50.572648
865.000000	50.594522
864.000000	50.705934
863.000000	50.726053
862.000000	50.604086
861.000000	50.592447
860.000000	50.584516
859.000000	49.758581
858.000000	50.130023
857.000000	49.690536
856.000000	49.734535
855.000000	50.026084
854.000000	49.771445
853.000000	49.552833
852.000000	49.924201
851.000000	49.880797
850.000000	49.754276
849.000000	49.586258
848.000000	49.475930
847.000000	49.693501
846.000000	49.503755
845.000000	49.302429
844.000000	49.624987
843.000000	49.386021
842.000000	49.580754
841.000000	49.464461
840.000000	49.617668
839.000000	49.612949
838.000000	49.445818
837.000000	49.310878
836.000000	49.404473
835.000000	49.446066
834.000000	49.279851
833.000000	49.302940
832.000000	49.441576
831.000000	49.392626
830.000000	49.248335
829.000000	49.037757
828.000000	49.415676
827.000000	49.225762
826.000000	49.178542
825.000000	49.072858
824.000000	49.238134
823.000000	49.038994
822.000000	49.038565
821.000000	48.940914
820.000000	49.081133
819.000000	48.995692
818.000000	49.025147
817.000000	48.893287
816.000000	48.883960
815.000000	48.907073
814.000000	48.926157
813.000000	48.879967
812.000000	48.847110
811.000000	48.751859
810.000000	48.887725
809.000000	48.820868
808.000000	48.825346
807.000000	48.753503
806.000000	48.783344
805.000000	48.805248
804.000000	48.560344
803.000000	48.667835
802.000000	48.633668
801.000000	48.706145
800.000000	48.571590
799.000000	48.449547
798.000000	48.487653
797.000000	48.564245
796.000000	48.567493
795.000000	48.538442
794.000000	48.550604
793.000000	48.553894
792.000000	48.600574
791.000000	48.536766
790.000000	48.457384
789.000000	48.430116
788.000000	48.454428
787.000000	48.370155
786.000000	48.344563
785.000000	48.399161
784.000000	48.300294
783.000000	48.298839
782.000000	48.195672
781.000000	48.221370
780.000000	48.181821
779.000000	48.208418
778.000000	48.137759
777.000000	48.127653
776.000000	48.040389
775.000000	47.976188
774.000000	48.034124
773.000000	48.095201
772.000000	47.992557
771.000000	47.961983
770.000000	47.971270
769.000000	47.944432
768.000000	47.890883
767.000000	47.922433
766.000000	47.855954
765.000000	47.836836
764.000000	47.784251
763.000000	47.816142
762.000000	47.816623
761.000000	47.768773
760.000000	47.729222
759.000000	47.770369
758.000000	47.684873
757.000000	47.655984
756.000000	47.607436
755.000000	47.580621
754.000000	47.552746
753.000000	47.466560
752.000000	47.449431
751.000000	47.474592
750.000000	47.489172
749.000000	47.442466
748.000000	47.375893
747.000000	47.427431
746.000000	47.395217
745.000000	47.343738
744.000000	47.323849
743.000000	47.279042
742.000000	47.215915
741.000000	47.159005
740.000000	47.066160
739.000000	47.144087
738.000000	47.140924
737.000000	47.075031
736.000000	47.107992
735.000000	47.088344
734.000000	47.016458
733.000000	46.961252
732.000000	46.957325
731.000000	46.920560
730.000000	46.858967
729.000000	46.905105
728.000000	46.890226
727.000000	46.761243
726.000000	46.735274
725.000000	46.752630
724.000000	46.740274
723.000000	46.681730
722.000000	46.717444
721.000000	46.721963
720.000000	46.623703
719.000000	46.564399
718.000000	46.539456
717.000000	46.523252
716.000000	46.492668
715.000000	46.463404
714.000000	46.456300
713.000000	46.388233
712.000000	46.342933
711.000000	46.323010
710.000000	46.314012
709.000000	46.307099
708.000000	46.261732
707.000000	46.197896
706.000000	46.153959
705.000000	46.140447
704.000000	46.137092
703.000000	46.049738
702.000000	45.998379
701.000000	45.977009
700.000000	45.957486
699.000000	45.944708
698.000000	45.884245
697.000000	45.831428
696.000000	45.812952
695.000000	45.799698
694.000000	45.719758
693.000000	45.716511
692.000000	45.708480
691.000000	45.665735
690.000000	45.625919
689.000000	45.516550
688.000000	45.438623
687.000000	45.408819
686.000000	45.370023
685.000000	45.358159
684.000000	45.302376
683.000000	45.286327
682.000000	45.261971
681.000000	45.250249
680.000000	45.165345
679.000000	45.180300
678.000000	45.151279
677.000000	45.043279
676.000000	45.009995
675.000000	44.966282
674.000000	44.929043
673.000000	44.923400
672.000000	44.911967
671.000000	44.900327
670.000000	44.825047
669.000000	44.736137
668.000000	44.708590
667.000000	44.662252
666.000000	44.619602
665.000000	44.557377
664.000000	44.521259
663.000000	44.506693
662.000000	44.480007
661.000000	44.397177
660.000000	44.370084
659.000000	44.350604
658.000000	44.316672
657.000000	44.281762
656.000000	44.234116
655.000000	44.188741
654.000000	44.132356
653.000000	44.053157
652.000000	44.046733
651.000000	44.079849
650.000000	43.965875
649.000000	43.928165
648.000000	43.870379
647.000000	43.820973
646.000000	43.743152
645.000000	43.688993
644.000000	43.668244
643.000000	43.617885
642.000000	43.606269
641.000000	43.550584
640.000000	43.498739
639.000000	43.500803
638.000000	43.441536
637.000000	43.320619
636.000000	43.335687
635.000000	43.301040
634.000000	43.214878
633.000000	43.179547
632.000000	43.136121
631.000000	43.084881
630.000000	43.027028
629.000000	43.007373
628.000000	42.909898
627.000000	42.915056
626.000000	42.818422
625.000000	42.807094
624.000000	42.759198
623.000000	42.745270
622.000000	42.638270
621.000000	42.625328
620.000000	42.538372
619.000000	42.510324
618.000000	42.481281
617.000000	42.425250
616.000000	42.318733
615.000000	42.303506
614.000000	42.262922
613.000000	42.200920
612.000000	42.156531
611.000000	42.070220
610.000000	42.005804
609.000000	42.013099
608.000000	41.933913
607.000000	41.856170
606.000000	41.785054
605.000000	41.760449
604.000000	41.656347
603.000000	41.650386
602.000000	41.579141
601.000000	41.547803
600.000000	41.454285
599.000000	41.423573
598.000000	41.382711
597.000000	41.337285
596.000000	41.243740
595.000000	41.216137
594.000000	41.120303
593.000000	41.097273
592.000000	40.997233
591.000000	40.934045
590.000000	40.877037
589.000000	40.831409
588.000000	40.740482
587.000000	40.684924
586.000000	40.607431
585.000000	40.586973
584.000000	40.465329
583.000000	40.415724
582.000000	40.347267
581.000000	40.335040
580.000000	40.197514
579.000000	40.197409
578.000000	40.098928
577.000000	40.055520
576.000000	39.980518
575.000000	39.928621
574.000000	39.801705
573.000000	39.738195
572.000000	39.680928
571.000000	39.632588
570.000000	39.585315
569.000000	39.474662
568.000000	39.412272
567.000000	39.331156
566.000000	39.273620
565.000000	39.153124
564.000000	39.095609
563.000000	39.039253
562.000000	38.938192
561.000000	38.901550
560.000000	38.842688
559.000000	38.759731
558.000000	38.701130
557.000000	38.623052
556.000000	38.542245
555.000000	38.457759
554.000000	38.363712
553.000000	38.311536
552.000000	38.205867
551.000000	38.145371
550.000000	38.049846
549.000000	37.970086
548.000000	37.885699
547.000000	37.815908
546.000000	37.717733
545.000000	37.658662
544.000000	37.564612
543.000000	37.466814
542.000000	37.379149
541.000000	37.320862
540.000000	37.231697
539.000000	37.125907
538.000000	37.018026
537.000000	36.933207
536.000000	36.886645
535.000000	36.788217
534.000000	36.671581
533.000000	36.589719
532.000000	36.522600
531.000000	36.436172
530.000000	36.318396
529.000000	36.219856
528.000000	36.148551
527.000000	36.058241
526.000000	35.933493
525.000000	35.834146
524.000000	35.730097
523.000000	35.640582
522.000000	35.523930
521.000000	35.429400
520.000000	35.336862
519.000000	35.222634
518.000000	35.158784
517.000000	35.053331
516.000000	34.931910
515.000000	34.837390
514.000000	34.737317
513.000000	34.643290
512.000000	34.554556
511.000000	34.462147
510.000000	34.357358
509.000000	34.263608
508.000000	34.128998
507.000000	34.030575
506.000000	33.944013
505.000000	33.822191
504.000000	33.712773
503.000000	33.618576
502.000000	33.511772
501.000000	33.408599
500.000000	33.333801
499.000000	33.208772
498.000000	33.102344
497.000000	33.000443
496.000000	32.893189
495.000000	32.769828
494.000000	32.686348
493.000000	32.610809
492.000000	32.519083
491.000000	32.382834
490.000000	32.299316
489.000000	32.171712
488.000000	32.062834
487.000000	32.014713
486.000000	31.885698
485.000000	31.791175
484.000000	31.726147
483.000000	31.647130
482.000000	31.537831
481.000000	31.437887
480.000000	31.301982
479.000000	31.152350
478.000000	31.031690
477.000000	30.917877
476.000000	30.797894
475.000000	30.669913
474.000000	30.563543
473.000000	30.457877
472.000000	30.318907
471.000000	30.181827
470.000000	30.065867
469.000000	29.962272
468.000000	29.831926
467.000000	29.718292
466.000000	29.595749
465.000000	29.486935
464.000000	29.382714
463.000000	29.232737
462.000000	29.081872
461.000000	28.970405
460.000000	28.859084
459.000000	28.726741
458.000000	28.596322
457.000000	28.447542
456.000000	28.336761
455.000000	28.211991
454.000000	28.047881
453.000000	27.896077
452.000000	27.765772
451.000000	27.611398
450.000000	27.459912
449.000000	27.346978
448.000000	27.213971
447.000000	27.061098
446.000000	26.945145
445.000000	26.813292
444.000000	26.642338
443.000000	26.514271
442.000000	26.394488
441.000000	26.226763
440.000000	26.076951
439.000000	25.954605
438.000000	25.827403
437.000000	25.673709
436.000000	25.550810
435.000000	25.435060
434.000000	25.308217
433.000000	25.146339
432.000000	25.011927
431.000000	24.869802
430.000000	24.732676
429.000000	24.578541
428.000000	24.425658
427.000000	24.271987
426.000000	24.165234
425.000000	24.016961
424.000000	23.858757
423.000000	23.720578
422.000000	23.574568
421.000000	23.442627
420.000000	23.277572
419.000000	23.093826
418.000000	22.947972
417.000000	22.782287
416.000000	22.633131
415.000000	22.503219
414.000000	22.318513
413.000000	22.195200
412.000000	22.006037
411.000000	21.847522
410.000000	21.706467
409.000000	21.525381
408.000000	21.373435
407.000000	21.200061
406.000000	21.036644
405.000000	20.862031
404.000000	20.698468
403.000000	20.554467
402.000000	20.380405
401.000000	20.229852
400.000000	20.033769
399.000000	19.866766
398.000000	19.688935
397.000000	19.533396
396.000000	19.345763
395.000000	19.165140
394.000000	19.012747
393.000000	18.879502
392.000000	18.687834
391.000000	18.523451
390.000000	18.379734
389.000000	18.192785
388.000000	18.048465
387.000000	17.870539
386.000000	17.697043
385.000000	17.564653
384.000000	17.397598
383.000000	17.230200
382.000000	17.002390
381.000000	16.854001
380.000000	16.743966
379.000000	16.541804
378.000000	16.422827
377.000000	16.359887
376.000000	16.056409
375.000000	15.838590
374.000000	15.736040
373.000000	15.633801
372.000000	15.416332
371.000000	15.273865
370.000000	15.161301
369.000000	14.933097
368.000000	14.744805
367.000000	14.574480
366.000000	14.468585
365.000000	14.264448
364.000000	14.130985
363.000000	13.961768
362.000000	13.778075
361.000000	13.693736
360.000000	13.517258
359.000000	13.350802
358.000000	13.231241
357.000000	13.109195
356.000000	13.002034
355.000000	12.856212
354.000000	12.665677
353.000000	12.526546
352.000000	12.393777
351.000000	12.349239
350.000000	12.123075
349.000000	12.003233
348.000000	11.882110
347.000000	11.814136
346.000000	11.628500
345.000000	11.599791
344.000000	11.386309
343.000000	11.279298
342.000000	11.126726
341.000000	10.936158
340.000000	10.926843
339.000000	10.781190
338.000000	10.701157
337.000000	10.545164
336.000000	10.434688
335.000000	10.298855
334.000000	10.225033
333.000000	10.085871
332.000000	10.028614
331.000000	9.940197
330.000000	9.805665
329.000000	9.679440
328.000000	9.568928
327.000000	9.515327
326.000000	9.386248
325.000000	9.230778
324.000000	9.143811
323.000000	9.113433
322.000000	9.025120
321.000000	8.920028
320.000000	8.926892
319.000000	8.752647
318.000000	8.876512
317.000000	8.834093
316.000000	8.721302
315.000000	8.713131
314.000000	8.701299
313.000000	8.551543
312.000000	8.526358
311.000000	8.471283
310.000000	8.490212
309.000000	8.368276
308.000000	8.310720
307.000000	8.296733
306.000000	8.332843
305.000000	8.274508
304.000000	8.271940
303.000000	8.243463
302.000000	8.147680
301.000000	8.117407
300.000000	8.088809
299.000000	8.064198
298.000000	8.023756
297.000000	7.969293
296.000000	8.015565
295.000000	7.951481
294.000000	7.903466
293.000000	7.866014
292.000000	7.870519
291.000000	7.755546
290.000000	7.810307
289.000000	7.757964
288.000000	7.731225
287.000000	7.633945
286.000000	7.657021
285.000000	7.619799
284.000000	7.637168
283.000000	7.658541
282.000000	7.677293
281.000000	7.708753
280.000000	7.719435
279.000000	7.724334
278.000000	7.750080
277.000000	7.752997
276.000000	7.766781
275.000000	7.723859
274.000000	7.847291
273.000000	7.881813
272.000000	7.931594
271.000000	7.950577
270.000000	8.011526
269.000000	8.027564
268.000000	8.046245
267.000000	8.105406
266.000000	8.161595
265.000000	8.255881
264.000000	8.298966
263.000000	8.388654
262.000000	8.470795
261.000000	8.543985
260.000000	8.609740
259.000000	8.653998
258.000000	8.795346
257.000000	8.905562
256.000000	9.006217
255.000000	9.105295
254.000000	9.199352
253.000000	9.314183
252.000000	9.443650
251.000000	9.578828
250.000000	9.645296
249.000000	9.729970
248.000000	9.801036
247.000000	9.891825
246.000000	10.017453
245.000000	10.104191
244.000000	10.133591
243.000000	10.185668
242.000000	10.196823
241.000000	10.204328
240.000000	10.286387
239.000000	10.303295
238.000000	10.270872
237.000000	10.277869
236.000000	10.269173
235.000000	10.238939
234.000000	10.257709
233.000000	10.299218
232.000000	10.301074
231.000000	10.250469
230.000000	10.277030
229.000000	10.340336
228.000000	10.352342
227.000000	10.396606
226.000000	10.464451
225.000000	10.565719
224.000000	10.665038
223.000000	10.733355
222.000000	10.807722
221.000000	10.888941
220.000000	10.998769
219.000000	11.132421
218.000000	11.228618
217.000000	11.380129
216.000000	11.529982
215.000000	11.748120
214.000000	12.044389
213.000000	12.180993
212.000000	12.369967
211.000000	12.662024
210.000000	12.974750
209.000000	13.205763
208.000000	13.481786
207.000000	13.909833
206.000000	14.212469
205.000000	14.532803
204.000000	14.958625
203.000000	15.508767
202.000000	15.891920
201.000000	16.406483
200.000000	17.072134
