PE UV       SUBTECH     SPECTRUM    ASCII       PEDS        4.00        
   -1
RTmshap22.Sample.asc
18/03/19
16:16:16.00
18/03/19
16:16:16.00
Administrator

200.000000
1
Lambda 750
750N8071901
PerkinElmer UV WinLab 6.0.4.0738 / 1.61.00 Lambda 900

0
0
3350/servo 860.8/2
0
0
UV/VIS
1
1
1
CommonBeamDepol,150mm sphere / downward view
0
0
0
0
Program
Program
3350/servo 860.8/2
3350/0.2 860.8/0.2
3350/0.2 860.8/0.2
0
1
 
 
 
0
 
860.8
319.2
860.8
Front
100
on
 
 
0
0
0
 
0
 
 
 
0
 
 
0
0
0
0
0
 
 
 
 
0
0


0
0
#HDR
-1
-1
#GR
nm
%R
1.0
0.0
2350.000000
-1.000000
2151
8
74.354716
21.332841
#DATA
2350.000000	40.445204
2349.000000	40.668817
2348.000000	40.464825
2347.000000	40.809228
2346.000000	40.708787
2345.000000	40.800675
2344.000000	40.741825
2343.000000	41.001408
2342.000000	40.834428
2341.000000	40.548928
2340.000000	40.791376
2339.000000	40.707522
2338.000000	41.098980
2337.000000	40.754649
2336.000000	41.073746
2335.000000	41.042720
2334.000000	41.235976
2333.000000	41.081579
2332.000000	41.158495
2331.000000	41.108203
2330.000000	41.288561
2329.000000	41.315333
2328.000000	41.198400
2327.000000	40.985826
2326.000000	41.045014
2325.000000	41.058927
2324.000000	40.962986
2323.000000	40.990653
2322.000000	40.746511
2321.000000	40.790969
2320.000000	40.889605
2319.000000	40.907125
2318.000000	40.714597
2317.000000	40.832995
2316.000000	40.766764
2315.000000	40.486101
2314.000000	40.523479
2313.000000	40.442470
2312.000000	40.363104
2311.000000	40.589178
2310.000000	40.304756
2309.000000	40.445314
2308.000000	40.349162
2307.000000	40.285378
2306.000000	40.211694
2305.000000	40.137399
2304.000000	40.159770
2303.000000	40.135066
2302.000000	40.007396
2301.000000	39.904733
2300.000000	39.739845
2299.000000	39.793370
2298.000000	39.772733
2297.000000	39.459410
2296.000000	39.475254
2295.000000	39.437252
2294.000000	39.342030
2293.000000	39.179652
2292.000000	39.016807
2291.000000	39.090882
2290.000000	39.007604
2289.000000	39.024714
2288.000000	39.214175
2287.000000	39.153316
2286.000000	39.057928
2285.000000	39.126612
2284.000000	38.958666
2283.000000	38.918546
2282.000000	38.878979
2281.000000	38.945773
2280.000000	39.073707
2279.000000	38.964192
2278.000000	38.993142
2277.000000	39.003691
2276.000000	38.763941
2275.000000	38.932532
2274.000000	39.208801
2273.000000	39.303591
2272.000000	39.262267
2271.000000	39.209853
2270.000000	39.353387
2269.000000	39.348481
2268.000000	39.338120
2267.000000	39.472403
2266.000000	39.649972
2265.000000	39.713346
2264.000000	39.860692
2263.000000	40.032561
2262.000000	40.026782
2261.000000	40.128042
2260.000000	40.349064
2259.000000	40.397675
2258.000000	40.703686
2257.000000	40.846980
2256.000000	40.946589
2255.000000	41.147687
2254.000000	41.274733
2253.000000	41.406492
2252.000000	41.555373
2251.000000	41.780802
2250.000000	41.936099
2249.000000	41.991388
2248.000000	42.158750
2247.000000	42.346511
2246.000000	42.570660
2245.000000	42.810149
2244.000000	42.961843
2243.000000	43.334319
2242.000000	43.385261
2241.000000	43.342246
2240.000000	43.580811
2239.000000	43.724613
2238.000000	43.883658
2237.000000	44.007610
2236.000000	44.079676
2235.000000	44.081559
2234.000000	44.151326
2233.000000	44.264390
2232.000000	44.346951
2231.000000	44.398703
2230.000000	44.523790
2229.000000	44.561734
2228.000000	44.504282
2227.000000	44.530528
2226.000000	44.517692
2225.000000	44.534171
2224.000000	44.540363
2223.000000	44.537536
2222.000000	44.622607
2221.000000	44.688170
2220.000000	44.645738
2219.000000	44.614222
2218.000000	44.482994
2217.000000	44.454019
2216.000000	44.533903
2215.000000	44.470789
2214.000000	44.404430
2213.000000	44.443093
2212.000000	44.346521
2211.000000	44.289581
2210.000000	44.257379
2209.000000	44.160646
2208.000000	44.067539
2207.000000	44.151137
2206.000000	44.167281
2205.000000	44.022233
2204.000000	43.847905
2203.000000	43.855517
2202.000000	43.833075
2201.000000	43.712873
2200.000000	43.682990
2199.000000	43.697144
2198.000000	43.718668
2197.000000	43.635789
2196.000000	43.615671
2195.000000	43.405332
2194.000000	43.395481
2193.000000	43.298626
2192.000000	43.211078
2191.000000	43.239130
2190.000000	43.243038
2189.000000	43.219981
2188.000000	43.016141
2187.000000	42.985335
2186.000000	43.021182
2185.000000	42.896231
2184.000000	42.863755
2183.000000	42.872237
2182.000000	42.841200
2181.000000	42.780245
2180.000000	42.893299
2179.000000	42.973337
2178.000000	42.727658
2177.000000	42.979888
2176.000000	42.806863
2175.000000	42.881249
2174.000000	42.901991
2173.000000	42.821300
2172.000000	43.029838
2171.000000	43.078548
2170.000000	43.183429
2169.000000	43.237313
2168.000000	43.323712
2167.000000	43.338820
2166.000000	43.316087
2165.000000	43.470694
2164.000000	43.461042
2163.000000	43.727600
2162.000000	43.805217
2161.000000	43.926653
2160.000000	44.058392
2159.000000	44.192625
2158.000000	44.148219
2157.000000	44.348911
2156.000000	44.474829
2155.000000	44.619634
2154.000000	44.789589
2153.000000	44.908649
2152.000000	45.053218
2151.000000	45.274129
2150.000000	45.309362
2149.000000	45.494332
2148.000000	45.491149
2147.000000	45.706231
2146.000000	45.993844
2145.000000	45.941892
2144.000000	46.130907
2143.000000	46.192408
2142.000000	46.355314
2141.000000	46.422831
2140.000000	46.647742
2139.000000	46.702853
2138.000000	47.014764
2137.000000	47.013524
2136.000000	46.971087
2135.000000	46.990672
2134.000000	47.263859
2133.000000	47.164927
2132.000000	47.324514
2131.000000	47.418368
2130.000000	47.663566
2129.000000	47.628337
2128.000000	47.584060
2127.000000	47.749047
2126.000000	47.782145
2125.000000	47.683705
2124.000000	47.932968
2123.000000	47.876491
2122.000000	47.979586
2121.000000	48.025954
2120.000000	47.946543
2119.000000	48.017420
2118.000000	48.146458
2117.000000	47.872416
2116.000000	48.132975
2115.000000	48.358326
2114.000000	48.232181
2113.000000	48.143596
2112.000000	48.274567
2111.000000	48.202349
2110.000000	48.100906
2109.000000	48.248370
2108.000000	48.140527
2107.000000	48.333729
2106.000000	48.260686
2105.000000	48.303846
2104.000000	48.271812
2103.000000	48.386953
2102.000000	48.369548
2101.000000	48.315742
2100.000000	48.352520
2099.000000	48.351702
2098.000000	48.337846
2097.000000	48.410515
2096.000000	48.405429
2095.000000	48.320286
2094.000000	48.314543
2093.000000	48.429853
2092.000000	48.441222
2091.000000	48.354332
2090.000000	48.411437
2089.000000	48.368454
2088.000000	48.325027
2087.000000	48.251199
2086.000000	48.328332
2085.000000	48.366569
2084.000000	48.279445
2083.000000	48.164295
2082.000000	48.096440
2081.000000	48.072423
2080.000000	48.026928
2079.000000	47.988598
2078.000000	47.871807
2077.000000	47.921762
2076.000000	47.796412
2075.000000	47.665817
2074.000000	47.577373
2073.000000	47.505991
2072.000000	47.465051
2071.000000	47.395005
2070.000000	47.304133
2069.000000	47.167952
2068.000000	46.993822
2067.000000	46.906301
2066.000000	46.754334
2065.000000	46.708020
2064.000000	46.601104
2063.000000	46.433202
2062.000000	46.335309
2061.000000	46.192006
2060.000000	46.055831
2059.000000	45.915093
2058.000000	45.752680
2057.000000	45.691620
2056.000000	45.549604
2055.000000	45.372203
2054.000000	45.226078
2053.000000	45.084612
2052.000000	45.054679
2051.000000	44.911975
2050.000000	44.798145
2049.000000	44.749594
2048.000000	44.651148
2047.000000	44.637555
2046.000000	44.549831
2045.000000	44.415798
2044.000000	44.390866
2043.000000	44.423191
2042.000000	44.407403
2041.000000	44.435904
2040.000000	44.455027
2039.000000	44.438501
2038.000000	44.496131
2037.000000	44.546265
2036.000000	44.563362
2035.000000	44.679611
2034.000000	44.735311
2033.000000	44.780968
2032.000000	44.893861
2031.000000	44.968973
2030.000000	45.056924
2029.000000	45.193480
2028.000000	45.291934
2027.000000	45.375702
2026.000000	45.504726
2025.000000	45.572609
2024.000000	45.596058
2023.000000	45.669284
2022.000000	45.754617
2021.000000	45.789020
2020.000000	45.832932
2019.000000	45.888306
2018.000000	45.885695
2017.000000	45.907321
2016.000000	45.944567
2015.000000	45.940559
2014.000000	45.903904
2013.000000	45.914385
2012.000000	45.884104
2011.000000	45.843153
2010.000000	45.778858
2009.000000	45.712756
2008.000000	45.673022
2007.000000	45.620391
2006.000000	45.574767
2005.000000	45.525046
2004.000000	45.444232
2003.000000	45.390611
2002.000000	45.298060
2001.000000	45.184528
2000.000000	45.136317
1999.000000	45.061827
1998.000000	44.966708
1997.000000	44.899853
1996.000000	44.849522
1995.000000	44.765348
1994.000000	44.620239
1993.000000	44.536380
1992.000000	44.440892
1991.000000	44.342609
1990.000000	44.299866
1989.000000	44.206866
1988.000000	44.092944
1987.000000	44.016176
1986.000000	43.877409
1985.000000	43.796209
1984.000000	43.744110
1983.000000	43.636565
1982.000000	43.552305
1981.000000	43.473673
1980.000000	43.384441
1979.000000	43.271406
1978.000000	43.160161
1977.000000	43.057970
1976.000000	42.971869
1975.000000	42.881112
1974.000000	42.809882
1973.000000	42.709007
1972.000000	42.606290
1971.000000	42.492747
1970.000000	42.400531
1969.000000	42.330381
1968.000000	42.247951
1967.000000	42.220089
1966.000000	42.141610
1965.000000	42.035934
1964.000000	41.928740
1963.000000	41.858330
1962.000000	41.719893
1961.000000	41.636808
1960.000000	41.604480
1959.000000	41.523343
1958.000000	41.446680
1957.000000	41.352952
1956.000000	41.285615
1955.000000	41.235859
1954.000000	41.181655
1953.000000	41.084666
1952.000000	41.081152
1951.000000	41.055232
1950.000000	40.967002
1949.000000	40.912782
1948.000000	40.906235
1947.000000	40.885175
1946.000000	40.828080
1945.000000	40.891118
1944.000000	40.855392
1943.000000	40.902453
1942.000000	40.881480
1941.000000	40.843489
1940.000000	40.900884
1939.000000	40.993924
1938.000000	41.102574
1937.000000	41.157246
1936.000000	41.197827
1935.000000	41.250519
1934.000000	41.343360
1933.000000	41.502672
1932.000000	41.618767
1931.000000	41.681630
1930.000000	41.868299
1929.000000	41.981303
1928.000000	42.269342
1927.000000	42.359599
1926.000000	42.616689
1925.000000	42.819131
1924.000000	42.932121
1923.000000	43.175092
1922.000000	43.472306
1921.000000	43.680857
1920.000000	43.917215
1919.000000	44.142005
1918.000000	44.492080
1917.000000	44.761838
1916.000000	45.023009
1915.000000	45.353808
1914.000000	45.644591
1913.000000	46.054213
1912.000000	46.331488
1911.000000	46.674415
1910.000000	47.015632
1909.000000	47.349854
1908.000000	47.646262
1907.000000	48.105510
1906.000000	48.506843
1905.000000	48.885455
1904.000000	49.289887
1903.000000	49.621473
1902.000000	50.030420
1901.000000	50.435454
1900.000000	50.835932
1899.000000	51.286854
1898.000000	51.733636
1897.000000	52.116576
1896.000000	52.489133
1895.000000	52.941755
1894.000000	53.293141
1893.000000	53.646470
1892.000000	54.175821
1891.000000	54.541165
1890.000000	54.907039
1889.000000	55.246246
1888.000000	55.604034
1887.000000	55.955795
1886.000000	56.247782
1885.000000	56.538456
1884.000000	56.890037
1883.000000	57.191432
1882.000000	57.478570
1881.000000	57.717507
1880.000000	58.010494
1879.000000	58.199255
1878.000000	58.446977
1877.000000	58.718479
1876.000000	58.913627
1875.000000	59.118519
1874.000000	59.269137
1873.000000	59.456266
1872.000000	59.590629
1871.000000	59.775485
1870.000000	59.948173
1869.000000	60.047262
1868.000000	60.163375
1867.000000	60.309719
1866.000000	60.416213
1865.000000	60.510691
1864.000000	60.534578
1863.000000	60.619299
1862.000000	60.673257
1861.000000	60.725975
1860.000000	60.808653
1859.000000	60.808626
1858.000000	60.854562
1857.000000	60.898283
1856.000000	60.945582
1855.000000	60.980615
1854.000000	60.986928
1853.000000	61.011442
1852.000000	61.038100
1851.000000	61.016669
1850.000000	61.035665
1849.000000	61.029593
1848.000000	61.084558
1847.000000	61.128594
1846.000000	61.097575
1845.000000	61.088347
1844.000000	61.055799
1843.000000	61.038945
1842.000000	61.056021
1841.000000	61.052777
1840.000000	61.054147
1839.000000	61.021004
1838.000000	61.010544
1837.000000	60.994183
1836.000000	60.972513
1835.000000	60.936889
1834.000000	60.900041
1833.000000	60.889101
1832.000000	60.884212
1831.000000	60.842651
1830.000000	60.822173
1829.000000	60.788785
1828.000000	60.756101
1827.000000	60.712337
1826.000000	60.684588
1825.000000	60.710529
1824.000000	60.698442
1823.000000	60.667998
1822.000000	60.640522
1821.000000	60.644926
1820.000000	60.616137
1819.000000	60.580626
1818.000000	60.577475
1817.000000	60.542096
1816.000000	60.512506
1815.000000	60.507738
1814.000000	60.478922
1813.000000	60.450910
1812.000000	60.433674
1811.000000	60.405450
1810.000000	60.393820
1809.000000	60.379796
1808.000000	60.355428
1807.000000	60.335146
1806.000000	60.313064
1805.000000	60.292976
1804.000000	60.268281
1803.000000	60.252791
1802.000000	60.239229
1801.000000	60.226463
1800.000000	60.211706
1799.000000	60.200775
1798.000000	60.164864
1797.000000	60.140950
1796.000000	60.140446
1795.000000	60.110146
1794.000000	60.098470
1793.000000	60.111130
1792.000000	60.095283
1791.000000	60.067250
1790.000000	60.052985
1789.000000	60.029112
1788.000000	60.013640
1787.000000	60.013457
1786.000000	59.993800
1785.000000	59.981399
1784.000000	59.945361
1783.000000	59.919308
1782.000000	59.909010
1781.000000	59.901020
1780.000000	59.878836
1779.000000	59.869753
1778.000000	59.815539
1777.000000	59.777349
1776.000000	59.759567
1775.000000	59.719497
1774.000000	59.674453
1773.000000	59.650993
1772.000000	59.616397
1771.000000	59.588798
1770.000000	59.535634
1769.000000	59.500236
1768.000000	59.471502
1767.000000	59.455155
1766.000000	59.375324
1765.000000	59.367724
1764.000000	59.351077
1763.000000	59.300232
1762.000000	59.269739
1761.000000	59.238605
1760.000000	59.199850
1759.000000	59.182020
1758.000000	59.180916
1757.000000	59.132653
1756.000000	59.102518
1755.000000	59.039263
1754.000000	59.013105
1753.000000	58.987333
1752.000000	58.931959
1751.000000	58.919837
1750.000000	58.916595
1749.000000	58.855409
1748.000000	58.820714
1747.000000	58.780278
1746.000000	58.767197
1745.000000	58.702814
1744.000000	58.676147
1743.000000	58.662392
1742.000000	58.628315
1741.000000	58.569485
1740.000000	58.556714
1739.000000	58.537230
1738.000000	58.506285
1737.000000	58.481999
1736.000000	58.475996
1735.000000	58.461785
1734.000000	58.482543
1733.000000	58.499741
1732.000000	58.480032
1731.000000	58.492441
1730.000000	58.505845
1729.000000	58.522494
1728.000000	58.566037
1727.000000	58.611247
1726.000000	58.669150
1725.000000	58.702587
1724.000000	58.756329
1723.000000	58.853512
1722.000000	58.920181
1721.000000	58.998891
1720.000000	59.056135
1719.000000	59.170323
1718.000000	59.209812
1717.000000	59.250817
1716.000000	59.368513
1715.000000	59.433768
1714.000000	59.511129
1713.000000	59.573551
1712.000000	59.643922
1711.000000	59.692436
1710.000000	59.738011
1709.000000	59.773191
1708.000000	59.789164
1707.000000	59.868978
1706.000000	59.904290
1705.000000	59.899854
1704.000000	59.954494
1703.000000	59.968935
1702.000000	59.985123
1701.000000	59.995976
1700.000000	60.019996
1699.000000	59.998456
1698.000000	60.044020
1697.000000	60.084496
1696.000000	60.113445
1695.000000	60.085166
1694.000000	60.153360
1693.000000	60.194147
1692.000000	60.200353
1691.000000	60.278662
1690.000000	60.335921
1689.000000	60.384990
1688.000000	60.466158
1687.000000	60.552966
1686.000000	60.620056
1685.000000	60.707178
1684.000000	60.821296
1683.000000	60.917950
1682.000000	61.049220
1681.000000	61.190670
1680.000000	61.274362
1679.000000	61.413227
1678.000000	61.528991
1677.000000	61.646241
1676.000000	61.769348
1675.000000	61.891020
1674.000000	62.006283
1673.000000	62.138976
1672.000000	62.256040
1671.000000	62.361877
1670.000000	62.478862
1669.000000	62.611645
1668.000000	62.707684
1667.000000	62.816085
1666.000000	62.892411
1665.000000	62.949092
1664.000000	63.026294
1663.000000	63.107217
1662.000000	63.160502
1661.000000	63.214883
1660.000000	63.252703
1659.000000	63.298275
1658.000000	63.356038
1657.000000	63.389197
1656.000000	63.412329
1655.000000	63.437369
1654.000000	63.463274
1653.000000	63.476495
1652.000000	63.498228
1651.000000	63.505401
1650.000000	63.509056
1649.000000	63.511517
1648.000000	63.511371
1647.000000	63.525652
1646.000000	63.521356
1645.000000	63.506205
1644.000000	63.502414
1643.000000	63.500355
1642.000000	63.469717
1641.000000	63.455856
1640.000000	63.456126
1639.000000	63.448385
1638.000000	63.430749
1637.000000	63.419255
1636.000000	63.395285
1635.000000	63.389201
1634.000000	63.365321
1633.000000	63.327442
1632.000000	63.295538
1631.000000	63.275875
1630.000000	63.250825
1629.000000	63.234470
1628.000000	63.213688
1627.000000	63.177717
1626.000000	63.154465
1625.000000	63.120391
1624.000000	63.101247
1623.000000	63.090861
1622.000000	63.080762
1621.000000	63.042618
1620.000000	63.003527
1619.000000	62.968562
1618.000000	62.945630
1617.000000	62.918950
1616.000000	62.886781
1615.000000	62.850581
1614.000000	62.805039
1613.000000	62.756877
1612.000000	62.710297
1611.000000	62.674915
1610.000000	62.648971
1609.000000	62.614004
1608.000000	62.575134
1607.000000	62.540770
1606.000000	62.497805
1605.000000	62.458012
1604.000000	62.423533
1603.000000	62.388806
1602.000000	62.349142
1601.000000	62.316148
1600.000000	62.277340
1599.000000	62.229183
1598.000000	62.191168
1597.000000	62.149950
1596.000000	62.109443
1595.000000	62.089219
1594.000000	62.065042
1593.000000	62.015294
1592.000000	61.980820
1591.000000	61.950546
1590.000000	61.926747
1589.000000	61.889163
1588.000000	61.851771
1587.000000	61.843026
1586.000000	61.818651
1585.000000	61.781703
1584.000000	61.743122
1583.000000	61.709033
1582.000000	61.700268
1581.000000	61.681000
1580.000000	61.658718
1579.000000	61.632881
1578.000000	61.590346
1577.000000	61.556869
1576.000000	61.535034
1575.000000	61.507786
1574.000000	61.468569
1573.000000	61.445923
1572.000000	61.416009
1571.000000	61.393546
1570.000000	61.377369
1569.000000	61.345386
1568.000000	61.335544
1567.000000	61.299405
1566.000000	61.282636
1565.000000	61.264294
1564.000000	61.249945
1563.000000	61.243207
1562.000000	61.217761
1561.000000	61.204978
1560.000000	61.191429
1559.000000	61.176881
1558.000000	61.184620
1557.000000	61.168951
1556.000000	61.158388
1555.000000	61.144244
1554.000000	61.130098
1553.000000	61.126112
1552.000000	61.110209
1551.000000	61.094198
1550.000000	61.083824
1549.000000	61.048230
1548.000000	61.029375
1547.000000	60.983535
1546.000000	60.948400
1545.000000	60.925226
1544.000000	60.878583
1543.000000	60.831159
1542.000000	60.775331
1541.000000	60.735501
1540.000000	60.683729
1539.000000	60.614593
1538.000000	60.553888
1537.000000	60.507815
1536.000000	60.466397
1535.000000	60.402757
1534.000000	60.347737
1533.000000	60.298939
1532.000000	60.214363
1531.000000	60.165850
1530.000000	60.133325
1529.000000	60.052664
1528.000000	60.012095
1527.000000	59.974122
1526.000000	59.930908
1525.000000	59.877719
1524.000000	59.847967
1523.000000	59.806817
1522.000000	59.760902
1521.000000	59.733985
1520.000000	59.681185
1519.000000	59.661471
1518.000000	59.631722
1517.000000	59.612635
1516.000000	59.630709
1515.000000	59.669435
1514.000000	59.667272
1513.000000	59.660367
1512.000000	59.636292
1511.000000	59.628342
1510.000000	59.588753
1509.000000	59.586165
1508.000000	59.563834
1507.000000	59.533115
1506.000000	59.532382
1505.000000	59.523230
1504.000000	59.511867
1503.000000	59.483970
1502.000000	59.516468
1501.000000	59.524264
1500.000000	59.533241
1499.000000	59.520279
1498.000000	59.516056
1497.000000	59.540051
1496.000000	59.546232
1495.000000	59.543898
1494.000000	59.558382
1493.000000	59.569880
1492.000000	59.586212
1491.000000	59.631658
1490.000000	59.640482
1489.000000	59.652813
1488.000000	59.700625
1487.000000	59.739594
1486.000000	59.778033
1485.000000	59.801108
1484.000000	59.854281
1483.000000	59.892793
1482.000000	59.926239
1481.000000	59.992066
1480.000000	60.018646
1479.000000	60.063228
1478.000000	60.112212
1477.000000	60.133014
1476.000000	60.188757
1475.000000	60.249876
1474.000000	60.290371
1473.000000	60.327179
1472.000000	60.381181
1471.000000	60.410986
1470.000000	60.459996
1469.000000	60.499911
1468.000000	60.526142
1467.000000	60.588439
1466.000000	60.628700
1465.000000	60.672662
1464.000000	60.734108
1463.000000	60.798290
1462.000000	60.811809
1461.000000	60.864339
1460.000000	60.919508
1459.000000	60.963327
1458.000000	60.985411
1457.000000	61.027243
1456.000000	61.088524
1455.000000	61.137535
1454.000000	61.186441
1453.000000	61.227887
1452.000000	61.266154
1451.000000	61.324762
1450.000000	61.380594
1449.000000	61.455982
1448.000000	61.499602
1447.000000	61.551662
1446.000000	61.628289
1445.000000	61.679875
1444.000000	61.744427
1443.000000	61.780271
1442.000000	61.856689
1441.000000	61.910756
1440.000000	61.957454
1439.000000	62.040096
1438.000000	62.129690
1437.000000	62.212537
1436.000000	62.266811
1435.000000	62.348233
1434.000000	62.434354
1433.000000	62.509419
1432.000000	62.577901
1431.000000	62.654358
1430.000000	62.744058
1429.000000	62.824761
1428.000000	62.909800
1427.000000	63.016513
1426.000000	63.110291
1425.000000	63.218873
1424.000000	63.325777
1423.000000	63.434815
1422.000000	63.544101
1421.000000	63.663682
1420.000000	63.780824
1419.000000	63.867649
1418.000000	63.978258
1417.000000	64.109822
1416.000000	64.246221
1415.000000	64.370471
1414.000000	64.476558
1413.000000	64.600833
1412.000000	64.735890
1411.000000	64.849961
1410.000000	64.966823
1409.000000	65.095881
1408.000000	65.232902
1407.000000	65.373328
1406.000000	65.501766
1405.000000	65.621870
1404.000000	65.719292
1403.000000	65.840414
1402.000000	65.971322
1401.000000	66.100416
1400.000000	66.217620
1399.000000	66.330790
1398.000000	66.437510
1397.000000	66.553412
1396.000000	66.668251
1395.000000	66.771607
1394.000000	66.872321
1393.000000	66.962877
1392.000000	67.057160
1391.000000	67.145082
1390.000000	67.234552
1389.000000	67.335450
1388.000000	67.423154
1387.000000	67.509158
1386.000000	67.592357
1385.000000	67.661188
1384.000000	67.742128
1383.000000	67.809032
1382.000000	67.866505
1381.000000	67.932019
1380.000000	67.987318
1379.000000	68.038301
1378.000000	68.115396
1377.000000	68.167490
1376.000000	68.205820
1375.000000	68.234463
1374.000000	68.268230
1373.000000	68.313918
1372.000000	68.357814
1371.000000	68.391348
1370.000000	68.421249
1369.000000	68.443183
1368.000000	68.469349
1367.000000	68.502651
1366.000000	68.533026
1365.000000	68.581164
1364.000000	68.616929
1363.000000	68.646129
1362.000000	68.682518
1361.000000	68.723634
1360.000000	68.765779
1359.000000	68.820966
1358.000000	68.856748
1357.000000	68.872687
1356.000000	68.919419
1355.000000	68.947800
1354.000000	68.994561
1353.000000	69.046123
1352.000000	69.069115
1351.000000	69.124064
1350.000000	69.167609
1349.000000	69.213022
1348.000000	69.238945
1347.000000	69.256191
1346.000000	69.311252
1345.000000	69.346099
1344.000000	69.382243
1343.000000	69.414739
1342.000000	69.431816
1341.000000	69.463283
1340.000000	69.492486
1339.000000	69.539425
1338.000000	69.596764
1337.000000	69.633049
1336.000000	69.646753
1335.000000	69.667875
1334.000000	69.682175
1333.000000	69.706911
1332.000000	69.724512
1331.000000	69.764358
1330.000000	69.789011
1329.000000	69.821472
1328.000000	69.832199
1327.000000	69.843132
1326.000000	69.895946
1325.000000	69.927392
1324.000000	69.948126
1323.000000	69.934053
1322.000000	69.963413
1321.000000	69.976185
1320.000000	70.011045
1319.000000	70.008299
1318.000000	70.024768
1317.000000	70.041687
1316.000000	70.055362
1315.000000	70.083505
1314.000000	70.106407
1313.000000	70.108452
1312.000000	70.105073
1311.000000	70.121898
1310.000000	70.143098
1309.000000	70.146070
1308.000000	70.172830
1307.000000	70.184913
1306.000000	70.194520
1305.000000	70.203664
1304.000000	70.210609
1303.000000	70.235607
1302.000000	70.242782
1301.000000	70.259766
1300.000000	70.264506
1299.000000	70.270185
1298.000000	70.278979
1297.000000	70.260715
1296.000000	70.276318
1295.000000	70.284824
1294.000000	70.276897
1293.000000	70.301459
1292.000000	70.298846
1291.000000	70.304281
1290.000000	70.292369
1289.000000	70.321283
1288.000000	70.327145
1287.000000	70.321666
1286.000000	70.336677
1285.000000	70.305005
1284.000000	70.315647
1283.000000	70.295126
1282.000000	70.305885
1281.000000	70.317874
1280.000000	70.319865
1279.000000	70.347949
1278.000000	70.353312
1277.000000	70.350879
1276.000000	70.335302
1275.000000	70.340259
1274.000000	70.350976
1273.000000	70.355774
1272.000000	70.362562
1271.000000	70.380135
1270.000000	70.368854
1269.000000	70.384191
1268.000000	70.385467
1267.000000	70.393820
1266.000000	70.411454
1265.000000	70.411398
1264.000000	70.427392
1263.000000	70.448599
1262.000000	70.457411
1261.000000	70.484584
1260.000000	70.469294
1259.000000	70.475938
1258.000000	70.480118
1257.000000	70.518452
1256.000000	70.536122
1255.000000	70.526034
1254.000000	70.539307
1253.000000	70.542341
1252.000000	70.526807
1251.000000	70.564252
1250.000000	70.554896
1249.000000	70.557017
1248.000000	70.557615
1247.000000	70.571708
1246.000000	70.564802
1245.000000	70.577486
1244.000000	70.574039
1243.000000	70.575577
1242.000000	70.581802
1241.000000	70.584525
1240.000000	70.554676
1239.000000	70.548117
1238.000000	70.537861
1237.000000	70.529475
1236.000000	70.502283
1235.000000	70.512568
1234.000000	70.492846
1233.000000	70.486644
1232.000000	70.462348
1231.000000	70.472074
1230.000000	70.490247
1229.000000	70.494584
1228.000000	70.450689
1227.000000	70.445867
1226.000000	70.460584
1225.000000	70.455536
1224.000000	70.467743
1223.000000	70.447239
1222.000000	70.443110
1221.000000	70.430052
1220.000000	70.434562
1219.000000	70.443782
1218.000000	70.430858
1217.000000	70.424196
1216.000000	70.404334
1215.000000	70.399646
1214.000000	70.383204
1213.000000	70.378615
1212.000000	70.399384
1211.000000	70.369523
1210.000000	70.362479
1209.000000	70.340462
1208.000000	70.353395
1207.000000	70.329864
1206.000000	70.323971
1205.000000	70.308218
1204.000000	70.296084
1203.000000	70.288921
1202.000000	70.265213
1201.000000	70.253461
1200.000000	70.246440
1199.000000	70.252752
1198.000000	70.226590
1197.000000	70.242279
1196.000000	70.223679
1195.000000	70.206919
1194.000000	70.201073
1193.000000	70.180006
1192.000000	70.169439
1191.000000	70.173465
1190.000000	70.163220
1189.000000	70.142456
1188.000000	70.142689
1187.000000	70.155084
1186.000000	70.150567
1185.000000	70.157747
1184.000000	70.146334
1183.000000	70.151222
1182.000000	70.198104
1181.000000	70.211572
1180.000000	70.220815
1179.000000	70.252742
1178.000000	70.282036
1177.000000	70.292433
1176.000000	70.304236
1175.000000	70.338259
1174.000000	70.376076
1173.000000	70.407371
1172.000000	70.442873
1171.000000	70.473834
1170.000000	70.504384
1169.000000	70.542240
1168.000000	70.582694
1167.000000	70.628283
1166.000000	70.669586
1165.000000	70.707152
1164.000000	70.763362
1163.000000	70.811618
1162.000000	70.831577
1161.000000	70.867981
1160.000000	70.920719
1159.000000	70.957602
1158.000000	71.006577
1157.000000	71.057214
1156.000000	71.087869
1155.000000	71.129076
1154.000000	71.160493
1153.000000	71.193968
1152.000000	71.246270
1151.000000	71.263408
1150.000000	71.275249
1149.000000	71.304232
1148.000000	71.319166
1147.000000	71.343185
1146.000000	71.368641
1145.000000	71.391526
1144.000000	71.425115
1143.000000	71.473029
1142.000000	71.504867
1141.000000	71.531731
1140.000000	71.559134
1139.000000	71.582461
1138.000000	71.618080
1137.000000	71.642687
1136.000000	71.664029
1135.000000	71.685942
1134.000000	71.707016
1133.000000	71.719766
1132.000000	71.724609
1131.000000	71.746354
1130.000000	71.758002
1129.000000	71.772410
1128.000000	71.819398
1127.000000	71.835682
1126.000000	71.847386
1125.000000	71.874433
1124.000000	71.870327
1123.000000	71.884979
1122.000000	71.907946
1121.000000	71.920807
1120.000000	71.927011
1119.000000	71.940068
1118.000000	71.967900
1117.000000	71.974018
1116.000000	71.950637
1115.000000	71.959899
1114.000000	71.956137
1113.000000	71.957646
1112.000000	71.972452
1111.000000	71.990114
1110.000000	72.002636
1109.000000	72.006816
1108.000000	72.005943
1107.000000	72.020715
1106.000000	72.032197
1105.000000	72.041939
1104.000000	72.042234
1103.000000	72.051127
1102.000000	72.071570
1101.000000	72.077969
1100.000000	72.061314
1099.000000	72.073347
1098.000000	72.069416
1097.000000	72.081028
1096.000000	72.092327
1095.000000	72.098968
1094.000000	72.097685
1093.000000	72.133732
1092.000000	72.115504
1091.000000	72.118130
1090.000000	72.105748
1089.000000	72.109718
1088.000000	72.128442
1087.000000	72.130974
1086.000000	72.150852
1085.000000	72.139222
1084.000000	72.127615
1083.000000	72.128396
1082.000000	72.147226
1081.000000	72.158686
1080.000000	72.164209
1079.000000	72.166951
1078.000000	72.158844
1077.000000	72.163617
1076.000000	72.173063
1075.000000	72.176613
1074.000000	72.179939
1073.000000	72.170126
1072.000000	72.170863
1071.000000	72.162892
1070.000000	72.170159
1069.000000	72.176125
1068.000000	72.206463
1067.000000	72.190381
1066.000000	72.197499
1065.000000	72.200641
1064.000000	72.187482
1063.000000	72.192209
1062.000000	72.189599
1061.000000	72.208922
1060.000000	72.212433
1059.000000	72.221506
1058.000000	72.202278
1057.000000	72.202812
1056.000000	72.209030
1055.000000	72.235792
1054.000000	72.229230
1053.000000	72.223570
1052.000000	72.199646
1051.000000	72.215444
1050.000000	72.208363
1049.000000	72.229272
1048.000000	72.210485
1047.000000	72.216098
1046.000000	72.209232
1045.000000	72.220619
1044.000000	72.213514
1043.000000	72.240966
1042.000000	72.231410
1041.000000	72.231923
1040.000000	72.233051
1039.000000	72.237143
1038.000000	72.245915
1037.000000	72.260996
1036.000000	72.237347
1035.000000	72.242431
1034.000000	72.245037
1033.000000	72.262485
1032.000000	72.256182
1031.000000	72.279278
1030.000000	72.291053
1029.000000	72.267175
1028.000000	72.267047
1027.000000	72.294673
1026.000000	72.293924
1025.000000	72.290203
1024.000000	72.316470
1023.000000	72.292313
1022.000000	72.285819
1021.000000	72.295987
1020.000000	72.331148
1019.000000	72.305481
1018.000000	72.319721
1017.000000	72.339804
1016.000000	72.301389
1015.000000	72.328509
1014.000000	72.329458
1013.000000	72.348669
1012.000000	72.347052
1011.000000	72.360225
1010.000000	72.348266
1009.000000	72.371002
1008.000000	72.365476
1007.000000	72.391593
1006.000000	72.390035
1005.000000	72.417254
1004.000000	72.398519
1003.000000	72.402474
1002.000000	72.418094
1001.000000	72.412694
1000.000000	72.422799
999.000000	72.417280
998.000000	72.428533
997.000000	72.452344
996.000000	72.474472
995.000000	72.484755
994.000000	72.476098
993.000000	72.481009
992.000000	72.496486
991.000000	72.492307
990.000000	72.513500
989.000000	72.516447
988.000000	72.516812
987.000000	72.541519
986.000000	72.547260
985.000000	72.576069
984.000000	72.572650
983.000000	72.586386
982.000000	72.594702
981.000000	72.591878
980.000000	72.601405
979.000000	72.621338
978.000000	72.636022
977.000000	72.639996
976.000000	72.648352
975.000000	72.660061
974.000000	72.666949
973.000000	72.668284
972.000000	72.679370
971.000000	72.691670
970.000000	72.709318
969.000000	72.717504
968.000000	72.715489
967.000000	72.727002
966.000000	72.734467
965.000000	72.731828
964.000000	72.762479
963.000000	72.782314
962.000000	72.783449
961.000000	72.785375
960.000000	72.789437
959.000000	72.791581
958.000000	72.779582
957.000000	72.785113
956.000000	72.798323
955.000000	72.817898
954.000000	72.860579
953.000000	72.899398
952.000000	72.900334
951.000000	72.881356
950.000000	72.911002
949.000000	72.927214
948.000000	72.925452
947.000000	72.954410
946.000000	72.975677
945.000000	72.976825
944.000000	72.973255
943.000000	72.972599
942.000000	72.977122
941.000000	72.988353
940.000000	73.011447
939.000000	72.997214
938.000000	73.006572
937.000000	73.026966
936.000000	73.011350
935.000000	73.015922
934.000000	73.030131
933.000000	73.035480
932.000000	73.062862
931.000000	73.065980
930.000000	73.063349
929.000000	73.086085
928.000000	73.089259
927.000000	73.062225
926.000000	73.043506
925.000000	73.057416
924.000000	73.063355
923.000000	73.080575
922.000000	73.085717
921.000000	73.082117
920.000000	73.104077
919.000000	73.102415
918.000000	73.092452
917.000000	73.083764
916.000000	73.079026
915.000000	73.166301
914.000000	73.145361
913.000000	73.100437
912.000000	73.113610
911.000000	73.111160
910.000000	73.119232
909.000000	73.167125
908.000000	73.182979
907.000000	73.136476
906.000000	73.161656
905.000000	73.203982
904.000000	73.226151
903.000000	73.192834
902.000000	73.126725
901.000000	73.173451
900.000000	73.229142
899.000000	73.232919
898.000000	73.199679
897.000000	73.239278
896.000000	73.229811
895.000000	73.255410
894.000000	73.254334
893.000000	73.249129
892.000000	73.265541
891.000000	73.312913
890.000000	73.328093
889.000000	73.285086
888.000000	73.340027
887.000000	73.365971
886.000000	73.323598
885.000000	73.374937
884.000000	73.320224
883.000000	73.377047
882.000000	73.353786
881.000000	73.369060
880.000000	73.403573
879.000000	73.398685
878.000000	73.454344
877.000000	73.379952
876.000000	73.393982
875.000000	73.464646
874.000000	73.458229
873.000000	73.496013
872.000000	73.477123
871.000000	73.508337
870.000000	73.513314
869.000000	73.443924
868.000000	73.411978
867.000000	73.458274
866.000000	73.407345
865.000000	73.471108
864.000000	73.508731
863.000000	73.589223
862.000000	73.705626
861.000000	73.565226
860.000000	73.635584
859.000000	73.668903
858.000000	74.052762
857.000000	73.513475
856.000000	73.355116
855.000000	74.354716
854.000000	73.681316
853.000000	73.652566
852.000000	73.680988
851.000000	73.901784
850.000000	73.745737
849.000000	73.475774
848.000000	73.451327
847.000000	73.680176
846.000000	73.666805
845.000000	73.284711
844.000000	73.783124
843.000000	73.634047
842.000000	73.779185
841.000000	73.675757
840.000000	73.807752
839.000000	73.996665
838.000000	73.665404
837.000000	73.570207
836.000000	73.807845
835.000000	73.768060
834.000000	73.713385
833.000000	73.602141
832.000000	73.992226
831.000000	73.821324
830.000000	73.508059
829.000000	73.897081
828.000000	73.710389
827.000000	73.760046
826.000000	73.746749
825.000000	73.815891
824.000000	73.727873
823.000000	73.622701
822.000000	73.710402
821.000000	73.718462
820.000000	73.722138
819.000000	73.651688
818.000000	73.797307
817.000000	73.804391
816.000000	73.662304
815.000000	73.742091
814.000000	73.792399
813.000000	73.812205
812.000000	73.809949
811.000000	73.745689
810.000000	73.801394
809.000000	73.676555
808.000000	73.799212
807.000000	73.822366
806.000000	73.899304
805.000000	73.872670
804.000000	73.682636
803.000000	73.645343
802.000000	73.764251
801.000000	73.886027
800.000000	73.826050
799.000000	73.538606
798.000000	73.761567
797.000000	73.813028
796.000000	73.870194
795.000000	73.881948
794.000000	73.918554
793.000000	73.959122
792.000000	73.791481
791.000000	73.868136
790.000000	73.893011
789.000000	73.875831
788.000000	73.881257
787.000000	73.759034
786.000000	73.897721
785.000000	73.840167
784.000000	73.838055
783.000000	73.918991
782.000000	73.953275
781.000000	73.872660
780.000000	73.750999
779.000000	73.832697
778.000000	73.825963
777.000000	73.862555
776.000000	73.879570
775.000000	73.857128
774.000000	73.832111
773.000000	73.941917
772.000000	73.860762
771.000000	73.880616
770.000000	73.893487
769.000000	73.870920
768.000000	73.844265
767.000000	73.848760
766.000000	73.843518
765.000000	73.873987
764.000000	73.887244
763.000000	73.949030
762.000000	73.928087
761.000000	73.891473
760.000000	73.859094
759.000000	73.836068
758.000000	73.779999
757.000000	73.933580
756.000000	73.849630
755.000000	73.822668
754.000000	73.786671
753.000000	73.809391
752.000000	73.794475
751.000000	73.810379
750.000000	73.848716
749.000000	73.806412
748.000000	73.762082
747.000000	73.881768
746.000000	73.911881
745.000000	74.001327
744.000000	73.873030
743.000000	73.788740
742.000000	73.784273
741.000000	73.769562
740.000000	73.717908
739.000000	73.729349
738.000000	73.780556
737.000000	73.788725
736.000000	73.755871
735.000000	73.820412
734.000000	73.803462
733.000000	73.807078
732.000000	73.813137
731.000000	73.743732
730.000000	73.705701
729.000000	73.787621
728.000000	73.816086
727.000000	73.678896
726.000000	73.652058
725.000000	73.743988
724.000000	73.755412
723.000000	73.706190
722.000000	73.787097
721.000000	73.807870
720.000000	73.766537
719.000000	73.727148
718.000000	73.607197
717.000000	73.649182
716.000000	73.731106
715.000000	73.692305
714.000000	73.647087
713.000000	73.640159
712.000000	73.639447
711.000000	73.698820
710.000000	73.715476
709.000000	73.663021
708.000000	73.623731
707.000000	73.613057
706.000000	73.618181
705.000000	73.671035
704.000000	73.716133
703.000000	73.625652
702.000000	73.626178
701.000000	73.648468
700.000000	73.634048
699.000000	73.575554
698.000000	73.545544
697.000000	73.596065
696.000000	73.560224
695.000000	73.544433
694.000000	73.534500
693.000000	73.483137
692.000000	73.469687
691.000000	73.527681
690.000000	73.475812
689.000000	73.354197
688.000000	73.362133
687.000000	73.354225
686.000000	73.354284
685.000000	73.372385
684.000000	73.278841
683.000000	73.268873
682.000000	73.270799
681.000000	73.266418
680.000000	73.264372
679.000000	73.296260
678.000000	73.284529
677.000000	73.247214
676.000000	73.197277
675.000000	73.163745
674.000000	73.163510
673.000000	73.198387
672.000000	73.160796
671.000000	73.193161
670.000000	73.154242
669.000000	73.106553
668.000000	73.068418
667.000000	73.035681
666.000000	73.082668
665.000000	72.994474
664.000000	72.966837
663.000000	72.982084
662.000000	72.949240
661.000000	72.889967
660.000000	72.894354
659.000000	72.928506
658.000000	72.866412
657.000000	72.885131
656.000000	72.834622
655.000000	72.869590
654.000000	72.864978
653.000000	72.841798
652.000000	72.809358
651.000000	72.782821
650.000000	72.664787
649.000000	72.730121
648.000000	72.741669
647.000000	72.774687
646.000000	72.646314
645.000000	72.558628
644.000000	72.599638
643.000000	72.522955
642.000000	72.559306
641.000000	72.564884
640.000000	72.523192
639.000000	72.454538
638.000000	72.454490
637.000000	72.389516
636.000000	72.390142
635.000000	72.451866
634.000000	72.366148
633.000000	72.348857
632.000000	72.280609
631.000000	72.234087
630.000000	72.345581
629.000000	72.283148
628.000000	72.154245
627.000000	72.189408
626.000000	72.127962
625.000000	72.122638
624.000000	72.072260
623.000000	72.083762
622.000000	72.004504
621.000000	72.038616
620.000000	71.961996
619.000000	71.924583
618.000000	71.945725
617.000000	71.910052
616.000000	71.876671
615.000000	71.839149
614.000000	71.801714
613.000000	71.773400
612.000000	71.740217
611.000000	71.686169
610.000000	71.583776
609.000000	71.666994
608.000000	71.618365
607.000000	71.528307
606.000000	71.519321
605.000000	71.507941
604.000000	71.423170
603.000000	71.391269
602.000000	71.347349
601.000000	71.376308
600.000000	71.252378
599.000000	71.307368
598.000000	71.263050
597.000000	71.259171
596.000000	71.211619
595.000000	71.120190
594.000000	71.114220
593.000000	71.109932
592.000000	70.984561
591.000000	70.923356
590.000000	70.868997
589.000000	70.881899
588.000000	70.811151
587.000000	70.793942
586.000000	70.744875
585.000000	70.707691
584.000000	70.654676
583.000000	70.628584
582.000000	70.595289
581.000000	70.587972
580.000000	70.458300
579.000000	70.493718
578.000000	70.388859
577.000000	70.419909
576.000000	70.348555
575.000000	70.357176
574.000000	70.224203
573.000000	70.164609
572.000000	70.164529
571.000000	70.106062
570.000000	70.098211
569.000000	70.002282
568.000000	69.962207
567.000000	69.933054
566.000000	69.850684
565.000000	69.807943
564.000000	69.762639
563.000000	69.656455
562.000000	69.629106
561.000000	69.618505
560.000000	69.537331
559.000000	69.504750
558.000000	69.472226
557.000000	69.463314
556.000000	69.372441
555.000000	69.313212
554.000000	69.275892
553.000000	69.237113
552.000000	69.104985
551.000000	69.070215
550.000000	68.986561
549.000000	68.996795
548.000000	68.956981
547.000000	68.883650
546.000000	68.839837
545.000000	68.758550
544.000000	68.707151
543.000000	68.636402
542.000000	68.576261
541.000000	68.604324
540.000000	68.523116
539.000000	68.443544
538.000000	68.426106
537.000000	68.345446
536.000000	68.262167
535.000000	68.180240
534.000000	68.071385
533.000000	68.097721
532.000000	68.062519
531.000000	67.986115
530.000000	67.911449
529.000000	67.863751
528.000000	67.796944
527.000000	67.740715
526.000000	67.672202
525.000000	67.613167
524.000000	67.508270
523.000000	67.471219
522.000000	67.380167
521.000000	67.373181
520.000000	67.280258
519.000000	67.165788
518.000000	67.148799
517.000000	67.101042
516.000000	67.050166
515.000000	67.011924
514.000000	66.899050
513.000000	66.832268
512.000000	66.806641
511.000000	66.738263
510.000000	66.652339
509.000000	66.604659
508.000000	66.515785
507.000000	66.423523
506.000000	66.350455
505.000000	66.248251
504.000000	66.183430
503.000000	66.150439
502.000000	66.080621
501.000000	65.984264
500.000000	65.890056
499.000000	65.841739
498.000000	65.774465
497.000000	65.755983
496.000000	65.637161
495.000000	65.583379
494.000000	65.559294
493.000000	65.472723
492.000000	65.406229
491.000000	65.309491
490.000000	65.266053
489.000000	65.157044
488.000000	65.052031
487.000000	65.043792
486.000000	64.953642
485.000000	64.918451
484.000000	64.929329
483.000000	64.840640
482.000000	64.730768
481.000000	64.656959
480.000000	64.556711
479.000000	64.512264
478.000000	64.456101
477.000000	64.345517
476.000000	64.267455
475.000000	64.218794
474.000000	64.145267
473.000000	64.066343
472.000000	63.990616
471.000000	63.875266
470.000000	63.804130
469.000000	63.763163
468.000000	63.659255
467.000000	63.567001
466.000000	63.482808
465.000000	63.421100
464.000000	63.371204
463.000000	63.297700
462.000000	63.182587
461.000000	63.070630
460.000000	62.951933
459.000000	62.848810
458.000000	62.790990
457.000000	62.709232
456.000000	62.586163
455.000000	62.498733
454.000000	62.404372
453.000000	62.233687
452.000000	62.122988
451.000000	62.029657
450.000000	61.907180
449.000000	61.790031
448.000000	61.646381
447.000000	61.519446
446.000000	61.439444
445.000000	61.295173
444.000000	61.149306
443.000000	61.041294
442.000000	60.960169
441.000000	60.782308
440.000000	60.589195
439.000000	60.443686
438.000000	60.332897
437.000000	60.162837
436.000000	60.016605
435.000000	59.859957
434.000000	59.717344
433.000000	59.563958
432.000000	59.409314
431.000000	59.269911
430.000000	59.072161
429.000000	58.885556
428.000000	58.713373
427.000000	58.552184
426.000000	58.329395
425.000000	58.190236
424.000000	58.006467
423.000000	57.805161
422.000000	57.628113
421.000000	57.440406
420.000000	57.316989
419.000000	57.067352
418.000000	56.852834
417.000000	56.657823
416.000000	56.522919
415.000000	56.244438
414.000000	56.021149
413.000000	55.954551
412.000000	55.719613
411.000000	55.554142
410.000000	55.387530
409.000000	55.099106
408.000000	54.941274
407.000000	54.815810
406.000000	54.534800
405.000000	54.289868
404.000000	54.088776
403.000000	53.902088
402.000000	53.595848
401.000000	53.461669
400.000000	53.200552
399.000000	53.045409
398.000000	52.823601
397.000000	52.617095
396.000000	52.377815
395.000000	52.226577
394.000000	51.993302
393.000000	51.772412
392.000000	51.509748
391.000000	51.339174
390.000000	51.166002
389.000000	50.916654
388.000000	50.698132
387.000000	50.450229
386.000000	50.191514
385.000000	50.029422
384.000000	49.843091
383.000000	49.644819
382.000000	49.349721
381.000000	49.144850
380.000000	48.906018
379.000000	48.632972
378.000000	48.438941
377.000000	48.276087
376.000000	48.168189
375.000000	47.839531
374.000000	47.646216
373.000000	47.403805
372.000000	47.308452
371.000000	46.931312
370.000000	46.678987
369.000000	46.572825
368.000000	46.448459
367.000000	46.117571
366.000000	46.035979
365.000000	45.761530
364.000000	45.628096
363.000000	45.417105
362.000000	45.146131
361.000000	45.022011
360.000000	44.820346
359.000000	44.712813
358.000000	44.570030
357.000000	44.164967
356.000000	44.140269
355.000000	44.015897
354.000000	43.770648
353.000000	43.461397
352.000000	43.273009
351.000000	43.169408
350.000000	42.991078
349.000000	42.846456
348.000000	42.568089
347.000000	42.590721
346.000000	42.164669
345.000000	42.254999
344.000000	42.050273
343.000000	41.835555
342.000000	41.425560
341.000000	41.384217
340.000000	41.048313
339.000000	41.024404
338.000000	40.863680
337.000000	40.591072
336.000000	40.524657
335.000000	40.300535
334.000000	40.281219
333.000000	39.854833
332.000000	39.623377
331.000000	39.786684
330.000000	39.543726
329.000000	39.312791
328.000000	39.220667
327.000000	39.088135
326.000000	38.819611
325.000000	38.942913
324.000000	38.754339
323.000000	38.836482
322.000000	38.536438
321.000000	38.456904
320.000000	38.412352
319.000000	38.403042
318.000000	38.616548
317.000000	38.508034
316.000000	38.523431
315.000000	38.367798
314.000000	38.398393
313.000000	38.306249
312.000000	38.167436
311.000000	38.125388
310.000000	38.238036
309.000000	38.106461
308.000000	38.012982
307.000000	37.917898
306.000000	37.996583
305.000000	37.937325
304.000000	37.927368
303.000000	37.954901
302.000000	37.651514
301.000000	37.593498
300.000000	37.642386
299.000000	37.429300
298.000000	37.371129
297.000000	37.176031
296.000000	37.244567
295.000000	36.830079
294.000000	36.726672
293.000000	36.447048
292.000000	36.098711
291.000000	35.829363
290.000000	35.651448
289.000000	35.507304
288.000000	35.221052
287.000000	34.888040
286.000000	34.783051
285.000000	34.541710
284.000000	34.618802
283.000000	34.588753
282.000000	34.603220
281.000000	34.597792
280.000000	34.572694
279.000000	34.517531
278.000000	34.578460
277.000000	34.671733
276.000000	34.814194
275.000000	34.900268
274.000000	35.113510
273.000000	35.325987
272.000000	35.442545
271.000000	35.503482
270.000000	35.522218
269.000000	35.644881
268.000000	35.812744
267.000000	36.001584
266.000000	36.171905
265.000000	36.326227
264.000000	36.551466
263.000000	36.800302
262.000000	37.018459
261.000000	37.187952
260.000000	37.314395
259.000000	37.545626
258.000000	37.933537
257.000000	38.224126
256.000000	38.522846
255.000000	38.723555
254.000000	38.893393
253.000000	39.144191
252.000000	39.322271
251.000000	39.504483
250.000000	39.704388
249.000000	39.761500
248.000000	39.803033
247.000000	39.853237
246.000000	39.839748
245.000000	39.836397
244.000000	39.558559
243.000000	39.120870
242.000000	38.722720
241.000000	38.222455
240.000000	37.704998
239.000000	37.069842
238.000000	36.097855
237.000000	35.289975
236.000000	34.482377
235.000000	33.586429
234.000000	32.742417
233.000000	31.942071
232.000000	31.038235
231.000000	30.202419
230.000000	29.425327
229.000000	28.667293
228.000000	27.916927
227.000000	27.271464
226.000000	26.590866
225.000000	25.960142
224.000000	25.499746
223.000000	24.992855
222.000000	24.435298
221.000000	23.827359
220.000000	23.415832
219.000000	23.168929
218.000000	22.842106
217.000000	22.498839
216.000000	22.267598
215.000000	22.065382
214.000000	21.857876
213.000000	21.665883
212.000000	21.681358
211.000000	21.639019
210.000000	21.451196
209.000000	21.332841
208.000000	21.374403
207.000000	21.489898
206.000000	21.716602
205.000000	21.842019
204.000000	22.250914
203.000000	22.568641
202.000000	22.937578
201.000000	23.479781
200.000000	24.131736
