PE UV       SUBTECH     SPECTRUM    ASCII       PEDS        4.00        
   -1
RTmshap12.Sample.asc
18/03/19
14:57:31.00
18/03/19
14:57:31.00
Administrator

200.000000
1
Lambda 750
750N8071901
PerkinElmer UV WinLab 6.0.4.0738 / 1.61.00 Lambda 900

0
0
3350/servo 860.8/2
0
0
UV/VIS
1
1
1
CommonBeamDepol,150mm sphere / downward view
0
0
0
0
Program
Program
3350/servo 860.8/2
3350/0.2 860.8/0.2
3350/0.2 860.8/0.2
0
1
 
 
 
0
 
860.8
319.2
860.8
Front
100
on
 
 
0
0
0
 
0
 
 
 
0
 
 
0
0
0
0
0
 
 
 
 
0
0


0
0
#HDR
-1
-1
#GR
nm
%R
1.0
0.0
2350.000000
-1.000000
2151
8
77.528946
23.309478
#DATA
2350.000000	46.106955
2349.000000	46.370291
2348.000000	46.826597
2347.000000	46.824979
2346.000000	46.475203
2345.000000	46.459106
2344.000000	46.487884
2343.000000	46.608686
2342.000000	46.478977
2341.000000	46.896366
2340.000000	46.549580
2339.000000	46.650133
2338.000000	46.863597
2337.000000	46.863290
2336.000000	46.870414
2335.000000	46.944653
2334.000000	46.857058
2333.000000	46.805433
2332.000000	47.036735
2331.000000	46.978708
2330.000000	46.940570
2329.000000	46.939916
2328.000000	47.095884
2327.000000	46.760550
2326.000000	46.888048
2325.000000	46.906482
2324.000000	46.863687
2323.000000	46.811747
2322.000000	46.551670
2321.000000	46.650443
2320.000000	46.712928
2319.000000	46.763430
2318.000000	46.600002
2317.000000	46.501700
2316.000000	46.611949
2315.000000	46.477606
2314.000000	46.347107
2313.000000	46.392298
2312.000000	46.341496
2311.000000	46.294303
2310.000000	46.089093
2309.000000	46.256272
2308.000000	46.154579
2307.000000	46.293425
2306.000000	45.979914
2305.000000	46.032754
2304.000000	45.858434
2303.000000	45.820294
2302.000000	45.883348
2301.000000	45.654345
2300.000000	45.601893
2299.000000	45.696553
2298.000000	45.663279
2297.000000	45.661443
2296.000000	45.539965
2295.000000	45.378608
2294.000000	45.434397
2293.000000	45.117716
2292.000000	45.020628
2291.000000	45.096361
2290.000000	45.114367
2289.000000	45.153620
2288.000000	45.253006
2287.000000	45.185581
2286.000000	45.029710
2285.000000	44.965812
2284.000000	45.040507
2283.000000	45.069518
2282.000000	44.935906
2281.000000	45.176017
2280.000000	45.091510
2279.000000	45.052205
2278.000000	45.084906
2277.000000	45.022149
2276.000000	45.030664
2275.000000	45.069921
2274.000000	45.105330
2273.000000	45.235083
2272.000000	45.181107
2271.000000	45.203299
2270.000000	45.342439
2269.000000	45.552283
2268.000000	45.544794
2267.000000	45.605184
2266.000000	45.628100
2265.000000	45.714439
2264.000000	45.830114
2263.000000	45.904998
2262.000000	46.049358
2261.000000	46.178034
2260.000000	46.316942
2259.000000	46.434988
2258.000000	46.674331
2257.000000	46.844763
2256.000000	46.934760
2255.000000	47.023334
2254.000000	47.223256
2253.000000	47.407438
2252.000000	47.554201
2251.000000	47.693474
2250.000000	47.974299
2249.000000	48.150906
2248.000000	48.175509
2247.000000	48.326504
2246.000000	48.458897
2245.000000	48.663521
2244.000000	48.898172
2243.000000	49.014439
2242.000000	49.095963
2241.000000	49.230338
2240.000000	49.433216
2239.000000	49.602877
2238.000000	49.674732
2237.000000	49.711195
2236.000000	49.759360
2235.000000	49.761683
2234.000000	49.875448
2233.000000	50.033900
2232.000000	50.192127
2231.000000	50.323541
2230.000000	50.328980
2229.000000	50.425536
2228.000000	50.371995
2227.000000	50.257322
2226.000000	50.249882
2225.000000	50.275090
2224.000000	50.333734
2223.000000	50.338391
2222.000000	50.437948
2221.000000	50.475193
2220.000000	50.375867
2219.000000	50.300568
2218.000000	50.189598
2217.000000	50.179442
2216.000000	50.113346
2215.000000	50.146644
2214.000000	50.161594
2213.000000	50.162562
2212.000000	50.102754
2211.000000	49.985109
2210.000000	50.046792
2209.000000	50.059097
2208.000000	49.874675
2207.000000	49.835705
2206.000000	49.927697
2205.000000	49.849799
2204.000000	49.703963
2203.000000	49.704506
2202.000000	49.674993
2201.000000	49.535592
2200.000000	49.569230
2199.000000	49.624993
2198.000000	49.615685
2197.000000	49.513476
2196.000000	49.370799
2195.000000	49.286810
2194.000000	49.384366
2193.000000	49.110577
2192.000000	49.068544
2191.000000	49.228663
2190.000000	49.169102
2189.000000	49.073905
2188.000000	48.943564
2187.000000	48.902418
2186.000000	48.954957
2185.000000	48.871955
2184.000000	48.854492
2183.000000	48.856773
2182.000000	48.835096
2181.000000	48.839735
2180.000000	48.944396
2179.000000	48.820911
2178.000000	48.791996
2177.000000	49.003098
2176.000000	48.920324
2175.000000	48.959363
2174.000000	49.070355
2173.000000	48.820043
2172.000000	48.967740
2171.000000	49.109779
2170.000000	49.058217
2169.000000	49.240584
2168.000000	49.367789
2167.000000	49.295145
2166.000000	49.288784
2165.000000	49.484126
2164.000000	49.652809
2163.000000	49.704222
2162.000000	49.891697
2161.000000	49.843345
2160.000000	49.978314
2159.000000	50.277576
2158.000000	50.233979
2157.000000	50.213086
2156.000000	50.301738
2155.000000	50.618730
2154.000000	50.809389
2153.000000	51.017988
2152.000000	51.065074
2151.000000	51.248649
2150.000000	51.165686
2149.000000	51.465612
2148.000000	51.477739
2147.000000	51.573318
2146.000000	51.789925
2145.000000	51.881566
2144.000000	51.994913
2143.000000	51.989293
2142.000000	52.182622
2141.000000	52.325847
2140.000000	52.381663
2139.000000	52.775631
2138.000000	52.753693
2137.000000	52.756980
2136.000000	52.781200
2135.000000	52.696086
2134.000000	52.990462
2133.000000	52.988004
2132.000000	53.043424
2131.000000	53.232214
2130.000000	53.281812
2129.000000	53.355556
2128.000000	53.403020
2127.000000	53.512858
2126.000000	53.488255
2125.000000	53.423215
2124.000000	53.525835
2123.000000	53.583125
2122.000000	53.729260
2121.000000	53.770213
2120.000000	53.576333
2119.000000	53.873597
2118.000000	53.834111
2117.000000	53.672336
2116.000000	53.609555
2115.000000	53.919418
2114.000000	53.829828
2113.000000	53.771746
2112.000000	53.734501
2111.000000	53.911769
2110.000000	53.875912
2109.000000	53.881408
2108.000000	53.876530
2107.000000	53.888167
2106.000000	54.036547
2105.000000	54.011566
2104.000000	53.927131
2103.000000	53.938543
2102.000000	53.996371
2101.000000	53.972672
2100.000000	54.083887
2099.000000	54.011248
2098.000000	53.931991
2097.000000	54.029431
2096.000000	54.043829
2095.000000	53.911555
2094.000000	54.019469
2093.000000	54.090656
2092.000000	53.991576
2091.000000	54.005622
2090.000000	54.020747
2089.000000	53.989812
2088.000000	53.862765
2087.000000	53.841786
2086.000000	53.846403
2085.000000	53.958608
2084.000000	53.879596
2083.000000	53.814658
2082.000000	53.796142
2081.000000	53.630624
2080.000000	53.552743
2079.000000	53.584865
2078.000000	53.539302
2077.000000	53.523779
2076.000000	53.504259
2075.000000	53.337993
2074.000000	53.232091
2073.000000	53.170012
2072.000000	53.092340
2071.000000	53.003056
2070.000000	53.047589
2069.000000	52.857037
2068.000000	52.683695
2067.000000	52.618329
2066.000000	52.483421
2065.000000	52.365672
2064.000000	52.314918
2063.000000	52.169512
2062.000000	52.106960
2061.000000	51.943186
2060.000000	51.815049
2059.000000	51.718004
2058.000000	51.571770
2057.000000	51.467962
2056.000000	51.382309
2055.000000	51.263819
2054.000000	51.171607
2053.000000	51.089029
2052.000000	50.980474
2051.000000	50.795757
2050.000000	50.724155
2049.000000	50.731490
2048.000000	50.648720
2047.000000	50.577321
2046.000000	50.514706
2045.000000	50.416185
2044.000000	50.392394
2043.000000	50.367879
2042.000000	50.355145
2041.000000	50.397859
2040.000000	50.457184
2039.000000	50.458506
2038.000000	50.453678
2037.000000	50.475467
2036.000000	50.502159
2035.000000	50.583700
2034.000000	50.654780
2033.000000	50.719433
2032.000000	50.782049
2031.000000	50.825940
2030.000000	50.946676
2029.000000	51.060869
2028.000000	51.112077
2027.000000	51.214148
2026.000000	51.343154
2025.000000	51.356133
2024.000000	51.367496
2023.000000	51.460233
2022.000000	51.505017
2021.000000	51.502448
2020.000000	51.570083
2019.000000	51.612318
2018.000000	51.586673
2017.000000	51.595723
2016.000000	51.618654
2015.000000	51.610617
2014.000000	51.577090
2013.000000	51.572872
2012.000000	51.553200
2011.000000	51.545875
2010.000000	51.508366
2009.000000	51.428371
2008.000000	51.376254
2007.000000	51.325540
2006.000000	51.257359
2005.000000	51.173860
2004.000000	51.110200
2003.000000	51.085610
2002.000000	51.016605
2001.000000	50.908894
2000.000000	50.821961
1999.000000	50.756198
1998.000000	50.710310
1997.000000	50.629511
1996.000000	50.533200
1995.000000	50.421408
1994.000000	50.328224
1993.000000	50.250257
1992.000000	50.143741
1991.000000	50.035067
1990.000000	49.964406
1989.000000	49.885392
1988.000000	49.792363
1987.000000	49.754166
1986.000000	49.635325
1985.000000	49.540360
1984.000000	49.438954
1983.000000	49.382962
1982.000000	49.308996
1981.000000	49.196478
1980.000000	49.106244
1979.000000	49.035216
1978.000000	48.969563
1977.000000	48.875093
1976.000000	48.788418
1975.000000	48.715940
1974.000000	48.549056
1973.000000	48.502923
1972.000000	48.392424
1971.000000	48.299061
1970.000000	48.205353
1969.000000	48.171463
1968.000000	48.091168
1967.000000	48.042696
1966.000000	47.947987
1965.000000	47.821769
1964.000000	47.700380
1963.000000	47.609555
1962.000000	47.547000
1961.000000	47.460212
1960.000000	47.455825
1959.000000	47.334765
1958.000000	47.283973
1957.000000	47.249043
1956.000000	47.162131
1955.000000	47.136153
1954.000000	47.033678
1953.000000	46.964081
1952.000000	46.948481
1951.000000	46.931099
1950.000000	46.870200
1949.000000	46.798777
1948.000000	46.772620
1947.000000	46.775685
1946.000000	46.717237
1945.000000	46.722937
1944.000000	46.724641
1943.000000	46.737556
1942.000000	46.736698
1941.000000	46.784471
1940.000000	46.808504
1939.000000	46.897919
1938.000000	46.980981
1937.000000	47.044877
1936.000000	47.099568
1935.000000	47.161707
1934.000000	47.221420
1933.000000	47.372696
1932.000000	47.485291
1931.000000	47.590915
1930.000000	47.724649
1929.000000	47.885670
1928.000000	48.061111
1927.000000	48.163293
1926.000000	48.324778
1925.000000	48.596689
1924.000000	48.749645
1923.000000	49.012340
1922.000000	49.214167
1921.000000	49.327449
1920.000000	49.665519
1919.000000	49.833451
1918.000000	50.147725
1917.000000	50.421079
1916.000000	50.708218
1915.000000	51.027800
1914.000000	51.319875
1913.000000	51.570719
1912.000000	51.888081
1911.000000	52.122643
1910.000000	52.500685
1909.000000	52.775921
1908.000000	53.130017
1907.000000	53.520801
1906.000000	53.844734
1905.000000	54.250371
1904.000000	54.669169
1903.000000	54.923088
1902.000000	55.309061
1901.000000	55.698308
1900.000000	56.086346
1899.000000	56.550151
1898.000000	56.853492
1897.000000	57.235896
1896.000000	57.599447
1895.000000	58.042380
1894.000000	58.421768
1893.000000	58.759965
1892.000000	59.198110
1891.000000	59.474933
1890.000000	59.828794
1889.000000	60.141538
1888.000000	60.485657
1887.000000	60.864123
1886.000000	61.158636
1885.000000	61.420859
1884.000000	61.746529
1883.000000	62.060008
1882.000000	62.289309
1881.000000	62.526692
1880.000000	62.775000
1879.000000	62.984466
1878.000000	63.180115
1877.000000	63.479853
1876.000000	63.745452
1875.000000	63.891809
1874.000000	64.056774
1873.000000	64.280096
1872.000000	64.453314
1871.000000	64.612646
1870.000000	64.735524
1869.000000	64.888144
1868.000000	65.041046
1867.000000	65.167153
1866.000000	65.233537
1865.000000	65.333607
1864.000000	65.379139
1863.000000	65.471590
1862.000000	65.539438
1861.000000	65.551387
1860.000000	65.636152
1859.000000	65.630198
1858.000000	65.680028
1857.000000	65.720769
1856.000000	65.803294
1855.000000	65.820861
1854.000000	65.842216
1853.000000	65.845563
1852.000000	65.865886
1851.000000	65.864443
1850.000000	65.874029
1849.000000	65.883692
1848.000000	65.914121
1847.000000	65.943079
1846.000000	65.904935
1845.000000	65.908315
1844.000000	65.916026
1843.000000	65.896748
1842.000000	65.898253
1841.000000	65.884476
1840.000000	65.886372
1839.000000	65.863573
1838.000000	65.854249
1837.000000	65.803700
1836.000000	65.772962
1835.000000	65.787457
1834.000000	65.773524
1833.000000	65.777431
1832.000000	65.760401
1831.000000	65.708599
1830.000000	65.688348
1829.000000	65.647788
1828.000000	65.596075
1827.000000	65.593520
1826.000000	65.567059
1825.000000	65.556776
1824.000000	65.557017
1823.000000	65.543187
1822.000000	65.516650
1821.000000	65.496642
1820.000000	65.468071
1819.000000	65.411259
1818.000000	65.415682
1817.000000	65.416193
1816.000000	65.377617
1815.000000	65.362604
1814.000000	65.347554
1813.000000	65.296867
1812.000000	65.282306
1811.000000	65.261323
1810.000000	65.230041
1809.000000	65.215749
1808.000000	65.186986
1807.000000	65.166293
1806.000000	65.160713
1805.000000	65.142079
1804.000000	65.109078
1803.000000	65.087835
1802.000000	65.057038
1801.000000	65.062332
1800.000000	65.052164
1799.000000	65.020646
1798.000000	64.979992
1797.000000	64.967313
1796.000000	64.960021
1795.000000	64.925513
1794.000000	64.930029
1793.000000	64.934099
1792.000000	64.899356
1791.000000	64.891024
1790.000000	64.890568
1789.000000	64.861843
1788.000000	64.833571
1787.000000	64.800007
1786.000000	64.794841
1785.000000	64.791222
1784.000000	64.760455
1783.000000	64.743975
1782.000000	64.703085
1781.000000	64.668940
1780.000000	64.662912
1779.000000	64.666313
1778.000000	64.628487
1777.000000	64.604201
1776.000000	64.574018
1775.000000	64.517529
1774.000000	64.472807
1773.000000	64.450572
1772.000000	64.407979
1771.000000	64.385306
1770.000000	64.345954
1769.000000	64.296404
1768.000000	64.287957
1767.000000	64.276393
1766.000000	64.211687
1765.000000	64.190585
1764.000000	64.178006
1763.000000	64.125239
1762.000000	64.099390
1761.000000	64.080297
1760.000000	64.030632
1759.000000	63.992410
1758.000000	64.002058
1757.000000	63.950118
1756.000000	63.926326
1755.000000	63.871605
1754.000000	63.867597
1753.000000	63.832994
1752.000000	63.802551
1751.000000	63.772706
1750.000000	63.748496
1749.000000	63.739824
1748.000000	63.708021
1747.000000	63.683741
1746.000000	63.621056
1745.000000	63.580620
1744.000000	63.552025
1743.000000	63.532305
1742.000000	63.499619
1741.000000	63.457930
1740.000000	63.457152
1739.000000	63.437551
1738.000000	63.377788
1737.000000	63.358690
1736.000000	63.374225
1735.000000	63.360270
1734.000000	63.396188
1733.000000	63.365709
1732.000000	63.358364
1731.000000	63.379437
1730.000000	63.389292
1729.000000	63.411822
1728.000000	63.475182
1727.000000	63.499734
1726.000000	63.558017
1725.000000	63.599607
1724.000000	63.632181
1723.000000	63.732141
1722.000000	63.790916
1721.000000	63.837125
1720.000000	63.880995
1719.000000	63.999728
1718.000000	64.070098
1717.000000	64.130687
1716.000000	64.203219
1715.000000	64.274632
1714.000000	64.340088
1713.000000	64.406635
1712.000000	64.472842
1711.000000	64.511912
1710.000000	64.603968
1709.000000	64.634871
1708.000000	64.652463
1707.000000	64.700326
1706.000000	64.745561
1705.000000	64.774503
1704.000000	64.778689
1703.000000	64.792261
1702.000000	64.839097
1701.000000	64.840629
1700.000000	64.890338
1699.000000	64.843952
1698.000000	64.873861
1697.000000	64.901206
1696.000000	64.960697
1695.000000	64.948831
1694.000000	64.986910
1693.000000	65.023748
1692.000000	65.045949
1691.000000	65.098314
1690.000000	65.155196
1689.000000	65.214030
1688.000000	65.300233
1687.000000	65.364343
1686.000000	65.426643
1685.000000	65.526657
1684.000000	65.650669
1683.000000	65.749346
1682.000000	65.855512
1681.000000	65.976470
1680.000000	66.076506
1679.000000	66.190898
1678.000000	66.311150
1677.000000	66.433211
1676.000000	66.516758
1675.000000	66.666565
1674.000000	66.774630
1673.000000	66.920124
1672.000000	67.038082
1671.000000	67.129591
1670.000000	67.239654
1669.000000	67.353120
1668.000000	67.453772
1667.000000	67.553971
1666.000000	67.650906
1665.000000	67.698380
1664.000000	67.763940
1663.000000	67.825848
1662.000000	67.882768
1661.000000	67.940019
1660.000000	67.999976
1659.000000	68.051854
1658.000000	68.072843
1657.000000	68.112562
1656.000000	68.147895
1655.000000	68.182114
1654.000000	68.190333
1653.000000	68.216063
1652.000000	68.238549
1651.000000	68.215269
1650.000000	68.227756
1649.000000	68.231043
1648.000000	68.197922
1647.000000	68.231082
1646.000000	68.225615
1645.000000	68.218872
1644.000000	68.228891
1643.000000	68.197076
1642.000000	68.171862
1641.000000	68.171930
1640.000000	68.168628
1639.000000	68.156008
1638.000000	68.148792
1637.000000	68.143864
1636.000000	68.099305
1635.000000	68.087547
1634.000000	68.066185
1633.000000	68.029794
1632.000000	68.007931
1631.000000	67.997831
1630.000000	67.970760
1629.000000	67.950978
1628.000000	67.918354
1627.000000	67.876369
1626.000000	67.867777
1625.000000	67.832292
1624.000000	67.792977
1623.000000	67.780801
1622.000000	67.766760
1621.000000	67.725489
1620.000000	67.687680
1619.000000	67.665712
1618.000000	67.651738
1617.000000	67.618910
1616.000000	67.577803
1615.000000	67.541241
1614.000000	67.519260
1613.000000	67.481154
1612.000000	67.435222
1611.000000	67.389148
1610.000000	67.363944
1609.000000	67.339465
1608.000000	67.300865
1607.000000	67.253412
1606.000000	67.203649
1605.000000	67.171279
1604.000000	67.129005
1603.000000	67.092794
1602.000000	67.063507
1601.000000	67.013380
1600.000000	66.962041
1599.000000	66.926149
1598.000000	66.888239
1597.000000	66.856297
1596.000000	66.819423
1595.000000	66.784741
1594.000000	66.740217
1593.000000	66.707469
1592.000000	66.693196
1591.000000	66.654586
1590.000000	66.619767
1589.000000	66.586032
1588.000000	66.554435
1587.000000	66.535203
1586.000000	66.505829
1585.000000	66.471158
1584.000000	66.449282
1583.000000	66.413553
1582.000000	66.380436
1581.000000	66.351979
1580.000000	66.332682
1579.000000	66.305868
1578.000000	66.278405
1577.000000	66.243652
1576.000000	66.209883
1575.000000	66.193559
1574.000000	66.175114
1573.000000	66.146196
1572.000000	66.109244
1571.000000	66.090463
1570.000000	66.067490
1569.000000	66.041386
1568.000000	66.049251
1567.000000	66.022411
1566.000000	65.981493
1565.000000	65.965082
1564.000000	65.952159
1563.000000	65.941513
1562.000000	65.917131
1561.000000	65.897430
1560.000000	65.897596
1559.000000	65.878033
1558.000000	65.883619
1557.000000	65.877393
1556.000000	65.875362
1555.000000	65.862136
1554.000000	65.832413
1553.000000	65.805391
1552.000000	65.804828
1551.000000	65.807131
1550.000000	65.787514
1549.000000	65.752927
1548.000000	65.726425
1547.000000	65.696026
1546.000000	65.669088
1545.000000	65.634669
1544.000000	65.597721
1543.000000	65.548356
1542.000000	65.501286
1541.000000	65.471883
1540.000000	65.422854
1539.000000	65.357625
1538.000000	65.304149
1537.000000	65.251787
1536.000000	65.185860
1535.000000	65.140889
1534.000000	65.086122
1533.000000	65.047237
1532.000000	64.978790
1531.000000	64.927354
1530.000000	64.886670
1529.000000	64.833283
1528.000000	64.771072
1527.000000	64.733408
1526.000000	64.701053
1525.000000	64.665022
1524.000000	64.615174
1523.000000	64.584551
1522.000000	64.549060
1521.000000	64.519288
1520.000000	64.468278
1519.000000	64.442584
1518.000000	64.430028
1517.000000	64.408678
1516.000000	64.423229
1515.000000	64.443547
1514.000000	64.429839
1513.000000	64.411883
1512.000000	64.387668
1511.000000	64.376283
1510.000000	64.345328
1509.000000	64.311721
1508.000000	64.286584
1507.000000	64.276356
1506.000000	64.262970
1505.000000	64.249928
1504.000000	64.242276
1503.000000	64.221262
1502.000000	64.225121
1501.000000	64.218094
1500.000000	64.216864
1499.000000	64.231115
1498.000000	64.222049
1497.000000	64.243167
1496.000000	64.249040
1495.000000	64.243947
1494.000000	64.270695
1493.000000	64.270248
1492.000000	64.286309
1491.000000	64.318586
1490.000000	64.336423
1489.000000	64.342074
1488.000000	64.376131
1487.000000	64.409910
1486.000000	64.454034
1485.000000	64.471313
1484.000000	64.519537
1483.000000	64.542608
1482.000000	64.573669
1481.000000	64.630746
1480.000000	64.656590
1479.000000	64.706998
1478.000000	64.751556
1477.000000	64.785982
1476.000000	64.831381
1475.000000	64.871410
1474.000000	64.916540
1473.000000	64.953231
1472.000000	64.990057
1471.000000	65.015806
1470.000000	65.066047
1469.000000	65.137736
1468.000000	65.143531
1467.000000	65.206900
1466.000000	65.230271
1465.000000	65.247087
1464.000000	65.290100
1463.000000	65.366834
1462.000000	65.368368
1461.000000	65.390226
1460.000000	65.432150
1459.000000	65.496138
1458.000000	65.549582
1457.000000	65.551367
1456.000000	65.594232
1455.000000	65.627748
1454.000000	65.709334
1453.000000	65.750775
1452.000000	65.765961
1451.000000	65.813629
1450.000000	65.863493
1449.000000	65.939298
1448.000000	65.996320
1447.000000	66.010743
1446.000000	66.079423
1445.000000	66.128352
1444.000000	66.184504
1443.000000	66.254785
1442.000000	66.330764
1441.000000	66.361010
1440.000000	66.413727
1439.000000	66.491417
1438.000000	66.560071
1437.000000	66.628867
1436.000000	66.690398
1435.000000	66.775789
1434.000000	66.862075
1433.000000	66.942613
1432.000000	67.008284
1431.000000	67.077679
1430.000000	67.159109
1429.000000	67.236561
1428.000000	67.327462
1427.000000	67.430582
1426.000000	67.518526
1425.000000	67.611444
1424.000000	67.721409
1423.000000	67.825309
1422.000000	67.923626
1421.000000	68.028702
1420.000000	68.154891
1419.000000	68.268890
1418.000000	68.390957
1417.000000	68.509555
1416.000000	68.617712
1415.000000	68.741650
1414.000000	68.883240
1413.000000	69.018666
1412.000000	69.144334
1411.000000	69.258750
1410.000000	69.384803
1409.000000	69.525779
1408.000000	69.649569
1407.000000	69.769668
1406.000000	69.910315
1405.000000	70.054255
1404.000000	70.177537
1403.000000	70.305495
1402.000000	70.431469
1401.000000	70.567873
1400.000000	70.683745
1399.000000	70.778924
1398.000000	70.898939
1397.000000	71.027761
1396.000000	71.121705
1395.000000	71.229956
1394.000000	71.347655
1393.000000	71.456572
1392.000000	71.554047
1391.000000	71.637520
1390.000000	71.733532
1389.000000	71.844785
1388.000000	71.927310
1387.000000	72.001859
1386.000000	72.087325
1385.000000	72.182712
1384.000000	72.265653
1383.000000	72.327054
1382.000000	72.398694
1381.000000	72.483142
1380.000000	72.551953
1379.000000	72.576903
1378.000000	72.634808
1377.000000	72.695023
1376.000000	72.725555
1375.000000	72.765539
1374.000000	72.818030
1373.000000	72.847850
1372.000000	72.863487
1371.000000	72.892462
1370.000000	72.939978
1369.000000	72.981297
1368.000000	73.007561
1367.000000	73.042094
1366.000000	73.070578
1365.000000	73.106313
1364.000000	73.141600
1363.000000	73.182400
1362.000000	73.221617
1361.000000	73.263976
1360.000000	73.305546
1359.000000	73.334371
1358.000000	73.365802
1357.000000	73.398291
1356.000000	73.469617
1355.000000	73.504369
1354.000000	73.520034
1353.000000	73.578735
1352.000000	73.627065
1351.000000	73.647229
1350.000000	73.695679
1349.000000	73.765259
1348.000000	73.771645
1347.000000	73.789817
1346.000000	73.865815
1345.000000	73.892750
1344.000000	73.918484
1343.000000	73.931989
1342.000000	73.962247
1341.000000	73.996490
1340.000000	74.026011
1339.000000	74.083209
1338.000000	74.112602
1337.000000	74.141599
1336.000000	74.162838
1335.000000	74.204256
1334.000000	74.234945
1333.000000	74.254827
1332.000000	74.286382
1331.000000	74.309270
1330.000000	74.327836
1329.000000	74.345134
1328.000000	74.389813
1327.000000	74.408113
1326.000000	74.445998
1325.000000	74.434487
1324.000000	74.469367
1323.000000	74.477055
1322.000000	74.489421
1321.000000	74.509260
1320.000000	74.545478
1319.000000	74.519270
1318.000000	74.566151
1317.000000	74.605989
1316.000000	74.581643
1315.000000	74.624674
1314.000000	74.599087
1313.000000	74.624000
1312.000000	74.638816
1311.000000	74.654654
1310.000000	74.654304
1309.000000	74.670509
1308.000000	74.694818
1307.000000	74.673847
1306.000000	74.696962
1305.000000	74.713550
1304.000000	74.712196
1303.000000	74.740409
1302.000000	74.724369
1301.000000	74.749469
1300.000000	74.743829
1299.000000	74.764938
1298.000000	74.784429
1297.000000	74.761341
1296.000000	74.758294
1295.000000	74.768924
1294.000000	74.756160
1293.000000	74.780170
1292.000000	74.756479
1291.000000	74.763407
1290.000000	74.757118
1289.000000	74.796186
1288.000000	74.767406
1287.000000	74.778022
1286.000000	74.774418
1285.000000	74.779808
1284.000000	74.778507
1283.000000	74.765126
1282.000000	74.772317
1281.000000	74.774064
1280.000000	74.779680
1279.000000	74.791006
1278.000000	74.781798
1277.000000	74.796982
1276.000000	74.785063
1275.000000	74.802238
1274.000000	74.791341
1273.000000	74.798196
1272.000000	74.808678
1271.000000	74.824161
1270.000000	74.803530
1269.000000	74.842752
1268.000000	74.827217
1267.000000	74.849297
1266.000000	74.861581
1265.000000	74.857195
1264.000000	74.900692
1263.000000	74.901420
1262.000000	74.887454
1261.000000	74.888512
1260.000000	74.899688
1259.000000	74.910608
1258.000000	74.914252
1257.000000	74.964002
1256.000000	74.937724
1255.000000	74.937500
1254.000000	74.961888
1253.000000	74.949708
1252.000000	74.933362
1251.000000	74.952358
1250.000000	74.960697
1249.000000	74.957417
1248.000000	74.966006
1247.000000	74.959408
1246.000000	74.963838
1245.000000	74.946986
1244.000000	74.930442
1243.000000	74.940393
1242.000000	74.927150
1241.000000	74.918604
1240.000000	74.923923
1239.000000	74.895156
1238.000000	74.896631
1237.000000	74.903805
1236.000000	74.881400
1235.000000	74.882502
1234.000000	74.849328
1233.000000	74.848773
1232.000000	74.842485
1231.000000	74.830515
1230.000000	74.845968
1229.000000	74.830504
1228.000000	74.799709
1227.000000	74.792591
1226.000000	74.814466
1225.000000	74.792021
1224.000000	74.787009
1223.000000	74.765331
1222.000000	74.760204
1221.000000	74.760833
1220.000000	74.773125
1219.000000	74.764582
1218.000000	74.742963
1217.000000	74.740495
1216.000000	74.730129
1215.000000	74.721093
1214.000000	74.703818
1213.000000	74.682185
1212.000000	74.699282
1211.000000	74.686368
1210.000000	74.689733
1209.000000	74.659180
1208.000000	74.633836
1207.000000	74.643636
1206.000000	74.609705
1205.000000	74.573241
1204.000000	74.582053
1203.000000	74.558362
1202.000000	74.546468
1201.000000	74.524653
1200.000000	74.525594
1199.000000	74.505759
1198.000000	74.470069
1197.000000	74.458169
1196.000000	74.444533
1195.000000	74.447017
1194.000000	74.426153
1193.000000	74.414779
1192.000000	74.410258
1191.000000	74.398416
1190.000000	74.387410
1189.000000	74.374605
1188.000000	74.373052
1187.000000	74.380363
1186.000000	74.368487
1185.000000	74.381699
1184.000000	74.378836
1183.000000	74.382469
1182.000000	74.412023
1181.000000	74.419326
1180.000000	74.429474
1179.000000	74.450910
1178.000000	74.475043
1177.000000	74.497922
1176.000000	74.520232
1175.000000	74.546866
1174.000000	74.574146
1173.000000	74.609660
1172.000000	74.654230
1171.000000	74.686551
1170.000000	74.715901
1169.000000	74.744007
1168.000000	74.795676
1167.000000	74.850278
1166.000000	74.884401
1165.000000	74.913118
1164.000000	74.961413
1163.000000	75.015494
1162.000000	75.051777
1161.000000	75.087464
1160.000000	75.141386
1159.000000	75.173155
1158.000000	75.205751
1157.000000	75.252670
1156.000000	75.303141
1155.000000	75.354077
1154.000000	75.383174
1153.000000	75.400080
1152.000000	75.442311
1151.000000	75.486593
1150.000000	75.512011
1149.000000	75.534167
1148.000000	75.552636
1147.000000	75.574004
1146.000000	75.616464
1145.000000	75.641591
1144.000000	75.664250
1143.000000	75.693699
1142.000000	75.712105
1141.000000	75.758549
1140.000000	75.782698
1139.000000	75.806162
1138.000000	75.824622
1137.000000	75.837617
1136.000000	75.863421
1135.000000	75.889666
1134.000000	75.926970
1133.000000	75.934553
1132.000000	75.933585
1131.000000	75.966875
1130.000000	75.985893
1129.000000	75.987191
1128.000000	76.025130
1127.000000	76.039710
1126.000000	76.057183
1125.000000	76.084933
1124.000000	76.080919
1123.000000	76.097669
1122.000000	76.116020
1121.000000	76.116689
1120.000000	76.112538
1119.000000	76.137044
1118.000000	76.154360
1117.000000	76.162515
1116.000000	76.159833
1115.000000	76.158090
1114.000000	76.159816
1113.000000	76.168936
1112.000000	76.172333
1111.000000	76.172767
1110.000000	76.192210
1109.000000	76.189224
1108.000000	76.187624
1107.000000	76.203311
1106.000000	76.198297
1105.000000	76.204492
1104.000000	76.200955
1103.000000	76.208176
1102.000000	76.204919
1101.000000	76.223457
1100.000000	76.213966
1099.000000	76.240771
1098.000000	76.244311
1097.000000	76.244621
1096.000000	76.239073
1095.000000	76.234424
1094.000000	76.233365
1093.000000	76.244458
1092.000000	76.247202
1091.000000	76.244825
1090.000000	76.248170
1089.000000	76.238813
1088.000000	76.251636
1087.000000	76.267175
1086.000000	76.265336
1085.000000	76.273704
1084.000000	76.258518
1083.000000	76.255892
1082.000000	76.277885
1081.000000	76.250397
1080.000000	76.264146
1079.000000	76.274222
1078.000000	76.265389
1077.000000	76.273448
1076.000000	76.273741
1075.000000	76.294552
1074.000000	76.235975
1073.000000	76.265015
1072.000000	76.255310
1071.000000	76.257636
1070.000000	76.255626
1069.000000	76.264859
1068.000000	76.275722
1067.000000	76.252338
1066.000000	76.256158
1065.000000	76.283507
1064.000000	76.281250
1063.000000	76.283782
1062.000000	76.273596
1061.000000	76.263416
1060.000000	76.239726
1059.000000	76.263862
1058.000000	76.254401
1057.000000	76.256550
1056.000000	76.270622
1055.000000	76.279537
1054.000000	76.226189
1053.000000	76.241386
1052.000000	76.230691
1051.000000	76.236363
1050.000000	76.260698
1049.000000	76.234482
1048.000000	76.226584
1047.000000	76.251929
1046.000000	76.234598
1045.000000	76.244069
1044.000000	76.247243
1043.000000	76.220059
1042.000000	76.245802
1041.000000	76.235452
1040.000000	76.242451
1039.000000	76.248202
1038.000000	76.253570
1037.000000	76.246167
1036.000000	76.218296
1035.000000	76.231508
1034.000000	76.227471
1033.000000	76.237412
1032.000000	76.229797
1031.000000	76.244317
1030.000000	76.275082
1029.000000	76.239591
1028.000000	76.243047
1027.000000	76.272515
1026.000000	76.248803
1025.000000	76.248914
1024.000000	76.262023
1023.000000	76.259001
1022.000000	76.261271
1021.000000	76.236894
1020.000000	76.273888
1019.000000	76.272520
1018.000000	76.277199
1017.000000	76.270867
1016.000000	76.258222
1015.000000	76.263566
1014.000000	76.283064
1013.000000	76.298593
1012.000000	76.297809
1011.000000	76.295011
1010.000000	76.295831
1009.000000	76.298685
1008.000000	76.307709
1007.000000	76.326969
1006.000000	76.314882
1005.000000	76.332455
1004.000000	76.330323
1003.000000	76.315628
1002.000000	76.329499
1001.000000	76.360604
1000.000000	76.349786
999.000000	76.337505
998.000000	76.343208
997.000000	76.366364
996.000000	76.389939
995.000000	76.401428
994.000000	76.392446
993.000000	76.383893
992.000000	76.395325
991.000000	76.391280
990.000000	76.411174
989.000000	76.414727
988.000000	76.391686
987.000000	76.428982
986.000000	76.446583
985.000000	76.455695
984.000000	76.442659
983.000000	76.461062
982.000000	76.469188
981.000000	76.454603
980.000000	76.468621
979.000000	76.491535
978.000000	76.507296
977.000000	76.500622
976.000000	76.496499
975.000000	76.508285
974.000000	76.499838
973.000000	76.500027
972.000000	76.512945
971.000000	76.520791
970.000000	76.530385
969.000000	76.537962
968.000000	76.549346
967.000000	76.546600
966.000000	76.536807
965.000000	76.540222
964.000000	76.557929
963.000000	76.565812
962.000000	76.576664
961.000000	76.597302
960.000000	76.604285
959.000000	76.583718
958.000000	76.579782
957.000000	76.588439
956.000000	76.574933
955.000000	76.600867
954.000000	76.624791
953.000000	76.632052
952.000000	76.628444
951.000000	76.622174
950.000000	76.645031
949.000000	76.676745
948.000000	76.669650
947.000000	76.656121
946.000000	76.654416
945.000000	76.661048
944.000000	76.660359
943.000000	76.673886
942.000000	76.695919
941.000000	76.694674
940.000000	76.705045
939.000000	76.716302
938.000000	76.714253
937.000000	76.684634
936.000000	76.665367
935.000000	76.704336
934.000000	76.724994
933.000000	76.706208
932.000000	76.707263
931.000000	76.707080
930.000000	76.709789
929.000000	76.721427
928.000000	76.718639
927.000000	76.729621
926.000000	76.728502
925.000000	76.707725
924.000000	76.706822
923.000000	76.719576
922.000000	76.716681
921.000000	76.699249
920.000000	76.719025
919.000000	76.733096
918.000000	76.700924
917.000000	76.689384
916.000000	76.708023
915.000000	76.728967
914.000000	76.704429
913.000000	76.681350
912.000000	76.690730
911.000000	76.699902
910.000000	76.689100
909.000000	76.717588
908.000000	76.706755
907.000000	76.692694
906.000000	76.713031
905.000000	76.732513
904.000000	76.760350
903.000000	76.731142
902.000000	76.691441
901.000000	76.747140
900.000000	76.789215
899.000000	76.751904
898.000000	76.699893
897.000000	76.746080
896.000000	76.713924
895.000000	76.712157
894.000000	76.682566
893.000000	76.745446
892.000000	76.717832
891.000000	76.738153
890.000000	76.816298
889.000000	76.803697
888.000000	76.807902
887.000000	76.833675
886.000000	76.839979
885.000000	76.807409
884.000000	76.812292
883.000000	76.845483
882.000000	76.815852
881.000000	76.770390
880.000000	76.849372
879.000000	76.787502
878.000000	76.859733
877.000000	76.810488
876.000000	76.816528
875.000000	76.818244
874.000000	76.781427
873.000000	76.829364
872.000000	76.799000
871.000000	76.925506
870.000000	76.821716
869.000000	76.759408
868.000000	76.780639
867.000000	76.726921
866.000000	76.768095
865.000000	76.691245
864.000000	76.885013
863.000000	76.984486
862.000000	77.019703
861.000000	76.822266
860.000000	76.954424
859.000000	76.719939
858.000000	76.943039
857.000000	76.770654
856.000000	76.812618
855.000000	77.528946
854.000000	76.641669
853.000000	76.504164
852.000000	76.908073
851.000000	77.216076
850.000000	76.587495
849.000000	76.352191
848.000000	76.547391
847.000000	76.856297
846.000000	77.105639
845.000000	76.632416
844.000000	76.840156
843.000000	76.914225
842.000000	76.902028
841.000000	76.672606
840.000000	77.054838
839.000000	76.888180
838.000000	76.903258
837.000000	76.860269
836.000000	77.042467
835.000000	76.891472
834.000000	76.844979
833.000000	76.827936
832.000000	77.099668
831.000000	76.911754
830.000000	76.889256
829.000000	76.795989
828.000000	76.602003
827.000000	76.760905
826.000000	76.712548
825.000000	76.985152
824.000000	76.964209
823.000000	76.692517
822.000000	76.795083
821.000000	76.809458
820.000000	76.602793
819.000000	76.850247
818.000000	76.894848
817.000000	76.812255
816.000000	76.671605
815.000000	76.750988
814.000000	76.888255
813.000000	76.645224
812.000000	76.882770
811.000000	76.559990
810.000000	76.712018
809.000000	76.821639
808.000000	76.722691
807.000000	76.913454
806.000000	76.750847
805.000000	76.664946
804.000000	76.763019
803.000000	76.680810
802.000000	76.709688
801.000000	76.657169
800.000000	76.633915
799.000000	76.450440
798.000000	76.590168
797.000000	76.748360
796.000000	76.663502
795.000000	76.670276
794.000000	76.664607
793.000000	76.869836
792.000000	76.630408
791.000000	76.615624
790.000000	76.748491
789.000000	76.785164
788.000000	76.631895
787.000000	76.608087
786.000000	76.708717
785.000000	76.739195
784.000000	76.529034
783.000000	76.565361
782.000000	76.648879
781.000000	76.610587
780.000000	76.580868
779.000000	76.526473
778.000000	76.554670
777.000000	76.511007
776.000000	76.462749
775.000000	76.504778
774.000000	76.448436
773.000000	76.642376
772.000000	76.522181
771.000000	76.521912
770.000000	76.435039
769.000000	76.487276
768.000000	76.528311
767.000000	76.501310
766.000000	76.484298
765.000000	76.517744
764.000000	76.450109
763.000000	76.494123
762.000000	76.547386
761.000000	76.431131
760.000000	76.428756
759.000000	76.391016
758.000000	76.370776
757.000000	76.399726
756.000000	76.351090
755.000000	76.384962
754.000000	76.334619
753.000000	76.280845
752.000000	76.321640
751.000000	76.320432
750.000000	76.333139
749.000000	76.244876
748.000000	76.221458
747.000000	76.319832
746.000000	76.246475
745.000000	76.248342
744.000000	76.231461
743.000000	76.162424
742.000000	76.188608
741.000000	76.180967
740.000000	76.042222
739.000000	76.117417
738.000000	76.203377
737.000000	76.141467
736.000000	76.124790
735.000000	76.154727
734.000000	76.120779
733.000000	76.105535
732.000000	76.096641
731.000000	76.088584
730.000000	76.026432
729.000000	76.075353
728.000000	76.060377
727.000000	75.951234
726.000000	75.944957
725.000000	76.014081
724.000000	76.019905
723.000000	76.004972
722.000000	75.995231
721.000000	75.911184
720.000000	75.878715
719.000000	75.864630
718.000000	75.832328
717.000000	75.865860
716.000000	75.899877
715.000000	75.844492
714.000000	75.772185
713.000000	75.731057
712.000000	75.760240
711.000000	75.766239
710.000000	75.688188
709.000000	75.705017
708.000000	75.685747
707.000000	75.615665
706.000000	75.654377
705.000000	75.662023
704.000000	75.625431
703.000000	75.555501
702.000000	75.598167
701.000000	75.602340
700.000000	75.516676
699.000000	75.483091
698.000000	75.479077
697.000000	75.463641
696.000000	75.443410
695.000000	75.446993
694.000000	75.330706
693.000000	75.330124
692.000000	75.399362
691.000000	75.381466
690.000000	75.308125
689.000000	75.192503
688.000000	75.087849
687.000000	75.058046
686.000000	75.069135
685.000000	75.107761
684.000000	75.018243
683.000000	75.009069
682.000000	75.057701
681.000000	74.998529
680.000000	74.920812
679.000000	74.918305
678.000000	74.885347
677.000000	74.809353
676.000000	74.799217
675.000000	74.794398
674.000000	74.754521
673.000000	74.718882
672.000000	74.688412
671.000000	74.714244
670.000000	74.615953
669.000000	74.600833
668.000000	74.576513
667.000000	74.507401
666.000000	74.539390
665.000000	74.407165
664.000000	74.367550
663.000000	74.397329
662.000000	74.382282
661.000000	74.300557
660.000000	74.319526
659.000000	74.341708
658.000000	74.286160
657.000000	74.240201
656.000000	74.169547
655.000000	74.176777
654.000000	74.186261
653.000000	74.122073
652.000000	74.098960
651.000000	74.104113
650.000000	73.989233
649.000000	74.051464
648.000000	73.992525
647.000000	73.939096
646.000000	73.840919
645.000000	73.855092
644.000000	73.834782
643.000000	73.756324
642.000000	73.802228
641.000000	73.696414
640.000000	73.647026
639.000000	73.656791
638.000000	73.584069
637.000000	73.515428
636.000000	73.522756
635.000000	73.510509
634.000000	73.488117
633.000000	73.417584
632.000000	73.415517
631.000000	73.373890
630.000000	73.359595
629.000000	73.296472
628.000000	73.186699
627.000000	73.234328
626.000000	73.111594
625.000000	73.170225
624.000000	73.097061
623.000000	73.057596
622.000000	72.952983
621.000000	73.004850
620.000000	72.940692
619.000000	72.891741
618.000000	72.856871
617.000000	72.848126
616.000000	72.751252
615.000000	72.775831
614.000000	72.701206
613.000000	72.643318
612.000000	72.579162
611.000000	72.537840
610.000000	72.465535
609.000000	72.498915
608.000000	72.399591
607.000000	72.351261
606.000000	72.325718
605.000000	72.297489
604.000000	72.203368
603.000000	72.182521
602.000000	72.131175
601.000000	72.087352
600.000000	72.026292
599.000000	71.977961
598.000000	71.944674
597.000000	71.875509
596.000000	71.910423
595.000000	71.800568
594.000000	71.703124
593.000000	71.729591
592.000000	71.634999
591.000000	71.618414
590.000000	71.549890
589.000000	71.458548
588.000000	71.392457
587.000000	71.406771
586.000000	71.304760
585.000000	71.270642
584.000000	71.162132
583.000000	71.118317
582.000000	71.098687
581.000000	71.090225
580.000000	70.959715
579.000000	71.018041
578.000000	70.924463
577.000000	70.820855
576.000000	70.785215
575.000000	70.762995
574.000000	70.693717
573.000000	70.637502
572.000000	70.539918
571.000000	70.504620
570.000000	70.491951
569.000000	70.361327
568.000000	70.315906
567.000000	70.284189
566.000000	70.219523
565.000000	70.099487
564.000000	70.049892
563.000000	70.007755
562.000000	69.910545
561.000000	69.867932
560.000000	69.784029
559.000000	69.755359
558.000000	69.701932
557.000000	69.606898
556.000000	69.599696
555.000000	69.506304
554.000000	69.401304
553.000000	69.371723
552.000000	69.290093
551.000000	69.221732
550.000000	69.128916
549.000000	69.074863
548.000000	68.991493
547.000000	68.933098
546.000000	68.875751
545.000000	68.837123
544.000000	68.730290
543.000000	68.662625
542.000000	68.577568
541.000000	68.531694
540.000000	68.467020
539.000000	68.376817
538.000000	68.255067
537.000000	68.195353
536.000000	68.145100
535.000000	68.061683
534.000000	67.941026
533.000000	67.913278
532.000000	67.865886
531.000000	67.767219
530.000000	67.700307
529.000000	67.662271
528.000000	67.523021
527.000000	67.486493
526.000000	67.357486
525.000000	67.275598
524.000000	67.196790
523.000000	67.126584
522.000000	67.047827
521.000000	66.982205
520.000000	66.890637
519.000000	66.768963
518.000000	66.684853
517.000000	66.630100
516.000000	66.525735
515.000000	66.430516
514.000000	66.363342
513.000000	66.286129
512.000000	66.193303
511.000000	66.121561
510.000000	66.021162
509.000000	65.943625
508.000000	65.831678
507.000000	65.744899
506.000000	65.685075
505.000000	65.580454
504.000000	65.510192
503.000000	65.428892
502.000000	65.314921
501.000000	65.242229
500.000000	65.138208
499.000000	65.030267
498.000000	64.955119
497.000000	64.909430
496.000000	64.800818
495.000000	64.686131
494.000000	64.670803
493.000000	64.577966
492.000000	64.460130
491.000000	64.355162
490.000000	64.277533
489.000000	64.194787
488.000000	64.108477
487.000000	64.027088
486.000000	63.905009
485.000000	63.860304
484.000000	63.774535
483.000000	63.710172
482.000000	63.598618
481.000000	63.521487
480.000000	63.455039
479.000000	63.362994
478.000000	63.258757
477.000000	63.165885
476.000000	63.087114
475.000000	62.969077
474.000000	62.869260
473.000000	62.791504
472.000000	62.699656
471.000000	62.558306
470.000000	62.467282
469.000000	62.431857
468.000000	62.311799
467.000000	62.216916
466.000000	62.114306
465.000000	62.054735
464.000000	61.989518
463.000000	61.844982
462.000000	61.729816
461.000000	61.643580
460.000000	61.532543
459.000000	61.382653
458.000000	61.309577
457.000000	61.241167
456.000000	61.132269
455.000000	61.038156
454.000000	60.908881
453.000000	60.720703
452.000000	60.603820
451.000000	60.542472
450.000000	60.423447
449.000000	60.266520
448.000000	60.104594
447.000000	59.962614
446.000000	59.860391
445.000000	59.744606
444.000000	59.631091
443.000000	59.516617
442.000000	59.346820
441.000000	59.215285
440.000000	59.060862
439.000000	58.877150
438.000000	58.714091
437.000000	58.601955
436.000000	58.497410
435.000000	58.327479
434.000000	58.185295
433.000000	57.989336
432.000000	57.798789
431.000000	57.668947
430.000000	57.499979
429.000000	57.310376
428.000000	57.151179
427.000000	56.991935
426.000000	56.850231
425.000000	56.667288
424.000000	56.503763
423.000000	56.316504
422.000000	56.133686
421.000000	55.945004
420.000000	55.800143
419.000000	55.599710
418.000000	55.412213
417.000000	55.228997
416.000000	55.043646
415.000000	54.835720
414.000000	54.640499
413.000000	54.549758
412.000000	54.350250
411.000000	54.156769
410.000000	54.061276
409.000000	53.806286
408.000000	53.637625
407.000000	53.514212
406.000000	53.312787
405.000000	53.029957
404.000000	52.826444
403.000000	52.695912
402.000000	52.479274
401.000000	52.350275
400.000000	52.148865
399.000000	52.006773
398.000000	51.742509
397.000000	51.599986
396.000000	51.352509
395.000000	51.157151
394.000000	50.987791
393.000000	50.821754
392.000000	50.598959
391.000000	50.404076
390.000000	50.228852
389.000000	50.061167
388.000000	49.872835
387.000000	49.615771
386.000000	49.462805
385.000000	49.257638
384.000000	49.067489
383.000000	48.805548
382.000000	48.605113
381.000000	48.375631
380.000000	48.319336
379.000000	48.035636
378.000000	47.804215
377.000000	47.814902
376.000000	47.514470
375.000000	47.278263
374.000000	47.110325
373.000000	46.935570
372.000000	46.838329
371.000000	46.512631
370.000000	46.312952
369.000000	46.159815
368.000000	45.922844
367.000000	45.935527
366.000000	45.599402
365.000000	45.455120
364.000000	45.384835
363.000000	45.059372
362.000000	44.986626
361.000000	44.723382
360.000000	44.616132
359.000000	44.536455
358.000000	44.287699
357.000000	44.051830
356.000000	44.116609
355.000000	43.754508
354.000000	43.595750
353.000000	43.363933
352.000000	43.188407
351.000000	43.026817
350.000000	42.834350
349.000000	42.647622
348.000000	42.514403
347.000000	42.416179
346.000000	42.295614
345.000000	42.184907
344.000000	41.915544
343.000000	41.716894
342.000000	41.516961
341.000000	41.384687
340.000000	41.170761
339.000000	40.809845
338.000000	40.998009
337.000000	40.519599
336.000000	40.614625
335.000000	40.202804
334.000000	40.389126
333.000000	40.053301
332.000000	39.714606
331.000000	39.878022
330.000000	39.888532
329.000000	39.557968
328.000000	39.350386
327.000000	39.268512
326.000000	39.334718
325.000000	38.994123
324.000000	38.910893
323.000000	38.778345
322.000000	38.788879
321.000000	38.567833
320.000000	38.568381
319.000000	38.390385
318.000000	38.243322
317.000000	38.195058
316.000000	38.229252
315.000000	38.146222
314.000000	38.079510
313.000000	37.854073
312.000000	37.756233
311.000000	37.694406
310.000000	37.676990
309.000000	37.593002
308.000000	37.446200
307.000000	37.426954
306.000000	37.395681
305.000000	37.322765
304.000000	37.449041
303.000000	37.400641
302.000000	37.108777
301.000000	37.084165
300.000000	36.983551
299.000000	36.778305
298.000000	36.654177
297.000000	36.559712
296.000000	36.620737
295.000000	36.254480
294.000000	36.131108
293.000000	35.888509
292.000000	35.556444
291.000000	35.315106
290.000000	35.265564
289.000000	34.970272
288.000000	34.753521
287.000000	34.542502
286.000000	34.445163
285.000000	34.301042
284.000000	34.307590
283.000000	34.202439
282.000000	34.152429
281.000000	34.333170
280.000000	34.192772
279.000000	34.096493
278.000000	34.119939
277.000000	34.293099
276.000000	34.188073
275.000000	34.292168
274.000000	34.597345
273.000000	34.648385
272.000000	34.696671
271.000000	34.683146
270.000000	34.785110
269.000000	34.983268
268.000000	35.081162
267.000000	35.252093
266.000000	35.318824
265.000000	35.565013
264.000000	35.646579
263.000000	35.870563
262.000000	35.995246
261.000000	36.203468
260.000000	36.494589
259.000000	36.683475
258.000000	36.790822
257.000000	37.059569
256.000000	37.222516
255.000000	37.437341
254.000000	37.718709
253.000000	37.881147
252.000000	38.021872
251.000000	38.326914
250.000000	38.560959
249.000000	38.626047
248.000000	38.713619
247.000000	38.985761
246.000000	39.023651
245.000000	39.132449
244.000000	38.948861
243.000000	38.640471
242.000000	38.418171
241.000000	38.072261
240.000000	37.751426
239.000000	37.298625
238.000000	36.750008
237.000000	36.063529
236.000000	35.367158
235.000000	34.622835
234.000000	33.918294
233.000000	33.236969
232.000000	32.490733
231.000000	31.710484
230.000000	31.119368
229.000000	30.470763
228.000000	29.757323
227.000000	29.298830
226.000000	28.754223
225.000000	28.097295
224.000000	27.619341
223.000000	27.110023
222.000000	26.604035
221.000000	26.041498
220.000000	25.648560
219.000000	25.360478
218.000000	25.021894
217.000000	24.713602
216.000000	24.415540
215.000000	24.203016
214.000000	24.062493
213.000000	23.898573
212.000000	23.579196
211.000000	23.387142
210.000000	23.361401
209.000000	23.402945
208.000000	23.479951
207.000000	23.309478
206.000000	23.395098
205.000000	23.638071
204.000000	23.888521
203.000000	24.061677
202.000000	24.399057
201.000000	25.218122
200.000000	25.624047
