PE UV       SUBTECH     SPECTRUM    ASCII       PEDS        4.00        
   -1
RTms159342.Sample.asc
18/03/19
18:16:44.00
18/03/19
18:16:44.00
Administrator

200.000000
1
Lambda 750
750N8071901
PerkinElmer UV WinLab 6.0.4.0738 / 1.61.00 Lambda 900

0
0
3350/servo 860.8/2
0
0
UV/VIS
1
1
1
CommonBeamDepol,150mm sphere / downward view
0
0
0
0
Program
Program
3350/servo 860.8/2
3350/0.2 860.8/0.2
3350/0.2 860.8/0.2
0
1
 
 
 
0
 
860.8
319.2
860.8
Front
100
on
 
 
0
0
0
 
0
 
 
 
0
 
 
0
0
0
0
0
 
 
 
 
0
0


0
0
#HDR
-1
-1
#GR
nm
%R
1.0
0.0
2350.000000
-1.000000
2151
8
54.183125
7.841906
#DATA
2350.000000	35.743840
2349.000000	35.781408
2348.000000	35.822640
2347.000000	35.911353
2346.000000	35.710802
2345.000000	35.632568
2344.000000	35.724444
2343.000000	35.638885
2342.000000	35.784755
2341.000000	35.913242
2340.000000	35.827644
2339.000000	35.859965
2338.000000	36.165767
2337.000000	36.001418
2336.000000	35.926869
2335.000000	36.223907
2334.000000	36.070916
2333.000000	36.248660
2332.000000	36.370478
2331.000000	36.174066
2330.000000	36.060907
2329.000000	35.963249
2328.000000	36.357381
2327.000000	36.010400
2326.000000	36.145693
2325.000000	36.103572
2324.000000	35.903641
2323.000000	36.125842
2322.000000	36.031031
2321.000000	36.166537
2320.000000	35.998342
2319.000000	35.677358
2318.000000	35.762860
2317.000000	35.754511
2316.000000	35.929439
2315.000000	35.733914
2314.000000	35.714893
2313.000000	35.696326
2312.000000	35.568796
2311.000000	35.298105
2310.000000	35.168813
2309.000000	35.381010
2308.000000	35.252667
2307.000000	35.157789
2306.000000	35.273016
2305.000000	35.063990
2304.000000	35.104539
2303.000000	35.102586
2302.000000	35.030776
2301.000000	34.805110
2300.000000	34.664140
2299.000000	34.699423
2298.000000	34.446505
2297.000000	34.308519
2296.000000	34.560175
2295.000000	34.353305
2294.000000	34.377175
2293.000000	34.189085
2292.000000	34.024754
2291.000000	33.957923
2290.000000	33.923169
2289.000000	34.068952
2288.000000	34.124288
2287.000000	34.066338
2286.000000	34.060242
2285.000000	34.031848
2284.000000	34.027482
2283.000000	33.914322
2282.000000	33.865662
2281.000000	33.828571
2280.000000	33.674622
2279.000000	33.918754
2278.000000	33.807654
2277.000000	33.731756
2276.000000	33.913432
2275.000000	34.081942
2274.000000	33.962761
2273.000000	33.922690
2272.000000	33.951352
2271.000000	34.068244
2270.000000	34.167175
2269.000000	34.208425
2268.000000	34.161816
2267.000000	34.211546
2266.000000	34.294526
2265.000000	34.398020
2264.000000	34.524618
2263.000000	34.663129
2262.000000	34.631151
2261.000000	34.694980
2260.000000	34.931673
2259.000000	35.085972
2258.000000	35.326013
2257.000000	35.465045
2256.000000	35.435513
2255.000000	35.564721
2254.000000	35.754594
2253.000000	35.902600
2252.000000	36.028437
2251.000000	36.065197
2250.000000	36.250503
2249.000000	36.532483
2248.000000	36.646571
2247.000000	36.862505
2246.000000	37.033494
2245.000000	37.075643
2244.000000	37.243381
2243.000000	37.418216
2242.000000	37.553690
2241.000000	37.694313
2240.000000	37.789220
2239.000000	37.837737
2238.000000	37.822253
2237.000000	37.966950
2236.000000	38.100117
2235.000000	38.131576
2234.000000	38.176378
2233.000000	38.245980
2232.000000	38.316438
2231.000000	38.419165
2230.000000	38.483368
2229.000000	38.494206
2228.000000	38.503174
2227.000000	38.568636
2226.000000	38.538557
2225.000000	38.542581
2224.000000	38.574805
2223.000000	38.537252
2222.000000	38.561196
2221.000000	38.521357
2220.000000	38.488989
2219.000000	38.474133
2218.000000	38.448409
2217.000000	38.429729
2216.000000	38.364979
2215.000000	38.312227
2214.000000	38.388958
2213.000000	38.392926
2212.000000	38.282129
2211.000000	38.134460
2210.000000	38.070945
2209.000000	37.987423
2208.000000	37.972454
2207.000000	38.001109
2206.000000	37.948017
2205.000000	37.938019
2204.000000	37.913194
2203.000000	37.906038
2202.000000	37.886636
2201.000000	37.746862
2200.000000	37.630016
2199.000000	37.626388
2198.000000	37.717985
2197.000000	37.587520
2196.000000	37.477706
2195.000000	37.435573
2194.000000	37.392211
2193.000000	37.351016
2192.000000	37.296770
2191.000000	37.288179
2190.000000	37.141148
2189.000000	37.049080
2188.000000	37.000880
2187.000000	36.943682
2186.000000	36.958192
2185.000000	36.942854
2184.000000	36.969222
2183.000000	37.071524
2182.000000	36.941604
2181.000000	36.961005
2180.000000	36.989584
2179.000000	36.966933
2178.000000	37.021003
2177.000000	36.808516
2176.000000	36.821368
2175.000000	36.800710
2174.000000	36.984012
2173.000000	36.765233
2172.000000	36.916791
2171.000000	37.142730
2170.000000	37.170250
2169.000000	36.980163
2168.000000	37.285493
2167.000000	37.223752
2166.000000	37.283545
2165.000000	37.391611
2164.000000	37.506415
2163.000000	37.444349
2162.000000	37.710768
2161.000000	37.683134
2160.000000	37.849696
2159.000000	38.047259
2158.000000	37.976745
2157.000000	38.192631
2156.000000	38.204714
2155.000000	38.433243
2154.000000	38.511006
2153.000000	38.776620
2152.000000	38.741435
2151.000000	38.817167
2150.000000	39.001775
2149.000000	39.003196
2148.000000	39.173824
2147.000000	39.422033
2146.000000	39.452999
2145.000000	39.513231
2144.000000	39.695387
2143.000000	39.842057
2142.000000	39.823058
2141.000000	40.058419
2140.000000	40.256640
2139.000000	40.314241
2138.000000	40.487380
2137.000000	40.482345
2136.000000	40.495869
2135.000000	40.590197
2134.000000	40.606157
2133.000000	40.640822
2132.000000	40.807448
2131.000000	40.922920
2130.000000	41.011542
2129.000000	40.831976
2128.000000	40.910701
2127.000000	41.130550
2126.000000	41.142593
2125.000000	40.952785
2124.000000	41.124549
2123.000000	41.177451
2122.000000	41.240835
2121.000000	41.332875
2120.000000	41.302073
2119.000000	41.393611
2118.000000	41.396957
2117.000000	41.317842
2116.000000	41.423741
2115.000000	41.590691
2114.000000	41.521622
2113.000000	41.525229
2112.000000	41.508194
2111.000000	41.520009
2110.000000	41.502672
2109.000000	41.387313
2108.000000	41.517955
2107.000000	41.663591
2106.000000	41.687870
2105.000000	41.634183
2104.000000	41.507486
2103.000000	41.587452
2102.000000	41.657507
2101.000000	41.680270
2100.000000	41.793220
2099.000000	41.710740
2098.000000	41.655295
2097.000000	41.698841
2096.000000	41.680459
2095.000000	41.664966
2094.000000	41.575746
2093.000000	41.630518
2092.000000	41.677754
2091.000000	41.676104
2090.000000	41.641845
2089.000000	41.648048
2088.000000	41.595226
2087.000000	41.579514
2086.000000	41.628828
2085.000000	41.672897
2084.000000	41.595828
2083.000000	41.564885
2082.000000	41.468355
2081.000000	41.331692
2080.000000	41.237011
2079.000000	41.271075
2078.000000	41.207776
2077.000000	41.165820
2076.000000	41.159731
2075.000000	41.026852
2074.000000	40.969031
2073.000000	40.909661
2072.000000	40.772724
2071.000000	40.650027
2070.000000	40.668668
2069.000000	40.501650
2068.000000	40.363106
2067.000000	40.376289
2066.000000	40.252071
2065.000000	40.085292
2064.000000	39.999838
2063.000000	39.843136
2062.000000	39.810156
2061.000000	39.642057
2060.000000	39.458385
2059.000000	39.372158
2058.000000	39.316816
2057.000000	39.242683
2056.000000	39.148123
2055.000000	39.006453
2054.000000	38.846579
2053.000000	38.777043
2052.000000	38.695201
2051.000000	38.544506
2050.000000	38.424446
2049.000000	38.407651
2048.000000	38.379273
2047.000000	38.368324
2046.000000	38.285138
2045.000000	38.166905
2044.000000	38.159619
2043.000000	38.147382
2042.000000	38.130643
2041.000000	38.187037
2040.000000	38.197023
2039.000000	38.139369
2038.000000	38.154768
2037.000000	38.167837
2036.000000	38.220711
2035.000000	38.365681
2034.000000	38.421414
2033.000000	38.419253
2032.000000	38.512947
2031.000000	38.611538
2030.000000	38.696495
2029.000000	38.802523
2028.000000	38.861400
2027.000000	38.925674
2026.000000	39.041834
2025.000000	39.101312
2024.000000	39.141025
2023.000000	39.214247
2022.000000	39.268715
2021.000000	39.294036
2020.000000	39.331092
2019.000000	39.363812
2018.000000	39.374431
2017.000000	39.385351
2016.000000	39.383549
2015.000000	39.376536
2014.000000	39.347941
2013.000000	39.333564
2012.000000	39.290012
2011.000000	39.261318
2010.000000	39.261522
2009.000000	39.198502
2008.000000	39.129045
2007.000000	39.067668
2006.000000	38.978489
2005.000000	38.938788
2004.000000	38.856294
2003.000000	38.780139
2002.000000	38.715649
2001.000000	38.647354
2000.000000	38.570370
1999.000000	38.515250
1998.000000	38.447309
1997.000000	38.349119
1996.000000	38.257516
1995.000000	38.155816
1994.000000	38.080430
1993.000000	37.990412
1992.000000	37.905947
1991.000000	37.792299
1990.000000	37.717591
1989.000000	37.614012
1988.000000	37.529166
1987.000000	37.502184
1986.000000	37.397354
1985.000000	37.248539
1984.000000	37.214755
1983.000000	37.143548
1982.000000	37.051939
1981.000000	36.933282
1980.000000	36.837477
1979.000000	36.769604
1978.000000	36.680736
1977.000000	36.629497
1976.000000	36.528827
1975.000000	36.467213
1974.000000	36.369537
1973.000000	36.265093
1972.000000	36.158720
1971.000000	36.071232
1970.000000	35.998221
1969.000000	35.972691
1968.000000	35.851737
1967.000000	35.761010
1966.000000	35.711173
1965.000000	35.634377
1964.000000	35.523534
1963.000000	35.442850
1962.000000	35.349626
1961.000000	35.258223
1960.000000	35.210651
1959.000000	35.137948
1958.000000	35.027211
1957.000000	35.009783
1956.000000	34.942442
1955.000000	34.862336
1954.000000	34.803472
1953.000000	34.727646
1952.000000	34.697944
1951.000000	34.663211
1950.000000	34.564173
1949.000000	34.514498
1948.000000	34.512282
1947.000000	34.477252
1946.000000	34.440524
1945.000000	34.431150
1944.000000	34.404840
1943.000000	34.447488
1942.000000	34.418919
1941.000000	34.463963
1940.000000	34.494068
1939.000000	34.494061
1938.000000	34.569613
1937.000000	34.668996
1936.000000	34.673590
1935.000000	34.762310
1934.000000	34.805357
1933.000000	34.986001
1932.000000	35.038997
1931.000000	35.148921
1930.000000	35.303235
1929.000000	35.377027
1928.000000	35.584121
1927.000000	35.656284
1926.000000	35.900598
1925.000000	36.051024
1924.000000	36.271839
1923.000000	36.453041
1922.000000	36.578282
1921.000000	36.872125
1920.000000	37.095937
1919.000000	37.263836
1918.000000	37.533128
1917.000000	37.784349
1916.000000	37.980978
1915.000000	38.261724
1914.000000	38.539227
1913.000000	38.864511
1912.000000	39.128291
1911.000000	39.347032
1910.000000	39.689481
1909.000000	39.925590
1908.000000	40.257205
1907.000000	40.539825
1906.000000	40.876315
1905.000000	41.215345
1904.000000	41.548467
1903.000000	41.821860
1902.000000	42.237437
1901.000000	42.535751
1900.000000	42.935621
1899.000000	43.301194
1898.000000	43.578587
1897.000000	43.953199
1896.000000	44.313625
1895.000000	44.633916
1894.000000	44.953290
1893.000000	45.272223
1892.000000	45.654612
1891.000000	45.929066
1890.000000	46.229906
1889.000000	46.511819
1888.000000	46.767964
1887.000000	47.049820
1886.000000	47.331419
1885.000000	47.574156
1884.000000	47.779062
1883.000000	48.074734
1882.000000	48.249466
1881.000000	48.457188
1880.000000	48.643620
1879.000000	48.814052
1878.000000	49.016440
1877.000000	49.233424
1876.000000	49.419115
1875.000000	49.530924
1874.000000	49.680193
1873.000000	49.837765
1872.000000	49.919196
1871.000000	50.086994
1870.000000	50.199161
1869.000000	50.250429
1868.000000	50.389208
1867.000000	50.476974
1866.000000	50.499449
1865.000000	50.572859
1864.000000	50.620318
1863.000000	50.700383
1862.000000	50.754863
1861.000000	50.797801
1860.000000	50.779168
1859.000000	50.760512
1858.000000	50.816621
1857.000000	50.851632
1856.000000	50.862444
1855.000000	50.892555
1854.000000	50.935120
1853.000000	50.958111
1852.000000	50.949397
1851.000000	50.911046
1850.000000	50.901706
1849.000000	50.877960
1848.000000	50.923667
1847.000000	50.936696
1846.000000	50.910340
1845.000000	50.897653
1844.000000	50.894804
1843.000000	50.892135
1842.000000	50.872809
1841.000000	50.851452
1840.000000	50.849968
1839.000000	50.819773
1838.000000	50.786160
1837.000000	50.748210
1836.000000	50.725326
1835.000000	50.693286
1834.000000	50.680271
1833.000000	50.688065
1832.000000	50.662105
1831.000000	50.614822
1830.000000	50.575229
1829.000000	50.525833
1828.000000	50.510872
1827.000000	50.494862
1826.000000	50.457237
1825.000000	50.427837
1824.000000	50.437123
1823.000000	50.422193
1822.000000	50.360706
1821.000000	50.348987
1820.000000	50.318807
1819.000000	50.273205
1818.000000	50.270780
1817.000000	50.249980
1816.000000	50.243195
1815.000000	50.243490
1814.000000	50.193094
1813.000000	50.143352
1812.000000	50.127363
1811.000000	50.109703
1810.000000	50.089620
1809.000000	50.071444
1808.000000	50.051286
1807.000000	50.023160
1806.000000	49.994463
1805.000000	49.967996
1804.000000	49.949001
1803.000000	49.927308
1802.000000	49.916775
1801.000000	49.921697
1800.000000	49.903414
1799.000000	49.875354
1798.000000	49.851436
1797.000000	49.835904
1796.000000	49.822030
1795.000000	49.789907
1794.000000	49.779326
1793.000000	49.771114
1792.000000	49.747563
1791.000000	49.759502
1790.000000	49.745596
1789.000000	49.727833
1788.000000	49.699606
1787.000000	49.680798
1786.000000	49.674144
1785.000000	49.648005
1784.000000	49.626184
1783.000000	49.610411
1782.000000	49.583210
1781.000000	49.574253
1780.000000	49.547768
1779.000000	49.536879
1778.000000	49.507495
1777.000000	49.471221
1776.000000	49.443642
1775.000000	49.391379
1774.000000	49.383742
1773.000000	49.361709
1772.000000	49.283285
1771.000000	49.252346
1770.000000	49.238810
1769.000000	49.192748
1768.000000	49.166639
1767.000000	49.137391
1766.000000	49.077007
1765.000000	49.063568
1764.000000	49.045002
1763.000000	48.988354
1762.000000	48.948596
1761.000000	48.932805
1760.000000	48.874627
1759.000000	48.830891
1758.000000	48.816164
1757.000000	48.785775
1756.000000	48.751414
1755.000000	48.713845
1754.000000	48.682025
1753.000000	48.633839
1752.000000	48.612445
1751.000000	48.577861
1750.000000	48.532819
1749.000000	48.516275
1748.000000	48.457311
1747.000000	48.418257
1746.000000	48.372343
1745.000000	48.285362
1744.000000	48.294357
1743.000000	48.248378
1742.000000	48.212527
1741.000000	48.169259
1740.000000	48.144351
1739.000000	48.133738
1738.000000	48.092501
1737.000000	48.063189
1736.000000	48.062256
1735.000000	48.023132
1734.000000	48.061767
1733.000000	48.048582
1732.000000	48.003954
1731.000000	48.037306
1730.000000	48.028413
1729.000000	48.051705
1728.000000	48.068660
1727.000000	48.087434
1726.000000	48.126955
1725.000000	48.133128
1724.000000	48.197114
1723.000000	48.259309
1722.000000	48.302212
1721.000000	48.378586
1720.000000	48.413247
1719.000000	48.499891
1718.000000	48.567904
1717.000000	48.616563
1716.000000	48.686824
1715.000000	48.719043
1714.000000	48.775434
1713.000000	48.814286
1712.000000	48.859265
1711.000000	48.899359
1710.000000	48.965315
1709.000000	48.972064
1708.000000	49.007575
1707.000000	49.008095
1706.000000	49.066423
1705.000000	49.076149
1704.000000	49.114909
1703.000000	49.113201
1702.000000	49.149475
1701.000000	49.114739
1700.000000	49.120099
1699.000000	49.116609
1698.000000	49.138689
1697.000000	49.159867
1696.000000	49.178324
1695.000000	49.156214
1694.000000	49.195966
1693.000000	49.226713
1692.000000	49.226531
1691.000000	49.276727
1690.000000	49.310857
1689.000000	49.366036
1688.000000	49.416236
1687.000000	49.476476
1686.000000	49.548614
1685.000000	49.594137
1684.000000	49.711483
1683.000000	49.782122
1682.000000	49.852720
1681.000000	49.974402
1680.000000	50.063536
1679.000000	50.132724
1678.000000	50.241775
1677.000000	50.333321
1676.000000	50.432460
1675.000000	50.556236
1674.000000	50.647016
1673.000000	50.745083
1672.000000	50.819710
1671.000000	50.942116
1670.000000	51.026757
1669.000000	51.129851
1668.000000	51.180759
1667.000000	51.283330
1666.000000	51.335340
1665.000000	51.393215
1664.000000	51.449735
1663.000000	51.493001
1662.000000	51.533833
1661.000000	51.588178
1660.000000	51.633094
1659.000000	51.673484
1658.000000	51.690601
1657.000000	51.719156
1656.000000	51.751535
1655.000000	51.771727
1654.000000	51.787471
1653.000000	51.795512
1652.000000	51.811102
1651.000000	51.800223
1650.000000	51.802253
1649.000000	51.806460
1648.000000	51.780069
1647.000000	51.799640
1646.000000	51.801981
1645.000000	51.787546
1644.000000	51.771515
1643.000000	51.747995
1642.000000	51.717400
1641.000000	51.715716
1640.000000	51.697411
1639.000000	51.687907
1638.000000	51.680918
1637.000000	51.643470
1636.000000	51.624117
1635.000000	51.603338
1634.000000	51.577834
1633.000000	51.559583
1632.000000	51.535926
1631.000000	51.516622
1630.000000	51.478349
1629.000000	51.460411
1628.000000	51.419634
1627.000000	51.386420
1626.000000	51.357023
1625.000000	51.325717
1624.000000	51.288084
1623.000000	51.282064
1622.000000	51.260182
1621.000000	51.218282
1620.000000	51.187003
1619.000000	51.161773
1618.000000	51.129744
1617.000000	51.094627
1616.000000	51.048101
1615.000000	51.015701
1614.000000	50.999232
1613.000000	50.956338
1612.000000	50.905547
1611.000000	50.874155
1610.000000	50.841891
1609.000000	50.792789
1608.000000	50.752176
1607.000000	50.701506
1606.000000	50.651373
1605.000000	50.620386
1604.000000	50.577220
1603.000000	50.546196
1602.000000	50.516221
1601.000000	50.469307
1600.000000	50.412403
1599.000000	50.369480
1598.000000	50.343829
1597.000000	50.312261
1596.000000	50.263645
1595.000000	50.221668
1594.000000	50.188172
1593.000000	50.161078
1592.000000	50.127958
1591.000000	50.090552
1590.000000	50.056645
1589.000000	50.024515
1588.000000	49.998731
1587.000000	49.962388
1586.000000	49.923811
1585.000000	49.891841
1584.000000	49.853836
1583.000000	49.815036
1582.000000	49.799081
1581.000000	49.775455
1580.000000	49.746720
1579.000000	49.721052
1578.000000	49.683305
1577.000000	49.645825
1576.000000	49.622854
1575.000000	49.599242
1574.000000	49.568686
1573.000000	49.541818
1572.000000	49.505810
1571.000000	49.480635
1570.000000	49.465461
1569.000000	49.417517
1568.000000	49.388150
1567.000000	49.376687
1566.000000	49.347742
1565.000000	49.322602
1564.000000	49.313011
1563.000000	49.297055
1562.000000	49.273265
1561.000000	49.248779
1560.000000	49.215740
1559.000000	49.204990
1558.000000	49.192171
1557.000000	49.178621
1556.000000	49.167846
1555.000000	49.145693
1554.000000	49.128742
1553.000000	49.101333
1552.000000	49.087763
1551.000000	49.074401
1550.000000	49.049845
1549.000000	49.015014
1548.000000	48.993243
1547.000000	48.956737
1546.000000	48.920017
1545.000000	48.879262
1544.000000	48.839951
1543.000000	48.791656
1542.000000	48.748725
1541.000000	48.690280
1540.000000	48.642942
1539.000000	48.585533
1538.000000	48.534015
1537.000000	48.487087
1536.000000	48.414081
1535.000000	48.353818
1534.000000	48.303270
1533.000000	48.261737
1532.000000	48.202294
1531.000000	48.149200
1530.000000	48.101524
1529.000000	48.042111
1528.000000	47.986805
1527.000000	47.943779
1526.000000	47.900459
1525.000000	47.867342
1524.000000	47.822980
1523.000000	47.767299
1522.000000	47.738297
1521.000000	47.688734
1520.000000	47.659166
1519.000000	47.642677
1518.000000	47.609422
1517.000000	47.554032
1516.000000	47.536099
1515.000000	47.532186
1514.000000	47.500124
1513.000000	47.475380
1512.000000	47.498940
1511.000000	47.525492
1510.000000	47.504754
1509.000000	47.480295
1508.000000	47.442351
1507.000000	47.411601
1506.000000	47.404338
1505.000000	47.385842
1504.000000	47.364575
1503.000000	47.383265
1502.000000	47.378127
1501.000000	47.365163
1500.000000	47.357102
1499.000000	47.340798
1498.000000	47.342052
1497.000000	47.344164
1496.000000	47.352241
1495.000000	47.348167
1494.000000	47.351265
1493.000000	47.364795
1492.000000	47.383355
1491.000000	47.405685
1490.000000	47.421292
1489.000000	47.430641
1488.000000	47.456822
1487.000000	47.475612
1486.000000	47.525300
1485.000000	47.516287
1484.000000	47.560568
1483.000000	47.586869
1482.000000	47.606075
1481.000000	47.661991
1480.000000	47.691477
1479.000000	47.715755
1478.000000	47.740797
1477.000000	47.772881
1476.000000	47.803115
1475.000000	47.829338
1474.000000	47.873965
1473.000000	47.901187
1472.000000	47.914714
1471.000000	47.929956
1470.000000	47.967352
1469.000000	48.008433
1468.000000	48.022909
1467.000000	48.061791
1466.000000	48.093864
1465.000000	48.124490
1464.000000	48.126077
1463.000000	48.164737
1462.000000	48.161104
1461.000000	48.195448
1460.000000	48.235301
1459.000000	48.276324
1458.000000	48.264367
1457.000000	48.284446
1456.000000	48.309687
1455.000000	48.348250
1454.000000	48.364222
1453.000000	48.386393
1452.000000	48.425879
1451.000000	48.462667
1450.000000	48.470605
1449.000000	48.514810
1448.000000	48.528922
1447.000000	48.542984
1446.000000	48.605648
1445.000000	48.654027
1444.000000	48.680594
1443.000000	48.714453
1442.000000	48.760730
1441.000000	48.777037
1440.000000	48.817305
1439.000000	48.888463
1438.000000	48.930337
1437.000000	48.976123
1436.000000	49.018564
1435.000000	49.059684
1434.000000	49.105855
1433.000000	49.149292
1432.000000	49.208469
1431.000000	49.269100
1430.000000	49.328460
1429.000000	49.399045
1428.000000	49.456575
1427.000000	49.522244
1426.000000	49.592574
1425.000000	49.668583
1424.000000	49.742710
1423.000000	49.814411
1422.000000	49.906650
1421.000000	49.987179
1420.000000	50.067246
1419.000000	50.130515
1418.000000	50.209774
1417.000000	50.305837
1416.000000	50.413110
1415.000000	50.510845
1414.000000	50.580128
1413.000000	50.668173
1412.000000	50.781606
1411.000000	50.881626
1410.000000	50.980620
1409.000000	51.067094
1408.000000	51.164358
1407.000000	51.271581
1406.000000	51.368343
1405.000000	51.461508
1404.000000	51.536094
1403.000000	51.622259
1402.000000	51.718250
1401.000000	51.801479
1400.000000	51.895999
1399.000000	51.989375
1398.000000	52.070500
1397.000000	52.148088
1396.000000	52.223188
1395.000000	52.299135
1394.000000	52.376365
1393.000000	52.436683
1392.000000	52.505403
1391.000000	52.570537
1390.000000	52.619360
1389.000000	52.690044
1388.000000	52.763372
1387.000000	52.810970
1386.000000	52.851643
1385.000000	52.902421
1384.000000	52.961316
1383.000000	53.017404
1382.000000	53.066935
1381.000000	53.109916
1380.000000	53.150106
1379.000000	53.171110
1378.000000	53.195313
1377.000000	53.213197
1376.000000	53.242076
1375.000000	53.266773
1374.000000	53.284552
1373.000000	53.312796
1372.000000	53.325161
1371.000000	53.330841
1370.000000	53.349153
1369.000000	53.352580
1368.000000	53.358950
1367.000000	53.378516
1366.000000	53.392431
1365.000000	53.423790
1364.000000	53.447374
1363.000000	53.463672
1362.000000	53.490294
1361.000000	53.527521
1360.000000	53.577904
1359.000000	53.606883
1358.000000	53.606960
1357.000000	53.616370
1356.000000	53.643596
1355.000000	53.653628
1354.000000	53.679425
1353.000000	53.718097
1352.000000	53.728731
1351.000000	53.750703
1350.000000	53.769377
1349.000000	53.793464
1348.000000	53.821368
1347.000000	53.838586
1346.000000	53.856053
1345.000000	53.862821
1344.000000	53.876955
1343.000000	53.910465
1342.000000	53.918028
1341.000000	53.931445
1340.000000	53.931838
1339.000000	53.955270
1338.000000	53.990695
1337.000000	54.036585
1336.000000	54.033998
1335.000000	54.032980
1334.000000	54.051272
1333.000000	54.054609
1332.000000	54.059134
1331.000000	54.074843
1330.000000	54.109204
1329.000000	54.111780
1328.000000	54.115061
1327.000000	54.102857
1326.000000	54.121902
1325.000000	54.136363
1324.000000	54.146866
1323.000000	54.145549
1322.000000	54.162614
1321.000000	54.157436
1320.000000	54.164773
1319.000000	54.155635
1318.000000	54.155891
1317.000000	54.183125
1316.000000	54.168586
1315.000000	54.176602
1314.000000	54.161289
1313.000000	54.169358
1312.000000	54.156387
1311.000000	54.164452
1310.000000	54.175382
1309.000000	54.148407
1308.000000	54.155181
1307.000000	54.155263
1306.000000	54.163967
1305.000000	54.163190
1304.000000	54.146014
1303.000000	54.147676
1302.000000	54.141858
1301.000000	54.150869
1300.000000	54.144614
1299.000000	54.123464
1298.000000	54.121903
1297.000000	54.099546
1296.000000	54.105280
1295.000000	54.095970
1294.000000	54.070139
1293.000000	54.068614
1292.000000	54.061814
1291.000000	54.060147
1290.000000	54.055822
1289.000000	54.059680
1288.000000	54.054049
1287.000000	54.036697
1286.000000	54.000445
1285.000000	53.985628
1284.000000	53.982932
1283.000000	53.976470
1282.000000	53.957637
1281.000000	53.954429
1280.000000	53.974257
1279.000000	53.968103
1278.000000	53.962943
1277.000000	53.942745
1276.000000	53.932899
1275.000000	53.937596
1274.000000	53.908062
1273.000000	53.907952
1272.000000	53.897633
1271.000000	53.899900
1270.000000	53.897443
1269.000000	53.896716
1268.000000	53.864223
1267.000000	53.871773
1266.000000	53.859850
1265.000000	53.853145
1264.000000	53.860969
1263.000000	53.879645
1262.000000	53.866785
1261.000000	53.896758
1260.000000	53.860875
1259.000000	53.868293
1258.000000	53.848883
1257.000000	53.858661
1256.000000	53.854358
1255.000000	53.862282
1254.000000	53.842616
1253.000000	53.843494
1252.000000	53.826902
1251.000000	53.828586
1250.000000	53.802175
1249.000000	53.792212
1248.000000	53.783568
1247.000000	53.777350
1246.000000	53.747808
1245.000000	53.748390
1244.000000	53.736421
1243.000000	53.740440
1242.000000	53.707711
1241.000000	53.681849
1240.000000	53.667906
1239.000000	53.660075
1238.000000	53.642867
1237.000000	53.601237
1236.000000	53.589425
1235.000000	53.573229
1234.000000	53.556585
1233.000000	53.521024
1232.000000	53.513197
1231.000000	53.515814
1230.000000	53.504744
1229.000000	53.479298
1228.000000	53.426676
1227.000000	53.432855
1226.000000	53.433684
1225.000000	53.407692
1224.000000	53.416135
1223.000000	53.411405
1222.000000	53.393977
1221.000000	53.377089
1220.000000	53.355607
1219.000000	53.347200
1218.000000	53.318909
1217.000000	53.315951
1216.000000	53.276716
1215.000000	53.260672
1214.000000	53.222741
1213.000000	53.206984
1212.000000	53.202612
1211.000000	53.203276
1210.000000	53.212390
1209.000000	53.189810
1208.000000	53.149762
1207.000000	53.107946
1206.000000	53.082438
1205.000000	53.050685
1204.000000	53.039813
1203.000000	53.022331
1202.000000	53.003684
1201.000000	52.982214
1200.000000	52.969932
1199.000000	52.947096
1198.000000	52.907702
1197.000000	52.893094
1196.000000	52.873832
1195.000000	52.856217
1194.000000	52.824683
1193.000000	52.787369
1192.000000	52.761199
1191.000000	52.766573
1190.000000	52.739227
1189.000000	52.676664
1188.000000	52.672015
1187.000000	52.666822
1186.000000	52.649947
1185.000000	52.645023
1184.000000	52.638851
1183.000000	52.634629
1182.000000	52.640994
1181.000000	52.636586
1180.000000	52.646066
1179.000000	52.653866
1178.000000	52.665864
1177.000000	52.665964
1176.000000	52.673065
1175.000000	52.680841
1174.000000	52.696192
1173.000000	52.725759
1172.000000	52.737110
1171.000000	52.746395
1170.000000	52.759263
1169.000000	52.769474
1168.000000	52.783746
1167.000000	52.809816
1166.000000	52.832099
1165.000000	52.849758
1164.000000	52.878758
1163.000000	52.906081
1162.000000	52.918763
1161.000000	52.927612
1160.000000	52.949399
1159.000000	52.985971
1158.000000	53.011828
1157.000000	53.003089
1156.000000	52.997228
1155.000000	53.022863
1154.000000	53.046246
1153.000000	53.067176
1152.000000	53.092436
1151.000000	53.112717
1150.000000	53.131048
1149.000000	53.153766
1148.000000	53.158531
1147.000000	53.154310
1146.000000	53.166613
1145.000000	53.172289
1144.000000	53.177168
1143.000000	53.192758
1142.000000	53.197659
1141.000000	53.206520
1140.000000	53.214238
1139.000000	53.228611
1138.000000	53.239692
1137.000000	53.229119
1136.000000	53.217154
1135.000000	53.214972
1134.000000	53.238627
1133.000000	53.242684
1132.000000	53.227627
1131.000000	53.238787
1130.000000	53.251769
1129.000000	53.253766
1128.000000	53.265698
1127.000000	53.275761
1126.000000	53.269133
1125.000000	53.260736
1124.000000	53.246086
1123.000000	53.247735
1122.000000	53.252258
1121.000000	53.248276
1120.000000	53.241721
1119.000000	53.237785
1118.000000	53.232648
1117.000000	53.221328
1116.000000	53.209163
1115.000000	53.214934
1114.000000	53.200104
1113.000000	53.207759
1112.000000	53.208429
1111.000000	53.190327
1110.000000	53.172709
1109.000000	53.179730
1108.000000	53.179030
1107.000000	53.160242
1106.000000	53.154640
1105.000000	53.099877
1104.000000	53.099778
1103.000000	53.096304
1102.000000	53.078283
1101.000000	53.091159
1100.000000	53.079807
1099.000000	53.072694
1098.000000	53.069318
1097.000000	53.069636
1096.000000	53.033981
1095.000000	53.028460
1094.000000	53.016144
1093.000000	53.011775
1092.000000	53.012200
1091.000000	52.998282
1090.000000	52.988171
1089.000000	52.975594
1088.000000	52.942255
1087.000000	52.925806
1086.000000	52.935344
1085.000000	52.925246
1084.000000	52.917812
1083.000000	52.900014
1082.000000	52.883595
1081.000000	52.862395
1080.000000	52.852714
1079.000000	52.863583
1078.000000	52.842151
1077.000000	52.834493
1076.000000	52.824799
1075.000000	52.789818
1074.000000	52.780366
1073.000000	52.771098
1072.000000	52.752992
1071.000000	52.757419
1070.000000	52.746629
1069.000000	52.734250
1068.000000	52.705986
1067.000000	52.690264
1066.000000	52.691197
1065.000000	52.672914
1064.000000	52.668691
1063.000000	52.664399
1062.000000	52.661562
1061.000000	52.647723
1060.000000	52.600724
1059.000000	52.607629
1058.000000	52.588787
1057.000000	52.568094
1056.000000	52.569578
1055.000000	52.539462
1054.000000	52.514561
1053.000000	52.513858
1052.000000	52.498595
1051.000000	52.485491
1050.000000	52.455517
1049.000000	52.445920
1048.000000	52.428354
1047.000000	52.439006
1046.000000	52.428185
1045.000000	52.412449
1044.000000	52.381291
1043.000000	52.366932
1042.000000	52.371441
1041.000000	52.337358
1040.000000	52.328470
1039.000000	52.322550
1038.000000	52.327301
1037.000000	52.337800
1036.000000	52.262718
1035.000000	52.266794
1034.000000	52.271876
1033.000000	52.229568
1032.000000	52.219631
1031.000000	52.221647
1030.000000	52.227973
1029.000000	52.189133
1028.000000	52.176851
1027.000000	52.194487
1026.000000	52.189891
1025.000000	52.149264
1024.000000	52.150244
1023.000000	52.147616
1022.000000	52.095474
1021.000000	52.085370
1020.000000	52.108908
1019.000000	52.099571
1018.000000	52.088143
1017.000000	52.069850
1016.000000	52.054115
1015.000000	52.027388
1014.000000	52.013330
1013.000000	52.023526
1012.000000	52.006307
1011.000000	52.007166
1010.000000	51.988648
1009.000000	51.967068
1008.000000	51.969210
1007.000000	51.962168
1006.000000	51.927902
1005.000000	51.933386
1004.000000	51.917595
1003.000000	51.923019
1002.000000	51.903576
1001.000000	51.898791
1000.000000	51.895523
999.000000	51.884089
998.000000	51.892925
997.000000	51.899481
996.000000	51.896280
995.000000	51.870402
994.000000	51.865862
993.000000	51.833239
992.000000	51.818976
991.000000	51.827091
990.000000	51.828515
989.000000	51.799583
988.000000	51.794994
987.000000	51.794001
986.000000	51.783075
985.000000	51.789292
984.000000	51.769364
983.000000	51.755694
982.000000	51.742029
981.000000	51.727303
980.000000	51.710841
979.000000	51.698061
978.000000	51.703463
977.000000	51.701431
976.000000	51.683420
975.000000	51.674982
974.000000	51.669947
973.000000	51.660968
972.000000	51.635261
971.000000	51.639642
970.000000	51.623431
969.000000	51.614079
968.000000	51.609035
967.000000	51.595904
966.000000	51.575152
965.000000	51.550253
964.000000	51.552291
963.000000	51.549939
962.000000	51.539756
961.000000	51.536624
960.000000	51.527500
959.000000	51.517869
958.000000	51.509291
957.000000	51.488667
956.000000	51.473548
955.000000	51.478990
954.000000	51.468856
953.000000	51.456889
952.000000	51.448374
951.000000	51.428816
950.000000	51.412857
949.000000	51.405943
948.000000	51.395811
947.000000	51.392467
946.000000	51.385846
945.000000	51.367364
944.000000	51.357553
943.000000	51.331276
942.000000	51.335507
941.000000	51.334847
940.000000	51.317121
939.000000	51.291589
938.000000	51.272994
937.000000	51.256001
936.000000	51.231360
935.000000	51.215827
934.000000	51.224566
933.000000	51.224393
932.000000	51.213498
931.000000	51.192938
930.000000	51.174834
929.000000	51.189746
928.000000	51.170265
927.000000	51.138913
926.000000	51.124961
925.000000	51.117347
924.000000	51.099320
923.000000	51.062759
922.000000	51.037552
921.000000	51.027142
920.000000	51.032969
919.000000	51.017609
918.000000	50.974059
917.000000	50.952685
916.000000	50.945632
915.000000	50.976805
914.000000	50.949781
913.000000	50.925027
912.000000	50.910063
911.000000	50.911058
910.000000	50.894295
909.000000	50.901905
908.000000	50.904120
907.000000	50.857382
906.000000	50.825349
905.000000	50.780124
904.000000	50.827503
903.000000	50.806621
902.000000	50.760835
901.000000	50.785310
900.000000	50.771750
899.000000	50.770712
898.000000	50.729288
897.000000	50.704087
896.000000	50.720745
895.000000	50.683913
894.000000	50.641727
893.000000	50.655417
892.000000	50.627892
891.000000	50.635912
890.000000	50.696840
889.000000	50.653379
888.000000	50.638334
887.000000	50.618718
886.000000	50.569142
885.000000	50.580727
884.000000	50.581800
883.000000	50.558108
882.000000	50.505031
881.000000	50.535264
880.000000	50.533464
879.000000	50.500850
878.000000	50.540893
877.000000	50.553522
876.000000	50.450373
875.000000	50.394306
874.000000	50.414000
873.000000	50.425363
872.000000	50.433076
871.000000	50.413540
870.000000	50.376925
869.000000	50.363982
868.000000	50.272533
867.000000	50.230393
866.000000	50.289258
865.000000	50.237134
864.000000	50.271834
863.000000	50.267156
862.000000	50.406099
861.000000	50.175980
860.000000	50.169649
859.000000	49.386510
858.000000	49.773432
857.000000	49.498292
856.000000	49.532042
855.000000	49.962820
854.000000	49.485129
853.000000	49.339964
852.000000	49.441152
851.000000	49.396952
850.000000	49.323650
849.000000	49.413649
848.000000	49.235399
847.000000	49.391389
846.000000	49.394286
845.000000	49.073856
844.000000	49.361226
843.000000	49.311481
842.000000	49.412826
841.000000	49.231307
840.000000	49.357123
839.000000	49.160794
838.000000	49.170516
837.000000	49.150445
836.000000	49.122358
835.000000	49.079596
834.000000	49.118595
833.000000	49.047920
832.000000	49.013918
831.000000	49.088806
830.000000	48.866688
829.000000	49.035295
828.000000	48.936918
827.000000	48.864425
826.000000	48.932117
825.000000	48.940692
824.000000	48.810027
823.000000	48.714082
822.000000	48.614995
821.000000	48.700999
820.000000	48.705281
819.000000	48.666308
818.000000	48.827075
817.000000	48.615181
816.000000	48.557415
815.000000	48.645403
814.000000	48.640274
813.000000	48.672684
812.000000	48.531099
811.000000	48.499095
810.000000	48.562095
809.000000	48.500758
808.000000	48.643723
807.000000	48.473471
806.000000	48.390999
805.000000	48.529482
804.000000	48.404591
803.000000	48.458586
802.000000	48.377830
801.000000	48.380818
800.000000	48.386439
799.000000	48.197920
798.000000	48.223873
797.000000	48.272054
796.000000	48.307334
795.000000	48.232387
794.000000	48.269961
793.000000	48.320085
792.000000	48.187178
791.000000	48.296414
790.000000	48.232149
789.000000	48.120269
788.000000	48.080501
787.000000	47.972355
786.000000	48.067208
785.000000	48.086561
784.000000	47.970935
783.000000	47.938362
782.000000	48.013115
781.000000	48.007027
780.000000	47.946532
779.000000	47.945667
778.000000	47.846669
777.000000	47.821894
776.000000	47.814107
775.000000	47.780340
774.000000	47.751928
773.000000	47.704601
772.000000	47.631032
771.000000	47.688330
770.000000	47.668517
769.000000	47.651890
768.000000	47.676374
767.000000	47.600400
766.000000	47.573052
765.000000	47.605184
764.000000	47.547885
763.000000	47.530954
762.000000	47.518325
761.000000	47.463347
760.000000	47.473395
759.000000	47.489140
758.000000	47.350556
757.000000	47.427367
756.000000	47.346247
755.000000	47.295961
754.000000	47.250172
753.000000	47.255590
752.000000	47.275259
751.000000	47.173703
750.000000	47.188003
749.000000	47.153939
748.000000	47.129946
747.000000	47.139368
746.000000	47.092959
745.000000	47.084311
744.000000	47.036533
743.000000	46.976447
742.000000	46.924751
741.000000	46.917168
740.000000	46.859460
739.000000	46.862856
738.000000	46.849726
737.000000	46.804671
736.000000	46.831242
735.000000	46.868314
734.000000	46.811319
733.000000	46.752722
732.000000	46.730590
731.000000	46.655079
730.000000	46.547854
729.000000	46.611335
728.000000	46.605792
727.000000	46.510365
726.000000	46.486423
725.000000	46.490045
724.000000	46.483637
723.000000	46.421558
722.000000	46.443762
721.000000	46.406844
720.000000	46.351949
719.000000	46.321899
718.000000	46.268058
717.000000	46.183325
716.000000	46.167753
715.000000	46.160470
714.000000	46.129432
713.000000	46.115535
712.000000	46.072333
711.000000	46.010440
710.000000	45.985150
709.000000	46.001535
708.000000	45.968124
707.000000	45.926013
706.000000	45.939545
705.000000	45.912901
704.000000	45.871960
703.000000	45.846456
702.000000	45.816152
701.000000	45.749723
700.000000	45.690856
699.000000	45.629274
698.000000	45.609766
697.000000	45.593892
696.000000	45.536291
695.000000	45.526305
694.000000	45.456422
693.000000	45.441660
692.000000	45.431869
691.000000	45.405197
690.000000	45.387629
689.000000	45.283024
688.000000	45.192131
687.000000	45.144068
686.000000	45.121019
685.000000	45.118486
684.000000	45.068773
683.000000	45.056817
682.000000	44.990463
681.000000	44.955314
680.000000	44.917605
679.000000	44.899676
678.000000	44.873132
677.000000	44.810448
676.000000	44.772109
675.000000	44.730770
674.000000	44.695893
673.000000	44.701230
672.000000	44.643590
671.000000	44.598432
670.000000	44.543070
669.000000	44.494717
668.000000	44.434877
667.000000	44.390816
666.000000	44.392464
665.000000	44.307699
664.000000	44.271927
663.000000	44.240314
662.000000	44.211306
661.000000	44.146596
660.000000	44.137258
659.000000	44.121469
658.000000	44.046596
657.000000	43.994600
656.000000	43.928803
655.000000	43.931458
654.000000	43.894179
653.000000	43.834177
652.000000	43.814048
651.000000	43.818716
650.000000	43.733127
649.000000	43.673251
648.000000	43.636404
647.000000	43.567362
646.000000	43.480579
645.000000	43.469850
644.000000	43.431164
643.000000	43.371285
642.000000	43.352948
641.000000	43.270523
640.000000	43.264719
639.000000	43.225183
638.000000	43.177724
637.000000	43.156034
636.000000	43.124490
635.000000	43.068895
634.000000	43.010530
633.000000	42.944594
632.000000	42.918664
631.000000	42.865111
630.000000	42.833309
629.000000	42.798868
628.000000	42.704130
627.000000	42.658486
626.000000	42.569804
625.000000	42.595054
624.000000	42.532702
623.000000	42.511041
622.000000	42.411607
621.000000	42.403657
620.000000	42.356723
619.000000	42.266958
618.000000	42.244071
617.000000	42.194492
616.000000	42.091825
615.000000	42.081711
614.000000	42.019472
613.000000	41.966329
612.000000	41.929425
611.000000	41.866822
610.000000	41.787941
609.000000	41.773774
608.000000	41.693979
607.000000	41.629583
606.000000	41.551005
605.000000	41.524719
604.000000	41.449080
603.000000	41.421816
602.000000	41.336734
601.000000	41.330064
600.000000	41.264988
599.000000	41.210955
598.000000	41.150014
597.000000	41.075293
596.000000	41.017815
595.000000	40.982644
594.000000	40.894918
593.000000	40.847063
592.000000	40.769380
591.000000	40.707693
590.000000	40.659751
589.000000	40.583144
588.000000	40.491683
587.000000	40.463930
586.000000	40.380871
585.000000	40.340508
584.000000	40.258419
583.000000	40.222046
582.000000	40.131645
581.000000	40.074882
580.000000	39.992313
579.000000	39.994427
578.000000	39.844952
577.000000	39.817019
576.000000	39.731225
575.000000	39.718490
574.000000	39.604490
573.000000	39.544510
572.000000	39.485316
571.000000	39.406624
570.000000	39.332449
569.000000	39.273713
568.000000	39.209466
567.000000	39.092809
566.000000	38.995290
565.000000	38.969324
564.000000	38.894756
563.000000	38.800362
562.000000	38.696453
561.000000	38.687728
560.000000	38.625254
559.000000	38.565342
558.000000	38.518615
557.000000	38.437605
556.000000	38.344084
555.000000	38.270820
554.000000	38.175827
553.000000	38.116569
552.000000	38.013673
551.000000	37.930170
550.000000	37.842419
549.000000	37.784570
548.000000	37.717614
547.000000	37.625673
546.000000	37.539563
545.000000	37.476134
544.000000	37.368397
543.000000	37.264219
542.000000	37.181270
541.000000	37.128830
540.000000	37.015897
539.000000	36.933190
538.000000	36.814141
537.000000	36.742977
536.000000	36.650364
535.000000	36.566226
534.000000	36.471609
533.000000	36.390247
532.000000	36.326900
531.000000	36.240061
530.000000	36.122849
529.000000	36.024727
528.000000	35.942899
527.000000	35.883685
526.000000	35.751667
525.000000	35.642250
524.000000	35.564410
523.000000	35.460277
522.000000	35.348607
521.000000	35.267350
520.000000	35.174138
519.000000	35.080864
518.000000	34.963060
517.000000	34.869627
516.000000	34.776655
515.000000	34.678493
514.000000	34.572606
513.000000	34.468656
512.000000	34.387129
511.000000	34.279885
510.000000	34.161137
509.000000	34.075249
508.000000	33.964883
507.000000	33.838363
506.000000	33.762715
505.000000	33.670003
504.000000	33.543669
503.000000	33.453186
502.000000	33.330904
501.000000	33.227924
500.000000	33.115983
499.000000	33.037488
498.000000	32.923567
497.000000	32.845148
496.000000	32.750606
495.000000	32.649031
494.000000	32.553691
493.000000	32.448330
492.000000	32.352581
491.000000	32.248864
490.000000	32.145353
489.000000	32.042321
488.000000	31.925958
487.000000	31.846181
486.000000	31.756382
485.000000	31.660005
484.000000	31.588043
483.000000	31.517883
482.000000	31.375267
481.000000	31.255081
480.000000	31.146926
479.000000	31.024029
478.000000	30.900784
477.000000	30.778524
476.000000	30.655328
475.000000	30.542777
474.000000	30.444986
473.000000	30.336308
472.000000	30.204844
471.000000	30.078172
470.000000	29.964151
469.000000	29.846078
468.000000	29.718209
467.000000	29.599128
466.000000	29.459161
465.000000	29.342278
464.000000	29.256740
463.000000	29.108870
462.000000	28.961981
461.000000	28.863736
460.000000	28.729417
459.000000	28.582095
458.000000	28.457630
457.000000	28.349339
456.000000	28.239322
455.000000	28.088070
454.000000	27.952394
453.000000	27.807216
452.000000	27.652890
451.000000	27.511232
450.000000	27.373087
449.000000	27.239698
448.000000	27.100383
447.000000	26.974252
446.000000	26.857984
445.000000	26.703497
444.000000	26.581673
443.000000	26.451412
442.000000	26.288818
441.000000	26.137638
440.000000	26.009955
439.000000	25.862323
438.000000	25.722697
437.000000	25.603871
436.000000	25.468725
435.000000	25.331791
434.000000	25.215234
433.000000	25.073405
432.000000	24.921309
431.000000	24.770424
430.000000	24.637256
429.000000	24.499594
428.000000	24.351313
427.000000	24.225101
426.000000	24.089351
425.000000	23.932138
424.000000	23.782789
423.000000	23.617091
422.000000	23.471523
421.000000	23.341628
420.000000	23.222248
419.000000	23.014932
418.000000	22.851378
417.000000	22.733596
416.000000	22.583207
415.000000	22.417893
414.000000	22.251575
413.000000	22.132207
412.000000	21.950905
411.000000	21.781349
410.000000	21.643815
409.000000	21.480124
408.000000	21.327496
407.000000	21.195530
406.000000	21.005787
405.000000	20.812781
404.000000	20.654676
403.000000	20.489891
402.000000	20.292955
401.000000	20.143918
400.000000	19.983936
399.000000	19.831352
398.000000	19.621349
397.000000	19.490520
396.000000	19.319810
395.000000	19.177605
394.000000	19.024844
393.000000	18.855978
392.000000	18.696240
391.000000	18.479058
390.000000	18.356480
389.000000	18.206777
388.000000	18.042319
387.000000	17.885858
386.000000	17.706877
385.000000	17.577330
384.000000	17.394665
383.000000	17.192085
382.000000	17.021397
381.000000	16.846438
380.000000	16.740085
379.000000	16.553339
378.000000	16.384734
377.000000	16.293112
376.000000	16.116500
375.000000	15.943456
374.000000	15.787581
373.000000	15.607280
372.000000	15.504226
371.000000	15.312854
370.000000	15.115546
369.000000	14.933286
368.000000	14.763119
367.000000	14.643938
366.000000	14.496804
365.000000	14.319670
364.000000	14.205428
363.000000	13.970723
362.000000	13.850808
361.000000	13.738983
360.000000	13.628990
359.000000	13.459221
358.000000	13.336903
357.000000	13.154600
356.000000	13.095823
355.000000	12.887269
354.000000	12.734542
353.000000	12.591396
352.000000	12.494129
351.000000	12.363178
350.000000	12.210711
349.000000	12.104391
348.000000	12.001066
347.000000	11.866225
346.000000	11.713695
345.000000	11.602243
344.000000	11.456590
343.000000	11.379595
342.000000	11.287735
341.000000	11.100551
340.000000	10.983083
339.000000	10.871293
338.000000	10.831910
337.000000	10.607808
336.000000	10.505647
335.000000	10.391610
334.000000	10.267782
333.000000	10.164713
332.000000	10.046036
331.000000	9.990103
330.000000	9.946320
329.000000	9.760572
328.000000	9.687658
327.000000	9.558381
326.000000	9.499621
325.000000	9.343234
324.000000	9.260945
323.000000	9.285494
322.000000	9.100646
321.000000	9.036588
320.000000	8.995237
319.000000	8.967441
318.000000	8.966187
317.000000	8.921719
316.000000	8.854205
315.000000	8.809692
314.000000	8.754181
313.000000	8.654285
312.000000	8.588029
311.000000	8.567605
310.000000	8.521407
309.000000	8.490599
308.000000	8.481220
307.000000	8.435288
306.000000	8.463356
305.000000	8.357002
304.000000	8.336328
303.000000	8.312769
302.000000	8.291571
301.000000	8.263998
300.000000	8.236600
299.000000	8.225544
298.000000	8.163181
297.000000	8.159577
296.000000	8.166905
295.000000	8.110803
294.000000	8.121431
293.000000	8.061451
292.000000	7.977016
291.000000	7.943437
290.000000	7.937626
289.000000	7.926406
288.000000	7.910204
287.000000	7.855971
286.000000	7.847100
285.000000	7.847869
284.000000	7.912478
283.000000	7.841906
282.000000	7.872014
281.000000	7.910867
280.000000	7.892332
279.000000	7.882764
278.000000	7.923628
277.000000	8.019233
276.000000	8.019918
275.000000	8.017908
274.000000	8.049301
273.000000	8.115476
272.000000	8.149703
271.000000	8.178480
270.000000	8.237827
269.000000	8.264403
268.000000	8.298099
267.000000	8.384473
266.000000	8.468983
265.000000	8.553984
264.000000	8.626441
263.000000	8.656792
262.000000	8.794590
261.000000	8.907321
260.000000	9.030980
259.000000	9.062162
258.000000	9.121496
257.000000	9.265067
256.000000	9.409158
255.000000	9.499167
254.000000	9.580732
253.000000	9.718091
252.000000	9.829227
251.000000	9.932231
250.000000	10.075129
249.000000	10.149860
248.000000	10.253046
247.000000	10.355021
246.000000	10.416795
245.000000	10.527987
244.000000	10.587347
243.000000	10.634433
242.000000	10.699540
241.000000	10.691607
240.000000	10.664120
239.000000	10.632345
238.000000	10.618157
237.000000	10.612007
236.000000	10.598008
235.000000	10.560420
234.000000	10.576361
233.000000	10.580038
232.000000	10.553355
231.000000	10.506291
230.000000	10.509729
229.000000	10.464804
228.000000	10.500155
227.000000	10.576501
226.000000	10.573789
225.000000	10.619617
224.000000	10.736708
223.000000	10.828651
222.000000	10.870587
221.000000	10.937341
220.000000	11.062735
219.000000	11.169348
218.000000	11.392833
217.000000	11.574106
216.000000	11.596248
215.000000	11.743085
214.000000	11.971424
213.000000	12.218907
212.000000	12.500000
211.000000	12.666592
210.000000	12.932488
209.000000	13.229800
208.000000	13.651184
207.000000	13.924558
206.000000	14.234303
205.000000	14.675811
204.000000	15.163914
203.000000	15.533041
202.000000	15.797163
201.000000	16.224374
200.000000	16.796726
