PE UV       SUBTECH     SPECTRUM    ASCII       PEDS        4.00        
   -1
RTms159332.Sample.asc
18/03/19
17:18:53.00
18/03/19
17:18:53.00
Administrator

200.000000
1
Lambda 750
750N8071901
PerkinElmer UV WinLab 6.0.4.0738 / 1.61.00 Lambda 900

0
0
3350/servo 860.8/2
0
0
UV/VIS
1
1
1
CommonBeamDepol,150mm sphere / downward view
0
0
0
0
Program
Program
3350/servo 860.8/2
3350/0.2 860.8/0.2
3350/0.2 860.8/0.2
0
1
 
 
 
0
 
860.8
319.2
860.8
Front
100
on
 
 
0
0
0
 
0
 
 
 
0
 
 
0
0
0
0
0
 
 
 
 
0
0


0
0
#HDR
-1
-1
#GR
nm
%R
1.0
0.0
2350.000000
-1.000000
2151
8
54.400420
6.854710
#DATA
2350.000000	36.576096
2349.000000	37.143021
2348.000000	37.101890
2347.000000	37.624110
2346.000000	37.502664
2345.000000	37.147313
2344.000000	37.123861
2343.000000	37.097487
2342.000000	37.202397
2341.000000	37.413774
2340.000000	37.322896
2339.000000	37.441129
2338.000000	37.494539
2337.000000	37.564949
2336.000000	37.470740
2335.000000	37.586016
2334.000000	37.678757
2333.000000	37.579821
2332.000000	37.849029
2331.000000	37.771231
2330.000000	37.559637
2329.000000	37.627212
2328.000000	37.711963
2327.000000	37.497397
2326.000000	37.748809
2325.000000	37.472220
2324.000000	37.457121
2323.000000	37.544429
2322.000000	37.483130
2321.000000	37.293705
2320.000000	37.324715
2319.000000	37.331416
2318.000000	37.457611
2317.000000	37.585872
2316.000000	37.490483
2315.000000	37.251067
2314.000000	37.037363
2313.000000	36.960991
2312.000000	37.052199
2311.000000	36.920266
2310.000000	36.593316
2309.000000	36.962007
2308.000000	36.864230
2307.000000	36.848981
2306.000000	36.732132
2305.000000	36.563423
2304.000000	36.359817
2303.000000	36.390457
2302.000000	36.416554
2301.000000	36.330251
2300.000000	36.254966
2299.000000	36.236351
2298.000000	36.039785
2297.000000	36.007118
2296.000000	36.125992
2295.000000	35.971943
2294.000000	35.821029
2293.000000	35.713657
2292.000000	35.571559
2291.000000	35.318487
2290.000000	35.231262
2289.000000	35.299873
2288.000000	35.273712
2287.000000	35.333750
2286.000000	35.301612
2285.000000	35.273250
2284.000000	35.184722
2283.000000	35.239651
2282.000000	35.221229
2281.000000	35.288934
2280.000000	35.226181
2279.000000	35.078925
2278.000000	35.091873
2277.000000	35.233611
2276.000000	35.104932
2275.000000	35.178291
2274.000000	35.275486
2273.000000	35.455228
2272.000000	35.405592
2271.000000	35.274913
2270.000000	35.356121
2269.000000	35.432687
2268.000000	35.447701
2267.000000	35.560107
2266.000000	35.761102
2265.000000	35.717754
2264.000000	35.734402
2263.000000	35.929403
2262.000000	36.050228
2261.000000	36.061215
2260.000000	36.315433
2259.000000	36.497863
2258.000000	36.728017
2257.000000	36.859881
2256.000000	36.863961
2255.000000	36.888788
2254.000000	36.974263
2253.000000	37.249939
2252.000000	37.420000
2251.000000	37.600078
2250.000000	37.815414
2249.000000	38.023812
2248.000000	38.144200
2247.000000	38.308624
2246.000000	38.576218
2245.000000	38.689137
2244.000000	38.810833
2243.000000	39.072938
2242.000000	39.121240
2241.000000	39.078490
2240.000000	39.214490
2239.000000	39.395121
2238.000000	39.499073
2237.000000	39.630213
2236.000000	39.816366
2235.000000	39.811088
2234.000000	39.804160
2233.000000	39.936802
2232.000000	40.052369
2231.000000	40.038999
2230.000000	40.136680
2229.000000	40.100921
2228.000000	40.017772
2227.000000	40.022356
2226.000000	40.030658
2225.000000	40.078727
2224.000000	40.044126
2223.000000	40.049731
2222.000000	40.086282
2221.000000	40.127854
2220.000000	40.182493
2219.000000	40.107223
2218.000000	40.072391
2217.000000	39.970093
2216.000000	39.896595
2215.000000	39.837491
2214.000000	39.845076
2213.000000	39.917807
2212.000000	39.962162
2211.000000	39.724548
2210.000000	39.670270
2209.000000	39.656519
2208.000000	39.586836
2207.000000	39.635236
2206.000000	39.501490
2205.000000	39.385340
2204.000000	39.295949
2203.000000	39.338528
2202.000000	39.308401
2201.000000	39.310922
2200.000000	39.251332
2199.000000	39.164525
2198.000000	39.162422
2197.000000	39.055194
2196.000000	38.895725
2195.000000	38.877646
2194.000000	38.852633
2193.000000	38.667510
2192.000000	38.753602
2191.000000	38.754094
2190.000000	38.773893
2189.000000	38.561226
2188.000000	38.492819
2187.000000	38.487814
2186.000000	38.461352
2185.000000	38.506706
2184.000000	38.405313
2183.000000	38.517026
2182.000000	38.462465
2181.000000	38.347657
2180.000000	38.230352
2179.000000	38.167304
2178.000000	38.261013
2177.000000	38.245298
2176.000000	38.193617
2175.000000	38.384653
2174.000000	38.345565
2173.000000	38.203607
2172.000000	38.321184
2171.000000	38.486493
2170.000000	38.458867
2169.000000	38.531539
2168.000000	38.576172
2167.000000	38.630838
2166.000000	38.657132
2165.000000	38.953727
2164.000000	38.960917
2163.000000	39.030074
2162.000000	39.126834
2161.000000	39.098783
2160.000000	39.237689
2159.000000	39.554100
2158.000000	39.362990
2157.000000	39.580637
2156.000000	39.859105
2155.000000	39.813087
2154.000000	40.044161
2153.000000	40.187553
2152.000000	40.296539
2151.000000	40.235630
2150.000000	40.417203
2149.000000	40.705487
2148.000000	40.590229
2147.000000	40.863624
2146.000000	40.999226
2145.000000	41.101030
2144.000000	41.236594
2143.000000	41.211118
2142.000000	41.365486
2141.000000	41.403651
2140.000000	41.669322
2139.000000	41.760159
2138.000000	41.728025
2137.000000	41.909293
2136.000000	42.043647
2135.000000	42.019853
2134.000000	42.273404
2133.000000	42.101374
2132.000000	42.383403
2131.000000	42.371825
2130.000000	42.569769
2129.000000	42.485167
2128.000000	42.584287
2127.000000	42.638482
2126.000000	42.495670
2125.000000	42.565892
2124.000000	42.851534
2123.000000	42.905574
2122.000000	42.892225
2121.000000	42.964505
2120.000000	42.841787
2119.000000	42.874968
2118.000000	43.095410
2117.000000	42.888572
2116.000000	43.022925
2115.000000	43.096722
2114.000000	42.950161
2113.000000	42.909736
2112.000000	43.031549
2111.000000	43.063679
2110.000000	43.140352
2109.000000	43.099271
2108.000000	43.018814
2107.000000	43.179945
2106.000000	43.161077
2105.000000	43.170787
2104.000000	43.141786
2103.000000	43.156933
2102.000000	43.238962
2101.000000	43.242122
2100.000000	43.339343
2099.000000	43.225379
2098.000000	43.166096
2097.000000	43.187808
2096.000000	43.214013
2095.000000	43.145183
2094.000000	43.186807
2093.000000	43.169969
2092.000000	43.133005
2091.000000	43.146538
2090.000000	43.099882
2089.000000	43.058137
2088.000000	43.096598
2087.000000	43.138214
2086.000000	43.080840
2085.000000	43.097362
2084.000000	43.074680
2083.000000	42.994022
2082.000000	42.941060
2081.000000	42.829868
2080.000000	42.746533
2079.000000	42.760350
2078.000000	42.671579
2077.000000	42.579398
2076.000000	42.572267
2075.000000	42.422820
2074.000000	42.357563
2073.000000	42.333856
2072.000000	42.209018
2071.000000	42.194624
2070.000000	42.119891
2069.000000	41.927057
2068.000000	41.768656
2067.000000	41.669036
2066.000000	41.530341
2065.000000	41.443829
2064.000000	41.313652
2063.000000	41.175036
2062.000000	41.106358
2061.000000	40.983965
2060.000000	40.853712
2059.000000	40.733710
2058.000000	40.615903
2057.000000	40.514422
2056.000000	40.396412
2055.000000	40.257318
2054.000000	40.092826
2053.000000	40.056884
2052.000000	39.955629
2051.000000	39.691189
2050.000000	39.609648
2049.000000	39.585045
2048.000000	39.516510
2047.000000	39.484469
2046.000000	39.392745
2045.000000	39.328153
2044.000000	39.272186
2043.000000	39.247778
2042.000000	39.250054
2041.000000	39.265412
2040.000000	39.311002
2039.000000	39.264586
2038.000000	39.298615
2037.000000	39.325856
2036.000000	39.265546
2035.000000	39.347213
2034.000000	39.455016
2033.000000	39.508941
2032.000000	39.587865
2031.000000	39.653310
2030.000000	39.761803
2029.000000	39.851787
2028.000000	39.889187
2027.000000	39.983305
2026.000000	40.108997
2025.000000	40.160751
2024.000000	40.218621
2023.000000	40.264723
2022.000000	40.266180
2021.000000	40.317933
2020.000000	40.384504
2019.000000	40.393712
2018.000000	40.396103
2017.000000	40.400575
2016.000000	40.389536
2015.000000	40.340656
2014.000000	40.303185
2013.000000	40.289757
2012.000000	40.249680
2011.000000	40.246403
2010.000000	40.202089
2009.000000	40.096932
2008.000000	40.016758
2007.000000	39.963638
2006.000000	39.892379
2005.000000	39.805206
2004.000000	39.735240
2003.000000	39.689220
2002.000000	39.614224
2001.000000	39.495269
2000.000000	39.394564
1999.000000	39.334270
1998.000000	39.278846
1997.000000	39.198518
1996.000000	39.108281
1995.000000	38.968277
1994.000000	38.827306
1993.000000	38.748188
1992.000000	38.652670
1991.000000	38.551395
1990.000000	38.442478
1989.000000	38.321365
1988.000000	38.219192
1987.000000	38.145416
1986.000000	38.025341
1985.000000	37.929595
1984.000000	37.835307
1983.000000	37.723417
1982.000000	37.674224
1981.000000	37.564828
1980.000000	37.440253
1979.000000	37.382514
1978.000000	37.291926
1977.000000	37.194312
1976.000000	37.112443
1975.000000	37.038053
1974.000000	36.898538
1973.000000	36.792506
1972.000000	36.719498
1971.000000	36.653631
1970.000000	36.553474
1969.000000	36.433049
1968.000000	36.362390
1967.000000	36.296432
1966.000000	36.205627
1965.000000	36.126102
1964.000000	35.988555
1963.000000	35.925529
1962.000000	35.811855
1961.000000	35.731263
1960.000000	35.691585
1959.000000	35.566295
1958.000000	35.483308
1957.000000	35.442544
1956.000000	35.308760
1955.000000	35.268556
1954.000000	35.235203
1953.000000	35.118782
1952.000000	35.039630
1951.000000	35.028701
1950.000000	34.906261
1949.000000	34.878693
1948.000000	34.799160
1947.000000	34.802298
1946.000000	34.777796
1945.000000	34.791846
1944.000000	34.734157
1943.000000	34.752852
1942.000000	34.735074
1941.000000	34.737254
1940.000000	34.762117
1939.000000	34.858236
1938.000000	34.927740
1937.000000	34.956883
1936.000000	35.041005
1935.000000	35.029165
1934.000000	35.129500
1933.000000	35.217200
1932.000000	35.306984
1931.000000	35.488970
1930.000000	35.642123
1929.000000	35.722774
1928.000000	35.838698
1927.000000	36.079379
1926.000000	36.232815
1925.000000	36.393641
1924.000000	36.581844
1923.000000	36.795526
1922.000000	37.027793
1921.000000	37.272513
1920.000000	37.511301
1919.000000	37.692829
1918.000000	37.943695
1917.000000	38.195541
1916.000000	38.404865
1915.000000	38.732022
1914.000000	39.062004
1913.000000	39.330600
1912.000000	39.687035
1911.000000	39.947692
1910.000000	40.205728
1909.000000	40.526875
1908.000000	40.825063
1907.000000	41.242829
1906.000000	41.495125
1905.000000	41.966933
1904.000000	42.289026
1903.000000	42.582869
1902.000000	43.011533
1901.000000	43.353342
1900.000000	43.715330
1899.000000	44.152028
1898.000000	44.453895
1897.000000	44.882454
1896.000000	45.260678
1895.000000	45.589548
1894.000000	45.951503
1893.000000	46.337407
1892.000000	46.633254
1891.000000	46.971102
1890.000000	47.320370
1889.000000	47.644163
1888.000000	47.933173
1887.000000	48.223927
1886.000000	48.480848
1885.000000	48.821493
1884.000000	49.062836
1883.000000	49.389629
1882.000000	49.609602
1881.000000	49.835366
1880.000000	50.064855
1879.000000	50.228258
1878.000000	50.393525
1877.000000	50.668088
1876.000000	50.814881
1875.000000	50.938354
1874.000000	51.064420
1873.000000	51.178066
1872.000000	51.342594
1871.000000	51.484063
1870.000000	51.583417
1869.000000	51.688636
1868.000000	51.773271
1867.000000	51.837716
1866.000000	51.945376
1865.000000	52.001159
1864.000000	52.032113
1863.000000	52.069547
1862.000000	52.151410
1861.000000	52.174926
1860.000000	52.218349
1859.000000	52.238587
1858.000000	52.285942
1857.000000	52.314394
1856.000000	52.361271
1855.000000	52.384403
1854.000000	52.392984
1853.000000	52.376992
1852.000000	52.385372
1851.000000	52.413506
1850.000000	52.448601
1849.000000	52.417075
1848.000000	52.431595
1847.000000	52.438955
1846.000000	52.395879
1845.000000	52.411351
1844.000000	52.383224
1843.000000	52.344847
1842.000000	52.343832
1841.000000	52.312792
1840.000000	52.312818
1839.000000	52.281043
1838.000000	52.232037
1837.000000	52.176649
1836.000000	52.157132
1835.000000	52.132361
1834.000000	52.086724
1833.000000	52.082037
1832.000000	52.076467
1831.000000	52.035903
1830.000000	51.995709
1829.000000	51.971558
1828.000000	51.948920
1827.000000	51.891528
1826.000000	51.859675
1825.000000	51.870157
1824.000000	51.850262
1823.000000	51.841987
1822.000000	51.802921
1821.000000	51.780769
1820.000000	51.745064
1819.000000	51.680986
1818.000000	51.699544
1817.000000	51.670153
1816.000000	51.628135
1815.000000	51.638110
1814.000000	51.589586
1813.000000	51.539717
1812.000000	51.545160
1811.000000	51.541682
1810.000000	51.517749
1809.000000	51.489255
1808.000000	51.461705
1807.000000	51.434077
1806.000000	51.427503
1805.000000	51.423529
1804.000000	51.390777
1803.000000	51.364380
1802.000000	51.365339
1801.000000	51.349135
1800.000000	51.318208
1799.000000	51.294882
1798.000000	51.283831
1797.000000	51.267860
1796.000000	51.257376
1795.000000	51.221442
1794.000000	51.234737
1793.000000	51.234683
1792.000000	51.197232
1791.000000	51.171790
1790.000000	51.172900
1789.000000	51.179594
1788.000000	51.156907
1787.000000	51.146148
1786.000000	51.137142
1785.000000	51.111585
1784.000000	51.076932
1783.000000	51.061957
1782.000000	51.043677
1781.000000	51.026844
1780.000000	51.013445
1779.000000	50.992301
1778.000000	50.962752
1777.000000	50.917956
1776.000000	50.891077
1775.000000	50.846440
1774.000000	50.834143
1773.000000	50.814532
1772.000000	50.768852
1771.000000	50.726819
1770.000000	50.667394
1769.000000	50.608525
1768.000000	50.581874
1767.000000	50.563486
1766.000000	50.515856
1765.000000	50.526270
1764.000000	50.502706
1763.000000	50.420715
1762.000000	50.408671
1761.000000	50.392326
1760.000000	50.319735
1759.000000	50.282647
1758.000000	50.281435
1757.000000	50.208147
1756.000000	50.180547
1755.000000	50.136120
1754.000000	50.110577
1753.000000	50.069967
1752.000000	50.023826
1751.000000	49.974396
1750.000000	49.969921
1749.000000	49.943610
1748.000000	49.901191
1747.000000	49.841460
1746.000000	49.798543
1745.000000	49.751670
1744.000000	49.703475
1743.000000	49.682211
1742.000000	49.657770
1741.000000	49.621477
1740.000000	49.564043
1739.000000	49.519590
1738.000000	49.502021
1737.000000	49.489222
1736.000000	49.466685
1735.000000	49.439085
1734.000000	49.447620
1733.000000	49.418330
1732.000000	49.398489
1731.000000	49.428756
1730.000000	49.394523
1729.000000	49.411793
1728.000000	49.437804
1727.000000	49.476959
1726.000000	49.494712
1725.000000	49.522742
1724.000000	49.531084
1723.000000	49.610939
1722.000000	49.674157
1721.000000	49.693515
1720.000000	49.774308
1719.000000	49.834495
1718.000000	49.881124
1717.000000	49.930315
1716.000000	50.009398
1715.000000	50.064467
1714.000000	50.105430
1713.000000	50.150634
1712.000000	50.201264
1711.000000	50.228316
1710.000000	50.299137
1709.000000	50.299639
1708.000000	50.330808
1707.000000	50.348172
1706.000000	50.379131
1705.000000	50.392540
1704.000000	50.415602
1703.000000	50.434739
1702.000000	50.483060
1701.000000	50.475655
1700.000000	50.458950
1699.000000	50.433112
1698.000000	50.450461
1697.000000	50.486527
1696.000000	50.519624
1695.000000	50.468330
1694.000000	50.492153
1693.000000	50.526412
1692.000000	50.543089
1691.000000	50.594355
1690.000000	50.634080
1689.000000	50.656515
1688.000000	50.658227
1687.000000	50.718689
1686.000000	50.803840
1685.000000	50.859551
1684.000000	50.936347
1683.000000	51.022145
1682.000000	51.101855
1681.000000	51.183803
1680.000000	51.270776
1679.000000	51.354621
1678.000000	51.465987
1677.000000	51.544716
1676.000000	51.635791
1675.000000	51.754236
1674.000000	51.825265
1673.000000	51.928459
1672.000000	52.025074
1671.000000	52.099104
1670.000000	52.194230
1669.000000	52.307833
1668.000000	52.380711
1667.000000	52.460287
1666.000000	52.521892
1665.000000	52.557586
1664.000000	52.598456
1663.000000	52.639558
1662.000000	52.686479
1661.000000	52.739912
1660.000000	52.770969
1659.000000	52.797839
1658.000000	52.821391
1657.000000	52.855379
1656.000000	52.892356
1655.000000	52.898692
1654.000000	52.911463
1653.000000	52.917555
1652.000000	52.926275
1651.000000	52.909036
1650.000000	52.905990
1649.000000	52.907280
1648.000000	52.905873
1647.000000	52.881729
1646.000000	52.883393
1645.000000	52.880645
1644.000000	52.853930
1643.000000	52.843639
1642.000000	52.823256
1641.000000	52.792968
1640.000000	52.790808
1639.000000	52.764278
1638.000000	52.747285
1637.000000	52.735327
1636.000000	52.704560
1635.000000	52.679607
1634.000000	52.653004
1633.000000	52.620150
1632.000000	52.587557
1631.000000	52.571800
1630.000000	52.544901
1629.000000	52.509189
1628.000000	52.491479
1627.000000	52.459417
1626.000000	52.428733
1625.000000	52.387468
1624.000000	52.350686
1623.000000	52.334108
1622.000000	52.310257
1621.000000	52.265090
1620.000000	52.247102
1619.000000	52.224244
1618.000000	52.192017
1617.000000	52.161839
1616.000000	52.117016
1615.000000	52.082673
1614.000000	52.035218
1613.000000	51.988060
1612.000000	51.959659
1611.000000	51.927120
1610.000000	51.906235
1609.000000	51.862193
1608.000000	51.822247
1607.000000	51.782518
1606.000000	51.724593
1605.000000	51.685644
1604.000000	51.646793
1603.000000	51.613512
1602.000000	51.589172
1601.000000	51.548637
1600.000000	51.498712
1599.000000	51.449600
1598.000000	51.407802
1597.000000	51.381622
1596.000000	51.351211
1595.000000	51.308693
1594.000000	51.272344
1593.000000	51.242037
1592.000000	51.212837
1591.000000	51.183776
1590.000000	51.141329
1589.000000	51.100139
1588.000000	51.065456
1587.000000	51.040287
1586.000000	51.002539
1585.000000	50.964294
1584.000000	50.938695
1583.000000	50.900055
1582.000000	50.871530
1581.000000	50.849758
1580.000000	50.831613
1579.000000	50.797357
1578.000000	50.761113
1577.000000	50.722355
1576.000000	50.684161
1575.000000	50.648611
1574.000000	50.620607
1573.000000	50.593789
1572.000000	50.565949
1571.000000	50.522816
1570.000000	50.489068
1569.000000	50.466372
1568.000000	50.443141
1567.000000	50.407726
1566.000000	50.369515
1565.000000	50.344027
1564.000000	50.320838
1563.000000	50.302784
1562.000000	50.270762
1561.000000	50.254602
1560.000000	50.223059
1559.000000	50.203738
1558.000000	50.183651
1557.000000	50.161272
1556.000000	50.134218
1555.000000	50.109344
1554.000000	50.075903
1553.000000	50.057686
1552.000000	50.040995
1551.000000	50.014207
1550.000000	49.989142
1549.000000	49.956725
1548.000000	49.932470
1547.000000	49.886957
1546.000000	49.842600
1545.000000	49.807046
1544.000000	49.760177
1543.000000	49.701998
1542.000000	49.659315
1541.000000	49.623026
1540.000000	49.551401
1539.000000	49.489209
1538.000000	49.429565
1537.000000	49.378014
1536.000000	49.310640
1535.000000	49.249319
1534.000000	49.200664
1533.000000	49.153622
1532.000000	49.082554
1531.000000	49.038627
1530.000000	48.992250
1529.000000	48.926332
1528.000000	48.860228
1527.000000	48.820580
1526.000000	48.780139
1525.000000	48.747099
1524.000000	48.703004
1523.000000	48.649197
1522.000000	48.612819
1521.000000	48.571797
1520.000000	48.523274
1519.000000	48.512137
1518.000000	48.485467
1517.000000	48.451667
1516.000000	48.404422
1515.000000	48.399967
1514.000000	48.372541
1513.000000	48.353840
1512.000000	48.380049
1511.000000	48.387951
1510.000000	48.368876
1509.000000	48.358109
1508.000000	48.316145
1507.000000	48.280034
1506.000000	48.277290
1505.000000	48.238958
1504.000000	48.222684
1503.000000	48.235365
1502.000000	48.243187
1501.000000	48.231466
1500.000000	48.218191
1499.000000	48.219671
1498.000000	48.199265
1497.000000	48.210311
1496.000000	48.199390
1495.000000	48.184483
1494.000000	48.198962
1493.000000	48.184346
1492.000000	48.200803
1491.000000	48.211312
1490.000000	48.239098
1489.000000	48.240069
1488.000000	48.255792
1487.000000	48.275362
1486.000000	48.292726
1485.000000	48.286993
1484.000000	48.315753
1483.000000	48.351810
1482.000000	48.353219
1481.000000	48.412917
1480.000000	48.409432
1479.000000	48.447156
1478.000000	48.457187
1477.000000	48.467068
1476.000000	48.496521
1475.000000	48.524181
1474.000000	48.552559
1473.000000	48.565689
1472.000000	48.586778
1471.000000	48.594237
1470.000000	48.613416
1469.000000	48.632383
1468.000000	48.639859
1467.000000	48.680447
1466.000000	48.714955
1465.000000	48.743996
1464.000000	48.748571
1463.000000	48.772279
1462.000000	48.767171
1461.000000	48.799399
1460.000000	48.822165
1459.000000	48.840820
1458.000000	48.847493
1457.000000	48.856771
1456.000000	48.897031
1455.000000	48.922282
1454.000000	48.942355
1453.000000	48.953479
1452.000000	48.995963
1451.000000	49.016662
1450.000000	49.054652
1449.000000	49.097240
1448.000000	49.105505
1447.000000	49.126561
1446.000000	49.185622
1445.000000	49.224628
1444.000000	49.250386
1443.000000	49.278471
1442.000000	49.329868
1441.000000	49.351398
1440.000000	49.378586
1439.000000	49.420601
1438.000000	49.497700
1437.000000	49.557515
1436.000000	49.584050
1435.000000	49.636023
1434.000000	49.701918
1433.000000	49.746618
1432.000000	49.796794
1431.000000	49.856619
1430.000000	49.919188
1429.000000	49.971509
1428.000000	50.034065
1427.000000	50.104129
1426.000000	50.175350
1425.000000	50.248588
1424.000000	50.325313
1423.000000	50.401790
1422.000000	50.495026
1421.000000	50.576830
1420.000000	50.643725
1419.000000	50.721076
1418.000000	50.812298
1417.000000	50.909203
1416.000000	51.005221
1415.000000	51.069347
1414.000000	51.164559
1413.000000	51.267844
1412.000000	51.362824
1411.000000	51.450175
1410.000000	51.539485
1409.000000	51.625436
1408.000000	51.731407
1407.000000	51.820795
1406.000000	51.911430
1405.000000	51.979168
1404.000000	52.060772
1403.000000	52.156065
1402.000000	52.235131
1401.000000	52.329728
1400.000000	52.420736
1399.000000	52.490814
1398.000000	52.565653
1397.000000	52.651058
1396.000000	52.711343
1395.000000	52.771366
1394.000000	52.845633
1393.000000	52.913598
1392.000000	52.969689
1391.000000	53.024996
1390.000000	53.074584
1389.000000	53.129059
1388.000000	53.173842
1387.000000	53.220022
1386.000000	53.278768
1385.000000	53.327129
1384.000000	53.367658
1383.000000	53.411128
1382.000000	53.456821
1381.000000	53.500133
1380.000000	53.539126
1379.000000	53.563583
1378.000000	53.607657
1377.000000	53.622825
1376.000000	53.635201
1375.000000	53.679415
1374.000000	53.711456
1373.000000	53.739820
1372.000000	53.753969
1371.000000	53.763661
1370.000000	53.800187
1369.000000	53.813374
1368.000000	53.814630
1367.000000	53.830843
1366.000000	53.844499
1365.000000	53.863444
1364.000000	53.866009
1363.000000	53.862488
1362.000000	53.872357
1361.000000	53.887240
1360.000000	53.907588
1359.000000	53.922736
1358.000000	53.929858
1357.000000	53.940992
1356.000000	53.972120
1355.000000	53.971968
1354.000000	53.976121
1353.000000	54.039998
1352.000000	54.076891
1351.000000	54.081788
1350.000000	54.084635
1349.000000	54.105275
1348.000000	54.121207
1347.000000	54.146401
1346.000000	54.171464
1345.000000	54.178310
1344.000000	54.195158
1343.000000	54.218337
1342.000000	54.234074
1341.000000	54.235211
1340.000000	54.238932
1339.000000	54.266613
1338.000000	54.273593
1337.000000	54.293652
1336.000000	54.309129
1335.000000	54.322286
1334.000000	54.322369
1333.000000	54.315257
1332.000000	54.311565
1331.000000	54.320505
1330.000000	54.333301
1329.000000	54.343758
1328.000000	54.342688
1327.000000	54.330655
1326.000000	54.347036
1325.000000	54.374239
1324.000000	54.377687
1323.000000	54.346983
1322.000000	54.347019
1321.000000	54.346394
1320.000000	54.334241
1319.000000	54.320905
1318.000000	54.364098
1317.000000	54.400420
1316.000000	54.372564
1315.000000	54.361291
1314.000000	54.337943
1313.000000	54.352575
1312.000000	54.344078
1311.000000	54.348022
1310.000000	54.347901
1309.000000	54.336398
1308.000000	54.361876
1307.000000	54.343690
1306.000000	54.350366
1305.000000	54.328438
1304.000000	54.339926
1303.000000	54.329886
1302.000000	54.326557
1301.000000	54.326767
1300.000000	54.345642
1299.000000	54.345336
1298.000000	54.323119
1297.000000	54.312666
1296.000000	54.311018
1295.000000	54.311958
1294.000000	54.278168
1293.000000	54.295405
1292.000000	54.287288
1291.000000	54.275784
1290.000000	54.264259
1289.000000	54.274429
1288.000000	54.264646
1287.000000	54.203933
1286.000000	54.200164
1285.000000	54.200835
1284.000000	54.174822
1283.000000	54.177343
1282.000000	54.152129
1281.000000	54.159343
1280.000000	54.130056
1279.000000	54.120080
1278.000000	54.132425
1277.000000	54.099959
1276.000000	54.097364
1275.000000	54.050068
1274.000000	54.029419
1273.000000	54.027892
1272.000000	54.011698
1271.000000	54.018727
1270.000000	54.003009
1269.000000	53.995211
1268.000000	54.012358
1267.000000	53.997351
1266.000000	53.979058
1265.000000	53.954347
1264.000000	53.970868
1263.000000	53.975418
1262.000000	53.962119
1261.000000	53.968337
1260.000000	53.948828
1259.000000	53.940474
1258.000000	53.923992
1257.000000	53.932781
1256.000000	53.936045
1255.000000	53.926880
1254.000000	53.932385
1253.000000	53.930936
1252.000000	53.907565
1251.000000	53.902286
1250.000000	53.905905
1249.000000	53.887941
1248.000000	53.891740
1247.000000	53.885731
1246.000000	53.873555
1245.000000	53.849769
1244.000000	53.842034
1243.000000	53.841816
1242.000000	53.795344
1241.000000	53.801227
1240.000000	53.784131
1239.000000	53.776287
1238.000000	53.768163
1237.000000	53.722187
1236.000000	53.700651
1235.000000	53.671813
1234.000000	53.632741
1233.000000	53.625765
1232.000000	53.611644
1231.000000	53.608205
1230.000000	53.596441
1229.000000	53.550893
1228.000000	53.537509
1227.000000	53.518352
1226.000000	53.496269
1225.000000	53.460267
1224.000000	53.456402
1223.000000	53.440972
1222.000000	53.422731
1221.000000	53.387682
1220.000000	53.357019
1219.000000	53.344779
1218.000000	53.327786
1217.000000	53.298501
1216.000000	53.265825
1215.000000	53.243228
1214.000000	53.202981
1213.000000	53.182585
1212.000000	53.172561
1211.000000	53.158406
1210.000000	53.152086
1209.000000	53.111568
1208.000000	53.098947
1207.000000	53.085363
1206.000000	53.047053
1205.000000	53.018937
1204.000000	53.018948
1203.000000	52.982006
1202.000000	52.945512
1201.000000	52.940483
1200.000000	52.941503
1199.000000	52.930559
1198.000000	52.886128
1197.000000	52.869604
1196.000000	52.858913
1195.000000	52.849261
1194.000000	52.823776
1193.000000	52.795634
1192.000000	52.774301
1191.000000	52.760021
1190.000000	52.736102
1189.000000	52.684629
1188.000000	52.677056
1187.000000	52.682348
1186.000000	52.658818
1185.000000	52.651978
1184.000000	52.617989
1183.000000	52.605204
1182.000000	52.622047
1181.000000	52.626106
1180.000000	52.626822
1179.000000	52.632507
1178.000000	52.635943
1177.000000	52.625673
1176.000000	52.622711
1175.000000	52.633312
1174.000000	52.647457
1173.000000	52.663131
1172.000000	52.672573
1171.000000	52.669682
1170.000000	52.680953
1169.000000	52.689864
1168.000000	52.708266
1167.000000	52.736855
1166.000000	52.744751
1165.000000	52.753669
1164.000000	52.774821
1163.000000	52.795005
1162.000000	52.800474
1161.000000	52.814078
1160.000000	52.822493
1159.000000	52.817843
1158.000000	52.838580
1157.000000	52.865040
1156.000000	52.878797
1155.000000	52.898512
1154.000000	52.909551
1153.000000	52.913014
1152.000000	52.930134
1151.000000	52.952119
1150.000000	52.952088
1149.000000	52.947724
1148.000000	52.956750
1147.000000	52.965620
1146.000000	52.974329
1145.000000	52.979232
1144.000000	52.985625
1143.000000	52.995899
1142.000000	52.995613
1141.000000	53.001879
1140.000000	53.002086
1139.000000	52.980754
1138.000000	52.982828
1137.000000	52.990237
1136.000000	52.998477
1135.000000	53.001155
1134.000000	53.013579
1133.000000	53.007354
1132.000000	52.993867
1131.000000	52.999430
1130.000000	52.995212
1129.000000	52.988250
1128.000000	53.006177
1127.000000	53.001324
1126.000000	52.982796
1125.000000	52.965302
1124.000000	52.953714
1123.000000	52.957467
1122.000000	52.960095
1121.000000	52.953169
1120.000000	52.946560
1119.000000	52.951659
1118.000000	52.944027
1117.000000	52.926432
1116.000000	52.903624
1115.000000	52.897138
1114.000000	52.892474
1113.000000	52.886853
1112.000000	52.879928
1111.000000	52.861953
1110.000000	52.863074
1109.000000	52.853337
1108.000000	52.833781
1107.000000	52.822523
1106.000000	52.787763
1105.000000	52.767673
1104.000000	52.765186
1103.000000	52.752382
1102.000000	52.741314
1101.000000	52.749307
1100.000000	52.736441
1099.000000	52.727389
1098.000000	52.709678
1097.000000	52.665536
1096.000000	52.654409
1095.000000	52.660775
1094.000000	52.642750
1093.000000	52.644078
1092.000000	52.622006
1091.000000	52.626283
1090.000000	52.609403
1089.000000	52.571438
1088.000000	52.552413
1087.000000	52.544216
1086.000000	52.536451
1085.000000	52.548605
1084.000000	52.533871
1083.000000	52.516067
1082.000000	52.483176
1081.000000	52.452408
1080.000000	52.434319
1079.000000	52.427702
1078.000000	52.421416
1077.000000	52.418068
1076.000000	52.379877
1075.000000	52.381625
1074.000000	52.346674
1073.000000	52.330414
1072.000000	52.313464
1071.000000	52.316149
1070.000000	52.315419
1069.000000	52.267374
1068.000000	52.264208
1067.000000	52.239553
1066.000000	52.231191
1065.000000	52.214873
1064.000000	52.207906
1063.000000	52.207112
1062.000000	52.158353
1061.000000	52.148883
1060.000000	52.141514
1059.000000	52.133154
1058.000000	52.123045
1057.000000	52.101186
1056.000000	52.095438
1055.000000	52.055698
1054.000000	52.039869
1053.000000	52.027966
1052.000000	52.008199
1051.000000	51.976172
1050.000000	51.952425
1049.000000	51.959238
1048.000000	51.918334
1047.000000	51.950147
1046.000000	51.891081
1045.000000	51.884606
1044.000000	51.866679
1043.000000	51.862533
1042.000000	51.820087
1041.000000	51.809391
1040.000000	51.817228
1039.000000	51.802076
1038.000000	51.800115
1037.000000	51.757332
1036.000000	51.740901
1035.000000	51.725830
1034.000000	51.720115
1033.000000	51.685867
1032.000000	51.678558
1031.000000	51.663060
1030.000000	51.658011
1029.000000	51.625567
1028.000000	51.618757
1027.000000	51.618510
1026.000000	51.585176
1025.000000	51.548540
1024.000000	51.574802
1023.000000	51.547987
1022.000000	51.523696
1021.000000	51.494695
1020.000000	51.504288
1019.000000	51.470754
1018.000000	51.470557
1017.000000	51.464430
1016.000000	51.425984
1015.000000	51.434475
1014.000000	51.408533
1013.000000	51.404337
1012.000000	51.385775
1011.000000	51.355723
1010.000000	51.334485
1009.000000	51.343218
1008.000000	51.336393
1007.000000	51.330878
1006.000000	51.311196
1005.000000	51.290226
1004.000000	51.273794
1003.000000	51.263071
1002.000000	51.249091
1001.000000	51.238109
1000.000000	51.235113
999.000000	51.228559
998.000000	51.228843
997.000000	51.222955
996.000000	51.205751
995.000000	51.200390
994.000000	51.184344
993.000000	51.159779
992.000000	51.143835
991.000000	51.140591
990.000000	51.144830
989.000000	51.110447
988.000000	51.097902
987.000000	51.083788
986.000000	51.079323
985.000000	51.090124
984.000000	51.063226
983.000000	51.058063
982.000000	51.035580
981.000000	51.019960
980.000000	50.999670
979.000000	51.007241
978.000000	51.003511
977.000000	50.980847
976.000000	50.969710
975.000000	50.953977
974.000000	50.931562
973.000000	50.923531
972.000000	50.925208
971.000000	50.919846
970.000000	50.895618
969.000000	50.878251
968.000000	50.865553
967.000000	50.848169
966.000000	50.821983
965.000000	50.811745
964.000000	50.817382
963.000000	50.808201
962.000000	50.790010
961.000000	50.783763
960.000000	50.781061
959.000000	50.765012
958.000000	50.737047
957.000000	50.713052
956.000000	50.709093
955.000000	50.703087
954.000000	50.700492
953.000000	50.695931
952.000000	50.670314
951.000000	50.636427
950.000000	50.633974
949.000000	50.639758
948.000000	50.613982
947.000000	50.596894
946.000000	50.584459
945.000000	50.569327
944.000000	50.563196
943.000000	50.533592
942.000000	50.507686
941.000000	50.492932
940.000000	50.470241
939.000000	50.445379
938.000000	50.432964
937.000000	50.437938
936.000000	50.411051
935.000000	50.408577
934.000000	50.409760
933.000000	50.380215
932.000000	50.378262
931.000000	50.355557
930.000000	50.324170
929.000000	50.320000
928.000000	50.288529
927.000000	50.272050
926.000000	50.271397
925.000000	50.248627
924.000000	50.222803
923.000000	50.215751
922.000000	50.209660
921.000000	50.186040
920.000000	50.187070
919.000000	50.144720
918.000000	50.111324
917.000000	50.082132
916.000000	50.072719
915.000000	50.111054
914.000000	50.072760
913.000000	50.002829
912.000000	50.017846
911.000000	50.012089
910.000000	49.976493
909.000000	49.987745
908.000000	49.986875
907.000000	49.960478
906.000000	49.909094
905.000000	49.891516
904.000000	49.923750
903.000000	49.893420
902.000000	49.875974
901.000000	49.890555
900.000000	49.849101
899.000000	49.843785
898.000000	49.787465
897.000000	49.771039
896.000000	49.761915
895.000000	49.770141
894.000000	49.752845
893.000000	49.711201
892.000000	49.700746
891.000000	49.668845
890.000000	49.682196
889.000000	49.663951
888.000000	49.629655
887.000000	49.650109
886.000000	49.599284
885.000000	49.590797
884.000000	49.574142
883.000000	49.483568
882.000000	49.474029
881.000000	49.457976
880.000000	49.481675
879.000000	49.486726
878.000000	49.422564
877.000000	49.361707
876.000000	49.387055
875.000000	49.373981
874.000000	49.358708
873.000000	49.289988
872.000000	49.286642
871.000000	49.329401
870.000000	49.252715
869.000000	49.230782
868.000000	49.137232
867.000000	49.079987
866.000000	49.091766
865.000000	49.047823
864.000000	49.011000
863.000000	49.170016
862.000000	49.137173
861.000000	49.059227
860.000000	49.018868
859.000000	48.687298
858.000000	48.923476
857.000000	48.663390
856.000000	48.720649
855.000000	49.087139
854.000000	48.748111
853.000000	48.573670
852.000000	48.498600
851.000000	48.558657
850.000000	48.364251
849.000000	48.484511
848.000000	48.268586
847.000000	48.457668
846.000000	48.432111
845.000000	48.282927
844.000000	48.641747
843.000000	48.329221
842.000000	48.321913
841.000000	48.261891
840.000000	48.280565
839.000000	48.223821
838.000000	48.273353
837.000000	48.172183
836.000000	48.258911
835.000000	48.091596
834.000000	48.018336
833.000000	48.030567
832.000000	48.113808
831.000000	48.014647
830.000000	47.831727
829.000000	48.036339
828.000000	47.953658
827.000000	47.827008
826.000000	47.958117
825.000000	48.071632
824.000000	47.819694
823.000000	47.736190
822.000000	47.681685
821.000000	47.712554
820.000000	47.694142
819.000000	47.615635
818.000000	47.731525
817.000000	47.648399
816.000000	47.525357
815.000000	47.565433
814.000000	47.600617
813.000000	47.390162
812.000000	47.491120
811.000000	47.408645
810.000000	47.500633
809.000000	47.309139
808.000000	47.352299
807.000000	47.318748
806.000000	47.330454
805.000000	47.346884
804.000000	47.216119
803.000000	47.235226
802.000000	47.113965
801.000000	47.228197
800.000000	47.137402
799.000000	47.009114
798.000000	47.044930
797.000000	47.125975
796.000000	47.022788
795.000000	46.915598
794.000000	46.992000
793.000000	47.041347
792.000000	46.888690
791.000000	46.947467
790.000000	46.797897
789.000000	46.749889
788.000000	46.777609
787.000000	46.712730
786.000000	46.760639
785.000000	46.781355
784.000000	46.699218
783.000000	46.684865
782.000000	46.610963
781.000000	46.511787
780.000000	46.564930
779.000000	46.509965
778.000000	46.450733
777.000000	46.442064
776.000000	46.449020
775.000000	46.297538
774.000000	46.286847
773.000000	46.274216
772.000000	46.196978
771.000000	46.148080
770.000000	46.140638
769.000000	46.164524
768.000000	46.086324
767.000000	46.077605
766.000000	46.051177
765.000000	46.074720
764.000000	46.011097
763.000000	46.003558
762.000000	45.978316
761.000000	45.852794
760.000000	45.812762
759.000000	45.819633
758.000000	45.773593
757.000000	45.733645
756.000000	45.652432
755.000000	45.639418
754.000000	45.624606
753.000000	45.550016
752.000000	45.542626
751.000000	45.489587
750.000000	45.490207
749.000000	45.411239
748.000000	45.383517
747.000000	45.350846
746.000000	45.353667
745.000000	45.336632
744.000000	45.263847
743.000000	45.186811
742.000000	45.151557
741.000000	45.123921
740.000000	45.049682
739.000000	45.045572
738.000000	44.973184
737.000000	44.975807
736.000000	44.958352
735.000000	44.956185
734.000000	44.904462
733.000000	44.862341
732.000000	44.799805
731.000000	44.712305
730.000000	44.683083
729.000000	44.676799
728.000000	44.595575
727.000000	44.530128
726.000000	44.501340
725.000000	44.469253
724.000000	44.469409
723.000000	44.324252
722.000000	44.310128
721.000000	44.308270
720.000000	44.258993
719.000000	44.215219
718.000000	44.135247
717.000000	44.114778
716.000000	44.082263
715.000000	44.004360
714.000000	43.957912
713.000000	43.918441
712.000000	43.885442
711.000000	43.865747
710.000000	43.829098
709.000000	43.793872
708.000000	43.722797
707.000000	43.617069
706.000000	43.605421
705.000000	43.596336
704.000000	43.544639
703.000000	43.490732
702.000000	43.460572
701.000000	43.405773
700.000000	43.303189
699.000000	43.228292
698.000000	43.205240
697.000000	43.172523
696.000000	43.116740
695.000000	43.089711
694.000000	43.025035
693.000000	42.974792
692.000000	42.909416
691.000000	42.838559
690.000000	42.796275
689.000000	42.722769
688.000000	42.690444
687.000000	42.640946
686.000000	42.585272
685.000000	42.538012
684.000000	42.474815
683.000000	42.442758
682.000000	42.362757
681.000000	42.323232
680.000000	42.234734
679.000000	42.191916
678.000000	42.177569
677.000000	42.115325
676.000000	42.012186
675.000000	41.952719
674.000000	41.920825
673.000000	41.867869
672.000000	41.789734
671.000000	41.742026
670.000000	41.657116
669.000000	41.620422
668.000000	41.580041
667.000000	41.511644
666.000000	41.498095
665.000000	41.385246
664.000000	41.325933
663.000000	41.288298
662.000000	41.216034
661.000000	41.125615
660.000000	41.107200
659.000000	41.080785
658.000000	40.984526
657.000000	40.912497
656.000000	40.826495
655.000000	40.794485
654.000000	40.741828
653.000000	40.700791
652.000000	40.646990
651.000000	40.591451
650.000000	40.460434
649.000000	40.424427
648.000000	40.363618
647.000000	40.303150
646.000000	40.170515
645.000000	40.155073
644.000000	40.101045
643.000000	40.024993
642.000000	40.000463
641.000000	39.912282
640.000000	39.846022
639.000000	39.792054
638.000000	39.717341
637.000000	39.639800
636.000000	39.584214
635.000000	39.555496
634.000000	39.458061
633.000000	39.381305
632.000000	39.309642
631.000000	39.260397
630.000000	39.225122
629.000000	39.156466
628.000000	39.017539
627.000000	38.991577
626.000000	38.884544
625.000000	38.871827
624.000000	38.765361
623.000000	38.688617
622.000000	38.574842
621.000000	38.538999
620.000000	38.485193
619.000000	38.403150
618.000000	38.352064
617.000000	38.268639
616.000000	38.175804
615.000000	38.101112
614.000000	38.064458
613.000000	37.986827
612.000000	37.891491
611.000000	37.815766
610.000000	37.726557
609.000000	37.667516
608.000000	37.574770
607.000000	37.474045
606.000000	37.460024
605.000000	37.345802
604.000000	37.245597
603.000000	37.212254
602.000000	37.127885
601.000000	37.059247
600.000000	36.939788
599.000000	36.886700
598.000000	36.807107
597.000000	36.709129
596.000000	36.668577
595.000000	36.581918
594.000000	36.461628
593.000000	36.424369
592.000000	36.293535
591.000000	36.208185
590.000000	36.151451
589.000000	36.067381
588.000000	35.967443
587.000000	35.905025
586.000000	35.805452
585.000000	35.706830
584.000000	35.646918
583.000000	35.547990
582.000000	35.479657
581.000000	35.384306
580.000000	35.275867
579.000000	35.217549
578.000000	35.115574
577.000000	34.992539
576.000000	34.931130
575.000000	34.860596
574.000000	34.776035
573.000000	34.657856
572.000000	34.552527
571.000000	34.491379
570.000000	34.397935
569.000000	34.288176
568.000000	34.184138
567.000000	34.096938
566.000000	34.022447
565.000000	33.900390
564.000000	33.804073
563.000000	33.689417
562.000000	33.617319
561.000000	33.488620
560.000000	33.406464
559.000000	33.309373
558.000000	33.223159
557.000000	33.143007
556.000000	33.057618
555.000000	32.931174
554.000000	32.842594
553.000000	32.735126
552.000000	32.639313
551.000000	32.534192
550.000000	32.426091
549.000000	32.349386
548.000000	32.220543
547.000000	32.127983
546.000000	32.013231
545.000000	31.922196
544.000000	31.813941
543.000000	31.726700
542.000000	31.630579
541.000000	31.523013
540.000000	31.436748
539.000000	31.312598
538.000000	31.185627
537.000000	31.101039
536.000000	30.995006
535.000000	30.881949
534.000000	30.753418
533.000000	30.672687
532.000000	30.591580
531.000000	30.475539
530.000000	30.361313
529.000000	30.257348
528.000000	30.139436
527.000000	30.034790
526.000000	29.922507
525.000000	29.813184
524.000000	29.702511
523.000000	29.596351
522.000000	29.503237
521.000000	29.390859
520.000000	29.280038
519.000000	29.156973
518.000000	29.056768
517.000000	28.951359
516.000000	28.853688
515.000000	28.748581
514.000000	28.639550
513.000000	28.528581
512.000000	28.429589
511.000000	28.311854
510.000000	28.170137
509.000000	28.068015
508.000000	27.949531
507.000000	27.827320
506.000000	27.724484
505.000000	27.622652
504.000000	27.504809
503.000000	27.405345
502.000000	27.275657
501.000000	27.167485
500.000000	27.074193
499.000000	26.966773
498.000000	26.834889
497.000000	26.738097
496.000000	26.622440
495.000000	26.497033
494.000000	26.385112
493.000000	26.267300
492.000000	26.161332
491.000000	26.023066
490.000000	25.922282
489.000000	25.803905
488.000000	25.659106
487.000000	25.557425
486.000000	25.452160
485.000000	25.346273
484.000000	25.248652
483.000000	25.139565
482.000000	25.003554
481.000000	24.911989
480.000000	24.807327
479.000000	24.692044
478.000000	24.587175
477.000000	24.459397
476.000000	24.335853
475.000000	24.225614
474.000000	24.118088
473.000000	24.008323
472.000000	23.892037
471.000000	23.773973
470.000000	23.674402
469.000000	23.574890
468.000000	23.436732
467.000000	23.310916
466.000000	23.186909
465.000000	23.089082
464.000000	22.990952
463.000000	22.872910
462.000000	22.752947
461.000000	22.636914
460.000000	22.526435
459.000000	22.409226
458.000000	22.278149
457.000000	22.160780
456.000000	22.042436
455.000000	21.919440
454.000000	21.814100
453.000000	21.681716
452.000000	21.547506
451.000000	21.454159
450.000000	21.323073
449.000000	21.172874
448.000000	21.057997
447.000000	20.932728
446.000000	20.801661
445.000000	20.685315
444.000000	20.571920
443.000000	20.447227
442.000000	20.336320
441.000000	20.228679
440.000000	20.080415
439.000000	19.963707
438.000000	19.838674
437.000000	19.706247
436.000000	19.608584
435.000000	19.490146
434.000000	19.366645
433.000000	19.238493
432.000000	19.118808
431.000000	18.987775
430.000000	18.870611
429.000000	18.745013
428.000000	18.623331
427.000000	18.511436
426.000000	18.395449
425.000000	18.258339
424.000000	18.137129
423.000000	18.023398
422.000000	17.898930
421.000000	17.777399
420.000000	17.655419
419.000000	17.530268
418.000000	17.405508
417.000000	17.271358
416.000000	17.155283
415.000000	17.040695
414.000000	16.902486
413.000000	16.807347
412.000000	16.699542
411.000000	16.569480
410.000000	16.435701
409.000000	16.321478
408.000000	16.206758
407.000000	16.087408
406.000000	15.953920
405.000000	15.816253
404.000000	15.721247
403.000000	15.607691
402.000000	15.477233
401.000000	15.384535
400.000000	15.246957
399.000000	15.122643
398.000000	14.996621
397.000000	14.897949
396.000000	14.776337
395.000000	14.668266
394.000000	14.533123
393.000000	14.422656
392.000000	14.312592
391.000000	14.177888
390.000000	14.078333
389.000000	13.960823
388.000000	13.840481
387.000000	13.741746
386.000000	13.631795
385.000000	13.534311
384.000000	13.416274
383.000000	13.282205
382.000000	13.183365
381.000000	13.058386
380.000000	12.962200
379.000000	12.841497
378.000000	12.783098
377.000000	12.683550
376.000000	12.493977
375.000000	12.439336
374.000000	12.309342
373.000000	12.183911
372.000000	12.108345
371.000000	12.016370
370.000000	11.940759
369.000000	11.797436
368.000000	11.677581
367.000000	11.605339
366.000000	11.491630
365.000000	11.446259
364.000000	11.326630
363.000000	11.196054
362.000000	11.119915
361.000000	11.068389
360.000000	10.872107
359.000000	10.864812
358.000000	10.731899
357.000000	10.649289
356.000000	10.591912
355.000000	10.451602
354.000000	10.432943
353.000000	10.309669
352.000000	10.225264
351.000000	10.100849
350.000000	9.997025
349.000000	9.963894
348.000000	9.893674
347.000000	9.808173
346.000000	9.649357
345.000000	9.656854
344.000000	9.561443
343.000000	9.404453
342.000000	9.298887
341.000000	9.247903
340.000000	9.173730
339.000000	9.052419
338.000000	9.001003
337.000000	8.873494
336.000000	8.855731
335.000000	8.724172
334.000000	8.669697
333.000000	8.598396
332.000000	8.530364
331.000000	8.437171
330.000000	8.369164
329.000000	8.267936
328.000000	8.162111
327.000000	8.056554
326.000000	8.086738
325.000000	7.985882
324.000000	7.927414
323.000000	7.862418
322.000000	7.771438
321.000000	7.710601
320.000000	7.699125
319.000000	7.673802
318.000000	7.617432
317.000000	7.539355
316.000000	7.472722
315.000000	7.492641
314.000000	7.411380
313.000000	7.411686
312.000000	7.379387
311.000000	7.278390
310.000000	7.283876
309.000000	7.269979
308.000000	7.215190
307.000000	7.158982
306.000000	7.187374
305.000000	7.162931
304.000000	7.170599
303.000000	7.114769
302.000000	7.065656
301.000000	7.044212
300.000000	7.047909
299.000000	7.007267
298.000000	7.038518
297.000000	6.998413
296.000000	6.989944
295.000000	6.958763
294.000000	6.947156
293.000000	6.914264
292.000000	6.920619
291.000000	6.906269
290.000000	6.936103
289.000000	6.942596
288.000000	6.910406
287.000000	6.854710
286.000000	6.880373
285.000000	6.918887
284.000000	6.973123
283.000000	6.944848
282.000000	6.950672
281.000000	7.000743
280.000000	7.006506
279.000000	6.972802
278.000000	6.942389
277.000000	7.042373
276.000000	7.065021
275.000000	7.071586
274.000000	7.106457
273.000000	7.136060
272.000000	7.161901
271.000000	7.214246
270.000000	7.247473
269.000000	7.214527
268.000000	7.268626
267.000000	7.299309
266.000000	7.307256
265.000000	7.374087
264.000000	7.409450
263.000000	7.467316
262.000000	7.510285
261.000000	7.545648
260.000000	7.628556
259.000000	7.680745
258.000000	7.759002
257.000000	7.800159
256.000000	7.857064
255.000000	7.918175
254.000000	8.055813
253.000000	8.138857
252.000000	8.157719
251.000000	8.263236
250.000000	8.342109
249.000000	8.428074
248.000000	8.516396
247.000000	8.587680
246.000000	8.683634
245.000000	8.794126
244.000000	8.879530
243.000000	8.946884
242.000000	9.062141
241.000000	9.147179
240.000000	9.213057
239.000000	9.297210
238.000000	9.403536
237.000000	9.459386
236.000000	9.503121
235.000000	9.596897
234.000000	9.669209
233.000000	9.753003
232.000000	9.820171
231.000000	9.897773
230.000000	10.001680
229.000000	10.031605
228.000000	10.075331
227.000000	10.200877
226.000000	10.301057
225.000000	10.387589
224.000000	10.525281
223.000000	10.619761
222.000000	10.724349
221.000000	10.742505
220.000000	10.822243
219.000000	11.033984
218.000000	11.190610
217.000000	11.300158
216.000000	11.520979
215.000000	11.700079
214.000000	11.852724
213.000000	12.051622
212.000000	12.277830
211.000000	12.464424
210.000000	12.665685
209.000000	12.947913
208.000000	13.300620
207.000000	13.553626
206.000000	13.987395
205.000000	14.330672
204.000000	14.723041
203.000000	15.315341
202.000000	15.785291
201.000000	16.408254
200.000000	17.165982
