PE IR       SUBTECH     SPECTRUM    ASCII       PEDS        4.00        
   -1
3C-XXX-C005_1.ASC
23/09/07
10:23:11.00
23/09/07
11:30:09.00
uco
Sample 005 By uco Date Thursday, September 07 2023
450.000000
#HDR
-1
-1
#GR
cm-1
%T
1.0
0.0
4000.000000
-1.000000
3551
8
99.056383
89.477411
#DATA
4000.000000	98.981077
3999.000000	98.980802
3998.000000	98.980535
3997.000000	98.980316
3996.000000	98.980115
3995.000000	98.984130
3994.000000	98.989456
3993.000000	98.992428
3992.000000	98.991265
3991.000000	98.987202
3990.000000	98.983427
3989.000000	98.982510
3988.000000	98.984583
3987.000000	98.987434
3986.000000	98.988201
3985.000000	98.985521
3984.000000	98.980503
3983.000000	98.975830
3982.000000	98.973697
3981.000000	98.974282
3980.000000	98.976085
3979.000000	98.977429
3978.000000	98.977492
3977.000000	98.976254
3976.000000	98.974025
3975.000000	98.971357
3974.000000	98.969214
3973.000000	98.968802
3972.000000	98.970841
3971.000000	98.974842
3970.000000	98.979165
3969.000000	98.981942
3968.000000	98.982291
3967.000000	98.980757
3966.000000	98.978641
3965.000000	98.977116
3964.000000	98.976842
3963.000000	98.978013
3962.000000	98.980228
3961.000000	98.982202
3960.000000	98.982095
3959.000000	98.978489
3958.000000	98.971302
3957.000000	98.961964
3956.000000	98.952771
3955.000000	98.945859
3954.000000	98.942212
3953.000000	98.941361
3952.000000	98.942203
3951.000000	98.944262
3950.000000	98.948099
3949.000000	98.954073
3948.000000	98.960821
3947.000000	98.965557
3946.000000	98.966164
3945.000000	98.962677
3944.000000	98.957108
3943.000000	98.952403
3942.000000	98.951081
3941.000000	98.954085
3940.000000	98.960094
3939.000000	98.965779
3938.000000	98.967402
3937.000000	98.963108
3936.000000	98.954578
3935.000000	98.946461
3934.000000	98.943757
3933.000000	98.948987
3932.000000	98.960570
3931.000000	98.973462
3930.000000	98.981970
3929.000000	98.982667
3928.000000	98.975801
3927.000000	98.965126
3926.000000	98.956087
3925.000000	98.952510
3924.000000	98.953877
3923.000000	98.956449
3922.000000	98.957234
3921.000000	98.955870
3920.000000	98.953406
3919.000000	98.950688
3918.000000	98.948342
3917.000000	98.947520
3916.000000	98.949300
3915.000000	98.953092
3914.000000	98.956517
3913.000000	98.957201
3912.000000	98.954424
3911.000000	98.949374
3910.000000	98.944037
3909.000000	98.939604
3908.000000	98.935807
3907.000000	98.931386
3906.000000	98.925555
3905.000000	98.919750
3904.000000	98.917582
3903.000000	98.921586
3902.000000	98.930121
3901.000000	98.938749
3900.000000	98.944222
3899.000000	98.946144
3898.000000	98.945682
3897.000000	98.943951
3896.000000	98.941802
3895.000000	98.940171
3894.000000	98.940019
3893.000000	98.942249
3892.000000	98.947123
3891.000000	98.952947
3890.000000	98.956427
3889.000000	98.955501
3888.000000	98.951001
3887.000000	98.945772
3886.000000	98.942599
3885.000000	98.941729
3884.000000	98.940698
3883.000000	98.937844
3882.000000	98.934293
3881.000000	98.932049
3880.000000	98.931557
3879.000000	98.931220
3878.000000	98.929607
3877.000000	98.927754
3876.000000	98.928363
3875.000000	98.932802
3874.000000	98.938854
3873.000000	98.942304
3872.000000	98.941325
3871.000000	98.938817
3870.000000	98.939771
3869.000000	98.945522
3868.000000	98.952262
3867.000000	98.956501
3866.000000	98.958734
3865.000000	98.961274
3864.000000	98.964584
3863.000000	98.966159
3862.000000	98.963139
3861.000000	98.955412
3860.000000	98.945632
3859.000000	98.936854
3858.000000	98.930169
3857.000000	98.923962
3856.000000	98.916052
3855.000000	98.907727
3854.000000	98.905639
3853.000000	98.914198
3852.000000	98.926314
3851.000000	98.934592
3850.000000	98.940119
3849.000000	98.944352
3848.000000	98.945756
3847.000000	98.943195
3846.000000	98.937787
3845.000000	98.931524
3844.000000	98.925378
3843.000000	98.919228
3842.000000	98.913109
3841.000000	98.908375
3840.000000	98.907126
3839.000000	98.910361
3838.000000	98.916922
3837.000000	98.924759
3836.000000	98.932686
3835.000000	98.940027
3834.000000	98.945779
3833.000000	98.948703
3832.000000	98.948086
3831.000000	98.944584
3830.000000	98.939859
3829.000000	98.935539
3828.000000	98.932729
3827.000000	98.931608
3826.000000	98.930874
3825.000000	98.928480
3824.000000	98.923799
3823.000000	98.919236
3822.000000	98.919309
3821.000000	98.925638
3820.000000	98.932922
3819.000000	98.935691
3818.000000	98.935278
3817.000000	98.936059
3816.000000	98.940380
3815.000000	98.946327
3814.000000	98.949832
3813.000000	98.949589
3812.000000	98.947728
3811.000000	98.946474
3810.000000	98.945989
3809.000000	98.945143
3808.000000	98.942913
3807.000000	98.939228
3806.000000	98.934855
3805.000000	98.930931
3804.000000	98.929582
3803.000000	98.933662
3802.000000	98.943734
3801.000000	98.954559
3800.000000	98.958328
3799.000000	98.952891
3798.000000	98.942560
3797.000000	98.933060
3796.000000	98.927370
3795.000000	98.924944
3794.000000	98.924251
3793.000000	98.924926
3792.000000	98.927192
3791.000000	98.930267
3790.000000	98.932520
3789.000000	98.933219
3788.000000	98.933466
3787.000000	98.935050
3786.000000	98.938346
3785.000000	98.941421
3784.000000	98.941813
3783.000000	98.939352
3782.000000	98.936498
3781.000000	98.936111
3780.000000	98.938665
3779.000000	98.941349
3778.000000	98.940780
3777.000000	98.936796
3776.000000	98.932484
3775.000000	98.931067
3774.000000	98.933205
3773.000000	98.936567
3772.000000	98.938015
3771.000000	98.936518
3770.000000	98.934041
3769.000000	98.933324
3768.000000	98.935496
3767.000000	98.940314
3766.000000	98.946759
3765.000000	98.952273
3764.000000	98.953613
3763.000000	98.949660
3762.000000	98.942628
3761.000000	98.936061
3760.000000	98.931783
3759.000000	98.928976
3758.000000	98.926424
3757.000000	98.924885
3756.000000	98.925877
3755.000000	98.929644
3754.000000	98.935556
3753.000000	98.943447
3752.000000	98.953429
3751.000000	98.963738
3750.000000	98.970170
3749.000000	98.970364
3748.000000	98.966669
3747.000000	98.964011
3746.000000	98.966961
3745.000000	98.975316
3744.000000	98.981407
3743.000000	98.977268
3742.000000	98.964499
3741.000000	98.951759
3740.000000	98.944550
3739.000000	98.941956
3738.000000	98.942728
3737.000000	98.947624
3736.000000	98.955636
3735.000000	98.963117
3734.000000	98.968368
3733.000000	98.973382
3732.000000	98.979393
3731.000000	98.984967
3730.000000	98.989054
3729.000000	98.992013
3728.000000	98.993555
3727.000000	98.991976
3726.000000	98.986412
3725.000000	98.978880
3724.000000	98.972901
3723.000000	98.970094
3722.000000	98.968891
3721.000000	98.967115
3720.000000	98.964896
3719.000000	98.964012
3718.000000	98.965045
3717.000000	98.966534
3716.000000	98.966634
3715.000000	98.964674
3714.000000	98.961164
3713.000000	98.957194
3712.000000	98.954232
3711.000000	98.953254
3710.000000	98.954366
3709.000000	98.956423
3708.000000	98.957591
3707.000000	98.957338
3706.000000	98.957675
3705.000000	98.960934
3704.000000	98.966610
3703.000000	98.971722
3702.000000	98.973461
3701.000000	98.972526
3700.000000	98.971962
3699.000000	98.973532
3698.000000	98.975850
3697.000000	98.976158
3696.000000	98.972736
3695.000000	98.966375
3694.000000	98.959936
3693.000000	98.956337
3692.000000	98.957014
3691.000000	98.961271
3690.000000	98.967546
3689.000000	98.974067
3688.000000	98.979377
3687.000000	98.982164
3686.000000	98.982159
3685.000000	98.980792
3684.000000	98.979377
3683.000000	98.977238
3682.000000	98.972408
3681.000000	98.963788
3680.000000	98.951692
3679.000000	98.938047
3678.000000	98.926043
3677.000000	98.920356
3676.000000	98.924372
3675.000000	98.933419
3674.000000	98.937063
3673.000000	98.931923
3672.000000	98.923536
3671.000000	98.918954
3670.000000	98.920655
3669.000000	98.923813
3668.000000	98.921989
3667.000000	98.914455
3666.000000	98.905343
3665.000000	98.898590
3664.000000	98.894841
3663.000000	98.891633
3662.000000	98.886439
3661.000000	98.879273
3660.000000	98.872596
3659.000000	98.868973
3658.000000	98.868999
3657.000000	98.870874
3656.000000	98.871367
3655.000000	98.867985
3654.000000	98.860588
3653.000000	98.850383
3652.000000	98.837574
3651.000000	98.821217
3650.000000	98.802262
3649.000000	98.785963
3648.000000	98.778379
3647.000000	98.779454
3646.000000	98.782314
3645.000000	98.780659
3644.000000	98.774051
3643.000000	98.765761
3642.000000	98.758666
3641.000000	98.753614
3640.000000	98.750231
3639.000000	98.748138
3638.000000	98.746663
3637.000000	98.744159
3636.000000	98.738807
3635.000000	98.730353
3634.000000	98.720441
3633.000000	98.711187
3632.000000	98.703928
3631.000000	98.699269
3630.000000	98.696702
3629.000000	98.693133
3628.000000	98.684003
3627.000000	98.669074
3626.000000	98.653854
3625.000000	98.643392
3624.000000	98.638131
3623.000000	98.634738
3622.000000	98.629523
3621.000000	98.621097
3620.000000	98.610621
3619.000000	98.600086
3618.000000	98.590048
3617.000000	98.580045
3616.000000	98.570268
3615.000000	98.561127
3614.000000	98.551581
3613.000000	98.539132
3612.000000	98.522256
3611.000000	98.502309
3610.000000	98.482845
3609.000000	98.467724
3608.000000	98.459329
3607.000000	98.457007
3606.000000	98.457701
3605.000000	98.458368
3604.000000	98.457561
3603.000000	98.455268
3602.000000	98.451382
3601.000000	98.444971
3600.000000	98.435082
3599.000000	98.422224
3598.000000	98.407960
3597.000000	98.393313
3596.000000	98.378174
3595.000000	98.362130
3594.000000	98.345421
3593.000000	98.328872
3592.000000	98.313321
3591.000000	98.298924
3590.000000	98.285370
3589.000000	98.272338
3588.000000	98.260480
3587.000000	98.250916
3586.000000	98.243819
3585.000000	98.238028
3584.000000	98.232110
3583.000000	98.225496
3582.000000	98.218149
3581.000000	98.209691
3580.000000	98.199570
3579.000000	98.188108
3578.000000	98.176365
3577.000000	98.165074
3576.000000	98.153840
3575.000000	98.141376
3574.000000	98.126537
3573.000000	98.109085
3572.000000	98.090123
3571.000000	98.071632
3570.000000	98.055702
3569.000000	98.043216
3568.000000	98.032767
3567.000000	98.020827
3566.000000	98.004913
3565.000000	97.986133
3564.000000	97.967377
3563.000000	97.950946
3562.000000	97.938657
3561.000000	97.931408
3560.000000	97.927939
3559.000000	97.924529
3558.000000	97.916738
3557.000000	97.902117
3556.000000	97.881488
3555.000000	97.857664
3554.000000	97.833378
3553.000000	97.810372
3552.000000	97.789765
3551.000000	97.772105
3550.000000	97.757035
3549.000000	97.743900
3548.000000	97.733099
3547.000000	97.726200
3546.000000	97.723830
3545.000000	97.723343
3544.000000	97.719607
3543.000000	97.708498
3542.000000	97.689458
3541.000000	97.665292
3540.000000	97.640157
3539.000000	97.617337
3538.000000	97.597939
3537.000000	97.580954
3536.000000	97.564376
3535.000000	97.546750
3534.000000	97.528408
3533.000000	97.511680
3532.000000	97.499627
3531.000000	97.493517
3530.000000	97.490847
3529.000000	97.486481
3528.000000	97.476795
3527.000000	97.462687
3526.000000	97.447870
3525.000000	97.434605
3524.000000	97.421889
3523.000000	97.407419
3522.000000	97.390290
3521.000000	97.371336
3520.000000	97.351695
3519.000000	97.332010
3518.000000	97.312720
3517.000000	97.294341
3516.000000	97.277399
3515.000000	97.262520
3514.000000	97.250543
3513.000000	97.241861
3512.000000	97.235315
3511.000000	97.228260
3510.000000	97.218443
3509.000000	97.205890
3508.000000	97.192493
3507.000000	97.179864
3506.000000	97.168186
3505.000000	97.156831
3504.000000	97.145194
3503.000000	97.133075
3502.000000	97.120919
3501.000000	97.109659
3500.000000	97.099877
3499.000000	97.091210
3498.000000	97.082922
3497.000000	97.074803
3496.000000	97.066855
3495.000000	97.058016
3494.000000	97.046255
3493.000000	97.030778
3492.000000	97.013526
3491.000000	96.997723
3490.000000	96.985158
3489.000000	96.975329
3488.000000	96.966778
3487.000000	96.958291
3486.000000	96.948761
3485.000000	96.936957
3484.000000	96.922372
3483.000000	96.906397
3482.000000	96.892049
3481.000000	96.881760
3480.000000	96.875123
3479.000000	96.869092
3478.000000	96.860727
3477.000000	96.849637
3476.000000	96.837867
3475.000000	96.827872
3474.000000	96.820784
3473.000000	96.816071
3472.000000	96.811764
3471.000000	96.805000
3470.000000	96.793780
3469.000000	96.779158
3468.000000	96.764988
3467.000000	96.754447
3466.000000	96.747083
3465.000000	96.740154
3464.000000	96.732260
3463.000000	96.724414
3462.000000	96.717605
3461.000000	96.710739
3460.000000	96.701661
3459.000000	96.689459
3458.000000	96.675034
3457.000000	96.659905
3456.000000	96.645208
3455.000000	96.631675
3454.000000	96.619843
3453.000000	96.609891
3452.000000	96.601485
3451.000000	96.594217
3450.000000	96.588280
3449.000000	96.584328
3448.000000	96.582193
3447.000000	96.579790
3446.000000	96.573970
3445.000000	96.562880
3444.000000	96.547369
3443.000000	96.530533
3442.000000	96.516248
3441.000000	96.507330
3440.000000	96.503902
3439.000000	96.503205
3438.000000	96.501577
3437.000000	96.497083
3436.000000	96.490023
3435.000000	96.480988
3434.000000	96.469498
3433.000000	96.455191
3432.000000	96.439465
3431.000000	96.424806
3430.000000	96.412654
3429.000000	96.402697
3428.000000	96.393972
3427.000000	96.385718
3426.000000	96.377275
3425.000000	96.368288
3424.000000	96.359320
3423.000000	96.351465
3422.000000	96.344812
3421.000000	96.337853
3420.000000	96.329083
3419.000000	96.318907
3418.000000	96.309210
3417.000000	96.301045
3416.000000	96.293451
3415.000000	96.284863
3414.000000	96.275381
3413.000000	96.266868
3412.000000	96.260369
3411.000000	96.254142
3410.000000	96.245273
3409.000000	96.233330
3408.000000	96.221415
3407.000000	96.212990
3406.000000	96.208284
3405.000000	96.204338
3404.000000	96.198014
3403.000000	96.188314
3402.000000	96.176372
3401.000000	96.164417
3400.000000	96.154734
3399.000000	96.148315
3398.000000	96.143620
3397.000000	96.137175
3396.000000	96.126395
3395.000000	96.112004
3394.000000	96.097376
3393.000000	96.085443
3392.000000	96.076379
3391.000000	96.068331
3390.000000	96.060105
3389.000000	96.052538
3388.000000	96.047115
3387.000000	96.043700
3386.000000	96.040059
3385.000000	96.033651
3384.000000	96.023574
3383.000000	96.010872
3382.000000	95.997546
3381.000000	95.985540
3380.000000	95.976091
3379.000000	95.969168
3378.000000	95.963186
3377.000000	95.955414
3376.000000	95.943156
3375.000000	95.925396
3374.000000	95.903968
3373.000000	95.882966
3372.000000	95.866154
3371.000000	95.854295
3370.000000	95.844931
3369.000000	95.834651
3368.000000	95.821444
3367.000000	95.805325
3366.000000	95.787608
3365.000000	95.769938
3364.000000	95.753258
3363.000000	95.737110
3362.000000	95.720145
3361.000000	95.701663
3360.000000	95.682376
3359.000000	95.663387
3358.000000	95.644736
3357.000000	95.625350
3356.000000	95.604285
3355.000000	95.581824
3354.000000	95.559357
3353.000000	95.538181
3352.000000	95.518206
3351.000000	95.497897
3350.000000	95.475890
3349.000000	95.452559
3348.000000	95.429556
3347.000000	95.407917
3346.000000	95.387240
3345.000000	95.366690
3344.000000	95.345929
3343.000000	95.324837
3342.000000	95.303205
3341.000000	95.281325
3340.000000	95.260216
3339.000000	95.240603
3338.000000	95.222002
3337.000000	95.203190
3336.000000	95.183345
3335.000000	95.162514
3334.000000	95.141464
3333.000000	95.121298
3332.000000	95.102628
3331.000000	95.084805
3330.000000	95.066550
3329.000000	95.047679
3328.000000	95.029514
3327.000000	95.013233
3326.000000	94.998597
3325.000000	94.984820
3324.000000	94.971874
3323.000000	94.959984
3322.000000	94.948434
3321.000000	94.936065
3320.000000	94.922743
3319.000000	94.909539
3318.000000	94.897436
3317.000000	94.886431
3316.000000	94.876041
3315.000000	94.866283
3314.000000	94.857882
3313.000000	94.851284
3312.000000	94.845234
3311.000000	94.836798
3310.000000	94.823853
3309.000000	94.807810
3308.000000	94.792861
3307.000000	94.781968
3306.000000	94.774397
3305.000000	94.767517
3304.000000	94.759813
3303.000000	94.751609
3302.000000	94.744153
3301.000000	94.739203
3300.000000	94.738488
3299.000000	94.741742
3298.000000	94.745483
3297.000000	94.745184
3296.000000	94.739102
3295.000000	94.729592
3294.000000	94.720894
3293.000000	94.716260
3292.000000	94.716366
3291.000000	94.719002
3290.000000	94.720360
3289.000000	94.717849
3288.000000	94.712180
3287.000000	94.706393
3286.000000	94.703067
3285.000000	94.702860
3284.000000	94.704797
3283.000000	94.706770
3282.000000	94.706358
3281.000000	94.703065
3280.000000	94.700144
3279.000000	94.702502
3278.000000	94.711865
3277.000000	94.724600
3276.000000	94.735058
3275.000000	94.740783
3274.000000	94.743928
3273.000000	94.748306
3272.000000	94.755656
3271.000000	94.764224
3270.000000	94.770369
3269.000000	94.771756
3268.000000	94.769617
3267.000000	94.768004
3266.000000	94.770558
3265.000000	94.777900
3264.000000	94.788143
3263.000000	94.799371
3262.000000	94.811014
3261.000000	94.822937
3260.000000	94.833871
3259.000000	94.841601
3258.000000	94.845290
3257.000000	94.847491
3256.000000	94.853094
3255.000000	94.865393
3254.000000	94.882950
3253.000000	94.900662
3252.000000	94.913884
3251.000000	94.921445
3250.000000	94.925374
3249.000000	94.928777
3248.000000	94.934168
3247.000000	94.942665
3246.000000	94.953573
3245.000000	94.964644
3244.000000	94.973459
3243.000000	94.979054
3242.000000	94.982273
3241.000000	94.984696
3240.000000	94.987551
3239.000000	94.991745
3238.000000	94.998429
3237.000000	95.008712
3236.000000	95.022433
3235.000000	95.037731
3234.000000	95.052442
3233.000000	95.065729
3232.000000	95.077791
3231.000000	95.088200
3230.000000	95.095606
3229.000000	95.099482
3228.000000	95.101402
3227.000000	95.103941
3226.000000	95.108640
3225.000000	95.115467
3224.000000	95.123628
3223.000000	95.132200
3222.000000	95.140542
3221.000000	95.149094
3220.000000	95.159684
3219.000000	95.173769
3218.000000	95.189804
3217.000000	95.203265
3216.000000	95.210079
3215.000000	95.210157
3214.000000	95.207289
3213.000000	95.205681
3212.000000	95.207010
3211.000000	95.210572
3210.000000	95.215317
3209.000000	95.220862
3208.000000	95.226916
3207.000000	95.233064
3206.000000	95.239753
3205.000000	95.248734
3204.000000	95.261417
3203.000000	95.276768
3202.000000	95.291841
3201.000000	95.304555
3200.000000	95.315331
3199.000000	95.325906
3198.000000	95.337337
3197.000000	95.349456
3196.000000	95.361233
3195.000000	95.371082
3194.000000	95.377793
3193.000000	95.382317
3192.000000	95.388192
3191.000000	95.398874
3190.000000	95.414511
3189.000000	95.431955
3188.000000	95.447921
3187.000000	95.461437
3186.000000	95.473584
3185.000000	95.486080
3184.000000	95.500303
3183.000000	95.516504
3182.000000	95.533074
3181.000000	95.547241
3180.000000	95.557409
3179.000000	95.564820
3178.000000	95.572606
3177.000000	95.583361
3176.000000	95.597934
3175.000000	95.615867
3174.000000	95.635869
3173.000000	95.655696
3172.000000	95.672629
3171.000000	95.685056
3170.000000	95.693564
3169.000000	95.700245
3168.000000	95.707086
3167.000000	95.715189
3166.000000	95.725126
3165.000000	95.737217
3164.000000	95.751211
3163.000000	95.766098
3162.000000	95.780699
3161.000000	95.794530
3160.000000	95.808066
3159.000000	95.822281
3158.000000	95.837762
3157.000000	95.853844
3156.000000	95.868743
3155.000000	95.881275
3154.000000	95.892836
3153.000000	95.906838
3152.000000	95.925203
3151.000000	95.945676
3150.000000	95.963546
3149.000000	95.976066
3148.000000	95.984463
3147.000000	95.991850
3146.000000	96.000386
3145.000000	96.010794
3144.000000	96.023173
3143.000000	96.036966
3142.000000	96.050684
3141.000000	96.062992
3140.000000	96.074314
3139.000000	96.086454
3138.000000	96.100218
3137.000000	96.113938
3136.000000	96.124681
3135.000000	96.130843
3134.000000	96.133574
3133.000000	96.135966
3132.000000	96.140757
3131.000000	96.148198
3130.000000	96.155995
3129.000000	96.161791
3128.000000	96.166146
3127.000000	96.172699
3126.000000	96.184588
3125.000000	96.200543
3124.000000	96.215146
3123.000000	96.223460
3122.000000	96.225239
3121.000000	96.224394
3120.000000	96.224797
3119.000000	96.227340
3118.000000	96.230616
3117.000000	96.233231
3116.000000	96.234827
3115.000000	96.235535
3114.000000	96.235132
3113.000000	96.232610
3112.000000	96.226638
3111.000000	96.217190
3110.000000	96.207146
3109.000000	96.201156
3108.000000	96.201480
3107.000000	96.205171
3106.000000	96.206508
3105.000000	96.202390
3104.000000	96.194604
3103.000000	96.186891
3102.000000	96.180876
3101.000000	96.175259
3100.000000	96.168168
3099.000000	96.159610
3098.000000	96.151805
3097.000000	96.147384
3096.000000	96.147058
3095.000000	96.148769
3094.000000	96.149323
3093.000000	96.146845
3092.000000	96.141563
3091.000000	96.134745
3090.000000	96.127494
3089.000000	96.120213
3088.000000	96.112346
3087.000000	96.102739
3086.000000	96.091147
3085.000000	96.079565
3084.000000	96.071340
3083.000000	96.068501
3082.000000	96.070156
3081.000000	96.073249
3080.000000	96.074464
3079.000000	96.071916
3078.000000	96.066211
3077.000000	96.059994
3076.000000	96.055581
3075.000000	96.052958
3074.000000	96.050750
3073.000000	96.048939
3072.000000	96.049283
3071.000000	96.052807
3070.000000	96.058224
3069.000000	96.063505
3068.000000	96.068045
3067.000000	96.072628
3066.000000	96.078176
3065.000000	96.085334
3064.000000	96.094426
3063.000000	96.104979
3062.000000	96.115811
3061.000000	96.126156
3060.000000	96.136187
3059.000000	96.146021
3058.000000	96.155225
3057.000000	96.164050
3056.000000	96.174247
3055.000000	96.187467
3054.000000	96.203209
3053.000000	96.219206
3052.000000	96.233578
3051.000000	96.246012
3050.000000	96.257401
3049.000000	96.269143
3048.000000	96.282418
3047.000000	96.297417
3046.000000	96.313368
3045.000000	96.329691
3044.000000	96.346623
3043.000000	96.364172
3042.000000	96.381022
3041.000000	96.395382
3040.000000	96.406836
3039.000000	96.416854
3038.000000	96.427660
3037.000000	96.440893
3036.000000	96.456898
3035.000000	96.474528
3034.000000	96.491727
3033.000000	96.506832
3032.000000	96.519389
3031.000000	96.529790
3030.000000	96.538652
3029.000000	96.546790
3028.000000	96.555134
3027.000000	96.564107
3026.000000	96.573511
3025.000000	96.583360
3024.000000	96.594046
3023.000000	96.605178
3022.000000	96.615131
3021.000000	96.622784
3020.000000	96.629188
3019.000000	96.636594
3018.000000	96.646147
3017.000000	96.657147
3016.000000	96.668017
3015.000000	96.677149
3014.000000	96.683324
3013.000000	96.686386
3012.000000	96.687288
3011.000000	96.686713
3010.000000	96.684166
3009.000000	96.679406
3008.000000	96.674374
3007.000000	96.672277
3006.000000	96.674553
3005.000000	96.679330
3004.000000	96.682750
3003.000000	96.681384
3002.000000	96.673981
3001.000000	96.662249
3000.000000	96.649939
2999.000000	96.640111
2998.000000	96.632798
2997.000000	96.625810
2996.000000	96.617547
2995.000000	96.608159
2994.000000	96.598124
2993.000000	96.586968
2992.000000	96.573849
2991.000000	96.558523
2990.000000	96.541269
2989.000000	96.522344
2988.000000	96.501930
2987.000000	96.480291
2986.000000	96.457790
2985.000000	96.434991
2984.000000	96.412502
2983.000000	96.390283
2982.000000	96.367335
2981.000000	96.342708
2980.000000	96.316758
2979.000000	96.290717
2978.000000	96.265146
2977.000000	96.239467
2976.000000	96.212799
2975.000000	96.184437
2974.000000	96.153548
2973.000000	96.119331
2972.000000	96.081665
2971.000000	96.040860
2970.000000	95.996957
2969.000000	95.950338
2968.000000	95.903213
2967.000000	95.859111
2966.000000	95.819981
2965.000000	95.784555
2964.000000	95.750338
2963.000000	95.716872
2962.000000	95.686327
2961.000000	95.661418
2960.000000	95.643473
2959.000000	95.632258
2958.000000	95.626781
2957.000000	95.625875
2956.000000	95.628695
2955.000000	95.635017
2954.000000	95.645078
2953.000000	95.658810
2952.000000	95.675092
2951.000000	95.691770
2950.000000	95.706071
2949.000000	95.715023
2948.000000	95.715788
2947.000000	95.706685
2946.000000	95.688641
2945.000000	95.665309
2944.000000	95.640738
2943.000000	95.616088
2942.000000	95.588835
2941.000000	95.555199
2940.000000	95.513312
2939.000000	95.464354
2938.000000	95.411638
2937.000000	95.359112
2936.000000	95.309845
2935.000000	95.265232
2934.000000	95.225695
2933.000000	95.192286
2932.000000	95.166659
2931.000000	95.148621
2930.000000	95.134393
2929.000000	95.118737
2928.000000	95.099559
2927.000000	95.080322
2926.000000	95.067750
2925.000000	95.067190
2924.000000	95.079614
2923.000000	95.102533
2922.000000	95.133307
2921.000000	95.171403
2920.000000	95.217458
2919.000000	95.270703
2918.000000	95.328404
2917.000000	95.387895
2916.000000	95.448412
2915.000000	95.510317
2914.000000	95.573188
2913.000000	95.635375
2912.000000	95.695056
2911.000000	95.751201
2910.000000	95.803589
2909.000000	95.852393
2908.000000	95.897702
2907.000000	95.939287
2906.000000	95.977196
2905.000000	96.012697
2904.000000	96.048008
2903.000000	96.084458
2902.000000	96.121312
2901.000000	96.156845
2900.000000	96.190177
2899.000000	96.221643
2898.000000	96.251911
2897.000000	96.281389
2896.000000	96.310006
2895.000000	96.336782
2894.000000	96.360026
2893.000000	96.378827
2892.000000	96.394251
2891.000000	96.408541
2890.000000	96.423236
2889.000000	96.438330
2888.000000	96.452515
2887.000000	96.463447
2886.000000	96.468561
2885.000000	96.466801
2884.000000	96.459649
2883.000000	96.449742
2882.000000	96.438794
2881.000000	96.427396
2880.000000	96.415959
2879.000000	96.404599
2878.000000	96.392464
2877.000000	96.378599
2876.000000	96.363468
2875.000000	96.348625
2874.000000	96.335293
2873.000000	96.324555
2872.000000	96.318760
2871.000000	96.320734
2870.000000	96.330693
2869.000000	96.344922
2868.000000	96.358360
2867.000000	96.367876
2866.000000	96.372876
2865.000000	96.373856
2864.000000	96.371199
2863.000000	96.364836
2862.000000	96.354295
2861.000000	96.339421
2860.000000	96.321384
2859.000000	96.302525
2858.000000	96.284957
2857.000000	96.270034
2856.000000	96.259515
2855.000000	96.256253
2854.000000	96.262938
2853.000000	96.280388
2852.000000	96.307750
2851.000000	96.344223
2850.000000	96.389892
2849.000000	96.444666
2848.000000	96.506681
2847.000000	96.571978
2846.000000	96.635909
2845.000000	96.695201
2844.000000	96.748782
2843.000000	96.797087
2842.000000	96.841065
2841.000000	96.881764
2840.000000	96.919993
2839.000000	96.955471
2838.000000	96.986766
2837.000000	97.012854
2836.000000	97.034461
2835.000000	97.053055
2834.000000	97.068993
2833.000000	97.081794
2832.000000	97.092034
2831.000000	97.101667
2830.000000	97.112229
2829.000000	97.123910
2828.000000	97.136526
2827.000000	97.150171
2826.000000	97.164347
2825.000000	97.177560
2824.000000	97.188663
2823.000000	97.198032
2822.000000	97.206950
2821.000000	97.216341
2820.000000	97.226460
2819.000000	97.237060
2818.000000	97.247281
2817.000000	97.255940
2816.000000	97.262513
2815.000000	97.267574
2814.000000	97.272106
2813.000000	97.276831
2812.000000	97.282208
2811.000000	97.288247
2810.000000	97.294089
2809.000000	97.298782
2808.000000	97.303068
2807.000000	97.309417
2806.000000	97.319310
2805.000000	97.330933
2804.000000	97.340391
2803.000000	97.345223
2802.000000	97.346305
2801.000000	97.346762
2800.000000	97.349460
2799.000000	97.355079
2798.000000	97.361840
2797.000000	97.367182
2796.000000	97.370200
2795.000000	97.372515
2794.000000	97.376604
2793.000000	97.383463
2792.000000	97.392007
2791.000000	97.400311
2790.000000	97.407263
2789.000000	97.413428
2788.000000	97.420651
2787.000000	97.430512
2786.000000	97.442746
2785.000000	97.455217
2784.000000	97.465450
2783.000000	97.472035
2782.000000	97.474977
2781.000000	97.475700
2780.000000	97.476827
2779.000000	97.480812
2778.000000	97.487807
2777.000000	97.495306
2776.000000	97.500586
2775.000000	97.503420
2774.000000	97.506012
2773.000000	97.510691
2772.000000	97.518070
2771.000000	97.526981
2770.000000	97.535484
2769.000000	97.542004
2768.000000	97.546150
2767.000000	97.548750
2766.000000	97.551066
2765.000000	97.553821
2764.000000	97.556882
2763.000000	97.559717
2762.000000	97.562330
2761.000000	97.565926
2760.000000	97.572260
2759.000000	97.581728
2758.000000	97.592193
2757.000000	97.600437
2756.000000	97.604892
2755.000000	97.606613
2754.000000	97.607792
2753.000000	97.610004
2752.000000	97.613517
2751.000000	97.617218
2750.000000	97.619209
2749.000000	97.618694
2748.000000	97.617624
2747.000000	97.619178
2746.000000	97.624190
2745.000000	97.630397
2744.000000	97.635912
2743.000000	97.641849
2742.000000	97.650115
2741.000000	97.659651
2740.000000	97.666772
2739.000000	97.669056
2738.000000	97.667555
2737.000000	97.665342
2736.000000	97.665184
2735.000000	97.668629
2734.000000	97.675724
2733.000000	97.684743
2732.000000	97.692974
2731.000000	97.698628
2730.000000	97.701971
2729.000000	97.704523
2728.000000	97.707531
2727.000000	97.711330
2726.000000	97.715703
2725.000000	97.720445
2724.000000	97.725563
2723.000000	97.730896
2722.000000	97.735504
2721.000000	97.737993
2720.000000	97.738118
2719.000000	97.737835
2718.000000	97.739892
2717.000000	97.745067
2716.000000	97.751294
2715.000000	97.755808
2714.000000	97.757780
2713.000000	97.758694
2712.000000	97.760613
2711.000000	97.764518
2710.000000	97.769987
2709.000000	97.775857
2708.000000	97.781053
2707.000000	97.785173
2706.000000	97.788667
2705.000000	97.792377
2704.000000	97.796510
2703.000000	97.799982
2702.000000	97.801178
2701.000000	97.799854
2700.000000	97.798084
2699.000000	97.798623
2698.000000	97.802197
2697.000000	97.806879
2696.000000	97.810340
2695.000000	97.812131
2694.000000	97.813359
2693.000000	97.814768
2692.000000	97.815948
2691.000000	97.816210
2690.000000	97.815449
2689.000000	97.814088
2688.000000	97.812920
2687.000000	97.813249
2686.000000	97.816454
2685.000000	97.822660
2684.000000	97.829974
2683.000000	97.835669
2682.000000	97.838430
2681.000000	97.839328
2680.000000	97.840482
2679.000000	97.842833
2678.000000	97.845342
2677.000000	97.846246
2676.000000	97.844882
2675.000000	97.842220
2674.000000	97.839866
2673.000000	97.838862
2672.000000	97.839437
2671.000000	97.841454
2670.000000	97.844579
2669.000000	97.847965
2668.000000	97.850203
2667.000000	97.850117
2666.000000	97.847735
2665.000000	97.844322
2664.000000	97.841397
2663.000000	97.839860
2662.000000	97.839984
2661.000000	97.841610
2660.000000	97.843874
2659.000000	97.845141
2658.000000	97.844165
2657.000000	97.841578
2656.000000	97.839758
2655.000000	97.840949
2654.000000	97.845826
2653.000000	97.853698
2652.000000	97.862947
2651.000000	97.870844
2650.000000	97.874327
2649.000000	97.872711
2648.000000	97.869509
2647.000000	97.870104
2646.000000	97.876939
2645.000000	97.887518
2644.000000	97.897191
2643.000000	97.903071
2642.000000	97.905086
2641.000000	97.904593
2640.000000	97.903349
2639.000000	97.903614
2638.000000	97.907812
2637.000000	97.916887
2636.000000	97.928907
2635.000000	97.939908
2634.000000	97.946809
2633.000000	97.949650
2632.000000	97.951003
2631.000000	97.953494
2630.000000	97.958388
2629.000000	97.966071
2628.000000	97.976500
2627.000000	97.988591
2626.000000	98.000170
2625.000000	98.009498
2624.000000	98.016368
2623.000000	98.021090
2622.000000	98.023323
2621.000000	98.023102
2620.000000	98.022310
2619.000000	98.023612
2618.000000	98.027919
2617.000000	98.033963
2616.000000	98.040160
2615.000000	98.045760
2614.000000	98.050583
2613.000000	98.055163
2612.000000	98.061012
2611.000000	98.068879
2610.000000	98.076442
2609.000000	98.079628
2608.000000	98.077187
2607.000000	98.072703
2606.000000	98.071020
2605.000000	98.073720
2604.000000	98.078979
2603.000000	98.084562
2602.000000	98.089431
2601.000000	98.092847
2600.000000	98.093718
2599.000000	98.091728
2598.000000	98.088931
2597.000000	98.089584
2596.000000	98.097361
2595.000000	98.111681
2594.000000	98.126804
2593.000000	98.135760
2592.000000	98.136259
2591.000000	98.132627
2590.000000	98.131753
2589.000000	98.137283
2588.000000	98.147341
2587.000000	98.156918
2586.000000	98.162025
2585.000000	98.162007
2584.000000	98.158591
2583.000000	98.153119
2582.000000	98.145450
2581.000000	98.136016
2580.000000	98.127870
2579.000000	98.125101
2578.000000	98.129027
2577.000000	98.137152
2576.000000	98.145900
2575.000000	98.153370
2574.000000	98.159255
2573.000000	98.163497
2572.000000	98.166142
2571.000000	98.167941
2570.000000	98.170401
2569.000000	98.175081
2568.000000	98.182608
2567.000000	98.191812
2566.000000	98.200049
2565.000000	98.205146
2564.000000	98.207233
2563.000000	98.208256
2562.000000	98.209918
2561.000000	98.212553
2560.000000	98.215346
2559.000000	98.216870
2558.000000	98.216087
2557.000000	98.213923
2556.000000	98.213212
2555.000000	98.215699
2554.000000	98.219785
2553.000000	98.222845
2552.000000	98.224995
2551.000000	98.228276
2550.000000	98.232417
2549.000000	98.234111
2548.000000	98.231146
2547.000000	98.224971
2546.000000	98.218490
2545.000000	98.213676
2544.000000	98.212475
2543.000000	98.217311
2542.000000	98.228128
2541.000000	98.240128
2540.000000	98.246838
2539.000000	98.245591
2538.000000	98.239039
2537.000000	98.232234
2536.000000	98.229459
2535.000000	98.232837
2534.000000	98.241517
2533.000000	98.251458
2532.000000	98.257272
2531.000000	98.255719
2530.000000	98.247937
2529.000000	98.238558
2528.000000	98.232459
2527.000000	98.231439
2526.000000	98.233193
2525.000000	98.233699
2524.000000	98.231108
2523.000000	98.227544
2522.000000	98.227248
2521.000000	98.233248
2520.000000	98.245357
2519.000000	98.260287
2518.000000	98.272975
2517.000000	98.278641
2516.000000	98.275139
2515.000000	98.264542
2514.000000	98.252734
2513.000000	98.246625
2512.000000	98.249905
2511.000000	98.260072
2510.000000	98.270090
2509.000000	98.274210
2508.000000	98.272638
2507.000000	98.270215
2506.000000	98.271093
2505.000000	98.275750
2504.000000	98.282570
2503.000000	98.290454
2502.000000	98.299006
2501.000000	98.307237
2500.000000	98.313257
2499.000000	98.315358
2498.000000	98.313443
2497.000000	98.309682
2496.000000	98.307210
2495.000000	98.307230
2494.000000	98.307343
2493.000000	98.304010
2492.000000	98.297013
2491.000000	98.290444
2490.000000	98.288783
2489.000000	98.292740
2488.000000	98.299630
2487.000000	98.306864
2486.000000	98.313689
2485.000000	98.319571
2484.000000	98.322518
2483.000000	98.320733
2482.000000	98.315973
2481.000000	98.313825
2480.000000	98.319071
2479.000000	98.330588
2478.000000	98.341599
2477.000000	98.345338
2476.000000	98.340047
2475.000000	98.329235
2474.000000	98.318681
2473.000000	98.313445
2472.000000	98.315742
2471.000000	98.323766
2470.000000	98.332983
2469.000000	98.339703
2468.000000	98.343491
2467.000000	98.346020
2466.000000	98.348458
2465.000000	98.350541
2464.000000	98.351415
2463.000000	98.350633
2462.000000	98.348872
2461.000000	98.347933
2460.000000	98.348990
2459.000000	98.350571
2458.000000	98.349645
2457.000000	98.345258
2456.000000	98.339725
2455.000000	98.335871
2454.000000	98.335121
2453.000000	98.339155
2452.000000	98.350255
2451.000000	98.367390
2450.000000	98.383907
2449.000000	98.392497
2448.000000	98.392199
2447.000000	98.388529
2446.000000	98.387522
2445.000000	98.391649
2444.000000	98.399997
2443.000000	98.408733
2442.000000	98.411786
2441.000000	98.404674
2440.000000	98.389140
2439.000000	98.372246
2438.000000	98.360359
2437.000000	98.355283
2436.000000	98.355691
2435.000000	98.359546
2434.000000	98.364442
2433.000000	98.368200
2432.000000	98.370930
2431.000000	98.375452
2430.000000	98.384323
2429.000000	98.396497
2428.000000	98.407314
2427.000000	98.411949
2426.000000	98.409529
2425.000000	98.404311
2424.000000	98.401965
2423.000000	98.403986
2422.000000	98.406701
2421.000000	98.406526
2420.000000	98.404154
2419.000000	98.402010
2418.000000	98.399817
2417.000000	98.395885
2416.000000	98.391450
2415.000000	98.389768
2414.000000	98.390792
2413.000000	98.390562
2412.000000	98.387347
2411.000000	98.385452
2410.000000	98.390890
2409.000000	98.404720
2408.000000	98.422063
2407.000000	98.436323
2406.000000	98.442965
2405.000000	98.440605
2404.000000	98.431212
2403.000000	98.419860
2402.000000	98.412637
2401.000000	98.412866
2400.000000	98.418434
2399.000000	98.423441
2398.000000	98.423537
2397.000000	98.419676
2396.000000	98.415879
2395.000000	98.414080
2394.000000	98.413036
2393.000000	98.412120
2392.000000	98.413112
2391.000000	98.416826
2390.000000	98.420803
2389.000000	98.422776
2388.000000	98.424468
2387.000000	98.429240
2386.000000	98.437361
2385.000000	98.446336
2384.000000	98.454823
2383.000000	98.463264
2382.000000	98.471017
2381.000000	98.476079
2380.000000	98.477700
2379.000000	98.476699
2378.000000	98.473195
2377.000000	98.467059
2376.000000	98.461048
2375.000000	98.459725
2374.000000	98.463780
2373.000000	98.468897
2372.000000	98.472499
2371.000000	98.477994
2370.000000	98.489112
2369.000000	98.502543
2368.000000	98.509878
2367.000000	98.506374
2366.000000	98.494663
2365.000000	98.480735
2364.000000	98.469393
2363.000000	98.462768
2362.000000	98.459385
2361.000000	98.456618
2360.000000	98.458028
2359.000000	98.468541
2358.000000	98.486788
2357.000000	98.504660
2356.000000	98.510219
2355.000000	98.503426
2354.000000	98.490924
2353.000000	98.477386
2352.000000	98.466031
2351.000000	98.462645
2350.000000	98.470344
2349.000000	98.476034
2348.000000	98.463586
2347.000000	98.427651
2346.000000	98.380980
2345.000000	98.350482
2344.000000	98.353240
2343.000000	98.381885
2342.000000	98.410948
2341.000000	98.429190
2340.000000	98.441236
2339.000000	98.448754
2338.000000	98.449727
2337.000000	98.444759
2336.000000	98.440760
2335.000000	98.442631
2334.000000	98.449326
2333.000000	98.454232
2332.000000	98.454131
2331.000000	98.450509
2330.000000	98.450557
2329.000000	98.453469
2328.000000	98.453882
2327.000000	98.440808
2326.000000	98.409180
2325.000000	98.368714
2324.000000	98.338903
2323.000000	98.337968
2322.000000	98.363056
2321.000000	98.396236
2320.000000	98.421161
2319.000000	98.433486
2318.000000	98.438841
2317.000000	98.441030
2316.000000	98.442853
2315.000000	98.443176
2314.000000	98.441639
2313.000000	98.439424
2312.000000	98.442335
2311.000000	98.454152
2310.000000	98.471365
2309.000000	98.484856
2308.000000	98.490032
2307.000000	98.490028
2306.000000	98.488340
2305.000000	98.483661
2304.000000	98.472715
2303.000000	98.456752
2302.000000	98.440556
2301.000000	98.427430
2300.000000	98.418562
2299.000000	98.414094
2298.000000	98.415099
2297.000000	98.420586
2296.000000	98.426813
2295.000000	98.427614
2294.000000	98.419346
2293.000000	98.405103
2292.000000	98.393342
2291.000000	98.390301
2290.000000	98.392671
2289.000000	98.391601
2288.000000	98.381799
2287.000000	98.366358
2286.000000	98.351084
2285.000000	98.339810
2284.000000	98.334570
2283.000000	98.337542
2282.000000	98.348813
2281.000000	98.364578
2280.000000	98.378841
2279.000000	98.386573
2278.000000	98.385457
2277.000000	98.377444
2276.000000	98.369793
2275.000000	98.370491
2274.000000	98.381465
2273.000000	98.397045
2272.000000	98.411325
2271.000000	98.424433
2270.000000	98.440281
2269.000000	98.459868
2268.000000	98.478496
2267.000000	98.489633
2266.000000	98.491076
2265.000000	98.487620
2264.000000	98.486932
2263.000000	98.491269
2262.000000	98.494806
2261.000000	98.490296
2260.000000	98.476013
2259.000000	98.455763
2258.000000	98.435054
2257.000000	98.421188
2256.000000	98.421925
2255.000000	98.438049
2254.000000	98.459264
2253.000000	98.472617
2252.000000	98.474562
2251.000000	98.470054
2250.000000	98.463973
2249.000000	98.459011
2248.000000	98.458683
2247.000000	98.463883
2246.000000	98.468457
2245.000000	98.466578
2244.000000	98.463540
2243.000000	98.470553
2242.000000	98.488428
2241.000000	98.505230
2240.000000	98.511063
2239.000000	98.507169
2238.000000	98.499078
2237.000000	98.490205
2236.000000	98.484856
2235.000000	98.488946
2234.000000	98.503224
2233.000000	98.521341
2232.000000	98.536701
2231.000000	98.545250
2230.000000	98.541148
2229.000000	98.519447
2228.000000	98.487057
2227.000000	98.462894
2226.000000	98.462184
2225.000000	98.484826
2224.000000	98.519684
2223.000000	98.553002
2222.000000	98.571961
2221.000000	98.570695
2220.000000	98.558437
2219.000000	98.553270
2218.000000	98.562425
2217.000000	98.575226
2216.000000	98.579132
2215.000000	98.574835
2214.000000	98.570614
2213.000000	98.570017
2212.000000	98.571569
2211.000000	98.574187
2210.000000	98.575867
2209.000000	98.571726
2208.000000	98.559601
2207.000000	98.544189
2206.000000	98.531266
2205.000000	98.521283
2204.000000	98.511510
2203.000000	98.500062
2202.000000	98.485255
2201.000000	98.466381
2200.000000	98.448612
2199.000000	98.442019
2198.000000	98.451957
2197.000000	98.474215
2196.000000	98.501921
2195.000000	98.532184
2194.000000	98.562652
2193.000000	98.586896
2192.000000	98.597905
2191.000000	98.592849
2190.000000	98.572400
2189.000000	98.541495
2188.000000	98.513198
2187.000000	98.504387
2186.000000	98.522020
2185.000000	98.556817
2184.000000	98.594308
2183.000000	98.628986
2182.000000	98.662645
2181.000000	98.691321
2180.000000	98.701408
2179.000000	98.682242
2178.000000	98.641758
2177.000000	98.606877
2176.000000	98.601683
2175.000000	98.621935
2174.000000	98.637357
2173.000000	98.624217
2172.000000	98.589614
2171.000000	98.558868
2170.000000	98.548189
2169.000000	98.555855
2168.000000	98.570032
2167.000000	98.576012
2166.000000	98.564399
2165.000000	98.544805
2164.000000	98.544416
2163.000000	98.577802
2162.000000	98.627437
2161.000000	98.672721
2160.000000	98.729389
2159.000000	98.829606
2158.000000	98.957668
2157.000000	99.047400
2156.000000	99.056383
2155.000000	99.003252
2154.000000	98.931403
2153.000000	98.871221
2152.000000	98.834176
2151.000000	98.816969
2150.000000	98.807043
2149.000000	98.796377
2148.000000	98.791845
2147.000000	98.802917
2146.000000	98.821541
2145.000000	98.826510
2144.000000	98.807925
2143.000000	98.775640
2142.000000	98.744217
2141.000000	98.721403
2140.000000	98.710103
2139.000000	98.710125
2138.000000	98.716704
2137.000000	98.725282
2136.000000	98.737844
2135.000000	98.757254
2134.000000	98.777144
2133.000000	98.786262
2132.000000	98.780889
2131.000000	98.764420
2130.000000	98.738087
2129.000000	98.702681
2128.000000	98.667325
2127.000000	98.645615
2126.000000	98.641472
2125.000000	98.645324
2124.000000	98.644836
2123.000000	98.633776
2122.000000	98.611961
2121.000000	98.585069
2120.000000	98.564893
2119.000000	98.560876
2118.000000	98.568283
2117.000000	98.570683
2116.000000	98.556887
2115.000000	98.531145
2114.000000	98.505549
2113.000000	98.488420
2112.000000	98.481664
2111.000000	98.483451
2110.000000	98.489600
2109.000000	98.495166
2108.000000	98.497787
2107.000000	98.498619
2106.000000	98.500117
2105.000000	98.504885
2104.000000	98.514761
2103.000000	98.526983
2102.000000	98.532869
2101.000000	98.525297
2100.000000	98.507208
2099.000000	98.489573
2098.000000	98.483330
2097.000000	98.496172
2096.000000	98.530157
2095.000000	98.574471
2094.000000	98.605993
2093.000000	98.608125
2092.000000	98.588639
2091.000000	98.570117
2090.000000	98.564749
2089.000000	98.566292
2088.000000	98.564306
2087.000000	98.556701
2086.000000	98.547260
2085.000000	98.540340
2084.000000	98.540129
2083.000000	98.547739
2082.000000	98.557391
2081.000000	98.561572
2080.000000	98.560839
2079.000000	98.562380
2078.000000	98.568982
2077.000000	98.576757
2076.000000	98.583053
2075.000000	98.588784
2074.000000	98.593609
2073.000000	98.596866
2072.000000	98.602799
2071.000000	98.615142
2070.000000	98.627482
2069.000000	98.629997
2068.000000	98.625553
2067.000000	98.627614
2066.000000	98.640826
2065.000000	98.654004
2064.000000	98.654471
2063.000000	98.641100
2062.000000	98.622598
2061.000000	98.612332
2060.000000	98.622044
2059.000000	98.648649
2058.000000	98.671232
2057.000000	98.674902
2056.000000	98.673188
2055.000000	98.688355
2054.000000	98.711621
2053.000000	98.707798
2052.000000	98.665045
2051.000000	98.616125
2050.000000	98.601198
2049.000000	98.625776
2048.000000	98.664716
2047.000000	98.694819
2046.000000	98.707425
2045.000000	98.700187
2044.000000	98.677201
2043.000000	98.651414
2042.000000	98.633719
2041.000000	98.625200
2040.000000	98.625529
2039.000000	98.637871
2038.000000	98.658876
2037.000000	98.676320
2036.000000	98.685185
2035.000000	98.695006
2034.000000	98.714169
2033.000000	98.740680
2032.000000	98.774828
2031.000000	98.822512
2030.000000	98.875552
2029.000000	98.907112
2028.000000	98.902457
2027.000000	98.881264
2026.000000	98.876843
2025.000000	98.901524
2024.000000	98.938058
2023.000000	98.956801
2022.000000	98.939547
2021.000000	98.898030
2020.000000	98.868849
2019.000000	98.877741
2018.000000	98.910105
2017.000000	98.927840
2016.000000	98.913132
2015.000000	98.879989
2014.000000	98.847986
2013.000000	98.829566
2012.000000	98.837335
2011.000000	98.877494
2010.000000	98.935228
2009.000000	98.984565
2008.000000	99.013444
2007.000000	99.022615
2006.000000	99.005352
2005.000000	98.955545
2004.000000	98.893486
2003.000000	98.853109
2002.000000	98.843385
2001.000000	98.843801
2000.000000	98.835012
1999.000000	98.817535
1998.000000	98.799593
1997.000000	98.788360
1996.000000	98.796102
1995.000000	98.831351
1994.000000	98.877979
1993.000000	98.900085
1992.000000	98.880456
1991.000000	98.840160
1990.000000	98.807357
1989.000000	98.785624
1988.000000	98.763937
1987.000000	98.739049
1986.000000	98.718187
1985.000000	98.709871
1984.000000	98.716075
1983.000000	98.725081
1982.000000	98.714021
1981.000000	98.673251
1980.000000	98.628252
1979.000000	98.621866
1978.000000	98.669256
1977.000000	98.744170
1976.000000	98.812948
1975.000000	98.861833
1974.000000	98.889132
1973.000000	98.898806
1972.000000	98.905926
1971.000000	98.922739
1970.000000	98.939193
1969.000000	98.937042
1968.000000	98.919316
1967.000000	98.904263
1966.000000	98.895601
1965.000000	98.885521
1964.000000	98.880629
1963.000000	98.896154
1962.000000	98.929105
1961.000000	98.961600
1960.000000	98.988326
1959.000000	99.015488
1958.000000	99.034743
1957.000000	99.027794
1956.000000	98.996633
1955.000000	98.963124
1954.000000	98.938576
1953.000000	98.916551
1952.000000	98.896601
1951.000000	98.890400
1950.000000	98.901437
1949.000000	98.917630
1948.000000	98.928147
1947.000000	98.932674
1946.000000	98.929500
1945.000000	98.912622
1944.000000	98.886785
1943.000000	98.870118
1942.000000	98.872430
1941.000000	98.883640
1940.000000	98.892429
1939.000000	98.899336
1938.000000	98.906543
1937.000000	98.910494
1936.000000	98.908700
1935.000000	98.903909
1934.000000	98.897715
1933.000000	98.888700
1932.000000	98.878516
1931.000000	98.869680
1930.000000	98.859996
1929.000000	98.846476
1928.000000	98.833956
1927.000000	98.833032
1926.000000	98.844803
1925.000000	98.859549
1924.000000	98.867444
1923.000000	98.866553
1922.000000	98.861542
1921.000000	98.856953
1920.000000	98.854087
1919.000000	98.850133
1918.000000	98.841227
1917.000000	98.829366
1916.000000	98.822492
1915.000000	98.822964
1914.000000	98.822593
1913.000000	98.815218
1912.000000	98.807629
1911.000000	98.809480
1910.000000	98.819124
1909.000000	98.827277
1908.000000	98.830460
1907.000000	98.830938
1906.000000	98.826230
1905.000000	98.816387
1904.000000	98.811429
1903.000000	98.819683
1902.000000	98.834667
1901.000000	98.842298
1900.000000	98.842307
1899.000000	98.847925
1898.000000	98.863524
1897.000000	98.879755
1896.000000	98.889077
1895.000000	98.893421
1894.000000	98.895980
1893.000000	98.896052
1892.000000	98.894731
1891.000000	98.894328
1890.000000	98.891537
1889.000000	98.881620
1888.000000	98.870322
1887.000000	98.868015
1886.000000	98.873941
1885.000000	98.879526
1884.000000	98.883192
1883.000000	98.889594
1882.000000	98.896204
1881.000000	98.893845
1880.000000	98.883617
1879.000000	98.878949
1878.000000	98.885263
1877.000000	98.893589
1876.000000	98.896987
1875.000000	98.898594
1874.000000	98.902815
1873.000000	98.909575
1872.000000	98.918689
1871.000000	98.930754
1870.000000	98.940717
1869.000000	98.939887
1868.000000	98.930101
1867.000000	98.923084
1866.000000	98.920607
1865.000000	98.913235
1864.000000	98.898542
1863.000000	98.885093
1862.000000	98.878944
1861.000000	98.877525
1860.000000	98.879074
1859.000000	98.886747
1858.000000	98.899168
1857.000000	98.908081
1856.000000	98.909973
1855.000000	98.909490
1854.000000	98.909080
1853.000000	98.906374
1852.000000	98.902858
1851.000000	98.906360
1850.000000	98.914958
1849.000000	98.918127
1848.000000	98.917171
1847.000000	98.924983
1846.000000	98.944331
1845.000000	98.960100
1844.000000	98.960878
1843.000000	98.953993
1842.000000	98.950702
1841.000000	98.948691
1840.000000	98.940448
1839.000000	98.928109
1838.000000	98.918229
1837.000000	98.911497
1836.000000	98.903807
1835.000000	98.895665
1834.000000	98.891952
1833.000000	98.895368
1832.000000	98.907237
1831.000000	98.928393
1830.000000	98.949612
1829.000000	98.956945
1828.000000	98.952997
1827.000000	98.950796
1826.000000	98.952829
1825.000000	98.951394
1824.000000	98.944006
1823.000000	98.937084
1822.000000	98.933091
1821.000000	98.928078
1820.000000	98.924040
1819.000000	98.928221
1818.000000	98.939180
1817.000000	98.947724
1816.000000	98.949961
1815.000000	98.951386
1814.000000	98.954997
1813.000000	98.954615
1812.000000	98.948537
1811.000000	98.943513
1810.000000	98.943367
1809.000000	98.942491
1808.000000	98.934502
1807.000000	98.922964
1806.000000	98.914644
1805.000000	98.909957
1804.000000	98.906555
1803.000000	98.905545
1802.000000	98.908933
1801.000000	98.913295
1800.000000	98.918096
1799.000000	98.925086
1798.000000	98.930093
1797.000000	98.926464
1796.000000	98.916799
1795.000000	98.913610
1794.000000	98.923510
1793.000000	98.938761
1792.000000	98.949061
1791.000000	98.952595
1790.000000	98.953457
1789.000000	98.952225
1788.000000	98.948026
1787.000000	98.944437
1786.000000	98.943198
1785.000000	98.939416
1784.000000	98.931864
1783.000000	98.930676
1782.000000	98.942511
1781.000000	98.955768
1780.000000	98.961946
1779.000000	98.965361
1778.000000	98.971474
1777.000000	98.978811
1776.000000	98.985822
1775.000000	98.996487
1774.000000	99.006215
1773.000000	99.002967
1772.000000	98.990265
1771.000000	98.987642
1770.000000	98.995868
1769.000000	98.991133
1768.000000	98.960118
1767.000000	98.920327
1766.000000	98.897057
1765.000000	98.890272
1764.000000	98.881578
1763.000000	98.860126
1762.000000	98.828555
1761.000000	98.788250
1760.000000	98.740873
1759.000000	98.687077
1758.000000	98.618554
1757.000000	98.521032
1756.000000	98.402372
1755.000000	98.294041
1754.000000	98.202569
1753.000000	98.098744
1752.000000	97.959546
1751.000000	97.803944
1750.000000	97.669127
1749.000000	97.564703
1748.000000	97.476847
1747.000000	97.403053
1746.000000	97.345562
1745.000000	97.297893
1744.000000	97.262248
1743.000000	97.251109
1742.000000	97.272090
1741.000000	97.318658
1740.000000	97.380940
1739.000000	97.453675
1738.000000	97.532342
1737.000000	97.611284
1736.000000	97.683928
1735.000000	97.764000
1734.000000	97.871178
1733.000000	97.982249
1732.000000	98.087824
1731.000000	98.208329
1730.000000	98.334754
1729.000000	98.440074
1728.000000	98.517365
1727.000000	98.581515
1726.000000	98.639977
1725.000000	98.687840
1724.000000	98.727648
1723.000000	98.766118
1722.000000	98.806595
1721.000000	98.845951
1720.000000	98.876982
1719.000000	98.896214
1718.000000	98.904217
1717.000000	98.898103
1716.000000	98.884590
1715.000000	98.879457
1714.000000	98.873483
1713.000000	98.843702
1712.000000	98.788501
1711.000000	98.726877
1710.000000	98.670481
1709.000000	98.612716
1708.000000	98.549183
1707.000000	98.483845
1706.000000	98.410590
1705.000000	98.324283
1704.000000	98.243386
1703.000000	98.183470
1702.000000	98.115520
1701.000000	97.981989
1700.000000	97.789652
1699.000000	97.631001
1698.000000	97.533160
1697.000000	97.416663
1696.000000	97.218013
1695.000000	96.989507
1694.000000	96.828650
1693.000000	96.742250
1692.000000	96.671631
1691.000000	96.574370
1690.000000	96.453456
1689.000000	96.332602
1688.000000	96.227385
1687.000000	96.133681
1686.000000	96.020668
1685.000000	95.850061
1684.000000	95.633195
1683.000000	95.458743
1682.000000	95.351771
1681.000000	95.239591
1680.000000	95.081897
1679.000000	94.907721
1678.000000	94.754513
1677.000000	94.607496
1676.000000	94.422743
1675.000000	94.202194
1674.000000	93.998854
1673.000000	93.834981
1672.000000	93.686276
1671.000000	93.518379
1670.000000	93.315002
1669.000000	93.084651
1668.000000	92.856741
1667.000000	92.658553
1666.000000	92.488706
1665.000000	92.321183
1664.000000	92.130558
1663.000000	91.921330
1662.000000	91.725685
1661.000000	91.555307
1660.000000	91.399321
1659.000000	91.252751
1658.000000	91.119952
1657.000000	91.006991
1656.000000	90.910134
1655.000000	90.808474
1654.000000	90.678706
1653.000000	90.526291
1652.000000	90.390533
1651.000000	90.314553
1650.000000	90.308105
1649.000000	90.317088
1648.000000	90.273339
1647.000000	90.180942
1646.000000	90.091139
1645.000000	90.019423
1644.000000	89.954986
1643.000000	89.901506
1642.000000	89.859060
1641.000000	89.813231
1640.000000	89.764702
1639.000000	89.730812
1638.000000	89.714375
1637.000000	89.694469
1636.000000	89.650736
1635.000000	89.596891
1634.000000	89.554869
1633.000000	89.526523
1632.000000	89.503811
1631.000000	89.484134
1630.000000	89.477411
1629.000000	89.496676
1628.000000	89.544085
1627.000000	89.611778
1626.000000	89.693023
1625.000000	89.786962
1624.000000	89.901773
1623.000000	90.040733
1622.000000	90.185369
1621.000000	90.313444
1620.000000	90.425170
1619.000000	90.532831
1618.000000	90.657242
1617.000000	90.826241
1616.000000	91.029877
1615.000000	91.226815
1614.000000	91.404035
1613.000000	91.569140
1612.000000	91.727336
1611.000000	91.885324
1610.000000	92.047843
1609.000000	92.211978
1608.000000	92.372190
1607.000000	92.523534
1606.000000	92.664003
1605.000000	92.795758
1604.000000	92.925643
1603.000000	93.052389
1602.000000	93.165075
1601.000000	93.260176
1600.000000	93.344058
1599.000000	93.421161
1598.000000	93.491013
1597.000000	93.556271
1596.000000	93.621270
1595.000000	93.681511
1594.000000	93.728262
1593.000000	93.762028
1592.000000	93.790392
1591.000000	93.814004
1590.000000	93.826798
1589.000000	93.828331
1588.000000	93.824281
1587.000000	93.814939
1586.000000	93.796132
1585.000000	93.769336
1584.000000	93.740006
1583.000000	93.708620
1582.000000	93.666006
1581.000000	93.613865
1580.000000	93.566850
1579.000000	93.525623
1578.000000	93.464067
1577.000000	93.361267
1576.000000	93.234073
1575.000000	93.121612
1574.000000	93.045231
1573.000000	92.993370
1572.000000	92.934786
1571.000000	92.840372
1570.000000	92.705904
1569.000000	92.559718
1568.000000	92.431705
1567.000000	92.317462
1566.000000	92.190759
1565.000000	92.042685
1564.000000	91.892560
1563.000000	91.766052
1562.000000	91.656423
1561.000000	91.537417
1560.000000	91.388311
1559.000000	91.213015
1558.000000	91.062583
1557.000000	90.960561
1556.000000	90.864887
1555.000000	90.749204
1554.000000	90.611573
1553.000000	90.477948
1552.000000	90.377427
1551.000000	90.301920
1550.000000	90.228236
1549.000000	90.155063
1548.000000	90.092785
1547.000000	90.043078
1546.000000	89.998061
1545.000000	89.958650
1544.000000	89.935581
1543.000000	89.931437
1542.000000	89.932415
1541.000000	89.931757
1540.000000	89.936876
1539.000000	89.940431
1538.000000	89.931336
1537.000000	89.932779
1536.000000	89.959895
1535.000000	90.002735
1534.000000	90.061033
1533.000000	90.131791
1532.000000	90.193704
1531.000000	90.235762
1530.000000	90.269040
1529.000000	90.311440
1528.000000	90.373351
1527.000000	90.454991
1526.000000	90.546714
1525.000000	90.632906
1524.000000	90.707766
1523.000000	90.777956
1522.000000	90.859122
1521.000000	90.952316
1520.000000	91.038785
1519.000000	91.125758
1518.000000	91.226751
1517.000000	91.333621
1516.000000	91.427748
1515.000000	91.504114
1514.000000	91.576924
1513.000000	91.656612
1512.000000	91.747941
1511.000000	91.852407
1510.000000	91.969238
1509.000000	92.092543
1508.000000	92.233379
1507.000000	92.422479
1506.000000	92.624015
1505.000000	92.759798
1504.000000	92.843450
1503.000000	92.931503
1502.000000	93.037143
1501.000000	93.149382
1500.000000	93.266964
1499.000000	93.395917
1498.000000	93.535240
1497.000000	93.672593
1496.000000	93.790464
1495.000000	93.889067
1494.000000	93.989098
1493.000000	94.096801
1492.000000	94.205409
1491.000000	94.318051
1490.000000	94.439369
1489.000000	94.548097
1488.000000	94.621933
1487.000000	94.664940
1486.000000	94.691056
1485.000000	94.702845
1484.000000	94.700621
1483.000000	94.694777
1482.000000	94.687521
1481.000000	94.671768
1480.000000	94.642818
1479.000000	94.606495
1478.000000	94.565434
1477.000000	94.515738
1476.000000	94.457534
1475.000000	94.396178
1474.000000	94.325397
1473.000000	94.221678
1472.000000	94.085765
1471.000000	93.950988
1470.000000	93.832889
1469.000000	93.720848
1468.000000	93.608798
1467.000000	93.502943
1466.000000	93.408323
1465.000000	93.315497
1464.000000	93.219376
1463.000000	93.127190
1462.000000	93.042950
1461.000000	92.966249
1460.000000	92.893766
1459.000000	92.817440
1458.000000	92.715012
1457.000000	92.569751
1456.000000	92.416772
1455.000000	92.310282
1454.000000	92.254156
1453.000000	92.216794
1452.000000	92.179159
1451.000000	92.150443
1450.000000	92.142090
1449.000000	92.149490
1448.000000	92.165218
1447.000000	92.188515
1446.000000	92.217287
1445.000000	92.243328
1444.000000	92.269860
1443.000000	92.302578
1442.000000	92.341797
1441.000000	92.384920
1440.000000	92.431201
1439.000000	92.481699
1438.000000	92.540433
1437.000000	92.617695
1436.000000	92.707770
1435.000000	92.791213
1434.000000	92.864146
1433.000000	92.932363
1432.000000	92.997434
1431.000000	93.061132
1430.000000	93.120844
1429.000000	93.166832
1428.000000	93.191637
1427.000000	93.202349
1426.000000	93.213046
1425.000000	93.226658
1424.000000	93.240681
1423.000000	93.251248
1422.000000	93.255804
1421.000000	93.252753
1420.000000	93.247310
1419.000000	93.249546
1418.000000	93.256708
1417.000000	93.260204
1416.000000	93.254566
1415.000000	93.238893
1414.000000	93.218909
1413.000000	93.200750
1412.000000	93.183527
1411.000000	93.161332
1410.000000	93.131253
1409.000000	93.095921
1408.000000	93.058596
1407.000000	93.022114
1406.000000	92.989436
1405.000000	92.958463
1404.000000	92.928140
1403.000000	92.900666
1402.000000	92.878514
1401.000000	92.862626
1400.000000	92.854859
1399.000000	92.858553
1398.000000	92.870778
1397.000000	92.884113
1396.000000	92.895110
1395.000000	92.907040
1394.000000	92.921098
1393.000000	92.933467
1392.000000	92.946019
1391.000000	92.963639
1390.000000	92.987113
1389.000000	93.014115
1388.000000	93.044381
1387.000000	93.078217
1386.000000	93.113518
1385.000000	93.147973
1384.000000	93.182636
1383.000000	93.219580
1382.000000	93.258798
1381.000000	93.298918
1380.000000	93.339579
1379.000000	93.384361
1378.000000	93.437445
1377.000000	93.501102
1376.000000	93.576855
1375.000000	93.664662
1374.000000	93.756227
1373.000000	93.837447
1372.000000	93.904366
1371.000000	93.965354
1370.000000	94.030248
1369.000000	94.101687
1368.000000	94.177948
1367.000000	94.255516
1366.000000	94.331565
1365.000000	94.405656
1364.000000	94.478879
1363.000000	94.549737
1362.000000	94.612133
1361.000000	94.661183
1360.000000	94.698206
1359.000000	94.727243
1358.000000	94.749799
1357.000000	94.764430
1356.000000	94.770502
1355.000000	94.769377
1354.000000	94.761948
1353.000000	94.746819
1352.000000	94.721736
1351.000000	94.686036
1350.000000	94.642416
1349.000000	94.593765
1348.000000	94.543030
1347.000000	94.490561
1346.000000	94.434479
1345.000000	94.373205
1344.000000	94.308981
1343.000000	94.246678
1342.000000	94.189478
1341.000000	94.137267
1340.000000	94.090059
1339.000000	94.050595
1338.000000	94.021850
1337.000000	94.004073
1336.000000	93.996963
1335.000000	94.001683
1334.000000	94.018902
1333.000000	94.047846
1332.000000	94.087771
1331.000000	94.137998
1330.000000	94.195470
1329.000000	94.254466
1328.000000	94.310872
1327.000000	94.364093
1326.000000	94.413865
1325.000000	94.456409
1324.000000	94.487039
1323.000000	94.504712
1322.000000	94.513862
1321.000000	94.521216
1320.000000	94.531302
1319.000000	94.544470
1318.000000	94.558315
1317.000000	94.571209
1316.000000	94.584390
1315.000000	94.601072
1314.000000	94.623911
1313.000000	94.653667
1312.000000	94.689291
1311.000000	94.728368
1310.000000	94.767831
1309.000000	94.805446
1308.000000	94.841415
1307.000000	94.877690
1306.000000	94.915455
1305.000000	94.952963
1304.000000	94.987298
1303.000000	95.017057
1302.000000	95.043789
1301.000000	95.070420
1300.000000	95.098547
1299.000000	95.127097
1298.000000	95.153078
1297.000000	95.173090
1296.000000	95.184172
1295.000000	95.183942
1294.000000	95.171200
1293.000000	95.146860
1292.000000	95.113956
1291.000000	95.076178
1290.000000	95.035153
1289.000000	94.989962
1288.000000	94.940043
1287.000000	94.888330
1286.000000	94.840254
1285.000000	94.799574
1284.000000	94.766595
1283.000000	94.740363
1282.000000	94.721149
1281.000000	94.709836
1280.000000	94.705584
1279.000000	94.704914
1278.000000	94.703690
1277.000000	94.700298
1276.000000	94.695926
1275.000000	94.691938
1274.000000	94.687533
1273.000000	94.680559
1272.000000	94.669435
1271.000000	94.653398
1270.000000	94.631538
1269.000000	94.603274
1268.000000	94.569562
1267.000000	94.531949
1266.000000	94.490489
1265.000000	94.443790
1264.000000	94.391384
1263.000000	94.335024
1262.000000	94.277282
1261.000000	94.220128
1260.000000	94.164284
1259.000000	94.108438
1258.000000	94.049351
1257.000000	93.985289
1256.000000	93.919136
1255.000000	93.855510
1254.000000	93.794353
1253.000000	93.729922
1252.000000	93.656446
1251.000000	93.572845
1250.000000	93.481709
1249.000000	93.386977
1248.000000	93.293229
1247.000000	93.203288
1246.000000	93.115048
1245.000000	93.023962
1244.000000	92.929952
1243.000000	92.838657
1242.000000	92.754910
1241.000000	92.679037
1240.000000	92.611089
1239.000000	92.554203
1238.000000	92.510847
1237.000000	92.480674
1236.000000	92.463998
1235.000000	92.463584
1234.000000	92.481294
1233.000000	92.515383
1232.000000	92.563999
1231.000000	92.627266
1230.000000	92.705027
1229.000000	92.796864
1228.000000	92.903702
1227.000000	93.026501
1226.000000	93.161994
1225.000000	93.303208
1224.000000	93.445376
1223.000000	93.587821
1222.000000	93.730652
1221.000000	93.872297
1220.000000	94.010016
1219.000000	94.139662
1218.000000	94.255587
1217.000000	94.353096
1216.000000	94.430890
1215.000000	94.490175
1214.000000	94.531624
1213.000000	94.556315
1212.000000	94.567255
1211.000000	94.566574
1210.000000	94.552306
1209.000000	94.520170
1208.000000	94.470561
1207.000000	94.410971
1206.000000	94.351284
1205.000000	94.299019
1204.000000	94.258937
1203.000000	94.233771
1202.000000	94.223703
1201.000000	94.228252
1200.000000	94.248816
1199.000000	94.286894
1198.000000	94.338829
1197.000000	94.396589
1196.000000	94.455160
1195.000000	94.515121
1194.000000	94.577939
1193.000000	94.642224
1192.000000	94.706209
1191.000000	94.770261
1190.000000	94.834565
1189.000000	94.896646
1188.000000	94.952962
1187.000000	95.001391
1186.000000	95.040961
1185.000000	95.071497
1184.000000	95.094390
1183.000000	95.112045
1182.000000	95.125194
1181.000000	95.131600
1180.000000	95.129353
1179.000000	95.119922
1178.000000	95.107078
1177.000000	95.094330
1176.000000	95.083826
1175.000000	95.075712
1174.000000	95.067014
1173.000000	95.053375
1172.000000	95.033710
1171.000000	95.011272
1170.000000	94.989118
1169.000000	94.966728
1168.000000	94.942634
1167.000000	94.917904
1166.000000	94.894872
1165.000000	94.874658
1164.000000	94.858440
1163.000000	94.849295
1162.000000	94.849653
1161.000000	94.858857
1160.000000	94.875736
1159.000000	94.902718
1158.000000	94.945272
1157.000000	95.006661
1156.000000	95.084891
1155.000000	95.173150
1154.000000	95.262746
1153.000000	95.348189
1152.000000	95.430716
1151.000000	95.516663
1150.000000	95.610916
1149.000000	95.712469
1148.000000	95.816422
1147.000000	95.918439
1146.000000	96.016078
1145.000000	96.107396
1144.000000	96.190648
1143.000000	96.265551
1142.000000	96.334060
1141.000000	96.398971
1140.000000	96.461842
1139.000000	96.522431
1138.000000	96.579134
1137.000000	96.630070
1136.000000	96.673599
1135.000000	96.708283
1134.000000	96.733427
1133.000000	96.750007
1132.000000	96.761361
1131.000000	96.771498
1130.000000	96.781544
1129.000000	96.788970
1128.000000	96.791214
1127.000000	96.789565
1126.000000	96.787653
1125.000000	96.786723
1124.000000	96.784878
1123.000000	96.780687
1122.000000	96.774906
1121.000000	96.767756
1120.000000	96.756943
1119.000000	96.740348
1118.000000	96.719193
1117.000000	96.696884
1116.000000	96.675347
1115.000000	96.653578
1114.000000	96.629465
1113.000000	96.602345
1112.000000	96.574333
1111.000000	96.549367
1110.000000	96.530512
1109.000000	96.518125
1108.000000	96.511087
1107.000000	96.508469
1106.000000	96.508850
1105.000000	96.509319
1104.000000	96.507377
1103.000000	96.503596
1102.000000	96.500085
1101.000000	96.496177
1100.000000	96.487596
1099.000000	96.470430
1098.000000	96.444015
1097.000000	96.409980
1096.000000	96.370812
1095.000000	96.329800
1094.000000	96.290007
1093.000000	96.251850
1092.000000	96.213171
1091.000000	96.172294
1090.000000	96.128984
1089.000000	96.082379
1088.000000	96.030630
1087.000000	95.974091
1086.000000	95.916984
1085.000000	95.865187
1084.000000	95.823804
1083.000000	95.796984
1082.000000	95.787719
1081.000000	95.795916
1080.000000	95.819065
1079.000000	95.855569
1078.000000	95.905932
1077.000000	95.970020
1076.000000	96.043471
1075.000000	96.118681
1074.000000	96.188920
1073.000000	96.250882
1072.000000	96.303750
1071.000000	96.347366
1070.000000	96.381462
1069.000000	96.405365
1068.000000	96.418557
1067.000000	96.422347
1066.000000	96.421333
1065.000000	96.421237
1064.000000	96.424790
1063.000000	96.430755
1062.000000	96.436789
1061.000000	96.442320
1060.000000	96.448604
1059.000000	96.457948
1058.000000	96.473633
1057.000000	96.499015
1056.000000	96.534313
1055.000000	96.574247
1054.000000	96.610494
1053.000000	96.637447
1052.000000	96.655373
1051.000000	96.668108
1050.000000	96.678709
1049.000000	96.687862
1048.000000	96.695857
1047.000000	96.704475
1046.000000	96.715776
1045.000000	96.728852
1044.000000	96.738696
1043.000000	96.739744
1042.000000	96.730476
1041.000000	96.713492
1040.000000	96.690518
1039.000000	96.658455
1038.000000	96.612161
1037.000000	96.550781
1036.000000	96.480922
1035.000000	96.413600
1034.000000	96.358285
1033.000000	96.318956
1032.000000	96.294725
1031.000000	96.283501
1030.000000	96.284924
1029.000000	96.300956
1028.000000	96.333130
1027.000000	96.379795
1026.000000	96.436689
1025.000000	96.499573
1024.000000	96.565434
1023.000000	96.631029
1022.000000	96.693029
1021.000000	96.750249
1020.000000	96.803359
1019.000000	96.851296
1018.000000	96.890314
1017.000000	96.918390
1016.000000	96.938950
1015.000000	96.958724
1014.000000	96.983070
1013.000000	97.014831
1012.000000	97.056164
1011.000000	97.108221
1010.000000	97.168329
1009.000000	97.229677
1008.000000	97.285493
1007.000000	97.333969
1006.000000	97.379319
1005.000000	97.427776
1004.000000	97.481972
1003.000000	97.538909
1002.000000	97.593526
1001.000000	97.643238
1000.000000	97.688299
999.000000	97.729018
998.000000	97.765252
997.000000	97.798674
996.000000	97.832673
995.000000	97.868795
994.000000	97.904632
993.000000	97.936499
992.000000	97.963250
991.000000	97.986613
990.000000	98.008944
989.000000	98.031142
988.000000	98.051635
987.000000	98.067096
986.000000	98.075368
985.000000	98.078371
984.000000	98.080392
983.000000	98.082844
982.000000	98.082922
981.000000	98.078264
980.000000	98.070727
979.000000	98.063007
978.000000	98.053419
977.000000	98.037654
976.000000	98.015575
975.000000	97.993582
974.000000	97.979302
973.000000	97.975771
972.000000	97.981129
971.000000	97.992026
970.000000	98.006232
969.000000	98.023093
968.000000	98.042657
967.000000	98.064284
966.000000	98.087017
965.000000	98.111550
964.000000	98.139751
963.000000	98.170429
962.000000	98.197576
961.000000	98.216363
960.000000	98.230145
959.000000	98.247649
958.000000	98.273277
957.000000	98.303519
956.000000	98.333223
955.000000	98.361152
954.000000	98.387695
953.000000	98.411198
952.000000	98.429636
951.000000	98.443577
950.000000	98.454672
949.000000	98.463091
948.000000	98.468629
947.000000	98.472564
946.000000	98.475702
945.000000	98.476265
944.000000	98.472762
943.000000	98.467596
942.000000	98.464738
941.000000	98.464265
940.000000	98.462355
939.000000	98.456551
938.000000	98.448607
937.000000	98.442390
936.000000	98.441312
935.000000	98.447629
934.000000	98.461486
933.000000	98.480417
932.000000	98.501495
931.000000	98.523506
930.000000	98.545140
929.000000	98.562349
928.000000	98.571073
927.000000	98.572945
926.000000	98.574993
925.000000	98.582714
924.000000	98.595854
923.000000	98.611653
922.000000	98.629083
921.000000	98.647925
920.000000	98.666298
919.000000	98.682069
918.000000	98.696255
917.000000	98.712639
916.000000	98.733578
915.000000	98.757423
914.000000	98.780306
913.000000	98.799989
912.000000	98.817496
911.000000	98.834985
910.000000	98.852670
909.000000	98.868827
908.000000	98.882777
907.000000	98.895954
906.000000	98.908939
905.000000	98.919098
904.000000	98.923338
903.000000	98.922383
902.000000	98.920441
901.000000	98.921827
900.000000	98.929874
899.000000	98.947017
898.000000	98.971790
897.000000	98.996244
896.000000	99.010654
895.000000	99.012185
894.000000	99.006373
893.000000	98.999834
892.000000	98.995027
891.000000	98.992250
890.000000	98.991254
889.000000	98.987951
888.000000	98.973390
887.000000	98.939718
886.000000	98.886604
885.000000	98.820046
884.000000	98.746785
883.000000	98.671253
882.000000	98.594380
881.000000	98.513313
880.000000	98.425094
879.000000	98.332970
878.000000	98.246392
877.000000	98.173321
876.000000	98.115672
875.000000	98.074454
874.000000	98.055326
873.000000	98.064729
872.000000	98.103055
871.000000	98.164048
870.000000	98.239486
869.000000	98.321665
868.000000	98.402571
867.000000	98.474850
866.000000	98.534494
865.000000	98.580739
864.000000	98.612962
863.000000	98.630100
862.000000	98.633931
861.000000	98.631158
860.000000	98.630569
859.000000	98.637662
858.000000	98.651701
857.000000	98.667326
856.000000	98.679479
855.000000	98.687162
854.000000	98.692350
853.000000	98.695917
852.000000	98.696522
851.000000	98.694480
850.000000	98.694610
849.000000	98.702944
848.000000	98.720930
847.000000	98.744252
846.000000	98.767258
845.000000	98.787430
844.000000	98.805950
843.000000	98.825434
842.000000	98.847410
841.000000	98.870956
840.000000	98.893366
839.000000	98.912541
838.000000	98.928615
837.000000	98.942439
836.000000	98.953012
835.000000	98.958198
834.000000	98.958349
833.000000	98.957507
832.000000	98.959609
831.000000	98.964821
830.000000	98.971285
829.000000	98.979303
828.000000	98.990984
827.000000	99.005179
826.000000	99.015865
825.000000	99.017796
824.000000	99.011764
823.000000	99.002162
822.000000	98.991479
821.000000	98.979911
820.000000	98.968352
819.000000	98.958095
818.000000	98.948700
817.000000	98.939841
816.000000	98.934479
815.000000	98.936254
814.000000	98.944130
813.000000	98.953986
812.000000	98.965256
811.000000	98.980250
810.000000	98.995884
809.000000	99.002706
808.000000	98.996214
807.000000	98.984213
806.000000	98.978134
805.000000	98.980377
804.000000	98.984968
803.000000	98.987851
802.000000	98.990760
801.000000	98.996011
800.000000	99.002242
799.000000	99.005268
798.000000	99.000392
797.000000	98.985076
796.000000	98.962576
795.000000	98.941858
794.000000	98.930276
793.000000	98.926748
792.000000	98.924499
791.000000	98.919105
790.000000	98.911126
789.000000	98.902186
788.000000	98.892119
787.000000	98.880407
786.000000	98.868331
785.000000	98.859266
784.000000	98.857261
783.000000	98.863793
782.000000	98.874968
781.000000	98.883904
780.000000	98.887099
779.000000	98.886651
778.000000	98.885716
777.000000	98.884513
776.000000	98.881877
775.000000	98.877590
774.000000	98.871507
773.000000	98.863656
772.000000	98.856923
771.000000	98.855971
770.000000	98.861439
769.000000	98.869051
768.000000	98.876473
767.000000	98.886084
766.000000	98.897656
765.000000	98.903597
764.000000	98.897000
763.000000	98.881245
762.000000	98.866359
761.000000	98.857844
760.000000	98.853389
759.000000	98.848218
758.000000	98.838662
757.000000	98.821964
756.000000	98.797837
755.000000	98.770901
754.000000	98.749045
753.000000	98.738924
752.000000	98.742444
751.000000	98.754540
750.000000	98.763818
749.000000	98.760242
748.000000	98.744853
747.000000	98.727845
746.000000	98.715295
745.000000	98.703160
744.000000	98.686819
743.000000	98.669424
742.000000	98.655897
741.000000	98.645280
740.000000	98.635160
739.000000	98.627672
738.000000	98.623848
737.000000	98.617307
736.000000	98.601840
735.000000	98.581594
734.000000	98.565071
733.000000	98.551716
732.000000	98.533374
731.000000	98.507648
730.000000	98.480962
729.000000	98.457631
728.000000	98.433874
727.000000	98.404664
726.000000	98.370798
725.000000	98.337563
724.000000	98.310238
723.000000	98.290948
722.000000	98.276355
721.000000	98.259070
720.000000	98.234897
719.000000	98.206933
718.000000	98.178133
717.000000	98.142459
716.000000	98.089727
715.000000	98.018681
714.000000	97.941058
713.000000	97.874147
712.000000	97.832319
711.000000	97.821435
710.000000	97.834178
709.000000	97.852192
708.000000	97.859632
707.000000	97.855747
706.000000	97.850234
705.000000	97.847984
704.000000	97.844407
703.000000	97.834632
702.000000	97.820978
701.000000	97.809603
700.000000	97.803273
699.000000	97.798558
698.000000	97.788298
697.000000	97.768216
696.000000	97.742670
695.000000	97.721474
694.000000	97.709895
693.000000	97.704738
692.000000	97.701167
691.000000	97.698079
690.000000	97.694531
689.000000	97.687042
688.000000	97.674582
687.000000	97.661243
686.000000	97.649020
685.000000	97.633308
684.000000	97.610285
683.000000	97.583097
682.000000	97.556394
681.000000	97.530650
680.000000	97.506433
679.000000	97.488173
678.000000	97.478038
677.000000	97.471092
676.000000	97.461299
675.000000	97.447887
674.000000	97.430852
673.000000	97.407180
672.000000	97.379219
671.000000	97.360195
670.000000	97.364492
669.000000	97.396701
668.000000	97.443696
667.000000	97.469701
666.000000	97.449344
665.000000	97.399161
664.000000	97.352936
663.000000	97.330576
662.000000	97.329163
661.000000	97.330557
660.000000	97.324915
659.000000	97.320594
658.000000	97.324190
657.000000	97.325326
656.000000	97.311615
655.000000	97.288378
654.000000	97.270839
653.000000	97.263909
652.000000	97.262284
651.000000	97.262226
650.000000	97.261274
649.000000	97.254239
648.000000	97.240430
647.000000	97.227876
646.000000	97.221123
645.000000	97.213763
644.000000	97.202304
643.000000	97.195786
642.000000	97.200618
641.000000	97.207010
640.000000	97.203130
639.000000	97.193248
638.000000	97.188127
637.000000	97.186415
636.000000	97.179797
635.000000	97.169525
634.000000	97.163414
633.000000	97.161730
632.000000	97.158618
631.000000	97.151705
630.000000	97.139413
629.000000	97.117433
628.000000	97.089867
627.000000	97.075374
626.000000	97.087157
625.000000	97.112289
624.000000	97.126326
623.000000	97.121364
622.000000	97.106068
621.000000	97.087848
620.000000	97.071271
619.000000	97.066288
618.000000	97.078977
617.000000	97.096957
616.000000	97.101711
615.000000	97.092785
614.000000	97.082764
613.000000	97.073587
612.000000	97.055901
611.000000	97.030228
610.000000	97.011331
609.000000	97.009016
608.000000	97.017987
607.000000	97.027872
606.000000	97.032994
605.000000	97.033506
604.000000	97.036951
603.000000	97.055814
602.000000	97.092611
601.000000	97.130860
600.000000	97.150773
599.000000	97.149524
598.000000	97.137114
597.000000	97.119080
596.000000	97.097298
595.000000	97.082163
594.000000	97.087363
593.000000	97.112904
592.000000	97.144541
591.000000	97.168562
590.000000	97.178281
589.000000	97.172027
588.000000	97.156381
587.000000	97.146920
586.000000	97.153468
585.000000	97.166497
584.000000	97.169431
583.000000	97.159001
582.000000	97.140902
581.000000	97.115074
580.000000	97.082384
579.000000	97.058573
578.000000	97.061273
577.000000	97.085323
576.000000	97.106764
575.000000	97.110375
574.000000	97.100482
573.000000	97.085543
572.000000	97.068145
571.000000	97.050426
570.000000	97.033860
569.000000	97.013823
568.000000	96.987368
567.000000	96.963012
566.000000	96.948696
565.000000	96.934640
564.000000	96.904321
563.000000	96.860614
562.000000	96.826021
561.000000	96.815427
560.000000	96.820008
559.000000	96.819481
558.000000	96.801887
557.000000	96.773621
556.000000	96.756330
555.000000	96.766535
554.000000	96.792330
553.000000	96.802961
552.000000	96.787775
551.000000	96.771162
550.000000	96.779071
549.000000	96.807251
548.000000	96.838053
547.000000	96.868756
546.000000	96.902840
545.000000	96.928804
544.000000	96.931626
543.000000	96.916348
542.000000	96.901634
541.000000	96.898134
540.000000	96.906255
539.000000	96.923989
538.000000	96.941416
537.000000	96.939036
536.000000	96.907949
535.000000	96.861332
534.000000	96.814181
533.000000	96.764913
532.000000	96.708598
531.000000	96.652124
530.000000	96.601386
529.000000	96.553230
528.000000	96.516731
527.000000	96.522978
526.000000	96.587005
525.000000	96.673826
524.000000	96.737500
523.000000	96.769903
522.000000	96.782685
521.000000	96.779574
520.000000	96.772747
519.000000	96.796969
518.000000	96.871695
517.000000	96.964477
516.000000	97.029239
515.000000	97.057900
514.000000	97.063852
513.000000	97.049850
512.000000	97.024766
511.000000	97.021745
510.000000	97.062635
509.000000	97.124919
508.000000	97.175205
507.000000	97.213142
506.000000	97.249520
505.000000	97.271012
504.000000	97.267737
503.000000	97.269402
502.000000	97.307215
501.000000	97.357575
500.000000	97.381649
499.000000	97.396987
498.000000	97.449671
497.000000	97.536676
496.000000	97.605918
495.000000	97.627926
494.000000	97.622386
493.000000	97.613102
492.000000	97.602488
491.000000	97.597357
490.000000	97.619435
489.000000	97.677456
488.000000	97.755474
487.000000	97.830359
486.000000	97.880538
485.000000	97.888406
484.000000	97.859108
483.000000	97.824320
482.000000	97.800890
481.000000	97.768798
480.000000	97.718163
479.000000	97.686397
478.000000	97.713302
477.000000	97.781750
476.000000	97.846454
475.000000	97.899658
474.000000	97.956583
473.000000	97.998000
472.000000	97.994520
471.000000	97.977938
470.000000	98.005075
469.000000	98.067839
468.000000	98.113652
467.000000	98.132724
466.000000	98.166152
465.000000	98.232808
464.000000	98.309600
463.000000	98.384528
462.000000	98.465341
461.000000	98.550410
460.000000	98.609465
459.000000	98.654417
458.000000	98.659356
457.000000	98.665661
456.000000	98.686358
455.000000	98.734067
454.000000	98.847438
453.000000	98.974846
452.000000	99.027552
451.000000	98.995989
450.000000	98.953486
