PE IR       SUBTECH     SPECTRUM    ASCII       PEDS        4.00        
   -1
3C-XXX-F008_1.ASC
23/09/07
10:42:56.00
23/09/07
11:30:09.00
uco
Sample 008 By uco Date Thursday, September 07 2023
450.000000
#HDR
-1
-1
#GR
cm-1
%T
1.0
0.0
4000.000000
-1.000000
3551
8
99.069688
89.056143
#DATA
4000.000000	98.953353
3999.000000	98.952803
3998.000000	98.949673
3997.000000	98.944903
3996.000000	98.940036
3995.000000	98.936660
3994.000000	98.935583
3993.000000	98.936537
3992.000000	98.938568
3991.000000	98.940488
3990.000000	98.941021
3989.000000	98.939134
3988.000000	98.934753
3987.000000	98.929202
3986.000000	98.924673
3985.000000	98.922951
3984.000000	98.924581
3983.000000	98.928806
3982.000000	98.933958
3981.000000	98.938117
3980.000000	98.939899
3979.000000	98.939149
3978.000000	98.936754
3977.000000	98.933672
3976.000000	98.930331
3975.000000	98.927063
3974.000000	98.924858
3973.000000	98.924926
3972.000000	98.927271
3971.000000	98.930006
3970.000000	98.930689
3969.000000	98.928404
3968.000000	98.924505
3967.000000	98.921357
3966.000000	98.920374
3965.000000	98.921342
3964.000000	98.923158
3963.000000	98.924875
3962.000000	98.926082
3961.000000	98.926585
3960.000000	98.926334
3959.000000	98.925601
3958.000000	98.924919
3957.000000	98.924572
3956.000000	98.924214
3955.000000	98.923221
3954.000000	98.921349
3953.000000	98.919046
3952.000000	98.917173
3951.000000	98.916502
3950.000000	98.917257
3949.000000	98.918949
3948.000000	98.920683
3947.000000	98.921745
3946.000000	98.921887
3945.000000	98.921091
3944.000000	98.919698
3943.000000	98.918666
3942.000000	98.918854
3941.000000	98.920151
3940.000000	98.921823
3939.000000	98.923213
3938.000000	98.924041
3937.000000	98.924145
3936.000000	98.923330
3935.000000	98.921995
3934.000000	98.921640
3933.000000	98.924157
3932.000000	98.929490
3931.000000	98.934536
3930.000000	98.935828
3929.000000	98.932545
3928.000000	98.926078
3927.000000	98.918032
3926.000000	98.909901
3925.000000	98.903851
3924.000000	98.901831
3923.000000	98.904024
3922.000000	98.909048
3921.000000	98.914747
3920.000000	98.918302
3919.000000	98.916786
3918.000000	98.909675
3917.000000	98.900836
3916.000000	98.895905
3915.000000	98.896821
3914.000000	98.900467
3913.000000	98.902210
3912.000000	98.900215
3911.000000	98.896368
3910.000000	98.893969
3909.000000	98.894642
3908.000000	98.897318
3907.000000	98.899540
3906.000000	98.900075
3905.000000	98.901405
3904.000000	98.908223
3903.000000	98.921537
3902.000000	98.935951
3901.000000	98.944457
3900.000000	98.944674
3899.000000	98.939437
3898.000000	98.932630
3897.000000	98.925839
3896.000000	98.918944
3895.000000	98.911434
3894.000000	98.902891
3893.000000	98.893869
3892.000000	98.887935
3891.000000	98.889167
3890.000000	98.897089
3889.000000	98.907047
3888.000000	98.913086
3887.000000	98.911556
3886.000000	98.905490
3885.000000	98.901554
3884.000000	98.902495
3883.000000	98.905558
3882.000000	98.906610
3881.000000	98.904581
3880.000000	98.901267
3879.000000	98.897667
3878.000000	98.893517
3877.000000	98.888190
3876.000000	98.881638
3875.000000	98.876635
3874.000000	98.876985
3873.000000	98.882066
3872.000000	98.886370
3871.000000	98.886980
3870.000000	98.888988
3869.000000	98.897780
3868.000000	98.911002
3867.000000	98.922085
3866.000000	98.926988
3865.000000	98.926599
3864.000000	98.924332
3863.000000	98.921522
3862.000000	98.917058
3861.000000	98.909556
3860.000000	98.899162
3859.000000	98.887841
3858.000000	98.878950
3857.000000	98.875137
3856.000000	98.874479
3855.000000	98.870857
3854.000000	98.865990
3853.000000	98.868318
3852.000000	98.875869
3851.000000	98.881238
3850.000000	98.883144
3849.000000	98.884489
3848.000000	98.887418
3847.000000	98.890903
3846.000000	98.891419
3845.000000	98.885731
3844.000000	98.874650
3843.000000	98.863467
3842.000000	98.858112
3841.000000	98.860788
3840.000000	98.869740
3839.000000	98.881518
3838.000000	98.893101
3837.000000	98.903086
3836.000000	98.911894
3835.000000	98.919908
3834.000000	98.925690
3833.000000	98.926841
3832.000000	98.922365
3831.000000	98.913415
3830.000000	98.901980
3829.000000	98.889110
3828.000000	98.875671
3827.000000	98.864321
3826.000000	98.858382
3825.000000	98.858486
3824.000000	98.861651
3823.000000	98.863431
3822.000000	98.864180
3821.000000	98.869321
3820.000000	98.878672
3819.000000	98.886488
3818.000000	98.888916
3817.000000	98.887099
3816.000000	98.886533
3815.000000	98.889334
3814.000000	98.891260
3813.000000	98.888911
3812.000000	98.883907
3811.000000	98.880760
3810.000000	98.881874
3809.000000	98.884745
3808.000000	98.885845
3807.000000	98.885651
3806.000000	98.886516
3805.000000	98.888543
3804.000000	98.889329
3803.000000	98.886964
3802.000000	98.885407
3801.000000	98.889440
3800.000000	98.895350
3799.000000	98.897090
3798.000000	98.893774
3797.000000	98.889175
3796.000000	98.886967
3795.000000	98.886801
3794.000000	98.886344
3793.000000	98.885246
3792.000000	98.885231
3791.000000	98.887572
3790.000000	98.891741
3789.000000	98.896181
3788.000000	98.899549
3787.000000	98.901138
3786.000000	98.901148
3785.000000	98.900670
3784.000000	98.900472
3783.000000	98.899745
3782.000000	98.896824
3781.000000	98.891175
3780.000000	98.885081
3779.000000	98.881757
3778.000000	98.881397
3777.000000	98.881526
3776.000000	98.880775
3775.000000	98.880358
3774.000000	98.881871
3773.000000	98.884374
3772.000000	98.884974
3771.000000	98.882929
3770.000000	98.881464
3769.000000	98.883444
3768.000000	98.887677
3767.000000	98.891173
3766.000000	98.893154
3765.000000	98.894831
3764.000000	98.896234
3763.000000	98.895293
3762.000000	98.890544
3761.000000	98.883445
3760.000000	98.877702
3759.000000	98.875732
3758.000000	98.876837
3757.000000	98.879649
3756.000000	98.883942
3755.000000	98.889346
3754.000000	98.894078
3753.000000	98.895815
3752.000000	98.893735
3751.000000	98.890004
3750.000000	98.887582
3749.000000	98.887939
3748.000000	98.892161
3747.000000	98.900021
3746.000000	98.908665
3745.000000	98.918916
3744.000000	98.931953
3743.000000	98.940624
3742.000000	98.939924
3741.000000	98.933300
3740.000000	98.927653
3739.000000	98.927885
3738.000000	98.933760
3737.000000	98.942304
3736.000000	98.951342
3735.000000	98.957494
3734.000000	98.956728
3733.000000	98.950561
3732.000000	98.945731
3731.000000	98.946952
3730.000000	98.952996
3729.000000	98.959074
3728.000000	98.961016
3727.000000	98.958230
3726.000000	98.952470
3725.000000	98.944726
3724.000000	98.935260
3723.000000	98.925531
3722.000000	98.918329
3721.000000	98.915618
3720.000000	98.916851
3719.000000	98.919491
3718.000000	98.921291
3717.000000	98.921833
3716.000000	98.922083
3715.000000	98.922737
3714.000000	98.922913
3713.000000	98.920872
3712.000000	98.916609
3711.000000	98.912445
3710.000000	98.910446
3709.000000	98.910967
3708.000000	98.913481
3707.000000	98.917608
3706.000000	98.923000
3705.000000	98.928436
3704.000000	98.931722
3703.000000	98.931648
3702.000000	98.930488
3701.000000	98.932113
3700.000000	98.936710
3699.000000	98.939867
3698.000000	98.937261
3697.000000	98.928724
3696.000000	98.917516
3695.000000	98.906686
3694.000000	98.898105
3693.000000	98.894279
3692.000000	98.898430
3691.000000	98.910920
3690.000000	98.926585
3689.000000	98.937942
3688.000000	98.941689
3687.000000	98.940125
3686.000000	98.936173
3685.000000	98.930986
3684.000000	98.925736
3683.000000	98.922055
3682.000000	98.919787
3681.000000	98.916969
3680.000000	98.912685
3679.000000	98.907999
3678.000000	98.902847
3677.000000	98.895490
3676.000000	98.889257
3675.000000	98.888440
3674.000000	98.889644
3673.000000	98.888537
3672.000000	98.883872
3671.000000	98.877256
3670.000000	98.873458
3669.000000	98.873638
3668.000000	98.874010
3667.000000	98.872514
3666.000000	98.869760
3665.000000	98.866255
3664.000000	98.861244
3663.000000	98.853724
3662.000000	98.844400
3661.000000	98.836539
3660.000000	98.833663
3659.000000	98.835986
3658.000000	98.839225
3657.000000	98.838713
3656.000000	98.833891
3655.000000	98.827514
3654.000000	98.822285
3653.000000	98.818531
3652.000000	98.814069
3651.000000	98.806707
3650.000000	98.797657
3649.000000	98.790301
3648.000000	98.785917
3647.000000	98.783351
3646.000000	98.781495
3645.000000	98.779990
3644.000000	98.778905
3643.000000	98.778522
3642.000000	98.778864
3641.000000	98.779151
3640.000000	98.778329
3639.000000	98.776502
3638.000000	98.774661
3637.000000	98.772658
3636.000000	98.768486
3635.000000	98.760708
3634.000000	98.751006
3633.000000	98.743010
3632.000000	98.738489
3631.000000	98.734520
3630.000000	98.728093
3629.000000	98.722625
3628.000000	98.719804
3627.000000	98.714969
3626.000000	98.705753
3625.000000	98.694313
3624.000000	98.684116
3623.000000	98.676894
3622.000000	98.670961
3621.000000	98.662933
3620.000000	98.652165
3619.000000	98.642367
3618.000000	98.636934
3617.000000	98.635364
3616.000000	98.634558
3615.000000	98.631062
3614.000000	98.623233
3613.000000	98.612485
3612.000000	98.601887
3611.000000	98.592839
3610.000000	98.583628
3609.000000	98.572484
3608.000000	98.561038
3607.000000	98.552908
3606.000000	98.549684
3605.000000	98.549865
3604.000000	98.550458
3603.000000	98.548580
3602.000000	98.542707
3601.000000	98.533698
3600.000000	98.523757
3599.000000	98.514013
3598.000000	98.503269
3597.000000	98.489750
3596.000000	98.473987
3595.000000	98.459672
3594.000000	98.450580
3593.000000	98.447261
3592.000000	98.447690
3591.000000	98.449332
3590.000000	98.448834
3589.000000	98.442488
3588.000000	98.429565
3587.000000	98.413213
3586.000000	98.397012
3585.000000	98.382830
3584.000000	98.371156
3583.000000	98.361546
3582.000000	98.352709
3581.000000	98.343125
3580.000000	98.332459
3579.000000	98.322336
3578.000000	98.314954
3577.000000	98.310430
3576.000000	98.305889
3575.000000	98.297453
3574.000000	98.283448
3573.000000	98.266331
3572.000000	98.251729
3571.000000	98.244729
3570.000000	98.245375
3569.000000	98.247283
3568.000000	98.242292
3567.000000	98.228150
3566.000000	98.210080
3565.000000	98.193882
3564.000000	98.180077
3563.000000	98.165688
3562.000000	98.149255
3561.000000	98.132854
3560.000000	98.119643
3559.000000	98.110073
3558.000000	98.101562
3557.000000	98.091352
3556.000000	98.078624
3555.000000	98.064109
3554.000000	98.048994
3553.000000	98.034605
3552.000000	98.022151
3551.000000	98.012085
3550.000000	98.004080
3549.000000	97.997567
3548.000000	97.992119
3547.000000	97.987445
3546.000000	97.983146
3545.000000	97.978450
3544.000000	97.972172
3543.000000	97.962764
3542.000000	97.949080
3541.000000	97.931775
3540.000000	97.913484
3539.000000	97.896993
3538.000000	97.883062
3537.000000	97.870425
3536.000000	97.857522
3535.000000	97.843863
3534.000000	97.830023
3533.000000	97.817155
3532.000000	97.806480
3531.000000	97.798330
3530.000000	97.791449
3529.000000	97.784148
3528.000000	97.776533
3527.000000	97.770419
3526.000000	97.766278
3525.000000	97.761406
3524.000000	97.752317
3523.000000	97.738623
3522.000000	97.723424
3521.000000	97.709750
3520.000000	97.697627
3519.000000	97.685037
3518.000000	97.670818
3517.000000	97.656042
3516.000000	97.642932
3515.000000	97.633072
3514.000000	97.626365
3513.000000	97.621015
3512.000000	97.614505
3511.000000	97.605399
3510.000000	97.594675
3509.000000	97.584842
3508.000000	97.577424
3507.000000	97.571682
3506.000000	97.565795
3505.000000	97.558585
3504.000000	97.550017
3503.000000	97.540656
3502.000000	97.531405
3501.000000	97.523542
3500.000000	97.517731
3499.000000	97.512540
3498.000000	97.504867
3497.000000	97.492714
3496.000000	97.477477
3495.000000	97.462837
3494.000000	97.451395
3493.000000	97.442794
3492.000000	97.434961
3491.000000	97.426504
3490.000000	97.417821
3489.000000	97.410276
3488.000000	97.404417
3487.000000	97.398860
3486.000000	97.390905
3485.000000	97.378442
3484.000000	97.361564
3483.000000	97.343023
3482.000000	97.327168
3481.000000	97.317410
3480.000000	97.313896
3479.000000	97.313614
3478.000000	97.312985
3477.000000	97.310194
3476.000000	97.305213
3475.000000	97.298344
3474.000000	97.289475
3473.000000	97.278639
3472.000000	97.266481
3471.000000	97.254008
3470.000000	97.242440
3469.000000	97.233267
3468.000000	97.227482
3467.000000	97.224288
3466.000000	97.221401
3465.000000	97.217319
3464.000000	97.212657
3463.000000	97.208540
3462.000000	97.204198
3461.000000	97.197194
3460.000000	97.186015
3459.000000	97.171759
3458.000000	97.157152
3457.000000	97.144569
3456.000000	97.134931
3455.000000	97.127716
3454.000000	97.121645
3453.000000	97.115753
3452.000000	97.110220
3451.000000	97.106188
3450.000000	97.104711
3449.000000	97.105662
3448.000000	97.107282
3447.000000	97.106583
3446.000000	97.100830
3445.000000	97.089391
3444.000000	97.074242
3443.000000	97.058845
3442.000000	97.046456
3441.000000	97.038615
3440.000000	97.034331
3439.000000	97.030700
3438.000000	97.025007
3437.000000	97.016845
3436.000000	97.008050
3435.000000	97.000470
3434.000000	96.994250
3433.000000	96.988404
3432.000000	96.982138
3431.000000	96.975005
3430.000000	96.966637
3429.000000	96.957392
3428.000000	96.948840
3427.000000	96.942456
3426.000000	96.937850
3425.000000	96.933115
3424.000000	96.926888
3423.000000	96.919333
3422.000000	96.911050
3421.000000	96.901932
3420.000000	96.891538
3419.000000	96.880107
3418.000000	96.868560
3417.000000	96.857506
3416.000000	96.846668
3415.000000	96.835525
3414.000000	96.824476
3413.000000	96.814913
3412.000000	96.807524
3411.000000	96.800733
3410.000000	96.791934
3409.000000	96.780748
3408.000000	96.770163
3407.000000	96.763445
3406.000000	96.760283
3405.000000	96.756749
3404.000000	96.748937
3403.000000	96.736221
3402.000000	96.721382
3401.000000	96.708383
3400.000000	96.699799
3399.000000	96.695223
3398.000000	96.691560
3397.000000	96.685352
3396.000000	96.675380
3395.000000	96.663166
3394.000000	96.651192
3393.000000	96.641000
3392.000000	96.632754
3391.000000	96.626002
3390.000000	96.620521
3389.000000	96.616503
3388.000000	96.613921
3387.000000	96.611701
3386.000000	96.607786
3385.000000	96.600439
3384.000000	96.589526
3383.000000	96.576384
3382.000000	96.562612
3381.000000	96.549237
3380.000000	96.536833
3379.000000	96.525864
3378.000000	96.516677
3377.000000	96.509179
3376.000000	96.502450
3375.000000	96.494707
3374.000000	96.484052
3373.000000	96.469798
3372.000000	96.453219
3371.000000	96.436876
3370.000000	96.423040
3369.000000	96.412390
3368.000000	96.403716
3367.000000	96.394755
3366.000000	96.383803
3365.000000	96.370960
3364.000000	96.357653
3363.000000	96.344916
3362.000000	96.332511
3361.000000	96.319781
3360.000000	96.306682
3359.000000	96.293364
3358.000000	96.279149
3357.000000	96.262795
3356.000000	96.244019
3355.000000	96.224406
3354.000000	96.206443
3353.000000	96.191509
3352.000000	96.178631
3351.000000	96.165181
3350.000000	96.149057
3349.000000	96.130383
3348.000000	96.111072
3347.000000	96.092840
3346.000000	96.075889
3345.000000	96.059293
3344.000000	96.042094
3343.000000	96.024011
3342.000000	96.005869
3341.000000	95.989630
3340.000000	95.977226
3339.000000	95.968585
3338.000000	95.961015
3337.000000	95.951119
3336.000000	95.937428
3335.000000	95.921014
3334.000000	95.903786
3333.000000	95.886607
3332.000000	95.869061
3331.000000	95.850677
3330.000000	95.832169
3329.000000	95.815283
3328.000000	95.801281
3327.000000	95.789800
3326.000000	95.779479
3325.000000	95.769319
3324.000000	95.758821
3323.000000	95.747216
3322.000000	95.733817
3321.000000	95.719224
3320.000000	95.705002
3319.000000	95.691701
3318.000000	95.678115
3317.000000	95.663077
3316.000000	95.647229
3315.000000	95.632363
3314.000000	95.619563
3313.000000	95.608557
3312.000000	95.598236
3311.000000	95.587303
3310.000000	95.575121
3309.000000	95.562534
3308.000000	95.551303
3307.000000	95.542047
3306.000000	95.533322
3305.000000	95.523261
3304.000000	95.511505
3303.000000	95.499108
3302.000000	95.487406
3301.000000	95.477812
3300.000000	95.471873
3299.000000	95.470026
3298.000000	95.470302
3297.000000	95.469234
3296.000000	95.464335
3295.000000	95.455519
3294.000000	95.444451
3293.000000	95.433190
3292.000000	95.423184
3291.000000	95.414765
3290.000000	95.407503
3289.000000	95.401232
3288.000000	95.396463
3287.000000	95.393526
3286.000000	95.391899
3285.000000	95.390774
3284.000000	95.389626
3283.000000	95.387893
3282.000000	95.384969
3281.000000	95.381491
3280.000000	95.380009
3279.000000	95.383066
3278.000000	95.390648
3277.000000	95.400265
3276.000000	95.409636
3275.000000	95.418690
3274.000000	95.428699
3273.000000	95.439992
3272.000000	95.450711
3271.000000	95.457801
3270.000000	95.459573
3269.000000	95.457575
3268.000000	95.455655
3267.000000	95.456967
3266.000000	95.462052
3265.000000	95.469668
3264.000000	95.478576
3263.000000	95.488064
3262.000000	95.497657
3261.000000	95.507170
3260.000000	95.516701
3259.000000	95.526158
3258.000000	95.535544
3257.000000	95.546243
3256.000000	95.560899
3255.000000	95.580791
3254.000000	95.603710
3253.000000	95.625587
3252.000000	95.643946
3251.000000	95.658953
3250.000000	95.671734
3249.000000	95.683029
3248.000000	95.693279
3247.000000	95.702541
3246.000000	95.709937
3245.000000	95.714181
3244.000000	95.715314
3243.000000	95.715375
3242.000000	95.716884
3241.000000	95.720981
3240.000000	95.727329
3239.000000	95.735648
3238.000000	95.746826
3237.000000	95.761931
3236.000000	95.779812
3235.000000	95.796540
3234.000000	95.808530
3233.000000	95.816196
3232.000000	95.823188
3231.000000	95.831544
3230.000000	95.839185
3229.000000	95.843224
3228.000000	95.844306
3227.000000	95.846034
3226.000000	95.850724
3225.000000	95.857472
3224.000000	95.864087
3223.000000	95.869469
3222.000000	95.874233
3221.000000	95.880243
3220.000000	95.889479
3219.000000	95.901832
3218.000000	95.913832
3217.000000	95.921010
3216.000000	95.922166
3215.000000	95.920699
3214.000000	95.921206
3213.000000	95.925340
3212.000000	95.931382
3211.000000	95.937143
3210.000000	95.942440
3209.000000	95.948575
3208.000000	95.955985
3207.000000	95.963252
3206.000000	95.969131
3205.000000	95.975061
3204.000000	95.984236
3203.000000	95.997555
3202.000000	96.011808
3201.000000	96.022989
3200.000000	96.030596
3199.000000	96.037557
3198.000000	96.046509
3197.000000	96.057501
3196.000000	96.068674
3195.000000	96.077752
3194.000000	96.083218
3193.000000	96.085893
3192.000000	96.089662
3191.000000	96.098989
3190.000000	96.114989
3189.000000	96.134494
3188.000000	96.152973
3187.000000	96.167574
3186.000000	96.177895
3185.000000	96.185706
3184.000000	96.194168
3183.000000	96.205641
3182.000000	96.219251
3181.000000	96.231554
3180.000000	96.240182
3179.000000	96.246008
3178.000000	96.251597
3177.000000	96.258846
3176.000000	96.268745
3175.000000	96.281864
3174.000000	96.297668
3173.000000	96.314108
3172.000000	96.329248
3171.000000	96.343126
3170.000000	96.357162
3169.000000	96.372104
3168.000000	96.387306
3167.000000	96.401631
3166.000000	96.414129
3165.000000	96.424016
3164.000000	96.430930
3163.000000	96.435554
3162.000000	96.439686
3161.000000	96.445549
3160.000000	96.454978
3159.000000	96.468544
3158.000000	96.484801
3157.000000	96.500603
3156.000000	96.513067
3155.000000	96.521792
3154.000000	96.529161
3153.000000	96.538278
3152.000000	96.550268
3151.000000	96.563380
3150.000000	96.574843
3149.000000	96.583852
3148.000000	96.592535
3147.000000	96.603579
3146.000000	96.617152
3145.000000	96.630840
3144.000000	96.642469
3143.000000	96.652142
3142.000000	96.661316
3141.000000	96.670816
3140.000000	96.680282
3139.000000	96.688849
3138.000000	96.695690
3137.000000	96.700463
3136.000000	96.703970
3135.000000	96.708152
3134.000000	96.714760
3133.000000	96.724014
3132.000000	96.734797
3131.000000	96.745706
3130.000000	96.755380
3129.000000	96.762372
3128.000000	96.765866
3127.000000	96.766850
3126.000000	96.767864
3125.000000	96.771068
3124.000000	96.776615
3123.000000	96.782780
3122.000000	96.787403
3121.000000	96.789325
3120.000000	96.789025
3119.000000	96.788228
3118.000000	96.788535
3117.000000	96.790084
3116.000000	96.791572
3115.000000	96.791879
3114.000000	96.791480
3113.000000	96.791787
3112.000000	96.793165
3111.000000	96.794202
3110.000000	96.793407
3109.000000	96.791276
3108.000000	96.789841
3107.000000	96.789991
3106.000000	96.789962
3105.000000	96.787164
3104.000000	96.781186
3103.000000	96.774256
3102.000000	96.768599
3101.000000	96.764001
3100.000000	96.758586
3099.000000	96.751906
3098.000000	96.746441
3097.000000	96.745318
3096.000000	96.748583
3095.000000	96.752370
3094.000000	96.752262
3093.000000	96.747038
3092.000000	96.738669
3091.000000	96.729377
3090.000000	96.719935
3089.000000	96.710707
3088.000000	96.702806
3087.000000	96.697303
3086.000000	96.693931
3085.000000	96.691361
3084.000000	96.688449
3083.000000	96.684744
3082.000000	96.680330
3081.000000	96.675973
3080.000000	96.673052
3079.000000	96.672409
3078.000000	96.673031
3077.000000	96.672444
3076.000000	96.668793
3075.000000	96.662612
3074.000000	96.656706
3073.000000	96.654135
3072.000000	96.655762
3071.000000	96.659433
3070.000000	96.661904
3069.000000	96.661752
3068.000000	96.660132
3067.000000	96.658930
3066.000000	96.659091
3065.000000	96.661015
3064.000000	96.665255
3063.000000	96.671828
3062.000000	96.679656
3061.000000	96.687628
3060.000000	96.695634
3059.000000	96.703650
3058.000000	96.710643
3057.000000	96.715769
3056.000000	96.720323
3055.000000	96.726993
3054.000000	96.736858
3053.000000	96.748098
3052.000000	96.757922
3051.000000	96.765159
3050.000000	96.771062
3049.000000	96.778258
3048.000000	96.788751
3047.000000	96.802248
3046.000000	96.816368
3045.000000	96.828890
3044.000000	96.839562
3043.000000	96.849308
3042.000000	96.858364
3041.000000	96.866301
3040.000000	96.873542
3039.000000	96.881481
3038.000000	96.890903
3037.000000	96.901318
3036.000000	96.912128
3035.000000	96.923324
3034.000000	96.934517
3033.000000	96.944276
3032.000000	96.951371
3031.000000	96.956356
3030.000000	96.961233
3029.000000	96.967732
3028.000000	96.976274
3027.000000	96.986228
3026.000000	96.996621
3025.000000	97.006638
3024.000000	97.015780
3023.000000	97.023755
3022.000000	97.030424
3021.000000	97.036003
3020.000000	97.041061
3019.000000	97.046012
3018.000000	97.050830
3017.000000	97.055429
3016.000000	97.059886
3015.000000	97.063758
3014.000000	97.065575
3013.000000	97.063914
3012.000000	97.058901
3011.000000	97.052054
3010.000000	97.044697
3009.000000	97.037143
3008.000000	97.029421
3007.000000	97.021986
3006.000000	97.015418
3005.000000	97.009735
3004.000000	97.004068
3003.000000	96.996932
3002.000000	96.987103
3001.000000	96.974615
3000.000000	96.960674
2999.000000	96.946351
2998.000000	96.931760
2997.000000	96.916806
2996.000000	96.901798
2995.000000	96.886388
2994.000000	96.868590
2993.000000	96.846423
2992.000000	96.820512
2991.000000	96.793571
2990.000000	96.767027
2989.000000	96.739272
2988.000000	96.707921
2987.000000	96.672806
2986.000000	96.635825
2985.000000	96.598457
2984.000000	96.560265
2983.000000	96.519751
2982.000000	96.475902
2981.000000	96.428621
2980.000000	96.378156
2979.000000	96.324670
2978.000000	96.268714
2977.000000	96.211736
2976.000000	96.155217
2975.000000	96.098949
2974.000000	96.040564
2973.000000	95.977186
2972.000000	95.907256
2971.000000	95.830714
2970.000000	95.748687
2969.000000	95.663914
2968.000000	95.580592
2967.000000	95.502060
2966.000000	95.428400
2965.000000	95.357368
2964.000000	95.287847
2963.000000	95.221851
2962.000000	95.163086
2961.000000	95.114601
2960.000000	95.078005
2959.000000	95.054090
2958.000000	95.043637
2957.000000	95.047320
2956.000000	95.064884
2955.000000	95.093924
2954.000000	95.129920
2953.000000	95.168014
2952.000000	95.204752
2951.000000	95.238176
2950.000000	95.266378
2949.000000	95.286763
2948.000000	95.296433
2947.000000	95.293188
2946.000000	95.276511
2945.000000	95.247780
2944.000000	95.209060
2943.000000	95.160986
2942.000000	95.102716
2941.000000	95.034366
2940.000000	94.958696
2939.000000	94.879320
2938.000000	94.798067
2937.000000	94.715541
2936.000000	94.633311
2935.000000	94.553962
2934.000000	94.479274
2933.000000	94.410324
2932.000000	94.349287
2931.000000	94.298846
2930.000000	94.259149
2929.000000	94.226947
2928.000000	94.199110
2927.000000	94.175981
2926.000000	94.160400
2925.000000	94.154572
2924.000000	94.158872
2923.000000	94.173084
2922.000000	94.197238
2921.000000	94.231269
2920.000000	94.274721
2919.000000	94.326894
2918.000000	94.387344
2917.000000	94.456335
2916.000000	94.534879
2915.000000	94.623425
2914.000000	94.719730
2913.000000	94.818459
2912.000000	94.913659
2911.000000	95.002037
2910.000000	95.083836
2909.000000	95.161070
2908.000000	95.235536
2907.000000	95.308126
2906.000000	95.379178
2905.000000	95.448798
2904.000000	95.516797
2903.000000	95.582684
2902.000000	95.646119
2901.000000	95.707693
2900.000000	95.768913
2899.000000	95.830584
2898.000000	95.891320
2897.000000	95.948374
2896.000000	96.000261
2895.000000	96.048053
2894.000000	96.094050
2893.000000	96.139762
2892.000000	96.185201
2891.000000	96.229043
2890.000000	96.268691
2889.000000	96.300970
2888.000000	96.323919
2887.000000	96.337931
2886.000000	96.344697
2885.000000	96.345258
2884.000000	96.339699
2883.000000	96.328438
2882.000000	96.312635
2881.000000	96.292842
2880.000000	96.267916
2879.000000	96.236320
2878.000000	96.198633
2877.000000	96.158260
2876.000000	96.119192
2875.000000	96.083512
2874.000000	96.051903
2873.000000	96.026266
2872.000000	96.010452
2871.000000	96.007186
2870.000000	96.014299
2869.000000	96.024726
2868.000000	96.030629
2867.000000	96.027727
2866.000000	96.016461
2865.000000	95.999698
2864.000000	95.979230
2863.000000	95.954044
2862.000000	95.921929
2861.000000	95.883194
2860.000000	95.842369
2859.000000	95.805664
2858.000000	95.776891
2857.000000	95.756371
2856.000000	95.743343
2855.000000	95.738041
2854.000000	95.741637
2853.000000	95.755530
2852.000000	95.781802
2851.000000	95.823903
2850.000000	95.885603
2849.000000	95.968495
2848.000000	96.069962
2847.000000	96.183137
2846.000000	96.299135
2845.000000	96.410521
2844.000000	96.513452
2843.000000	96.607198
2842.000000	96.691987
2841.000000	96.767502
2840.000000	96.833319
2839.000000	96.889723
2838.000000	96.937739
2837.000000	96.978743
2836.000000	97.014113
2835.000000	97.044908
2834.000000	97.071759
2833.000000	97.095312
2832.000000	97.116651
2831.000000	97.136792
2830.000000	97.155843
2829.000000	97.173345
2828.000000	97.189355
2827.000000	97.204534
2826.000000	97.219195
2825.000000	97.233013
2824.000000	97.245762
2823.000000	97.257494
2822.000000	97.267881
2821.000000	97.276368
2820.000000	97.283426
2819.000000	97.290865
2818.000000	97.300139
2817.000000	97.310751
2816.000000	97.320787
2815.000000	97.328830
2814.000000	97.335245
2813.000000	97.341987
2812.000000	97.351180
2811.000000	97.363261
2810.000000	97.376411
2809.000000	97.388508
2808.000000	97.399738
2807.000000	97.412141
2806.000000	97.426119
2805.000000	97.438720
2804.000000	97.446583
2803.000000	97.449855
2802.000000	97.451734
2801.000000	97.454566
2800.000000	97.458002
2799.000000	97.461132
2798.000000	97.464768
2797.000000	97.470482
2796.000000	97.478225
2795.000000	97.486178
2794.000000	97.492858
2793.000000	97.498407
2792.000000	97.503705
2791.000000	97.509103
2790.000000	97.514598
2789.000000	97.520705
2788.000000	97.528324
2787.000000	97.537794
2786.000000	97.548573
2785.000000	97.559687
2784.000000	97.569903
2783.000000	97.577656
2782.000000	97.581948
2781.000000	97.583835
2780.000000	97.586173
2779.000000	97.591042
2778.000000	97.597806
2777.000000	97.604282
2776.000000	97.609327
2775.000000	97.613535
2774.000000	97.617887
2773.000000	97.622777
2772.000000	97.628169
2771.000000	97.633607
2770.000000	97.637937
2769.000000	97.640044
2768.000000	97.640261
2767.000000	97.640406
2766.000000	97.642099
2765.000000	97.645458
2764.000000	97.649547
2763.000000	97.653530
2762.000000	97.657266
2761.000000	97.661327
2760.000000	97.666632
2759.000000	97.673504
2758.000000	97.680796
2757.000000	97.686451
2756.000000	97.689384
2755.000000	97.690725
2754.000000	97.693044
2753.000000	97.698331
2752.000000	97.706342
2751.000000	97.714485
2750.000000	97.719491
2749.000000	97.719955
2748.000000	97.717588
2747.000000	97.715733
2746.000000	97.716598
2745.000000	97.720047
2744.000000	97.724677
2743.000000	97.729360
2742.000000	97.733753
2741.000000	97.737958
2740.000000	97.741980
2739.000000	97.745303
2738.000000	97.747094
2737.000000	97.747188
2736.000000	97.746682
2735.000000	97.747097
2734.000000	97.749134
2733.000000	97.752716
2732.000000	97.757852
2731.000000	97.764461
2730.000000	97.771406
2729.000000	97.776803
2728.000000	97.779835
2727.000000	97.781704
2726.000000	97.784434
2725.000000	97.789118
2724.000000	97.795460
2723.000000	97.802388
2722.000000	97.808631
2721.000000	97.813167
2720.000000	97.815759
2719.000000	97.817204
2718.000000	97.818899
2717.000000	97.821874
2716.000000	97.825798
2715.000000	97.828732
2714.000000	97.828406
2713.000000	97.824498
2712.000000	97.819599
2711.000000	97.817318
2710.000000	97.819339
2709.000000	97.824513
2708.000000	97.830487
2707.000000	97.835748
2706.000000	97.840360
2705.000000	97.845381
2704.000000	97.851473
2703.000000	97.857689
2702.000000	97.861929
2701.000000	97.863198
2700.000000	97.863025
2699.000000	97.863852
2698.000000	97.866356
2697.000000	97.869273
2696.000000	97.871520
2695.000000	97.873261
2694.000000	97.874734
2693.000000	97.875296
2692.000000	97.874246
2691.000000	97.871902
2690.000000	97.869384
2689.000000	97.867788
2688.000000	97.867774
2687.000000	97.869433
2686.000000	97.872325
2685.000000	97.875993
2684.000000	97.880370
2683.000000	97.885109
2682.000000	97.888677
2681.000000	97.889249
2680.000000	97.886950
2679.000000	97.884464
2678.000000	97.884701
2677.000000	97.888006
2676.000000	97.891923
2675.000000	97.893519
2674.000000	97.891849
2673.000000	97.888543
2672.000000	97.886228
2671.000000	97.886200
2670.000000	97.887586
2669.000000	97.888788
2668.000000	97.889346
2667.000000	97.889992
2666.000000	97.891242
2665.000000	97.892701
2664.000000	97.893755
2663.000000	97.894343
2662.000000	97.894887
2661.000000	97.895737
2660.000000	97.896668
2659.000000	97.896804
2658.000000	97.895490
2657.000000	97.893574
2656.000000	97.893240
2655.000000	97.895878
2654.000000	97.900652
2653.000000	97.905958
2652.000000	97.911549
2651.000000	97.918048
2650.000000	97.924954
2649.000000	97.930848
2648.000000	97.935640
2647.000000	97.940910
2646.000000	97.947402
2645.000000	97.953456
2644.000000	97.956781
2643.000000	97.956934
2642.000000	97.955475
2641.000000	97.954442
2640.000000	97.955302
2639.000000	97.958852
2638.000000	97.965340
2637.000000	97.974435
2636.000000	97.984854
2635.000000	97.993967
2634.000000	97.998793
2633.000000	97.998792
2632.000000	97.997571
2631.000000	98.000467
2630.000000	98.009872
2629.000000	98.023410
2628.000000	98.036502
2627.000000	98.045932
2626.000000	98.051261
2625.000000	98.054107
2624.000000	98.056391
2623.000000	98.058538
2622.000000	98.059441
2621.000000	98.058740
2620.000000	98.058360
2619.000000	98.060574
2618.000000	98.065236
2617.000000	98.070536
2616.000000	98.075852
2615.000000	98.081767
2614.000000	98.087688
2613.000000	98.091863
2612.000000	98.093924
2611.000000	98.094904
2610.000000	98.094372
2609.000000	98.090439
2608.000000	98.083783
2607.000000	98.079224
2606.000000	98.081277
2605.000000	98.089634
2604.000000	98.100408
2603.000000	98.110290
2602.000000	98.117961
2601.000000	98.122834
2600.000000	98.124680
2599.000000	98.124230
2598.000000	98.122883
2597.000000	98.122077
2596.000000	98.123524
2595.000000	98.128903
2594.000000	98.137926
2593.000000	98.147195
2592.000000	98.152534
2591.000000	98.152865
2590.000000	98.151061
2589.000000	98.150735
2588.000000	98.152435
2587.000000	98.153504
2586.000000	98.152012
2585.000000	98.150338
2584.000000	98.153427
2583.000000	98.162571
2582.000000	98.172353
2581.000000	98.175614
2580.000000	98.171030
2579.000000	98.164240
2578.000000	98.161695
2577.000000	98.165260
2576.000000	98.172607
2575.000000	98.180606
2574.000000	98.187323
2573.000000	98.191899
2572.000000	98.193691
2571.000000	98.191843
2570.000000	98.186352
2569.000000	98.179970
2568.000000	98.177595
2567.000000	98.181945
2566.000000	98.190501
2565.000000	98.198347
2564.000000	98.203454
2563.000000	98.207444
2562.000000	98.211956
2561.000000	98.216502
2560.000000	98.219712
2559.000000	98.220985
2558.000000	98.221163
2557.000000	98.222838
2556.000000	98.228599
2555.000000	98.236781
2554.000000	98.240700
2553.000000	98.235704
2552.000000	98.226171
2551.000000	98.221666
2550.000000	98.225846
2549.000000	98.232584
2548.000000	98.233555
2547.000000	98.226547
2546.000000	98.216085
2545.000000	98.209174
2544.000000	98.210997
2543.000000	98.221009
2542.000000	98.231660
2541.000000	98.233933
2540.000000	98.226061
2539.000000	98.214965
2538.000000	98.208759
2537.000000	98.210360
2536.000000	98.218388
2535.000000	98.229964
2534.000000	98.240561
2533.000000	98.244792
2532.000000	98.240472
2531.000000	98.230466
2530.000000	98.218749
2529.000000	98.206723
2528.000000	98.194886
2527.000000	98.185537
2526.000000	98.181251
2525.000000	98.181866
2524.000000	98.184813
2523.000000	98.187428
2522.000000	98.188150
2521.000000	98.187258
2520.000000	98.187485
2519.000000	98.191834
2518.000000	98.199222
2517.000000	98.204241
2516.000000	98.203283
2515.000000	98.199207
2514.000000	98.198032
2513.000000	98.202257
2512.000000	98.209270
2511.000000	98.215284
2510.000000	98.218670
2509.000000	98.219944
2508.000000	98.220350
2507.000000	98.220894
2506.000000	98.222200
2505.000000	98.225107
2504.000000	98.231172
2503.000000	98.241585
2502.000000	98.255309
2501.000000	98.269003
2500.000000	98.278961
2499.000000	98.282908
2498.000000	98.281099
2497.000000	98.277167
2496.000000	98.276612
2495.000000	98.281731
2494.000000	98.288172
2493.000000	98.289449
2492.000000	98.285159
2491.000000	98.281768
2490.000000	98.284696
2489.000000	98.292647
2488.000000	98.301454
2487.000000	98.310685
2486.000000	98.323695
2485.000000	98.342062
2484.000000	98.361635
2483.000000	98.374286
2482.000000	98.374019
2481.000000	98.362746
2480.000000	98.350087
2479.000000	98.344997
2478.000000	98.347077
2477.000000	98.348424
2476.000000	98.344025
2475.000000	98.337563
2474.000000	98.335648
2473.000000	98.339399
2472.000000	98.344314
2471.000000	98.346557
2470.000000	98.346636
2469.000000	98.347492
2468.000000	98.351097
2467.000000	98.357097
2466.000000	98.363581
2465.000000	98.368782
2464.000000	98.372215
2463.000000	98.374071
2462.000000	98.374108
2461.000000	98.372079
2460.000000	98.368860
2459.000000	98.365811
2458.000000	98.363219
2457.000000	98.360779
2456.000000	98.359241
2455.000000	98.359945
2454.000000	98.362871
2453.000000	98.366937
2452.000000	98.371938
2451.000000	98.378275
2450.000000	98.384974
2449.000000	98.390185
2448.000000	98.393656
2447.000000	98.396502
2446.000000	98.398663
2445.000000	98.399003
2444.000000	98.397883
2443.000000	98.396761
2442.000000	98.395094
2441.000000	98.390764
2440.000000	98.384219
2439.000000	98.378967
2438.000000	98.376690
2437.000000	98.374817
2436.000000	98.370750
2435.000000	98.366181
2434.000000	98.365194
2433.000000	98.369639
2432.000000	98.377848
2431.000000	98.386733
2430.000000	98.393958
2429.000000	98.398967
2428.000000	98.402811
2427.000000	98.406428
2426.000000	98.409265
2425.000000	98.410530
2424.000000	98.410847
2423.000000	98.410643
2422.000000	98.407904
2421.000000	98.400597
2420.000000	98.390997
2419.000000	98.384263
2418.000000	98.382387
2417.000000	98.382855
2416.000000	98.383839
2415.000000	98.387047
2414.000000	98.393937
2413.000000	98.402496
2412.000000	98.409950
2411.000000	98.416116
2410.000000	98.421823
2409.000000	98.426072
2408.000000	98.427124
2407.000000	98.425220
2406.000000	98.422365
2405.000000	98.420040
2404.000000	98.418251
2403.000000	98.416133
2402.000000	98.413074
2401.000000	98.410176
2400.000000	98.410406
2399.000000	98.415536
2398.000000	98.422941
2397.000000	98.427539
2396.000000	98.427227
2395.000000	98.424386
2394.000000	98.421998
2393.000000	98.420912
2392.000000	98.421230
2391.000000	98.423323
2390.000000	98.426292
2389.000000	98.428434
2388.000000	98.431042
2387.000000	98.438995
2386.000000	98.455484
2385.000000	98.477547
2384.000000	98.498735
2383.000000	98.515302
2382.000000	98.527903
2381.000000	98.538732
2380.000000	98.548087
2379.000000	98.553154
2378.000000	98.549930
2377.000000	98.537607
2376.000000	98.521725
2375.000000	98.510514
2374.000000	98.507224
2373.000000	98.508436
2372.000000	98.511359
2371.000000	98.518831
2370.000000	98.533710
2369.000000	98.551091
2368.000000	98.560113
2367.000000	98.554449
2366.000000	98.538098
2365.000000	98.520848
2364.000000	98.510438
2363.000000	98.508305
2362.000000	98.510888
2361.000000	98.513942
2360.000000	98.515388
2359.000000	98.515839
2358.000000	98.517550
2357.000000	98.521793
2356.000000	98.526170
2355.000000	98.525661
2354.000000	98.518999
2353.000000	98.509106
2352.000000	98.500977
2351.000000	98.498203
2350.000000	98.499709
2349.000000	98.499779
2348.000000	98.493133
2347.000000	98.479779
2346.000000	98.464444
2345.000000	98.452363
2344.000000	98.447549
2343.000000	98.451130
2342.000000	98.459079
2341.000000	98.466222
2340.000000	98.471715
2339.000000	98.476755
2338.000000	98.479920
2337.000000	98.477826
2336.000000	98.469884
2335.000000	98.461166
2334.000000	98.458101
2333.000000	98.461672
2332.000000	98.465466
2331.000000	98.464324
2330.000000	98.459865
2329.000000	98.456731
2328.000000	98.452668
2327.000000	98.440179
2326.000000	98.415877
2325.000000	98.387743
2324.000000	98.369975
2323.000000	98.371382
2322.000000	98.387626
2321.000000	98.407024
2320.000000	98.421037
2319.000000	98.428455
2318.000000	98.430457
2317.000000	98.429200
2316.000000	98.428567
2315.000000	98.433577
2314.000000	98.444887
2313.000000	98.459122
2312.000000	98.473157
2311.000000	98.487395
2310.000000	98.501539
2309.000000	98.512113
2308.000000	98.515299
2307.000000	98.511640
2306.000000	98.504965
2305.000000	98.498794
2304.000000	98.494361
2303.000000	98.491222
2302.000000	98.488019
2301.000000	98.483982
2300.000000	98.479728
2299.000000	98.476515
2298.000000	98.473932
2297.000000	98.470483
2296.000000	98.464582
2295.000000	98.455022
2294.000000	98.440910
2293.000000	98.424620
2292.000000	98.412671
2291.000000	98.410654
2290.000000	98.416441
2289.000000	98.421550
2288.000000	98.419487
2287.000000	98.410720
2286.000000	98.400139
2285.000000	98.392691
2284.000000	98.391380
2283.000000	98.395569
2282.000000	98.401425
2281.000000	98.406597
2280.000000	98.413525
2279.000000	98.423814
2278.000000	98.431749
2277.000000	98.430338
2276.000000	98.423521
2275.000000	98.424291
2274.000000	98.438599
2273.000000	98.458167
2272.000000	98.472243
2271.000000	98.480130
2270.000000	98.487717
2269.000000	98.497014
2268.000000	98.504003
2267.000000	98.504133
2266.000000	98.496609
2265.000000	98.485757
2264.000000	98.479678
2263.000000	98.484013
2262.000000	98.495321
2261.000000	98.503597
2260.000000	98.502080
2259.000000	98.491747
2258.000000	98.477259
2257.000000	98.463977
2256.000000	98.458607
2255.000000	98.465467
2254.000000	98.480139
2253.000000	98.492585
2252.000000	98.498439
2251.000000	98.502081
2250.000000	98.508003
2249.000000	98.515438
2248.000000	98.522145
2247.000000	98.526166
2246.000000	98.523415
2245.000000	98.511910
2244.000000	98.500404
2243.000000	98.503799
2242.000000	98.525731
2241.000000	98.552690
2240.000000	98.568621
2239.000000	98.568821
2238.000000	98.556679
2237.000000	98.536266
2236.000000	98.513804
2235.000000	98.498984
2234.000000	98.497934
2233.000000	98.508571
2232.000000	98.525488
2231.000000	98.543407
2230.000000	98.553235
2229.000000	98.543979
2228.000000	98.515821
2227.000000	98.485788
2226.000000	98.474175
2225.000000	98.488289
2224.000000	98.521187
2223.000000	98.559868
2222.000000	98.591196
2221.000000	98.607143
2220.000000	98.610713
2219.000000	98.612081
2218.000000	98.615345
2217.000000	98.614641
2216.000000	98.605921
2215.000000	98.594365
2214.000000	98.585477
2213.000000	98.577209
2212.000000	98.567788
2211.000000	98.564714
2210.000000	98.577169
2209.000000	98.602346
2208.000000	98.626479
2207.000000	98.638767
2206.000000	98.639752
2205.000000	98.636777
2204.000000	98.634713
2203.000000	98.631613
2202.000000	98.623474
2201.000000	98.613353
2200.000000	98.611502
2199.000000	98.622036
2198.000000	98.634160
2197.000000	98.634764
2196.000000	98.627863
2195.000000	98.631707
2194.000000	98.656410
2193.000000	98.692544
2192.000000	98.722127
2191.000000	98.733245
2190.000000	98.723715
2189.000000	98.700894
2188.000000	98.679748
2187.000000	98.672052
2186.000000	98.675743
2185.000000	98.682261
2184.000000	98.693126
2183.000000	98.718229
2182.000000	98.755167
2181.000000	98.781009
2180.000000	98.770305
2179.000000	98.716975
2178.000000	98.639839
2177.000000	98.575524
2176.000000	98.559970
2175.000000	98.601034
2174.000000	98.667023
2173.000000	98.711366
2172.000000	98.710932
2171.000000	98.678089
2170.000000	98.643814
2169.000000	98.636652
2168.000000	98.664651
2167.000000	98.704067
2166.000000	98.716221
2165.000000	98.691011
2164.000000	98.664634
2163.000000	98.673809
2162.000000	98.707566
2161.000000	98.734686
2160.000000	98.766110
2159.000000	98.845266
2158.000000	98.966242
2157.000000	99.057928
2156.000000	99.069688
2155.000000	99.019700
2154.000000	98.953378
2153.000000	98.899175
2152.000000	98.864656
2151.000000	98.843750
2150.000000	98.823741
2149.000000	98.802172
2148.000000	98.796654
2147.000000	98.821648
2146.000000	98.859233
2145.000000	98.872190
2144.000000	98.846243
2143.000000	98.800372
2142.000000	98.757414
2141.000000	98.725510
2140.000000	98.707005
2139.000000	98.704035
2138.000000	98.710117
2137.000000	98.712251
2136.000000	98.707480
2135.000000	98.706371
2134.000000	98.716399
2133.000000	98.732063
2132.000000	98.742132
2131.000000	98.736993
2130.000000	98.710995
2129.000000	98.669448
2128.000000	98.632190
2127.000000	98.618495
2126.000000	98.628204
2125.000000	98.645348
2124.000000	98.657265
2123.000000	98.659488
2122.000000	98.646506
2121.000000	98.613816
2120.000000	98.571393
2119.000000	98.540915
2118.000000	98.534707
2117.000000	98.546364
2116.000000	98.562821
2115.000000	98.575660
2114.000000	98.578890
2113.000000	98.568947
2112.000000	98.552193
2111.000000	98.542142
2110.000000	98.543449
2109.000000	98.547295
2108.000000	98.545960
2107.000000	98.543132
2106.000000	98.545226
2105.000000	98.551412
2104.000000	98.556848
2103.000000	98.557841
2102.000000	98.550936
2101.000000	98.535326
2100.000000	98.519460
2099.000000	98.516738
2098.000000	98.531525
2097.000000	98.556383
2096.000000	98.583308
2095.000000	98.607809
2094.000000	98.622220
2093.000000	98.618906
2092.000000	98.603624
2091.000000	98.592807
2090.000000	98.593418
2089.000000	98.596231
2088.000000	98.592677
2087.000000	98.587415
2086.000000	98.588206
2085.000000	98.593806
2084.000000	98.598142
2083.000000	98.598293
2082.000000	98.592708
2081.000000	98.579453
2080.000000	98.561754
2079.000000	98.548456
2078.000000	98.544400
2077.000000	98.546807
2076.000000	98.552705
2075.000000	98.562012
2074.000000	98.572129
2073.000000	98.578502
2072.000000	98.583178
2071.000000	98.592048
2070.000000	98.602111
2069.000000	98.603410
2068.000000	98.596095
2067.000000	98.592617
2066.000000	98.600306
2065.000000	98.614052
2064.000000	98.627971
2063.000000	98.640639
2062.000000	98.646986
2061.000000	98.641729
2060.000000	98.633619
2059.000000	98.638936
2058.000000	98.657275
2057.000000	98.672046
2056.000000	98.677411
2055.000000	98.683031
2054.000000	98.686359
2053.000000	98.666526
2052.000000	98.620275
2051.000000	98.579968
2050.000000	98.578122
2049.000000	98.608171
2048.000000	98.639464
2047.000000	98.661922
2046.000000	98.690302
2045.000000	98.730717
2044.000000	98.768150
2043.000000	98.784303
2042.000000	98.771978
2041.000000	98.739094
2040.000000	98.708319
2039.000000	98.700500
2038.000000	98.712301
2037.000000	98.724039
2036.000000	98.733278
2035.000000	98.759390
2034.000000	98.804733
2033.000000	98.839775
2032.000000	98.844640
2031.000000	98.836744
2030.000000	98.835037
2029.000000	98.826468
2028.000000	98.793108
2027.000000	98.749860
2026.000000	98.731609
2025.000000	98.755641
2024.000000	98.812948
2023.000000	98.881476
2022.000000	98.933446
2021.000000	98.945985
2020.000000	98.922857
2019.000000	98.893202
2018.000000	98.878641
2017.000000	98.874453
2016.000000	98.867313
2015.000000	98.853783
2014.000000	98.834134
2013.000000	98.809113
2012.000000	98.790714
2011.000000	98.796190
2010.000000	98.824280
2009.000000	98.853818
2008.000000	98.870141
2007.000000	98.874737
2006.000000	98.868061
2005.000000	98.847587
2004.000000	98.826068
2003.000000	98.822557
2002.000000	98.831587
2001.000000	98.826761
2000.000000	98.796677
1999.000000	98.758753
1998.000000	98.732499
1997.000000	98.722149
1996.000000	98.729391
1995.000000	98.758605
1994.000000	98.799285
1993.000000	98.824337
1992.000000	98.821991
1991.000000	98.812520
1990.000000	98.814321
1989.000000	98.814565
1988.000000	98.790597
1987.000000	98.743962
1986.000000	98.700989
1985.000000	98.689225
1984.000000	98.716855
1983.000000	98.762364
1982.000000	98.783039
1981.000000	98.752908
1980.000000	98.696468
1979.000000	98.669224
1978.000000	98.696424
1977.000000	98.750018
1976.000000	98.793141
1975.000000	98.819541
1974.000000	98.837151
1973.000000	98.850201
1972.000000	98.869928
1971.000000	98.910222
1970.000000	98.961960
1969.000000	98.996322
1968.000000	99.000753
1967.000000	98.989089
1966.000000	98.971126
1965.000000	98.941688
1964.000000	98.906385
1963.000000	98.886261
1962.000000	98.890138
1961.000000	98.904710
1960.000000	98.915624
1959.000000	98.917867
1958.000000	98.904510
1957.000000	98.871857
1956.000000	98.836864
1955.000000	98.822828
1954.000000	98.827246
1953.000000	98.827632
1952.000000	98.821399
1951.000000	98.829216
1950.000000	98.856299
1949.000000	98.879885
1948.000000	98.882299
1947.000000	98.871229
1946.000000	98.858134
1945.000000	98.840711
1944.000000	98.817543
1943.000000	98.799817
1942.000000	98.796405
1941.000000	98.803093
1940.000000	98.816762
1939.000000	98.839224
1938.000000	98.860223
1937.000000	98.859341
1936.000000	98.835578
1935.000000	98.815485
1934.000000	98.820373
1933.000000	98.841116
1932.000000	98.856600
1931.000000	98.856704
1930.000000	98.840566
1929.000000	98.811589
1928.000000	98.782395
1927.000000	98.773180
1926.000000	98.787748
1925.000000	98.809921
1924.000000	98.825926
1923.000000	98.837999
1922.000000	98.849544
1921.000000	98.853165
1920.000000	98.844184
1919.000000	98.831884
1918.000000	98.825126
1917.000000	98.820600
1916.000000	98.813948
1915.000000	98.810718
1914.000000	98.816128
1913.000000	98.824960
1912.000000	98.830385
1911.000000	98.832850
1910.000000	98.834271
1909.000000	98.831457
1908.000000	98.821672
1907.000000	98.810941
1906.000000	98.803175
1905.000000	98.797290
1904.000000	98.795085
1903.000000	98.800070
1902.000000	98.808039
1901.000000	98.809648
1900.000000	98.804528
1899.000000	98.804754
1898.000000	98.815892
1897.000000	98.830305
1896.000000	98.842673
1895.000000	98.858615
1894.000000	98.880409
1893.000000	98.897703
1892.000000	98.900931
1891.000000	98.892176
1890.000000	98.878120
1889.000000	98.862704
1888.000000	98.850466
1887.000000	98.847015
1886.000000	98.851485
1885.000000	98.856086
1884.000000	98.857628
1883.000000	98.860311
1882.000000	98.864768
1881.000000	98.864143
1880.000000	98.855593
1879.000000	98.848209
1878.000000	98.849852
1877.000000	98.855466
1876.000000	98.859663
1875.000000	98.868807
1874.000000	98.890159
1873.000000	98.919264
1872.000000	98.946548
1871.000000	98.968200
1870.000000	98.982144
1869.000000	98.982712
1868.000000	98.969172
1867.000000	98.948433
1866.000000	98.924216
1865.000000	98.897216
1864.000000	98.873823
1863.000000	98.863581
1862.000000	98.866862
1861.000000	98.873311
1860.000000	98.876038
1859.000000	98.879822
1858.000000	98.889995
1857.000000	98.902294
1856.000000	98.910647
1855.000000	98.915618
1854.000000	98.918433
1853.000000	98.918248
1852.000000	98.912552
1851.000000	98.906318
1850.000000	98.907518
1849.000000	98.916733
1848.000000	98.926852
1847.000000	98.931513
1846.000000	98.930252
1845.000000	98.927456
1844.000000	98.929142
1843.000000	98.936242
1842.000000	98.940488
1841.000000	98.934670
1840.000000	98.922623
1839.000000	98.913958
1838.000000	98.908252
1837.000000	98.900524
1836.000000	98.896370
1835.000000	98.907495
1834.000000	98.932826
1833.000000	98.957129
1832.000000	98.967114
1831.000000	98.966894
1830.000000	98.967501
1829.000000	98.967208
1828.000000	98.956148
1827.000000	98.936301
1826.000000	98.919734
1825.000000	98.911130
1824.000000	98.905342
1823.000000	98.898897
1822.000000	98.893393
1821.000000	98.889537
1820.000000	98.886784
1819.000000	98.888637
1818.000000	98.896322
1817.000000	98.906398
1816.000000	98.916990
1815.000000	98.929447
1814.000000	98.942857
1813.000000	98.947445
1812.000000	98.937295
1811.000000	98.920156
1810.000000	98.905289
1809.000000	98.892404
1808.000000	98.879150
1807.000000	98.869482
1806.000000	98.866952
1805.000000	98.867774
1804.000000	98.867015
1803.000000	98.862378
1802.000000	98.854871
1801.000000	98.840473
1800.000000	98.818688
1799.000000	98.797903
1798.000000	98.786169
1797.000000	98.783197
1796.000000	98.784322
1795.000000	98.786887
1794.000000	98.792857
1793.000000	98.801263
1792.000000	98.810681
1791.000000	98.823041
1790.000000	98.836792
1789.000000	98.845788
1788.000000	98.849088
1787.000000	98.853236
1786.000000	98.864247
1785.000000	98.880466
1784.000000	98.895280
1783.000000	98.901135
1782.000000	98.900333
1781.000000	98.894590
1780.000000	98.887369
1779.000000	98.887508
1778.000000	98.903760
1777.000000	98.936365
1776.000000	98.971539
1775.000000	98.994361
1774.000000	99.001752
1773.000000	98.995048
1772.000000	98.973767
1771.000000	98.941939
1770.000000	98.897322
1769.000000	98.839734
1768.000000	98.787323
1767.000000	98.759027
1766.000000	98.749906
1765.000000	98.733470
1764.000000	98.691400
1763.000000	98.624776
1762.000000	98.547036
1761.000000	98.462966
1760.000000	98.366238
1759.000000	98.241644
1758.000000	98.074667
1757.000000	97.863993
1756.000000	97.633591
1755.000000	97.416603
1754.000000	97.212897
1753.000000	96.993047
1752.000000	96.730957
1751.000000	96.433371
1750.000000	96.127320
1749.000000	95.828431
1748.000000	95.549020
1747.000000	95.313287
1746.000000	95.130925
1745.000000	94.984376
1744.000000	94.865174
1743.000000	94.783320
1742.000000	94.738224
1741.000000	94.717678
1740.000000	94.737445
1739.000000	94.820671
1738.000000	94.940621
1737.000000	95.048778
1736.000000	95.147126
1735.000000	95.299912
1734.000000	95.550019
1733.000000	95.823623
1732.000000	96.044324
1731.000000	96.229200
1730.000000	96.416026
1729.000000	96.615253
1728.000000	96.816097
1727.000000	97.010167
1726.000000	97.196066
1725.000000	97.368255
1724.000000	97.533290
1723.000000	97.703895
1722.000000	97.870073
1721.000000	98.005918
1720.000000	98.106020
1719.000000	98.195471
1718.000000	98.289764
1717.000000	98.363031
1716.000000	98.389399
1715.000000	98.385551
1714.000000	98.370729
1713.000000	98.347340
1712.000000	98.321001
1711.000000	98.305485
1710.000000	98.307876
1709.000000	98.315499
1708.000000	98.303202
1707.000000	98.261654
1706.000000	98.202234
1705.000000	98.143737
1704.000000	98.089957
1703.000000	98.024677
1702.000000	97.934266
1701.000000	97.818315
1700.000000	97.696029
1699.000000	97.598489
1698.000000	97.485069
1697.000000	97.300241
1696.000000	97.079048
1695.000000	96.910220
1694.000000	96.812255
1693.000000	96.730701
1692.000000	96.636665
1691.000000	96.539485
1690.000000	96.450351
1689.000000	96.371025
1688.000000	96.295978
1687.000000	96.223252
1686.000000	96.135556
1685.000000	95.985361
1684.000000	95.771222
1683.000000	95.587545
1682.000000	95.453488
1681.000000	95.324416
1680.000000	95.195525
1679.000000	95.079084
1678.000000	94.965576
1677.000000	94.828450
1676.000000	94.662954
1675.000000	94.503019
1674.000000	94.384223
1673.000000	94.284989
1672.000000	94.166674
1671.000000	94.009892
1670.000000	93.810865
1669.000000	93.591727
1668.000000	93.395762
1667.000000	93.246374
1666.000000	93.126693
1665.000000	92.999303
1664.000000	92.839709
1663.000000	92.651454
1662.000000	92.465693
1661.000000	92.300096
1660.000000	92.152386
1659.000000	92.031802
1658.000000	91.948943
1657.000000	91.887235
1656.000000	91.810431
1655.000000	91.690138
1654.000000	91.489987
1653.000000	91.260013
1652.000000	91.146521
1651.000000	91.138525
1650.000000	91.139755
1649.000000	91.101030
1648.000000	91.006757
1647.000000	90.882640
1646.000000	90.787845
1645.000000	90.735686
1644.000000	90.701422
1643.000000	90.673489
1642.000000	90.661294
1641.000000	90.675007
1640.000000	90.707262
1639.000000	90.741738
1638.000000	90.759910
1637.000000	90.746923
1636.000000	90.705034
1635.000000	90.675388
1634.000000	90.673158
1633.000000	90.676744
1632.000000	90.679496
1631.000000	90.693210
1630.000000	90.727731
1629.000000	90.782675
1628.000000	90.855705
1627.000000	90.942444
1626.000000	91.035479
1625.000000	91.128633
1624.000000	91.228499
1623.000000	91.349752
1622.000000	91.491023
1621.000000	91.629441
1620.000000	91.747618
1619.000000	91.850207
1618.000000	91.961135
1617.000000	92.110057
1616.000000	92.292956
1615.000000	92.464622
1614.000000	92.599456
1613.000000	92.715291
1612.000000	92.842114
1611.000000	92.987296
1610.000000	93.135225
1609.000000	93.273800
1608.000000	93.407143
1607.000000	93.537183
1606.000000	93.660298
1605.000000	93.775566
1604.000000	93.883458
1603.000000	93.979988
1602.000000	94.059100
1601.000000	94.125159
1600.000000	94.190990
1599.000000	94.262116
1598.000000	94.332326
1597.000000	94.394660
1596.000000	94.449114
1595.000000	94.495653
1594.000000	94.531074
1593.000000	94.556437
1592.000000	94.578274
1591.000000	94.598434
1590.000000	94.611940
1589.000000	94.617289
1588.000000	94.619450
1587.000000	94.620049
1586.000000	94.613245
1585.000000	94.598872
1584.000000	94.578030
1583.000000	94.550887
1582.000000	94.523534
1581.000000	94.507561
1580.000000	94.501309
1579.000000	94.485437
1578.000000	94.438099
1577.000000	94.355117
1576.000000	94.270879
1575.000000	94.221031
1574.000000	94.193522
1573.000000	94.162427
1572.000000	94.119940
1571.000000	94.058803
1570.000000	93.964573
1569.000000	93.855623
1568.000000	93.763569
1567.000000	93.685878
1566.000000	93.602250
1565.000000	93.516058
1564.000000	93.445581
1563.000000	93.399046
1562.000000	93.368243
1561.000000	93.344375
1560.000000	93.264351
1559.000000	93.049175
1558.000000	92.822768
1557.000000	92.670012
1556.000000	92.536181
1555.000000	92.398870
1554.000000	92.275852
1553.000000	92.175383
1552.000000	92.082347
1551.000000	91.985353
1550.000000	91.885505
1549.000000	91.795697
1548.000000	91.726388
1547.000000	91.679481
1546.000000	91.653438
1545.000000	91.642627
1544.000000	91.637729
1543.000000	91.632799
1542.000000	91.607390
1541.000000	91.526502
1540.000000	91.409978
1539.000000	91.340394
1538.000000	91.330512
1537.000000	91.336008
1536.000000	91.334731
1535.000000	91.329837
1534.000000	91.331573
1533.000000	91.339233
1532.000000	91.349091
1531.000000	91.366044
1530.000000	91.394052
1529.000000	91.428923
1528.000000	91.467773
1527.000000	91.517098
1526.000000	91.581888
1525.000000	91.645152
1524.000000	91.682696
1523.000000	91.692872
1522.000000	91.700248
1521.000000	91.732511
1520.000000	91.781913
1519.000000	91.820647
1518.000000	91.836276
1517.000000	91.835835
1516.000000	91.837891
1515.000000	91.851613
1514.000000	91.880700
1513.000000	91.935487
1512.000000	92.029975
1511.000000	92.159696
1510.000000	92.301188
1509.000000	92.425364
1508.000000	92.503770
1507.000000	92.531646
1506.000000	92.556587
1505.000000	92.598848
1504.000000	92.647455
1503.000000	92.699630
1502.000000	92.761115
1501.000000	92.834166
1500.000000	92.907001
1499.000000	92.966141
1498.000000	93.007257
1497.000000	93.036853
1496.000000	93.077878
1495.000000	93.145701
1494.000000	93.228341
1493.000000	93.305351
1492.000000	93.371435
1491.000000	93.428089
1490.000000	93.463932
1489.000000	93.461355
1488.000000	93.427543
1487.000000	93.389612
1486.000000	93.357877
1485.000000	93.327542
1484.000000	93.291064
1483.000000	93.248363
1482.000000	93.199193
1481.000000	93.139871
1480.000000	93.073050
1479.000000	93.006661
1478.000000	92.940797
1477.000000	92.864990
1476.000000	92.777055
1475.000000	92.676862
1474.000000	92.541957
1473.000000	92.336585
1472.000000	92.086632
1471.000000	91.868275
1470.000000	91.702901
1469.000000	91.565013
1468.000000	91.441263
1467.000000	91.327181
1466.000000	91.210520
1465.000000	91.081810
1464.000000	90.960250
1463.000000	90.878918
1462.000000	90.839576
1461.000000	90.821205
1460.000000	90.797590
1459.000000	90.735994
1458.000000	90.586412
1457.000000	90.352721
1456.000000	90.149990
1455.000000	90.037836
1454.000000	89.966498
1453.000000	89.897707
1452.000000	89.837669
1451.000000	89.798608
1450.000000	89.769348
1449.000000	89.728077
1448.000000	89.676408
1447.000000	89.631395
1446.000000	89.602891
1445.000000	89.584234
1444.000000	89.567184
1443.000000	89.553729
1442.000000	89.546834
1441.000000	89.545243
1440.000000	89.543354
1439.000000	89.534981
1438.000000	89.508628
1437.000000	89.458292
1436.000000	89.409330
1435.000000	89.392635
1434.000000	89.399694
1433.000000	89.409914
1432.000000	89.418076
1431.000000	89.420828
1430.000000	89.405682
1429.000000	89.366189
1428.000000	89.319312
1427.000000	89.280923
1426.000000	89.251564
1425.000000	89.227221
1424.000000	89.211071
1423.000000	89.208147
1422.000000	89.209106
1421.000000	89.199752
1420.000000	89.173597
1419.000000	89.136001
1418.000000	89.100462
1417.000000	89.072880
1416.000000	89.056143
1415.000000	89.056973
1414.000000	89.075673
1413.000000	89.104562
1412.000000	89.139867
1411.000000	89.184795
1410.000000	89.239056
1409.000000	89.297524
1408.000000	89.360512
1407.000000	89.425638
1406.000000	89.483443
1405.000000	89.530758
1404.000000	89.579257
1403.000000	89.638984
1402.000000	89.702067
1401.000000	89.757013
1400.000000	89.803667
1399.000000	89.848650
1398.000000	89.890593
1397.000000	89.920313
1396.000000	89.935822
1395.000000	89.944503
1394.000000	89.958246
1393.000000	89.987043
1392.000000	90.035504
1391.000000	90.101243
1390.000000	90.175212
1389.000000	90.248269
1388.000000	90.319094
1387.000000	90.389073
1386.000000	90.453515
1385.000000	90.509615
1384.000000	90.565560
1383.000000	90.633231
1382.000000	90.713610
1381.000000	90.800704
1380.000000	90.896069
1379.000000	91.006595
1378.000000	91.131037
1377.000000	91.260578
1376.000000	91.389572
1375.000000	91.514084
1374.000000	91.627589
1373.000000	91.726959
1372.000000	91.819170
1371.000000	91.911203
1370.000000	92.003033
1369.000000	92.093191
1368.000000	92.183875
1367.000000	92.277870
1366.000000	92.373378
1365.000000	92.466551
1364.000000	92.553360
1363.000000	92.627565
1362.000000	92.683892
1361.000000	92.725936
1360.000000	92.764473
1359.000000	92.805619
1358.000000	92.846642
1357.000000	92.882531
1356.000000	92.912144
1355.000000	92.937192
1354.000000	92.959377
1353.000000	92.979339
1352.000000	92.998462
1351.000000	93.015277
1350.000000	93.026582
1349.000000	93.031669
1348.000000	93.031496
1347.000000	93.024329
1346.000000	93.006180
1345.000000	92.978438
1344.000000	92.949856
1343.000000	92.927545
1342.000000	92.908581
1341.000000	92.882892
1340.000000	92.843270
1339.000000	92.792460
1338.000000	92.740734
1337.000000	92.699031
1336.000000	92.675543
1335.000000	92.673602
1334.000000	92.690600
1333.000000	92.721415
1332.000000	92.762687
1331.000000	92.812322
1330.000000	92.867419
1329.000000	92.924770
1328.000000	92.982773
1327.000000	93.039677
1326.000000	93.092615
1325.000000	93.140085
1324.000000	93.183180
1323.000000	93.223099
1322.000000	93.258782
1321.000000	93.288627
1320.000000	93.313189
1319.000000	93.335653
1318.000000	93.360318
1317.000000	93.391165
1316.000000	93.430271
1315.000000	93.476163
1314.000000	93.524559
1313.000000	93.572004
1312.000000	93.618366
1311.000000	93.664964
1310.000000	93.711996
1309.000000	93.758388
1308.000000	93.803571
1307.000000	93.847827
1306.000000	93.891953
1305.000000	93.936832
1304.000000	93.982824
1303.000000	94.029819
1302.000000	94.077957
1301.000000	94.127768
1300.000000	94.178643
1299.000000	94.228468
1298.000000	94.275495
1297.000000	94.319364
1296.000000	94.358695
1295.000000	94.389137
1294.000000	94.406734
1293.000000	94.412400
1292.000000	94.411463
1291.000000	94.409296
1290.000000	94.407646
1289.000000	94.404457
1288.000000	94.396303
1287.000000	94.382153
1286.000000	94.365845
1285.000000	94.353226
1284.000000	94.346368
1283.000000	94.342458
1282.000000	94.338626
1281.000000	94.335502
1280.000000	94.333748
1279.000000	94.329879
1278.000000	94.318935
1277.000000	94.300035
1276.000000	94.275884
1275.000000	94.246741
1274.000000	94.208667
1273.000000	94.158226
1272.000000	94.096159
1271.000000	94.025679
1270.000000	93.948378
1269.000000	93.863791
1268.000000	93.771823
1267.000000	93.673752
1266.000000	93.571471
1265.000000	93.466728
1264.000000	93.361284
1263.000000	93.256643
1262.000000	93.153269
1261.000000	93.051573
1260.000000	92.953701
1259.000000	92.862651
1258.000000	92.779433
1257.000000	92.703591
1256.000000	92.636360
1255.000000	92.580697
1254.000000	92.537019
1253.000000	92.500793
1252.000000	92.465661
1251.000000	92.427182
1250.000000	92.383580
1249.000000	92.335275
1248.000000	92.284430
1247.000000	92.233355
1246.000000	92.182289
1245.000000	92.129919
1244.000000	92.076695
1243.000000	92.026299
1242.000000	91.983710
1241.000000	91.952798
1240.000000	91.935743
1239.000000	91.932872
1238.000000	91.942451
1237.000000	91.963152
1236.000000	91.995918
1235.000000	92.041755
1234.000000	92.099080
1233.000000	92.164970
1232.000000	92.239188
1231.000000	92.324111
1230.000000	92.421621
1229.000000	92.532735
1228.000000	92.658278
1227.000000	92.797789
1226.000000	92.947638
1225.000000	93.101806
1224.000000	93.254274
1223.000000	93.400066
1222.000000	93.536407
1221.000000	93.663931
1220.000000	93.784835
1219.000000	93.898820
1218.000000	94.003028
1217.000000	94.095413
1216.000000	94.175498
1215.000000	94.242272
1214.000000	94.294223
1213.000000	94.333202
1212.000000	94.364433
1211.000000	94.390878
1210.000000	94.410005
1209.000000	94.417095
1208.000000	94.411051
1207.000000	94.395440
1206.000000	94.375215
1205.000000	94.354120
1204.000000	94.334299
1203.000000	94.317372
1202.000000	94.305236
1201.000000	94.299725
1200.000000	94.300942
1199.000000	94.306115
1198.000000	94.311225
1197.000000	94.314077
1196.000000	94.315062
1195.000000	94.315118
1194.000000	94.314563
1193.000000	94.313699
1192.000000	94.312379
1191.000000	94.308576
1190.000000	94.299671
1189.000000	94.285549
1188.000000	94.268275
1187.000000	94.247957
1186.000000	94.221038
1185.000000	94.184429
1184.000000	94.138791
1183.000000	94.086283
1182.000000	94.027314
1181.000000	93.961355
1180.000000	93.889744
1179.000000	93.814700
1178.000000	93.736800
1177.000000	93.656308
1176.000000	93.575706
1175.000000	93.497745
1174.000000	93.421337
1173.000000	93.343123
1172.000000	93.263435
1171.000000	93.187365
1170.000000	93.118941
1169.000000	93.057485
1168.000000	93.000693
1167.000000	92.947774
1166.000000	92.899022
1165.000000	92.855338
1164.000000	92.820092
1163.000000	92.798943
1162.000000	92.795316
1161.000000	92.809135
1160.000000	92.840013
1159.000000	92.888993
1158.000000	92.956718
1157.000000	93.041428
1156.000000	93.140826
1155.000000	93.253250
1154.000000	93.377267
1153.000000	93.512948
1152.000000	93.661851
1151.000000	93.823868
1150.000000	93.994176
1149.000000	94.165958
1148.000000	94.335895
1147.000000	94.504486
1146.000000	94.672320
1145.000000	94.838237
1144.000000	95.000250
1143.000000	95.155681
1142.000000	95.301396
1141.000000	95.435659
1140.000000	95.559490
1139.000000	95.675182
1138.000000	95.782875
1137.000000	95.880223
1136.000000	95.964773
1135.000000	96.036006
1134.000000	96.095722
1133.000000	96.146024
1132.000000	96.187700
1131.000000	96.219936
1130.000000	96.241375
1129.000000	96.252321
1128.000000	96.255645
1127.000000	96.255886
1126.000000	96.256372
1125.000000	96.256813
1124.000000	96.254851
1123.000000	96.249141
1122.000000	96.239659
1121.000000	96.224568
1120.000000	96.198633
1119.000000	96.156822
1118.000000	96.097601
1117.000000	96.021885
1116.000000	95.930478
1115.000000	95.824615
1114.000000	95.708636
1113.000000	95.589951
1112.000000	95.477149
1111.000000	95.378570
1110.000000	95.301176
1109.000000	95.248697
1108.000000	95.221132
1107.000000	95.215127
1106.000000	95.223665
1105.000000	95.237836
1104.000000	95.250888
1103.000000	95.261263
1102.000000	95.269162
1101.000000	95.270583
1100.000000	95.257158
1099.000000	95.223680
1098.000000	95.173718
1097.000000	95.115883
1096.000000	95.057834
1095.000000	95.005113
1094.000000	94.962218
1093.000000	94.930997
1092.000000	94.910067
1091.000000	94.898852
1090.000000	94.901101
1089.000000	94.920459
1088.000000	94.953575
1087.000000	94.992014
1086.000000	95.031209
1085.000000	95.074938
1084.000000	95.128915
1083.000000	95.193054
1082.000000	95.262738
1081.000000	95.334789
1080.000000	95.409466
1079.000000	95.487369
1078.000000	95.567389
1077.000000	95.647727
1076.000000	95.726748
1075.000000	95.802622
1074.000000	95.872958
1073.000000	95.934440
1072.000000	95.982755
1071.000000	96.015652
1070.000000	96.036542
1069.000000	96.052238
1068.000000	96.065962
1067.000000	96.074927
1066.000000	96.076747
1065.000000	96.075025
1064.000000	96.076140
1063.000000	96.082569
1062.000000	96.091453
1061.000000	96.098354
1060.000000	96.100737
1059.000000	96.099828
1058.000000	96.101070
1057.000000	96.111046
1056.000000	96.131375
1055.000000	96.156453
1054.000000	96.178986
1053.000000	96.196719
1052.000000	96.212626
1051.000000	96.230462
1050.000000	96.252659
1049.000000	96.280632
1048.000000	96.313444
1047.000000	96.346214
1046.000000	96.372359
1045.000000	96.387691
1044.000000	96.391336
1043.000000	96.384630
1042.000000	96.370381
1041.000000	96.351456
1040.000000	96.327635
1039.000000	96.294260
1038.000000	96.246551
1037.000000	96.185043
1036.000000	96.116427
1035.000000	96.050072
1034.000000	95.993991
1033.000000	95.951986
1032.000000	95.922784
1031.000000	95.902633
1030.000000	95.889892
1029.000000	95.886846
1028.000000	95.895572
1027.000000	95.913840
1026.000000	95.937340
1025.000000	95.964483
1024.000000	95.996412
1023.000000	96.032407
1022.000000	96.069029
1021.000000	96.104422
1020.000000	96.140125
1019.000000	96.177879
1018.000000	96.217218
1017.000000	96.257550
1016.000000	96.299954
1015.000000	96.344934
1014.000000	96.390769
1013.000000	96.436528
1012.000000	96.485561
1011.000000	96.543233
1010.000000	96.610698
1009.000000	96.682602
1008.000000	96.751635
1007.000000	96.814555
1006.000000	96.873060
1005.000000	96.929424
1004.000000	96.982740
1003.000000	97.030462
1002.000000	97.072762
1001.000000	97.113171
1000.000000	97.154866
999.000000	97.197603
998.000000	97.238601
997.000000	97.274982
996.000000	97.304785
995.000000	97.327727
994.000000	97.345845
993.000000	97.362112
992.000000	97.377980
991.000000	97.393200
990.000000	97.407939
989.000000	97.422966
988.000000	97.437700
987.000000	97.450353
986.000000	97.460129
985.000000	97.467062
984.000000	97.469410
983.000000	97.464428
982.000000	97.452847
981.000000	97.439445
980.000000	97.427822
979.000000	97.417198
978.000000	97.405629
977.000000	97.393169
976.000000	97.379639
975.000000	97.362283
974.000000	97.339187
973.000000	97.313867
972.000000	97.293878
971.000000	97.285586
970.000000	97.290842
969.000000	97.306502
968.000000	97.325511
967.000000	97.340838
966.000000	97.352041
965.000000	97.366343
964.000000	97.390006
963.000000	97.420498
962.000000	97.450397
961.000000	97.477905
960.000000	97.508548
959.000000	97.546246
958.000000	97.587929
957.000000	97.628707
956.000000	97.668793
955.000000	97.712146
954.000000	97.760266
953.000000	97.810119
952.000000	97.857028
951.000000	97.897655
950.000000	97.931000
949.000000	97.958820
948.000000	97.985262
947.000000	98.014381
946.000000	98.046466
945.000000	98.076940
944.000000	98.100022
943.000000	98.113978
942.000000	98.122706
941.000000	98.131531
940.000000	98.142205
939.000000	98.153061
938.000000	98.162950
937.000000	98.173300
936.000000	98.186316
935.000000	98.203035
934.000000	98.223415
933.000000	98.246791
932.000000	98.271751
931.000000	98.296730
930.000000	98.320808
929.000000	98.342621
928.000000	98.359210
927.000000	98.369032
926.000000	98.376532
925.000000	98.390255
924.000000	98.414358
923.000000	98.443997
922.000000	98.471140
921.000000	98.492903
920.000000	98.511835
919.000000	98.530169
918.000000	98.547585
917.000000	98.564656
916.000000	98.584794
915.000000	98.610861
914.000000	98.641071
913.000000	98.670064
912.000000	98.694433
911.000000	98.716034
910.000000	98.739080
909.000000	98.764435
908.000000	98.788283
907.000000	98.806853
906.000000	98.820631
905.000000	98.832632
904.000000	98.844211
903.000000	98.854764
902.000000	98.864284
901.000000	98.874126
900.000000	98.885977
899.000000	98.901923
898.000000	98.923703
897.000000	98.948877
896.000000	98.969688
895.000000	98.979624
894.000000	98.980928
893.000000	98.981842
892.000000	98.986202
891.000000	98.988517
890.000000	98.975987
889.000000	98.929481
888.000000	98.824728
887.000000	98.642341
886.000000	98.385261
885.000000	98.082685
884.000000	97.771453
883.000000	97.472162
882.000000	97.178801
881.000000	96.867796
880.000000	96.518187
879.000000	96.130201
878.000000	95.729857
877.000000	95.358850
876.000000	95.059114
875.000000	94.863657
874.000000	94.795193
873.000000	94.865005
872.000000	95.071620
871.000000	95.396239
870.000000	95.800459
869.000000	96.232921
868.000000	96.642124
867.000000	96.992002
866.000000	97.272224
865.000000	97.494540
864.000000	97.675888
863.000000	97.825395
862.000000	97.946450
861.000000	98.045475
860.000000	98.132609
859.000000	98.214144
858.000000	98.289289
857.000000	98.353391
856.000000	98.402735
855.000000	98.437932
854.000000	98.464568
853.000000	98.488478
852.000000	98.507074
851.000000	98.509384
850.000000	98.490713
849.000000	98.465716
848.000000	98.460802
847.000000	98.491060
846.000000	98.547613
845.000000	98.608564
844.000000	98.658309
843.000000	98.694989
842.000000	98.724043
841.000000	98.749616
840.000000	98.772208
839.000000	98.790995
838.000000	98.805693
837.000000	98.815682
836.000000	98.819214
835.000000	98.816147
834.000000	98.811480
833.000000	98.812937
832.000000	98.823002
831.000000	98.836170
830.000000	98.846941
829.000000	98.858091
828.000000	98.876494
827.000000	98.901582
826.000000	98.923944
825.000000	98.936593
824.000000	98.942067
823.000000	98.945810
822.000000	98.948133
821.000000	98.947384
820.000000	98.946466
819.000000	98.949931
818.000000	98.956378
817.000000	98.959450
816.000000	98.956403
815.000000	98.951148
814.000000	98.948028
813.000000	98.947319
812.000000	98.949155
811.000000	98.956654
810.000000	98.970162
809.000000	98.981244
808.000000	98.979016
807.000000	98.963045
806.000000	98.945122
805.000000	98.936808
804.000000	98.939082
803.000000	98.945863
802.000000	98.952515
801.000000	98.956525
800.000000	98.953396
799.000000	98.938209
798.000000	98.912096
797.000000	98.883271
796.000000	98.860238
795.000000	98.845633
794.000000	98.836524
793.000000	98.828538
792.000000	98.819236
791.000000	98.809107
790.000000	98.799505
789.000000	98.788473
788.000000	98.769701
787.000000	98.738992
786.000000	98.702684
785.000000	98.676377
784.000000	98.672232
783.000000	98.687942
782.000000	98.709493
781.000000	98.723864
780.000000	98.727270
779.000000	98.722294
778.000000	98.711163
777.000000	98.694307
776.000000	98.673754
775.000000	98.654312
774.000000	98.639966
773.000000	98.630477
772.000000	98.623123
771.000000	98.617065
770.000000	98.613984
769.000000	98.614042
768.000000	98.612849
767.000000	98.604027
766.000000	98.584781
765.000000	98.558299
764.000000	98.530924
763.000000	98.507517
762.000000	98.488953
761.000000	98.472513
760.000000	98.454056
759.000000	98.430847
758.000000	98.403499
757.000000	98.375113
756.000000	98.348175
755.000000	98.322989
754.000000	98.299820
753.000000	98.281134
752.000000	98.269144
751.000000	98.261345
750.000000	98.251861
749.000000	98.239017
748.000000	98.228396
747.000000	98.225114
746.000000	98.225648
745.000000	98.221907
744.000000	98.212052
743.000000	98.201280
742.000000	98.191562
741.000000	98.177647
740.000000	98.156561
739.000000	98.134632
738.000000	98.118789
737.000000	98.104857
736.000000	98.081711
735.000000	98.046070
734.000000	98.006025
733.000000	97.969248
732.000000	97.934606
731.000000	97.897659
730.000000	97.858424
729.000000	97.819534
728.000000	97.782206
727.000000	97.748023
726.000000	97.720254
725.000000	97.700223
724.000000	97.684382
723.000000	97.666991
722.000000	97.643158
721.000000	97.607286
720.000000	97.552289
719.000000	97.472947
718.000000	97.364490
717.000000	97.213878
716.000000	97.001239
715.000000	96.724408
714.000000	96.426594
713.000000	96.189691
712.000000	96.086550
711.000000	96.131500
710.000000	96.275151
709.000000	96.443221
708.000000	96.580351
707.000000	96.667698
706.000000	96.711991
705.000000	96.727437
704.000000	96.726014
703.000000	96.714593
702.000000	96.696067
701.000000	96.671904
700.000000	96.643762
699.000000	96.615210
698.000000	96.591586
697.000000	96.577771
696.000000	96.574504
695.000000	96.575963
694.000000	96.575747
693.000000	96.574783
692.000000	96.579022
691.000000	96.589635
690.000000	96.598310
689.000000	96.595826
688.000000	96.583127
687.000000	96.569373
686.000000	96.561151
685.000000	96.555892
684.000000	96.544779
683.000000	96.522179
682.000000	96.492693
681.000000	96.469099
680.000000	96.460975
679.000000	96.466113
678.000000	96.473874
677.000000	96.475321
676.000000	96.470418
675.000000	96.463251
674.000000	96.458538
673.000000	96.461050
672.000000	96.475143
671.000000	96.501599
670.000000	96.539994
669.000000	96.579341
668.000000	96.582546
667.000000	96.569300
666.000000	96.585165
665.000000	96.604109
664.000000	96.607711
663.000000	96.601985
662.000000	96.592733
661.000000	96.585429
660.000000	96.587122
659.000000	96.605020
658.000000	96.630658
657.000000	96.641656
656.000000	96.625434
655.000000	96.590413
654.000000	96.552588
653.000000	96.521647
652.000000	96.499990
651.000000	96.482487
650.000000	96.456310
649.000000	96.413928
648.000000	96.367044
647.000000	96.332923
646.000000	96.306930
645.000000	96.268189
644.000000	96.211707
643.000000	96.154060
642.000000	96.106767
641.000000	96.062979
640.000000	96.017171
639.000000	95.978913
638.000000	95.955965
637.000000	95.942105
636.000000	95.931590
635.000000	95.928527
634.000000	95.933916
633.000000	95.940362
632.000000	95.947300
631.000000	95.964070
630.000000	95.988652
629.000000	96.001584
628.000000	95.992691
627.000000	95.976722
626.000000	95.969246
625.000000	95.962724
624.000000	95.940813
623.000000	95.902738
622.000000	95.859841
621.000000	95.819984
620.000000	95.788593
619.000000	95.773142
618.000000	95.771126
617.000000	95.763680
616.000000	95.737718
615.000000	95.704873
614.000000	95.683146
613.000000	95.670902
612.000000	95.654838
611.000000	95.635627
610.000000	95.628573
609.000000	95.641801
608.000000	95.668552
607.000000	95.699512
606.000000	95.730614
605.000000	95.762271
604.000000	95.800750
603.000000	95.857060
602.000000	95.935415
601.000000	96.023719
600.000000	96.103391
599.000000	96.167756
598.000000	96.224954
597.000000	96.284009
596.000000	96.344333
595.000000	96.398594
594.000000	96.440570
593.000000	96.470629
592.000000	96.495714
591.000000	96.522625
590.000000	96.551181
589.000000	96.577252
588.000000	96.600359
587.000000	96.620998
586.000000	96.633447
585.000000	96.632269
584.000000	96.626767
583.000000	96.634604
582.000000	96.654377
581.000000	96.659374
580.000000	96.630728
579.000000	96.586997
578.000000	96.565978
577.000000	96.583390
576.000000	96.620205
575.000000	96.645428
574.000000	96.644367
573.000000	96.625373
572.000000	96.607200
571.000000	96.603876
570.000000	96.615805
569.000000	96.634243
568.000000	96.654053
567.000000	96.673707
566.000000	96.684404
565.000000	96.672686
564.000000	96.638457
563.000000	96.600670
562.000000	96.579304
561.000000	96.578500
560.000000	96.590579
559.000000	96.606321
558.000000	96.615824
557.000000	96.610721
556.000000	96.591937
555.000000	96.567532
554.000000	96.541486
553.000000	96.515239
552.000000	96.500383
551.000000	96.513031
550.000000	96.548683
549.000000	96.581072
548.000000	96.595719
547.000000	96.605968
546.000000	96.627219
545.000000	96.652598
544.000000	96.666899
543.000000	96.667736
542.000000	96.661265
541.000000	96.653205
540.000000	96.653077
539.000000	96.670864
538.000000	96.698084
537.000000	96.709553
536.000000	96.695768
535.000000	96.675593
534.000000	96.665083
533.000000	96.652931
532.000000	96.622167
531.000000	96.578477
530.000000	96.539713
529.000000	96.513413
528.000000	96.502010
527.000000	96.514621
526.000000	96.551696
525.000000	96.592177
524.000000	96.620496
523.000000	96.647321
522.000000	96.686519
521.000000	96.732946
520.000000	96.775130
519.000000	96.809820
518.000000	96.828760
517.000000	96.817273
516.000000	96.788356
515.000000	96.786518
514.000000	96.833446
513.000000	96.898144
512.000000	96.940927
511.000000	96.961553
510.000000	96.980015
509.000000	96.992410
508.000000	96.983599
507.000000	96.971008
506.000000	96.990164
505.000000	97.041134
504.000000	97.092496
503.000000	97.131360
502.000000	97.171096
501.000000	97.211232
500.000000	97.230760
499.000000	97.228276
498.000000	97.232239
497.000000	97.261813
496.000000	97.298430
495.000000	97.306601
494.000000	97.272104
493.000000	97.214721
492.000000	97.175792
491.000000	97.192757
490.000000	97.269329
489.000000	97.369634
488.000000	97.449378
487.000000	97.488273
486.000000	97.494871
485.000000	97.496504
484.000000	97.528422
483.000000	97.612420
482.000000	97.725039
481.000000	97.801965
480.000000	97.794273
479.000000	97.713375
478.000000	97.616678
477.000000	97.560503
476.000000	97.572520
475.000000	97.652965
474.000000	97.776604
473.000000	97.894556
472.000000	97.965965
471.000000	97.993495
470.000000	98.001360
469.000000	98.001971
468.000000	98.010166
467.000000	98.050926
466.000000	98.120525
465.000000	98.173228
464.000000	98.190146
463.000000	98.214170
462.000000	98.308446
461.000000	98.442525
460.000000	98.532704
459.000000	98.584059
458.000000	98.600744
457.000000	98.628117
456.000000	98.681105
455.000000	98.773950
454.000000	98.900248
453.000000	99.010398
452.000000	99.032626
451.000000	98.973925
450.000000	98.911534
