PE IR       SUBTECH     SPECTRUM    ASCII       PEDS        4.00        
   -1
3C-YYX-C010_1.ASC
23/09/07
11:19:08.00
23/09/07
11:30:09.00
uco
Sample 010 By uco Date Thursday, September 07 2023
450.000000
#HDR
-1
-1
#GR
cm-1
%T
1.0
0.0
4000.000000
-1.000000
3551
8
98.645507
78.529958
#DATA
4000.000000	98.599510
3999.000000	98.594176
3998.000000	98.587329
3997.000000	98.582103
3996.000000	98.579855
3995.000000	98.580016
3994.000000	98.581283
3993.000000	98.582637
3992.000000	98.583468
3991.000000	98.583409
3990.000000	98.582503
3989.000000	98.581322
3988.000000	98.580556
3987.000000	98.580289
3986.000000	98.579944
3985.000000	98.579229
3984.000000	98.578983
3983.000000	98.580635
3982.000000	98.584523
3981.000000	98.588909
3980.000000	98.590905
3979.000000	98.588519
3978.000000	98.582042
3977.000000	98.574016
3976.000000	98.568006
3975.000000	98.566812
3974.000000	98.570866
3973.000000	98.577861
3972.000000	98.584110
3971.000000	98.586736
3970.000000	98.585241
3969.000000	98.581377
3968.000000	98.577655
3967.000000	98.575618
3966.000000	98.575049
3965.000000	98.574622
3964.000000	98.573241
3963.000000	98.570721
3962.000000	98.567499
3961.000000	98.564165
3960.000000	98.561186
3959.000000	98.558892
3958.000000	98.557345
3957.000000	98.556095
3956.000000	98.554453
3955.000000	98.551984
3954.000000	98.548817
3953.000000	98.545817
3952.000000	98.544468
3951.000000	98.546297
3950.000000	98.551559
3949.000000	98.558348
3948.000000	98.563550
3947.000000	98.564856
3946.000000	98.562245
3945.000000	98.557884
3944.000000	98.555149
3943.000000	98.556964
3942.000000	98.563393
3941.000000	98.571388
3940.000000	98.577024
3939.000000	98.577574
3938.000000	98.572322
3937.000000	98.562452
3936.000000	98.550968
3935.000000	98.542043
3934.000000	98.539326
3933.000000	98.544159
3932.000000	98.554340
3931.000000	98.564948
3930.000000	98.570991
3929.000000	98.570125
3928.000000	98.564000
3927.000000	98.556950
3926.000000	98.553343
3925.000000	98.554928
3924.000000	98.559933
3923.000000	98.565123
3922.000000	98.568311
3921.000000	98.568422
3920.000000	98.564863
3919.000000	98.558062
3918.000000	98.550717
3917.000000	98.546947
3916.000000	98.548693
3915.000000	98.553568
3914.000000	98.556722
3913.000000	98.554945
3912.000000	98.548747
3911.000000	98.541570
3910.000000	98.536978
3909.000000	98.536058
3908.000000	98.537460
3907.000000	98.538924
3906.000000	98.538820
3905.000000	98.537428
3904.000000	98.537259
3903.000000	98.541273
3902.000000	98.549890
3901.000000	98.559894
3900.000000	98.567342
3899.000000	98.570206
3898.000000	98.568697
3897.000000	98.564386
3896.000000	98.559001
3895.000000	98.554029
3894.000000	98.550645
3893.000000	98.549262
3892.000000	98.549281
3891.000000	98.549682
3890.000000	98.550324
3889.000000	98.551989
3888.000000	98.554909
3887.000000	98.558354
3886.000000	98.561247
3885.000000	98.562962
3884.000000	98.564470
3883.000000	98.567169
3882.000000	98.570542
3881.000000	98.571536
3880.000000	98.567226
3879.000000	98.558476
3878.000000	98.549073
3877.000000	98.541760
3876.000000	98.537777
3875.000000	98.537787
3874.000000	98.540775
3873.000000	98.543846
3872.000000	98.544955
3871.000000	98.545367
3870.000000	98.547818
3869.000000	98.552417
3868.000000	98.556880
3867.000000	98.559475
3866.000000	98.560060
3865.000000	98.559684
3864.000000	98.559296
3863.000000	98.558772
3862.000000	98.557091
3861.000000	98.553569
3860.000000	98.549327
3859.000000	98.546233
3858.000000	98.544951
3857.000000	98.543843
3856.000000	98.540501
3855.000000	98.535105
3854.000000	98.531691
3853.000000	98.533141
3852.000000	98.537159
3851.000000	98.540675
3850.000000	98.542826
3849.000000	98.544174
3848.000000	98.545647
3847.000000	98.547780
3846.000000	98.549916
3845.000000	98.550011
3844.000000	98.546113
3843.000000	98.538911
3842.000000	98.531843
3841.000000	98.528718
3840.000000	98.531566
3839.000000	98.539181
3838.000000	98.547603
3837.000000	98.553455
3836.000000	98.557058
3835.000000	98.560872
3834.000000	98.565514
3833.000000	98.568814
3832.000000	98.568360
3831.000000	98.563714
3830.000000	98.556505
3829.000000	98.548966
3828.000000	98.543103
3827.000000	98.540221
3826.000000	98.539877
3825.000000	98.540171
3824.000000	98.539854
3823.000000	98.540331
3822.000000	98.544033
3821.000000	98.549958
3820.000000	98.553768
3819.000000	98.554217
3818.000000	98.553492
3817.000000	98.552843
3816.000000	98.552089
3815.000000	98.550068
3814.000000	98.546495
3813.000000	98.542594
3812.000000	98.540083
3811.000000	98.540187
3810.000000	98.542489
3809.000000	98.544877
3808.000000	98.545185
3807.000000	98.543338
3806.000000	98.541408
3805.000000	98.542006
3804.000000	98.547201
3803.000000	98.558392
3802.000000	98.573874
3801.000000	98.586070
3800.000000	98.588127
3799.000000	98.582548
3798.000000	98.575643
3797.000000	98.570520
3796.000000	98.566087
3795.000000	98.560020
3794.000000	98.552034
3793.000000	98.544091
3792.000000	98.538801
3791.000000	98.537713
3790.000000	98.540144
3789.000000	98.543589
3788.000000	98.545937
3787.000000	98.546720
3786.000000	98.546455
3785.000000	98.545667
3784.000000	98.544805
3783.000000	98.544364
3782.000000	98.544618
3781.000000	98.545496
3780.000000	98.546964
3779.000000	98.548746
3778.000000	98.549780
3777.000000	98.549130
3776.000000	98.547165
3775.000000	98.545377
3774.000000	98.544724
3773.000000	98.544959
3772.000000	98.545777
3771.000000	98.547956
3770.000000	98.552140
3769.000000	98.557064
3768.000000	98.561371
3767.000000	98.565040
3766.000000	98.567842
3765.000000	98.568133
3764.000000	98.564330
3763.000000	98.556747
3762.000000	98.547184
3761.000000	98.537832
3760.000000	98.531165
3759.000000	98.529313
3758.000000	98.532740
3757.000000	98.539897
3756.000000	98.548738
3755.000000	98.558091
3754.000000	98.567220
3753.000000	98.575313
3752.000000	98.581491
3751.000000	98.584065
3750.000000	98.580724
3749.000000	98.572452
3748.000000	98.564718
3747.000000	98.562814
3746.000000	98.568248
3745.000000	98.577507
3744.000000	98.583191
3743.000000	98.582368
3742.000000	98.578556
3741.000000	98.574535
3740.000000	98.571538
3739.000000	98.570767
3738.000000	98.573357
3737.000000	98.579853
3736.000000	98.590043
3735.000000	98.601868
3734.000000	98.610169
3733.000000	98.610656
3732.000000	98.604234
3731.000000	98.595167
3730.000000	98.586708
3729.000000	98.579541
3728.000000	98.573826
3727.000000	98.570106
3726.000000	98.568122
3725.000000	98.567103
3724.000000	98.568028
3723.000000	98.573017
3722.000000	98.580854
3721.000000	98.586854
3720.000000	98.587934
3719.000000	98.585335
3718.000000	98.582167
3717.000000	98.580058
3716.000000	98.578836
3715.000000	98.577504
3714.000000	98.574173
3713.000000	98.567700
3712.000000	98.561231
3711.000000	98.560456
3710.000000	98.565681
3709.000000	98.570964
3708.000000	98.572897
3707.000000	98.573606
3706.000000	98.576294
3705.000000	98.581909
3704.000000	98.588828
3703.000000	98.594087
3702.000000	98.595105
3701.000000	98.591835
3700.000000	98.587274
3699.000000	98.583987
3698.000000	98.580896
3697.000000	98.574808
3696.000000	98.564261
3695.000000	98.551328
3694.000000	98.540165
3693.000000	98.535225
3692.000000	98.540425
3691.000000	98.557179
3690.000000	98.579986
3689.000000	98.596204
3688.000000	98.596915
3687.000000	98.585451
3686.000000	98.569895
3685.000000	98.554543
3684.000000	98.540360
3683.000000	98.527711
3682.000000	98.516746
3681.000000	98.506478
3680.000000	98.495235
3679.000000	98.482487
3678.000000	98.470217
3677.000000	98.464189
3676.000000	98.470970
3675.000000	98.485991
3674.000000	98.495075
3673.000000	98.493297
3672.000000	98.485883
3671.000000	98.480188
3670.000000	98.479108
3669.000000	98.477274
3668.000000	98.469864
3667.000000	98.459534
3666.000000	98.450627
3665.000000	98.445168
3664.000000	98.443186
3663.000000	98.443061
3662.000000	98.441724
3661.000000	98.436681
3660.000000	98.428901
3659.000000	98.422080
3658.000000	98.418241
3657.000000	98.415222
3656.000000	98.409507
3655.000000	98.401411
3654.000000	98.394220
3653.000000	98.389481
3652.000000	98.385816
3651.000000	98.380165
3650.000000	98.369870
3649.000000	98.356720
3648.000000	98.346825
3647.000000	98.342512
3646.000000	98.339954
3645.000000	98.335000
3644.000000	98.327019
3643.000000	98.317953
3642.000000	98.309496
3641.000000	98.301696
3640.000000	98.294695
3639.000000	98.290132
3638.000000	98.288735
3637.000000	98.288404
3636.000000	98.285918
3635.000000	98.279823
3634.000000	98.270867
3633.000000	98.260790
3632.000000	98.251433
3631.000000	98.243948
3630.000000	98.237295
3629.000000	98.227695
3628.000000	98.213386
3627.000000	98.199089
3626.000000	98.189670
3625.000000	98.184626
3624.000000	98.181885
3623.000000	98.180761
3622.000000	98.180791
3621.000000	98.179862
3620.000000	98.174556
3619.000000	98.162703
3618.000000	98.145830
3617.000000	98.128284
3616.000000	98.113771
3615.000000	98.102660
3614.000000	98.091166
3613.000000	98.074449
3612.000000	98.052877
3611.000000	98.032670
3610.000000	98.018534
3609.000000	98.009639
3608.000000	98.002854
3607.000000	97.996987
3606.000000	97.992533
3605.000000	97.988908
3604.000000	97.984781
3603.000000	97.979471
3602.000000	97.972785
3601.000000	97.964407
3600.000000	97.954275
3599.000000	97.943038
3598.000000	97.931248
3597.000000	97.918694
3596.000000	97.905086
3595.000000	97.891035
3594.000000	97.876936
3593.000000	97.862286
3592.000000	97.846746
3591.000000	97.831184
3590.000000	97.817024
3589.000000	97.805769
3588.000000	97.798245
3587.000000	97.793083
3586.000000	97.786848
3585.000000	97.777617
3584.000000	97.766268
3583.000000	97.753730
3582.000000	97.739147
3581.000000	97.721673
3580.000000	97.702974
3579.000000	97.686607
3578.000000	97.674008
3577.000000	97.663256
3576.000000	97.651973
3575.000000	97.639644
3574.000000	97.626482
3573.000000	97.612023
3572.000000	97.596501
3571.000000	97.581583
3570.000000	97.568612
3569.000000	97.557014
3568.000000	97.545456
3567.000000	97.533274
3566.000000	97.519699
3565.000000	97.503794
3564.000000	97.486998
3563.000000	97.472546
3562.000000	97.462079
3561.000000	97.453850
3560.000000	97.444479
3559.000000	97.431767
3558.000000	97.415798
3557.000000	97.398243
3556.000000	97.381328
3555.000000	97.366228
3554.000000	97.351962
3553.000000	97.336762
3552.000000	97.321144
3551.000000	97.307779
3550.000000	97.297563
3549.000000	97.287991
3548.000000	97.275864
3547.000000	97.260307
3546.000000	97.242738
3545.000000	97.225225
3544.000000	97.209371
3543.000000	97.195536
3542.000000	97.182215
3541.000000	97.167847
3540.000000	97.153714
3539.000000	97.143146
3538.000000	97.136917
3537.000000	97.130990
3536.000000	97.120274
3535.000000	97.103523
3534.000000	97.083057
3533.000000	97.062081
3532.000000	97.043846
3531.000000	97.031300
3530.000000	97.024845
3529.000000	97.021137
3528.000000	97.016136
3527.000000	97.008740
3526.000000	96.999969
3525.000000	96.989922
3524.000000	96.977367
3523.000000	96.961426
3522.000000	96.942513
3521.000000	96.922385
3520.000000	96.903929
3519.000000	96.889540
3518.000000	96.878601
3517.000000	96.867603
3516.000000	96.853804
3515.000000	96.837815
3514.000000	96.821697
3513.000000	96.806157
3512.000000	96.790829
3511.000000	96.776161
3510.000000	96.763491
3509.000000	96.753726
3508.000000	96.746887
3507.000000	96.742303
3506.000000	96.738576
3505.000000	96.733949
3504.000000	96.727404
3503.000000	96.718654
3502.000000	96.706962
3501.000000	96.691642
3500.000000	96.673988
3499.000000	96.657059
3498.000000	96.643071
3497.000000	96.632119
3496.000000	96.623101
3495.000000	96.614217
3494.000000	96.602510
3493.000000	96.585499
3492.000000	96.564453
3491.000000	96.544212
3490.000000	96.528695
3489.000000	96.517721
3488.000000	96.508695
3487.000000	96.499373
3486.000000	96.488244
3485.000000	96.474438
3484.000000	96.458865
3483.000000	96.444120
3482.000000	96.431807
3481.000000	96.421073
3480.000000	96.410832
3479.000000	96.401606
3478.000000	96.393839
3477.000000	96.386101
3476.000000	96.376496
3475.000000	96.364794
3474.000000	96.352135
3473.000000	96.339624
3472.000000	96.327964
3471.000000	96.317186
3470.000000	96.305880
3469.000000	96.292111
3468.000000	96.276044
3467.000000	96.260432
3466.000000	96.247714
3465.000000	96.237966
3464.000000	96.230183
3463.000000	96.223829
3462.000000	96.218072
3461.000000	96.211259
3460.000000	96.202497
3459.000000	96.192588
3458.000000	96.182439
3457.000000	96.171789
3456.000000	96.160343
3455.000000	96.148952
3454.000000	96.138496
3453.000000	96.128912
3452.000000	96.120046
3451.000000	96.112405
3450.000000	96.106153
3449.000000	96.100406
3448.000000	96.094325
3447.000000	96.087883
3446.000000	96.080799
3445.000000	96.071988
3444.000000	96.060950
3443.000000	96.048737
3442.000000	96.037058
3441.000000	96.027167
3440.000000	96.019797
3439.000000	96.014892
3438.000000	96.010964
3437.000000	96.005924
3436.000000	95.998995
3435.000000	95.990785
3434.000000	95.981474
3433.000000	95.970654
3432.000000	95.958959
3431.000000	95.947933
3430.000000	95.937568
3429.000000	95.925817
3428.000000	95.911487
3427.000000	95.895937
3426.000000	95.881356
3425.000000	95.869015
3424.000000	95.859781
3423.000000	95.854244
3422.000000	95.851014
3421.000000	95.846638
3420.000000	95.838794
3419.000000	95.828500
3418.000000	95.817932
3417.000000	95.807416
3416.000000	95.795707
3415.000000	95.782198
3414.000000	95.768033
3413.000000	95.755625
3412.000000	95.747031
3411.000000	95.741610
3410.000000	95.735518
3409.000000	95.725350
3408.000000	95.712471
3407.000000	95.701563
3406.000000	95.694720
3405.000000	95.689310
3404.000000	95.682229
3403.000000	95.673646
3402.000000	95.665013
3401.000000	95.655833
3400.000000	95.644179
3399.000000	95.629078
3398.000000	95.611155
3397.000000	95.592173
3396.000000	95.574826
3395.000000	95.561492
3394.000000	95.552015
3393.000000	95.543841
3392.000000	95.535055
3391.000000	95.525969
3390.000000	95.517392
3389.000000	95.509344
3388.000000	95.502207
3387.000000	95.496990
3386.000000	95.493000
3385.000000	95.486803
3384.000000	95.475058
3383.000000	95.457472
3382.000000	95.436308
3381.000000	95.414524
3380.000000	95.395113
3379.000000	95.380233
3378.000000	95.369548
3377.000000	95.360415
3376.000000	95.350379
3375.000000	95.338478
3374.000000	95.324242
3373.000000	95.307611
3372.000000	95.290572
3371.000000	95.276660
3370.000000	95.267321
3369.000000	95.260099
3368.000000	95.251201
3367.000000	95.238407
3366.000000	95.221019
3365.000000	95.199417
3364.000000	95.176139
3363.000000	95.155341
3362.000000	95.139264
3361.000000	95.126160
3360.000000	95.112695
3359.000000	95.097063
3358.000000	95.078965
3357.000000	95.058388
3356.000000	95.036098
3355.000000	95.014203
3354.000000	94.994550
3353.000000	94.977019
3352.000000	94.960180
3351.000000	94.942827
3350.000000	94.924336
3349.000000	94.904741
3348.000000	94.885069
3347.000000	94.866512
3346.000000	94.848612
3345.000000	94.829324
3344.000000	94.807538
3343.000000	94.784630
3342.000000	94.763041
3341.000000	94.744266
3340.000000	94.728272
3339.000000	94.713538
3338.000000	94.697492
3337.000000	94.678443
3336.000000	94.657444
3335.000000	94.636997
3334.000000	94.617997
3333.000000	94.599519
3332.000000	94.581396
3331.000000	94.564736
3330.000000	94.549665
3329.000000	94.534748
3328.000000	94.519054
3327.000000	94.502883
3326.000000	94.486070
3325.000000	94.467757
3324.000000	94.448438
3323.000000	94.430210
3322.000000	94.414194
3321.000000	94.399721
3320.000000	94.386314
3319.000000	94.374193
3318.000000	94.362299
3317.000000	94.348362
3316.000000	94.332030
3315.000000	94.315782
3314.000000	94.301517
3313.000000	94.288316
3312.000000	94.274573
3311.000000	94.260244
3310.000000	94.245963
3309.000000	94.231904
3308.000000	94.218592
3307.000000	94.206663
3306.000000	94.194628
3305.000000	94.179183
3304.000000	94.159295
3303.000000	94.138331
3302.000000	94.120821
3301.000000	94.108546
3300.000000	94.100780
3299.000000	94.096185
3298.000000	94.092807
3297.000000	94.088086
3296.000000	94.080522
3295.000000	94.070359
3294.000000	94.057952
3293.000000	94.043464
3292.000000	94.029142
3291.000000	94.019368
3290.000000	94.016485
3289.000000	94.017970
3288.000000	94.019285
3287.000000	94.018206
3286.000000	94.015278
3285.000000	94.011991
3284.000000	94.009917
3283.000000	94.009908
3282.000000	94.010618
3281.000000	94.009354
3280.000000	94.006163
3279.000000	94.005318
3278.000000	94.011088
3277.000000	94.023199
3276.000000	94.037965
3275.000000	94.052777
3274.000000	94.067324
3273.000000	94.081721
3272.000000	94.095455
3271.000000	94.107866
3270.000000	94.118419
3269.000000	94.127036
3268.000000	94.135111
3267.000000	94.145159
3266.000000	94.158305
3265.000000	94.172864
3264.000000	94.186508
3263.000000	94.198797
3262.000000	94.210770
3261.000000	94.223292
3260.000000	94.237006
3259.000000	94.252758
3258.000000	94.270720
3257.000000	94.289912
3256.000000	94.309577
3255.000000	94.330163
3254.000000	94.351943
3253.000000	94.373818
3252.000000	94.394628
3251.000000	94.414611
3250.000000	94.434355
3249.000000	94.453261
3248.000000	94.470452
3247.000000	94.486364
3246.000000	94.502099
3245.000000	94.517575
3244.000000	94.531483
3243.000000	94.542950
3242.000000	94.552320
3241.000000	94.560662
3240.000000	94.569300
3239.000000	94.579575
3238.000000	94.592358
3237.000000	94.607631
3236.000000	94.624551
3235.000000	94.641792
3234.000000	94.658082
3233.000000	94.672982
3232.000000	94.686835
3231.000000	94.699403
3230.000000	94.709198
3229.000000	94.715203
3228.000000	94.718770
3227.000000	94.722562
3226.000000	94.728080
3225.000000	94.735605
3224.000000	94.745622
3223.000000	94.758227
3222.000000	94.771601
3221.000000	94.783515
3220.000000	94.794501
3219.000000	94.807178
3218.000000	94.821842
3217.000000	94.835266
3216.000000	94.844605
3215.000000	94.850554
3214.000000	94.855621
3213.000000	94.861013
3212.000000	94.866327
3211.000000	94.870928
3210.000000	94.874777
3209.000000	94.878861
3208.000000	94.885328
3207.000000	94.895903
3206.000000	94.909756
3205.000000	94.924185
3204.000000	94.937599
3203.000000	94.950544
3202.000000	94.963621
3201.000000	94.976001
3200.000000	94.986399
3199.000000	94.994372
3198.000000	95.000645
3197.000000	95.007414
3196.000000	95.017658
3195.000000	95.031988
3194.000000	95.046764
3193.000000	95.057798
3192.000000	95.066159
3191.000000	95.077666
3190.000000	95.096076
3189.000000	95.119167
3188.000000	95.141869
3187.000000	95.160703
3186.000000	95.174611
3185.000000	95.184606
3184.000000	95.193998
3183.000000	95.206452
3182.000000	95.222177
3181.000000	95.237754
3180.000000	95.250642
3179.000000	95.261574
3178.000000	95.271895
3177.000000	95.281506
3176.000000	95.291328
3175.000000	95.304799
3174.000000	95.324101
3173.000000	95.346561
3172.000000	95.367179
3171.000000	95.383881
3170.000000	95.398330
3169.000000	95.412788
3168.000000	95.428105
3167.000000	95.444083
3166.000000	95.459987
3165.000000	95.474882
3164.000000	95.488590
3163.000000	95.501953
3162.000000	95.515597
3161.000000	95.529310
3160.000000	95.543151
3159.000000	95.557885
3158.000000	95.573480
3157.000000	95.588425
3156.000000	95.601589
3155.000000	95.613834
3154.000000	95.626865
3153.000000	95.641247
3152.000000	95.655925
3151.000000	95.668778
3150.000000	95.677757
3149.000000	95.683242
3148.000000	95.689476
3147.000000	95.701584
3146.000000	95.720164
3145.000000	95.740598
3144.000000	95.758206
3143.000000	95.772264
3142.000000	95.784253
3141.000000	95.794844
3140.000000	95.804130
3139.000000	95.812724
3138.000000	95.820655
3137.000000	95.826850
3136.000000	95.831175
3135.000000	95.835633
3134.000000	95.842049
3133.000000	95.850063
3132.000000	95.858639
3131.000000	95.867715
3130.000000	95.876770
3129.000000	95.883840
3128.000000	95.888211
3127.000000	95.892754
3126.000000	95.901124
3125.000000	95.913223
3124.000000	95.925262
3123.000000	95.933722
3122.000000	95.937802
3121.000000	95.939029
3120.000000	95.940176
3119.000000	95.943833
3118.000000	95.949939
3117.000000	95.955188
3116.000000	95.956581
3115.000000	95.955359
3114.000000	95.955694
3113.000000	95.959551
3112.000000	95.964358
3111.000000	95.965977
3110.000000	95.963057
3109.000000	95.958180
3108.000000	95.955093
3107.000000	95.954821
3106.000000	95.954585
3105.000000	95.950987
3104.000000	95.944180
3103.000000	95.937675
3102.000000	95.933850
3101.000000	95.931177
3100.000000	95.926853
3099.000000	95.920763
3098.000000	95.915352
3097.000000	95.912483
3096.000000	95.911814
3095.000000	95.911608
3094.000000	95.909966
3093.000000	95.905664
3092.000000	95.898933
3091.000000	95.891370
3090.000000	95.884533
3089.000000	95.878888
3088.000000	95.874300
3087.000000	95.870696
3086.000000	95.867640
3085.000000	95.864166
3084.000000	95.859964
3083.000000	95.856109
3082.000000	95.853851
3081.000000	95.852995
3080.000000	95.851952
3079.000000	95.848934
3078.000000	95.842991
3077.000000	95.834737
3076.000000	95.826370
3075.000000	95.820145
3074.000000	95.816401
3073.000000	95.813948
3072.000000	95.812484
3071.000000	95.813291
3070.000000	95.817102
3069.000000	95.822577
3068.000000	95.827836
3067.000000	95.832348
3066.000000	95.836327
3065.000000	95.839121
3064.000000	95.839504
3063.000000	95.837544
3062.000000	95.835703
3061.000000	95.837928
3060.000000	95.846963
3059.000000	95.861382
3058.000000	95.875599
3057.000000	95.884533
3056.000000	95.888639
3055.000000	95.893025
3054.000000	95.901471
3053.000000	95.912955
3052.000000	95.924233
3051.000000	95.933634
3050.000000	95.941618
3049.000000	95.949642
3048.000000	95.959680
3047.000000	95.973292
3046.000000	95.989696
3045.000000	96.005796
3044.000000	96.019236
3043.000000	96.030434
3042.000000	96.040810
3041.000000	96.050327
3040.000000	96.058102
3039.000000	96.064402
3038.000000	96.070629
3037.000000	96.077857
3036.000000	96.086470
3035.000000	96.096627
3034.000000	96.107967
3033.000000	96.119215
3032.000000	96.128836
3031.000000	96.135984
3030.000000	96.140710
3029.000000	96.143991
3028.000000	96.147696
3027.000000	96.153380
3026.000000	96.160646
3025.000000	96.167616
3024.000000	96.173264
3023.000000	96.178179
3022.000000	96.182836
3021.000000	96.186663
3020.000000	96.189405
3019.000000	96.191711
3018.000000	96.193502
3017.000000	96.193158
3016.000000	96.189534
3015.000000	96.183597
3014.000000	96.176885
3013.000000	96.169360
3012.000000	96.159831
3011.000000	96.147490
3010.000000	96.132053
3009.000000	96.113292
3008.000000	96.091757
3007.000000	96.069438
3006.000000	96.048829
3005.000000	96.031396
3004.000000	96.016825
3003.000000	96.002866
3002.000000	95.985834
3001.000000	95.962721
3000.000000	95.933649
2999.000000	95.901469
2998.000000	95.868661
2997.000000	95.835608
2996.000000	95.801778
2995.000000	95.766662
2994.000000	95.728637
2993.000000	95.684871
2992.000000	95.633980
2991.000000	95.577537
2990.000000	95.517890
2989.000000	95.455299
2988.000000	95.388520
2987.000000	95.317172
2986.000000	95.242279
2985.000000	95.165213
2984.000000	95.086858
2983.000000	95.006925
2982.000000	94.922979
2981.000000	94.830743
2980.000000	94.727030
2979.000000	94.612314
2978.000000	94.490159
2977.000000	94.364463
2976.000000	94.237130
2975.000000	94.107393
2974.000000	93.972317
2973.000000	93.828627
2972.000000	93.674766
2971.000000	93.511084
2970.000000	93.338841
2969.000000	93.160347
2968.000000	92.980160
2967.000000	92.804110
2966.000000	92.635998
2965.000000	92.476558
2964.000000	92.326210
2963.000000	92.188020
2962.000000	92.066676
2961.000000	91.966116
2960.000000	91.889025
2959.000000	91.837473
2958.000000	91.812775
2957.000000	91.814379
2956.000000	91.840372
2955.000000	91.888164
2954.000000	91.954153
2953.000000	92.032791
2952.000000	92.116308
2951.000000	92.195736
2950.000000	92.261476
2949.000000	92.304776
2948.000000	92.319564
2947.000000	92.303839
2946.000000	92.259138
2945.000000	92.188747
2944.000000	92.096286
2943.000000	91.983919
2942.000000	91.851550
2941.000000	91.697732
2940.000000	91.522553
2939.000000	91.329404
2938.000000	91.124041
2937.000000	90.913176
2936.000000	90.703518
2935.000000	90.501090
2934.000000	90.309755
2933.000000	90.130696
2932.000000	89.963948
2931.000000	89.810226
2930.000000	89.671631
2929.000000	89.550884
2928.000000	89.450872
2927.000000	89.374141
2926.000000	89.322171
2925.000000	89.294941
2924.000000	89.291253
2923.000000	89.310318
2922.000000	89.352943
2921.000000	89.421141
2920.000000	89.516133
2919.000000	89.636336
2918.000000	89.778350
2917.000000	89.939732
2916.000000	90.120159
2915.000000	90.318767
2914.000000	90.530670
2913.000000	90.747427
2912.000000	90.960753
2911.000000	91.165520
2910.000000	91.359460
2909.000000	91.541765
2908.000000	91.712633
2907.000000	91.873039
2906.000000	92.024386
2905.000000	92.168750
2904.000000	92.309626
2903.000000	92.451070
2902.000000	92.595435
2901.000000	92.742558
2900.000000	92.890814
2899.000000	93.038597
2898.000000	93.183952
2897.000000	93.324413
2896.000000	93.458127
2895.000000	93.584362
2894.000000	93.702328
2893.000000	93.810640
2892.000000	93.908932
2891.000000	93.999203
2890.000000	94.083921
2889.000000	94.162678
2888.000000	94.231445
2887.000000	94.285129
2886.000000	94.320878
2885.000000	94.339267
2884.000000	94.342986
2883.000000	94.334240
2882.000000	94.312885
2881.000000	94.276863
2880.000000	94.224039
2879.000000	94.153760
2878.000000	94.067657
2877.000000	93.970731
2876.000000	93.871579
2875.000000	93.780233
2874.000000	93.704923
2873.000000	93.650169
2872.000000	93.616845
2871.000000	93.602091
2870.000000	93.598966
2869.000000	93.597826
2868.000000	93.589473
2867.000000	93.567349
2866.000000	93.527615
2865.000000	93.468892
2864.000000	93.392103
2863.000000	93.299698
2862.000000	93.194363
2861.000000	93.079339
2860.000000	92.959826
2859.000000	92.842837
2858.000000	92.735153
2857.000000	92.642534
2856.000000	92.570878
2855.000000	92.526113
2854.000000	92.512995
2853.000000	92.535121
2852.000000	92.596956
2851.000000	92.704516
2850.000000	92.862255
2849.000000	93.069122
2848.000000	93.317035
2847.000000	93.591736
2846.000000	93.875053
2845.000000	94.149633
2844.000000	94.403785
2843.000000	94.633037
2842.000000	94.836854
2841.000000	95.014817
2840.000000	95.167172
2839.000000	95.296956
2838.000000	95.409432
2837.000000	95.509157
2836.000000	95.598046
2835.000000	95.675882
2834.000000	95.742149
2833.000000	95.797782
2832.000000	95.845887
2831.000000	95.890329
2830.000000	95.933331
2829.000000	95.975183
2828.000000	96.015842
2827.000000	96.055220
2826.000000	96.091672
2825.000000	96.122258
2824.000000	96.146075
2823.000000	96.166061
2822.000000	96.186357
2821.000000	96.208681
2820.000000	96.232066
2819.000000	96.254795
2818.000000	96.275333
2817.000000	96.292572
2816.000000	96.307010
2815.000000	96.321256
2814.000000	96.338225
2813.000000	96.359025
2812.000000	96.383076
2811.000000	96.409182
2810.000000	96.435532
2809.000000	96.459871
2808.000000	96.481360
2807.000000	96.501640
2806.000000	96.522567
2805.000000	96.543397
2804.000000	96.561527
2803.000000	96.575701
2802.000000	96.587053
2801.000000	96.597291
2800.000000	96.607241
2799.000000	96.617236
2798.000000	96.627651
2797.000000	96.638688
2796.000000	96.650440
2795.000000	96.663248
2794.000000	96.677244
2793.000000	96.691413
2792.000000	96.703862
2791.000000	96.713411
2790.000000	96.720766
2789.000000	96.728096
2788.000000	96.737546
2787.000000	96.749843
2786.000000	96.763951
2785.000000	96.778127
2784.000000	96.791332
2783.000000	96.803331
2782.000000	96.813684
2781.000000	96.821617
2780.000000	96.827284
2779.000000	96.832387
2778.000000	96.838911
2777.000000	96.847540
2776.000000	96.857540
2775.000000	96.867616
2774.000000	96.876605
2773.000000	96.883999
2772.000000	96.890217
2771.000000	96.895974
2770.000000	96.901325
2769.000000	96.905994
2768.000000	96.910530
2767.000000	96.916005
2766.000000	96.922344
2765.000000	96.928079
2764.000000	96.932287
2763.000000	96.935811
2762.000000	96.940028
2761.000000	96.945335
2760.000000	96.951401
2759.000000	96.957974
2758.000000	96.964723
2757.000000	96.971013
2756.000000	96.976449
2755.000000	96.981051
2754.000000	96.984546
2753.000000	96.986331
2752.000000	96.986529
2751.000000	96.986200
2750.000000	96.986160
2749.000000	96.986578
2748.000000	96.988081
2747.000000	96.991906
2746.000000	96.998221
2745.000000	97.005520
2744.000000	97.012548
2743.000000	97.019655
2742.000000	97.027243
2741.000000	97.033986
2740.000000	97.037861
2739.000000	97.038353
2738.000000	97.036810
2737.000000	97.035421
2736.000000	97.036562
2735.000000	97.041910
2734.000000	97.050707
2733.000000	97.059524
2732.000000	97.065167
2731.000000	97.067534
2730.000000	97.068940
2729.000000	97.071420
2728.000000	97.075763
2727.000000	97.082349
2726.000000	97.091205
2725.000000	97.101292
2724.000000	97.110949
2723.000000	97.119049
2722.000000	97.125069
2721.000000	97.128708
2720.000000	97.130681
2719.000000	97.133299
2718.000000	97.138635
2717.000000	97.145922
2716.000000	97.151981
2715.000000	97.154548
2714.000000	97.154349
2713.000000	97.153832
2712.000000	97.154734
2711.000000	97.157171
2710.000000	97.160327
2709.000000	97.163511
2708.000000	97.166761
2707.000000	97.170657
2706.000000	97.175549
2705.000000	97.181100
2704.000000	97.186608
2703.000000	97.191420
2702.000000	97.194948
2701.000000	97.196943
2700.000000	97.198077
2699.000000	97.199460
2698.000000	97.201064
2697.000000	97.201445
2696.000000	97.199919
2695.000000	97.198367
2694.000000	97.199565
2693.000000	97.203870
2692.000000	97.208681
2691.000000	97.211354
2690.000000	97.211757
2689.000000	97.211596
2688.000000	97.212052
2687.000000	97.212809
2686.000000	97.213156
2685.000000	97.213329
2684.000000	97.214391
2683.000000	97.216914
2682.000000	97.220271
2681.000000	97.223520
2680.000000	97.226646
2679.000000	97.230320
2678.000000	97.234494
2677.000000	97.237996
2676.000000	97.239754
2675.000000	97.239856
2674.000000	97.239071
2673.000000	97.237967
2672.000000	97.237005
2671.000000	97.236935
2670.000000	97.238347
2669.000000	97.240780
2668.000000	97.242762
2667.000000	97.242929
2666.000000	97.241114
2665.000000	97.238434
2664.000000	97.236419
2663.000000	97.236017
2662.000000	97.237342
2661.000000	97.240146
2660.000000	97.243977
2659.000000	97.247761
2658.000000	97.250029
2657.000000	97.250437
2656.000000	97.250802
2655.000000	97.253754
2654.000000	97.260309
2653.000000	97.269293
2652.000000	97.278740
2651.000000	97.287063
2650.000000	97.293299
2649.000000	97.297599
2648.000000	97.301756
2647.000000	97.308073
2646.000000	97.317127
2645.000000	97.327116
2644.000000	97.335474
2643.000000	97.340457
2642.000000	97.341592
2641.000000	97.340009
2640.000000	97.338731
2639.000000	97.341351
2638.000000	97.349392
2637.000000	97.361069
2636.000000	97.372701
2635.000000	97.381055
2634.000000	97.385021
2633.000000	97.386211
2632.000000	97.387780
2631.000000	97.391572
2630.000000	97.396636
2629.000000	97.401613
2628.000000	97.407712
2627.000000	97.417298
2626.000000	97.429674
2625.000000	97.440550
2624.000000	97.446320
2623.000000	97.447086
2622.000000	97.445216
2621.000000	97.443104
2620.000000	97.443011
2619.000000	97.446791
2618.000000	97.454207
2617.000000	97.462702
2616.000000	97.469763
2615.000000	97.474426
2614.000000	97.476528
2613.000000	97.476691
2612.000000	97.477632
2611.000000	97.482819
2610.000000	97.492210
2609.000000	97.501404
2608.000000	97.506528
2607.000000	97.508331
2606.000000	97.509891
2605.000000	97.512327
2604.000000	97.514775
2603.000000	97.516780
2602.000000	97.518266
2601.000000	97.518071
2600.000000	97.514980
2599.000000	97.509973
2598.000000	97.505998
2597.000000	97.505807
2596.000000	97.510932
2595.000000	97.521454
2594.000000	97.534924
2593.000000	97.546321
2592.000000	97.551510
2591.000000	97.551201
2590.000000	97.550223
2589.000000	97.552506
2588.000000	97.557378
2587.000000	97.560883
2586.000000	97.560208
2585.000000	97.556442
2584.000000	97.552955
2583.000000	97.551071
2582.000000	97.548457
2581.000000	97.542949
2580.000000	97.537095
2579.000000	97.536679
2578.000000	97.544317
2577.000000	97.556431
2576.000000	97.566906
2575.000000	97.572067
2574.000000	97.571695
2573.000000	97.567614
2572.000000	97.562953
2571.000000	97.561218
2570.000000	97.564361
2569.000000	97.571935
2568.000000	97.582322
2567.000000	97.593662
2566.000000	97.603451
2565.000000	97.609159
2564.000000	97.610368
2563.000000	97.609272
2562.000000	97.608483
2561.000000	97.609177
2560.000000	97.611201
2559.000000	97.613499
2558.000000	97.614537
2557.000000	97.613918
2556.000000	97.613359
2555.000000	97.614163
2554.000000	97.614505
2553.000000	97.612157
2552.000000	97.609335
2551.000000	97.610816
2550.000000	97.616569
2549.000000	97.620487
2548.000000	97.618258
2547.000000	97.612859
2546.000000	97.610050
2545.000000	97.611722
2544.000000	97.616380
2543.000000	97.622839
2542.000000	97.629533
2541.000000	97.632261
2540.000000	97.626848
2539.000000	97.614088
2538.000000	97.599674
2537.000000	97.589290
2536.000000	97.584954
2535.000000	97.584959
2534.000000	97.585492
2533.000000	97.583176
2532.000000	97.577520
2531.000000	97.570346
2530.000000	97.562125
2529.000000	97.550857
2528.000000	97.535916
2527.000000	97.520929
2526.000000	97.510525
2525.000000	97.505373
2524.000000	97.502481
2523.000000	97.499121
2522.000000	97.494545
2521.000000	97.488857
2520.000000	97.482685
2519.000000	97.477762
2518.000000	97.475716
2517.000000	97.476064
2516.000000	97.476790
2515.000000	97.477005
2514.000000	97.478182
2513.000000	97.482552
2512.000000	97.490723
2511.000000	97.500724
2510.000000	97.509240
2509.000000	97.514520
2508.000000	97.518265
2507.000000	97.523958
2506.000000	97.533357
2505.000000	97.545642
2504.000000	97.559880
2503.000000	97.576666
2502.000000	97.596739
2501.000000	97.619263
2500.000000	97.641886
2499.000000	97.661537
2498.000000	97.675465
2497.000000	97.683478
2496.000000	97.688995
2495.000000	97.695774
2494.000000	97.703237
2493.000000	97.707781
2492.000000	97.709318
2491.000000	97.713033
2490.000000	97.722817
2489.000000	97.735564
2488.000000	97.745090
2487.000000	97.750208
2486.000000	97.755924
2485.000000	97.766991
2484.000000	97.782413
2483.000000	97.796743
2482.000000	97.805524
2481.000000	97.808878
2480.000000	97.810423
2479.000000	97.812938
2478.000000	97.815658
2477.000000	97.816423
2476.000000	97.815504
2475.000000	97.815764
2474.000000	97.819154
2473.000000	97.824788
2472.000000	97.830656
2471.000000	97.835518
2470.000000	97.838893
2469.000000	97.840931
2468.000000	97.842672
2467.000000	97.844787
2466.000000	97.845918
2465.000000	97.844295
2464.000000	97.841349
2463.000000	97.841316
2462.000000	97.846240
2461.000000	97.853184
2460.000000	97.857413
2459.000000	97.856811
2458.000000	97.852383
2457.000000	97.846413
2456.000000	97.841322
2455.000000	97.839031
2454.000000	97.840279
2453.000000	97.845125
2452.000000	97.853726
2451.000000	97.864749
2450.000000	97.873275
2449.000000	97.873485
2448.000000	97.865008
2447.000000	97.854543
2446.000000	97.849603
2445.000000	97.852105
2444.000000	97.858949
2443.000000	97.866423
2442.000000	97.872398
2441.000000	97.875995
2440.000000	97.877559
2439.000000	97.878487
2438.000000	97.879698
2437.000000	97.880602
2436.000000	97.880349
2435.000000	97.879294
2434.000000	97.878602
2433.000000	97.879251
2432.000000	97.881936
2431.000000	97.886922
2430.000000	97.893246
2429.000000	97.898734
2428.000000	97.901335
2427.000000	97.900273
2426.000000	97.896306
2425.000000	97.891779
2424.000000	97.889801
2423.000000	97.891813
2422.000000	97.895979
2421.000000	97.899173
2420.000000	97.900097
2419.000000	97.899275
2418.000000	97.896965
2417.000000	97.893237
2416.000000	97.889575
2415.000000	97.888021
2414.000000	97.888707
2413.000000	97.890113
2412.000000	97.891598
2411.000000	97.893769
2410.000000	97.896811
2409.000000	97.900530
2408.000000	97.905596
2407.000000	97.912346
2406.000000	97.918726
2405.000000	97.921934
2404.000000	97.921856
2403.000000	97.920581
2402.000000	97.919210
2401.000000	97.917980
2400.000000	97.918682
2399.000000	97.923120
2398.000000	97.928992
2397.000000	97.930853
2396.000000	97.926205
2395.000000	97.918013
2394.000000	97.910793
2393.000000	97.907010
2392.000000	97.907394
2391.000000	97.911578
2390.000000	97.917492
2389.000000	97.922992
2388.000000	97.929160
2387.000000	97.938830
2386.000000	97.951951
2385.000000	97.964971
2384.000000	97.975470
2383.000000	97.984927
2382.000000	97.994823
2381.000000	98.004117
2380.000000	98.010600
2379.000000	98.011974
2378.000000	98.005259
2377.000000	97.988824
2376.000000	97.967403
2375.000000	97.950849
2374.000000	97.945582
2373.000000	97.949114
2372.000000	97.955300
2371.000000	97.961400
2370.000000	97.968051
2369.000000	97.975739
2368.000000	97.981772
2367.000000	97.981185
2366.000000	97.969887
2365.000000	97.949399
2364.000000	97.928104
2363.000000	97.913474
2362.000000	97.907101
2361.000000	97.908732
2360.000000	97.917634
2359.000000	97.931177
2358.000000	97.943718
2357.000000	97.948157
2356.000000	97.942188
2355.000000	97.926938
2354.000000	97.914282
2353.000000	97.915183
2352.000000	97.928404
2351.000000	97.942458
2350.000000	97.948242
2349.000000	97.943979
2348.000000	97.932484
2347.000000	97.921197
2346.000000	97.916147
2345.000000	97.913807
2344.000000	97.909792
2343.000000	97.905476
2342.000000	97.906139
2341.000000	97.910942
2340.000000	97.913353
2339.000000	97.909649
2338.000000	97.902907
2337.000000	97.898781
2336.000000	97.897222
2335.000000	97.897459
2334.000000	97.900951
2333.000000	97.910753
2332.000000	97.920044
2331.000000	97.922474
2330.000000	97.915321
2329.000000	97.904951
2328.000000	97.889733
2327.000000	97.866861
2326.000000	97.837602
2325.000000	97.813360
2324.000000	97.805826
2323.000000	97.817131
2322.000000	97.836230
2321.000000	97.848995
2320.000000	97.849071
2319.000000	97.844999
2318.000000	97.847371
2317.000000	97.862341
2316.000000	97.883993
2315.000000	97.904976
2314.000000	97.918802
2313.000000	97.928968
2312.000000	97.942277
2311.000000	97.964576
2310.000000	97.990148
2309.000000	98.009009
2308.000000	98.015483
2307.000000	98.014930
2306.000000	98.013658
2305.000000	98.012850
2304.000000	98.009552
2303.000000	98.003671
2302.000000	97.995613
2301.000000	97.985156
2300.000000	97.971873
2299.000000	97.960429
2298.000000	97.954288
2297.000000	97.952460
2296.000000	97.948904
2295.000000	97.941751
2294.000000	97.933836
2293.000000	97.929628
2292.000000	97.930292
2291.000000	97.934630
2290.000000	97.940010
2289.000000	97.942845
2288.000000	97.940351
2287.000000	97.933064
2286.000000	97.926113
2285.000000	97.926397
2284.000000	97.938900
2283.000000	97.961973
2282.000000	97.987066
2281.000000	98.003452
2280.000000	98.005965
2279.000000	97.996647
2278.000000	97.980705
2277.000000	97.963874
2276.000000	97.952693
2275.000000	97.952671
2274.000000	97.963556
2273.000000	97.980050
2272.000000	97.997812
2271.000000	98.016634
2270.000000	98.036512
2269.000000	98.054618
2268.000000	98.067077
2267.000000	98.070728
2266.000000	98.062846
2265.000000	98.044378
2264.000000	98.023851
2263.000000	98.012100
2262.000000	98.011005
2261.000000	98.012377
2260.000000	98.009767
2259.000000	98.005495
2258.000000	98.004808
2257.000000	98.009144
2256.000000	98.018549
2255.000000	98.033940
2254.000000	98.052678
2253.000000	98.067789
2252.000000	98.075906
2251.000000	98.081542
2250.000000	98.089312
2249.000000	98.097591
2248.000000	98.102258
2247.000000	98.101721
2246.000000	98.094454
2245.000000	98.079475
2244.000000	98.063486
2243.000000	98.060200
2242.000000	98.075962
2241.000000	98.101308
2240.000000	98.121730
2239.000000	98.131437
2238.000000	98.131690
2237.000000	98.123991
2236.000000	98.113049
2235.000000	98.110185
2234.000000	98.123958
2233.000000	98.149672
2232.000000	98.174310
2231.000000	98.188593
2230.000000	98.189326
2229.000000	98.176733
2228.000000	98.158297
2227.000000	98.150168
2226.000000	98.164491
2225.000000	98.195855
2224.000000	98.226919
2223.000000	98.245835
2222.000000	98.252363
2221.000000	98.250384
2220.000000	98.242426
2219.000000	98.230842
2218.000000	98.218497
2217.000000	98.207967
2216.000000	98.202262
2215.000000	98.203444
2214.000000	98.208280
2213.000000	98.209882
2212.000000	98.207626
2211.000000	98.210365
2210.000000	98.224701
2209.000000	98.244587
2208.000000	98.258079
2207.000000	98.260261
2206.000000	98.253812
2205.000000	98.240458
2204.000000	98.218877
2203.000000	98.190114
2202.000000	98.161546
2201.000000	98.145601
2200.000000	98.153030
2199.000000	98.181945
2198.000000	98.213981
2197.000000	98.229928
2196.000000	98.232831
2195.000000	98.246361
2194.000000	98.284844
2193.000000	98.333330
2192.000000	98.363250
2191.000000	98.360157
2190.000000	98.329096
2189.000000	98.285051
2188.000000	98.248562
2187.000000	98.241040
2186.000000	98.269790
2185.000000	98.319841
2184.000000	98.371014
2183.000000	98.420024
2182.000000	98.472484
2181.000000	98.516324
2180.000000	98.522692
2179.000000	98.479403
2178.000000	98.411235
2177.000000	98.360318
2176.000000	98.349739
2175.000000	98.367613
2174.000000	98.382444
2173.000000	98.370885
2172.000000	98.333663
2171.000000	98.291583
2170.000000	98.269551
2169.000000	98.279776
2168.000000	98.312163
2167.000000	98.340950
2166.000000	98.347165
2165.000000	98.336829
2164.000000	98.332318
2163.000000	98.344050
2162.000000	98.363684
2161.000000	98.390214
2160.000000	98.443936
2159.000000	98.532752
2158.000000	98.616265
2157.000000	98.640872
2156.000000	98.605171
2155.000000	98.555760
2154.000000	98.529275
2153.000000	98.522626
2152.000000	98.510797
2151.000000	98.476534
2150.000000	98.425295
2149.000000	98.382951
2148.000000	98.376400
2147.000000	98.405919
2146.000000	98.439047
2145.000000	98.441542
2144.000000	98.411646
2143.000000	98.372890
2142.000000	98.340437
2141.000000	98.311286
2140.000000	98.283598
2139.000000	98.266617
2138.000000	98.266672
2137.000000	98.277052
2136.000000	98.287421
2135.000000	98.294390
2134.000000	98.298307
2133.000000	98.298200
2132.000000	98.294202
2131.000000	98.288330
2130.000000	98.280643
2129.000000	98.270447
2128.000000	98.261015
2127.000000	98.255967
2126.000000	98.250755
2125.000000	98.235393
2124.000000	98.207403
2123.000000	98.175247
2122.000000	98.148386
2121.000000	98.130856
2120.000000	98.124403
2119.000000	98.128615
2118.000000	98.135341
2117.000000	98.131386
2116.000000	98.111809
2115.000000	98.085406
2114.000000	98.064072
2113.000000	98.052271
2112.000000	98.048520
2111.000000	98.049897
2110.000000	98.051295
2109.000000	98.046933
2108.000000	98.037989
2107.000000	98.034068
2106.000000	98.042806
2105.000000	98.061618
2104.000000	98.082076
2103.000000	98.097579
2102.000000	98.104400
2101.000000	98.101260
2100.000000	98.092429
2099.000000	98.087345
2098.000000	98.094962
2097.000000	98.119079
2096.000000	98.156552
2095.000000	98.193892
2094.000000	98.209792
2093.000000	98.192768
2092.000000	98.157226
2091.000000	98.131158
2090.000000	98.127105
2089.000000	98.133871
2088.000000	98.136604
2087.000000	98.134048
2086.000000	98.132055
2085.000000	98.132509
2084.000000	98.134817
2083.000000	98.138987
2082.000000	98.141294
2081.000000	98.135809
2080.000000	98.126175
2079.000000	98.126184
2078.000000	98.141914
2077.000000	98.161167
2076.000000	98.168364
2075.000000	98.161800
2074.000000	98.149366
2073.000000	98.137088
2072.000000	98.129094
2071.000000	98.131085
2070.000000	98.144256
2069.000000	98.161421
2068.000000	98.176297
2067.000000	98.190420
2066.000000	98.205294
2065.000000	98.216287
2064.000000	98.221284
2063.000000	98.226457
2062.000000	98.235951
2061.000000	98.245409
2060.000000	98.252286
2059.000000	98.262268
2058.000000	98.277712
2057.000000	98.290771
2056.000000	98.296165
2055.000000	98.299260
2054.000000	98.301719
2053.000000	98.293154
2052.000000	98.269950
2051.000000	98.250797
2050.000000	98.258438
2049.000000	98.291275
2048.000000	98.327391
2047.000000	98.354449
2046.000000	98.375930
2045.000000	98.390072
2044.000000	98.386304
2043.000000	98.364940
2042.000000	98.342916
2041.000000	98.337053
2040.000000	98.351183
2039.000000	98.379571
2038.000000	98.413192
2037.000000	98.442462
2036.000000	98.462706
2035.000000	98.476839
2034.000000	98.488271
2033.000000	98.497788
2032.000000	98.511398
2031.000000	98.537380
2030.000000	98.567067
2029.000000	98.573938
2028.000000	98.544429
2027.000000	98.500800
2026.000000	98.479302
2025.000000	98.495719
2024.000000	98.537024
2023.000000	98.578406
2022.000000	98.600329
2021.000000	98.599147
2020.000000	98.591396
2019.000000	98.598190
2018.000000	98.619292
2017.000000	98.631469
2016.000000	98.617563
2015.000000	98.584312
2014.000000	98.546984
2013.000000	98.516399
2012.000000	98.505102
2011.000000	98.525063
2010.000000	98.569439
2009.000000	98.611754
2008.000000	98.631641
2007.000000	98.629129
2006.000000	98.607040
2005.000000	98.564195
2004.000000	98.513354
2003.000000	98.481657
2002.000000	98.480747
2001.000000	98.490834
2000.000000	98.487881
1999.000000	98.469119
1998.000000	98.447012
1997.000000	98.433034
1996.000000	98.437294
1995.000000	98.468830
1994.000000	98.521622
1993.000000	98.567608
1992.000000	98.578895
1991.000000	98.555406
1990.000000	98.516346
1989.000000	98.474526
1988.000000	98.435079
1987.000000	98.407017
1986.000000	98.397876
1985.000000	98.401598
1984.000000	98.403458
1983.000000	98.394014
1982.000000	98.372716
1981.000000	98.344920
1980.000000	98.326301
1979.000000	98.336547
1978.000000	98.382072
1977.000000	98.447046
1976.000000	98.509027
1975.000000	98.556522
1974.000000	98.586698
1973.000000	98.602063
1972.000000	98.614179
1971.000000	98.631749
1970.000000	98.640574
1969.000000	98.616009
1968.000000	98.562895
1967.000000	98.522811
1966.000000	98.527673
1965.000000	98.565046
1964.000000	98.602660
1963.000000	98.626038
1962.000000	98.637203
1961.000000	98.636556
1960.000000	98.621646
1959.000000	98.593203
1958.000000	98.552561
1957.000000	98.502657
1956.000000	98.458027
1955.000000	98.441082
1954.000000	98.459383
1953.000000	98.496291
1952.000000	98.527650
1951.000000	98.543882
1950.000000	98.546792
1949.000000	98.538903
1948.000000	98.527389
1947.000000	98.525032
1946.000000	98.537255
1945.000000	98.555364
1944.000000	98.567825
1943.000000	98.570723
1942.000000	98.563579
1941.000000	98.547754
1940.000000	98.531033
1939.000000	98.521965
1938.000000	98.517953
1937.000000	98.506886
1936.000000	98.484522
1935.000000	98.461769
1934.000000	98.449033
1933.000000	98.443202
1932.000000	98.433330
1931.000000	98.416222
1930.000000	98.393747
1929.000000	98.368470
1928.000000	98.352806
1927.000000	98.362660
1926.000000	98.402126
1925.000000	98.450062
1924.000000	98.483086
1923.000000	98.500275
1922.000000	98.512945
1921.000000	98.520313
1920.000000	98.511018
1919.000000	98.484646
1918.000000	98.458478
1917.000000	98.445866
1916.000000	98.444095
1915.000000	98.444372
1914.000000	98.444830
1913.000000	98.449978
1912.000000	98.461693
1911.000000	98.476876
1910.000000	98.488247
1909.000000	98.489549
1908.000000	98.482929
1907.000000	98.473915
1906.000000	98.469017
1905.000000	98.468012
1904.000000	98.469959
1903.000000	98.475942
1902.000000	98.479785
1901.000000	98.471596
1900.000000	98.454643
1899.000000	98.444528
1898.000000	98.453260
1897.000000	98.474149
1896.000000	98.492696
1895.000000	98.504779
1894.000000	98.513817
1893.000000	98.518875
1892.000000	98.516078
1891.000000	98.508477
1890.000000	98.504816
1889.000000	98.507845
1888.000000	98.513005
1887.000000	98.516596
1886.000000	98.516635
1885.000000	98.511756
1884.000000	98.503686
1883.000000	98.497503
1882.000000	98.492966
1881.000000	98.484419
1880.000000	98.473119
1879.000000	98.469240
1878.000000	98.481172
1877.000000	98.502209
1876.000000	98.514346
1875.000000	98.512135
1874.000000	98.509411
1873.000000	98.519629
1872.000000	98.541331
1871.000000	98.565678
1870.000000	98.589851
1869.000000	98.614251
1868.000000	98.631154
1867.000000	98.629062
1866.000000	98.604404
1865.000000	98.564981
1864.000000	98.527189
1863.000000	98.505545
1862.000000	98.501235
1861.000000	98.504928
1860.000000	98.510533
1859.000000	98.519199
1858.000000	98.531078
1857.000000	98.541124
1856.000000	98.545768
1855.000000	98.547745
1854.000000	98.550223
1853.000000	98.549845
1852.000000	98.547117
1851.000000	98.540790
1850.000000	98.534576
1849.000000	98.540173
1848.000000	98.565216
1847.000000	98.598998
1846.000000	98.618225
1845.000000	98.613013
1844.000000	98.598144
1843.000000	98.593848
1842.000000	98.596903
1841.000000	98.588226
1840.000000	98.565561
1839.000000	98.545638
1838.000000	98.540269
1837.000000	98.537231
1836.000000	98.526679
1835.000000	98.522231
1834.000000	98.538346
1833.000000	98.566557
1832.000000	98.589132
1831.000000	98.600122
1830.000000	98.612904
1829.000000	98.631562
1828.000000	98.639129
1827.000000	98.621091
1826.000000	98.585140
1825.000000	98.555572
1824.000000	98.543611
1823.000000	98.539606
1822.000000	98.532554
1821.000000	98.524743
1820.000000	98.523545
1819.000000	98.527757
1818.000000	98.532524
1817.000000	98.534540
1816.000000	98.538162
1815.000000	98.549271
1814.000000	98.562681
1813.000000	98.570144
1812.000000	98.566417
1811.000000	98.556958
1810.000000	98.548447
1809.000000	98.535050
1808.000000	98.509897
1807.000000	98.477179
1806.000000	98.446004
1805.000000	98.418691
1804.000000	98.390481
1803.000000	98.358173
1802.000000	98.318430
1801.000000	98.276496
1800.000000	98.237056
1799.000000	98.204484
1798.000000	98.182030
1797.000000	98.171586
1796.000000	98.173200
1795.000000	98.183790
1794.000000	98.200030
1793.000000	98.231671
1792.000000	98.284514
1791.000000	98.346269
1790.000000	98.399189
1789.000000	98.433215
1788.000000	98.447754
1787.000000	98.452452
1786.000000	98.460412
1785.000000	98.478156
1784.000000	98.504564
1783.000000	98.534075
1782.000000	98.551054
1781.000000	98.555966
1780.000000	98.554721
1779.000000	98.554360
1778.000000	98.559827
1777.000000	98.574691
1776.000000	98.602434
1775.000000	98.629896
1774.000000	98.637637
1773.000000	98.628454
1772.000000	98.618193
1771.000000	98.599670
1770.000000	98.546887
1769.000000	98.443083
1768.000000	98.311962
1767.000000	98.208870
1766.000000	98.152506
1765.000000	98.103245
1764.000000	98.011455
1763.000000	97.867466
1762.000000	97.691099
1761.000000	97.502766
1760.000000	97.294512
1759.000000	97.039620
1758.000000	96.698111
1757.000000	96.256972
1756.000000	95.771773
1755.000000	95.309249
1754.000000	94.856756
1753.000000	94.343207
1752.000000	93.732538
1751.000000	93.074184
1750.000000	92.449146
1749.000000	91.862691
1748.000000	91.300792
1747.000000	90.794377
1746.000000	90.363331
1745.000000	89.995581
1744.000000	89.685555
1743.000000	89.453368
1742.000000	89.300712
1741.000000	89.204091
1740.000000	89.174884
1739.000000	89.254903
1738.000000	89.412062
1737.000000	89.567498
1736.000000	89.717072
1735.000000	89.990293
1734.000000	90.501497
1733.000000	91.086277
1732.000000	91.561053
1731.000000	91.957267
1730.000000	92.352221
1729.000000	92.767982
1728.000000	93.188739
1727.000000	93.597499
1726.000000	93.989326
1725.000000	94.372040
1724.000000	94.747692
1723.000000	95.113056
1722.000000	95.447392
1721.000000	95.724711
1720.000000	95.952099
1719.000000	96.181616
1718.000000	96.457813
1717.000000	96.722621
1716.000000	96.893775
1715.000000	96.981245
1714.000000	97.021542
1713.000000	97.031021
1712.000000	97.026937
1711.000000	97.030257
1710.000000	97.046317
1709.000000	97.066763
1708.000000	97.083276
1707.000000	97.085105
1706.000000	97.072113
1705.000000	97.055406
1704.000000	97.046171
1703.000000	97.018762
1702.000000	96.920755
1701.000000	96.754764
1700.000000	96.626592
1699.000000	96.605048
1698.000000	96.580903
1697.000000	96.423283
1696.000000	96.151151
1695.000000	95.914707
1694.000000	95.785133
1693.000000	95.689270
1692.000000	95.563391
1691.000000	95.422045
1690.000000	95.300003
1689.000000	95.208584
1688.000000	95.144575
1687.000000	95.083638
1686.000000	94.994343
1685.000000	94.851708
1684.000000	94.675027
1683.000000	94.517532
1682.000000	94.368420
1681.000000	94.183527
1680.000000	93.979102
1679.000000	93.807457
1678.000000	93.668263
1677.000000	93.509416
1676.000000	93.307404
1675.000000	93.115701
1674.000000	92.985155
1673.000000	92.889388
1672.000000	92.766711
1671.000000	92.599437
1670.000000	92.397513
1669.000000	92.172074
1668.000000	91.951763
1667.000000	91.765003
1666.000000	91.602091
1665.000000	91.429536
1664.000000	91.227211
1663.000000	91.015278
1662.000000	90.815129
1661.000000	90.625342
1660.000000	90.435764
1659.000000	90.254043
1658.000000	90.107258
1657.000000	90.007588
1656.000000	89.925940
1655.000000	89.810645
1654.000000	89.647187
1653.000000	89.464916
1652.000000	89.345451
1651.000000	89.325832
1650.000000	89.326524
1649.000000	89.285929
1648.000000	89.221733
1647.000000	89.177706
1646.000000	89.161556
1645.000000	89.145277
1644.000000	89.126918
1643.000000	89.118254
1642.000000	89.121093
1641.000000	89.145105
1640.000000	89.201483
1639.000000	89.281257
1638.000000	89.363460
1637.000000	89.434952
1636.000000	89.509219
1635.000000	89.576398
1634.000000	89.621404
1633.000000	89.644023
1632.000000	89.653668
1631.000000	89.675595
1630.000000	89.734380
1629.000000	89.837294
1628.000000	89.973582
1627.000000	90.122202
1626.000000	90.260674
1625.000000	90.388876
1624.000000	90.529718
1623.000000	90.701788
1622.000000	90.881182
1621.000000	91.037721
1620.000000	91.166966
1619.000000	91.278803
1618.000000	91.401842
1617.000000	91.572615
1616.000000	91.782478
1615.000000	91.970884
1614.000000	92.102933
1613.000000	92.191146
1612.000000	92.275874
1611.000000	92.389350
1610.000000	92.524186
1609.000000	92.657089
1608.000000	92.780364
1607.000000	92.896924
1606.000000	92.998811
1605.000000	93.085993
1604.000000	93.167254
1603.000000	93.241610
1602.000000	93.299618
1601.000000	93.339847
1600.000000	93.374268
1599.000000	93.411414
1598.000000	93.448359
1597.000000	93.482598
1596.000000	93.517625
1595.000000	93.553751
1594.000000	93.582188
1593.000000	93.597993
1592.000000	93.607120
1591.000000	93.615107
1590.000000	93.618023
1589.000000	93.611440
1588.000000	93.596943
1587.000000	93.575612
1586.000000	93.544827
1585.000000	93.505393
1584.000000	93.469047
1583.000000	93.431652
1582.000000	93.385237
1581.000000	93.342230
1580.000000	93.322052
1579.000000	93.313135
1578.000000	93.286558
1577.000000	93.232734
1576.000000	93.171475
1575.000000	93.124844
1574.000000	93.086487
1573.000000	93.038385
1572.000000	92.974016
1571.000000	92.902761
1570.000000	92.830539
1569.000000	92.750257
1568.000000	92.667408
1567.000000	92.576687
1566.000000	92.466630
1565.000000	92.346837
1564.000000	92.255861
1563.000000	92.202252
1562.000000	92.153881
1561.000000	92.079196
1560.000000	91.983923
1559.000000	91.857938
1558.000000	91.677440
1557.000000	91.484468
1556.000000	91.285355
1555.000000	91.059956
1554.000000	90.832374
1553.000000	90.645154
1552.000000	90.493876
1551.000000	90.341492
1550.000000	90.181395
1549.000000	90.030772
1548.000000	89.906543
1547.000000	89.799836
1546.000000	89.701866
1545.000000	89.624431
1544.000000	89.581612
1543.000000	89.561623
1542.000000	89.543079
1541.000000	89.506053
1540.000000	89.442385
1539.000000	89.356427
1538.000000	89.283068
1537.000000	89.237434
1536.000000	89.200908
1535.000000	89.176420
1534.000000	89.185255
1533.000000	89.223259
1532.000000	89.249911
1531.000000	89.254819
1530.000000	89.256720
1529.000000	89.268052
1528.000000	89.294146
1527.000000	89.337007
1526.000000	89.390857
1525.000000	89.445982
1524.000000	89.487603
1523.000000	89.504878
1522.000000	89.506066
1521.000000	89.506230
1520.000000	89.514631
1519.000000	89.522728
1518.000000	89.506807
1517.000000	89.462730
1516.000000	89.412824
1515.000000	89.378718
1514.000000	89.355679
1513.000000	89.344896
1512.000000	89.370802
1511.000000	89.456526
1510.000000	89.579631
1509.000000	89.699173
1508.000000	89.799912
1507.000000	89.882927
1506.000000	89.889786
1505.000000	89.829035
1504.000000	89.777434
1503.000000	89.742627
1502.000000	89.713552
1501.000000	89.692246
1500.000000	89.686624
1499.000000	89.693037
1498.000000	89.689352
1497.000000	89.651150
1496.000000	89.588759
1495.000000	89.545805
1494.000000	89.526581
1493.000000	89.501484
1492.000000	89.461525
1491.000000	89.431611
1490.000000	89.415728
1489.000000	89.368707
1488.000000	89.262980
1487.000000	89.124721
1486.000000	88.976880
1485.000000	88.819010
1484.000000	88.660098
1483.000000	88.502916
1482.000000	88.341728
1481.000000	88.166881
1480.000000	87.983327
1479.000000	87.798383
1478.000000	87.606032
1477.000000	87.400626
1476.000000	87.192603
1475.000000	86.988284
1474.000000	86.742822
1473.000000	86.401768
1472.000000	85.990959
1471.000000	85.603676
1470.000000	85.267817
1469.000000	84.957660
1468.000000	84.667606
1467.000000	84.413516
1466.000000	84.192427
1465.000000	83.992520
1464.000000	83.819915
1463.000000	83.680592
1462.000000	83.563054
1461.000000	83.450379
1460.000000	83.340210
1459.000000	83.220295
1458.000000	83.048534
1457.000000	82.795885
1456.000000	82.549847
1455.000000	82.387425
1454.000000	82.256829
1453.000000	82.112085
1452.000000	81.973235
1451.000000	81.871762
1450.000000	81.795637
1449.000000	81.713037
1448.000000	81.621426
1447.000000	81.539542
1446.000000	81.456326
1445.000000	81.361222
1444.000000	81.258839
1443.000000	81.156708
1442.000000	81.054240
1441.000000	80.948409
1440.000000	80.840651
1439.000000	80.720778
1438.000000	80.569748
1437.000000	80.385187
1436.000000	80.216241
1435.000000	80.105340
1434.000000	80.025096
1433.000000	79.938300
1432.000000	79.848974
1431.000000	79.767641
1430.000000	79.670697
1429.000000	79.527759
1428.000000	79.354747
1427.000000	79.189735
1426.000000	79.037294
1425.000000	78.902639
1424.000000	78.813640
1423.000000	78.776608
1422.000000	78.748395
1421.000000	78.692179
1420.000000	78.629058
1419.000000	78.599715
1418.000000	78.588348
1417.000000	78.559802
1416.000000	78.529958
1415.000000	78.530379
1414.000000	78.567599
1413.000000	78.635589
1412.000000	78.738199
1411.000000	78.877886
1410.000000	79.037840
1409.000000	79.200223
1408.000000	79.369286
1407.000000	79.557142
1406.000000	79.754469
1405.000000	79.948037
1404.000000	80.134177
1403.000000	80.302924
1402.000000	80.438377
1401.000000	80.544226
1400.000000	80.652892
1399.000000	80.785191
1398.000000	80.917984
1397.000000	81.025493
1396.000000	81.121033
1395.000000	81.227911
1394.000000	81.338348
1393.000000	81.441379
1392.000000	81.546423
1391.000000	81.661292
1390.000000	81.782660
1389.000000	81.915107
1388.000000	82.075833
1387.000000	82.264252
1386.000000	82.444652
1385.000000	82.594013
1384.000000	82.726913
1383.000000	82.864092
1382.000000	83.011490
1381.000000	83.166983
1380.000000	83.337646
1379.000000	83.531367
1378.000000	83.744715
1377.000000	83.974143
1376.000000	84.228100
1375.000000	84.508192
1374.000000	84.784368
1373.000000	85.019975
1372.000000	85.211479
1371.000000	85.378018
1370.000000	85.533595
1369.000000	85.690448
1368.000000	85.854369
1367.000000	86.015657
1366.000000	86.162727
1365.000000	86.302170
1364.000000	86.450598
1363.000000	86.605060
1362.000000	86.738869
1361.000000	86.838504
1360.000000	86.916562
1359.000000	86.984770
1358.000000	87.046322
1357.000000	87.110032
1356.000000	87.186980
1355.000000	87.274668
1354.000000	87.361426
1353.000000	87.445380
1352.000000	87.532396
1351.000000	87.621663
1350.000000	87.702132
1349.000000	87.770469
1348.000000	87.828609
1347.000000	87.871493
1346.000000	87.891577
1345.000000	87.894093
1344.000000	87.891987
1343.000000	87.887478
1342.000000	87.872078
1341.000000	87.841248
1340.000000	87.795912
1339.000000	87.734207
1338.000000	87.658445
1337.000000	87.586827
1336.000000	87.541267
1335.000000	87.529253
1334.000000	87.547038
1333.000000	87.593796
1332.000000	87.669909
1331.000000	87.766279
1330.000000	87.869085
1329.000000	87.974351
1328.000000	88.084893
1327.000000	88.196331
1326.000000	88.298656
1325.000000	88.390552
1324.000000	88.476918
1323.000000	88.556759
1322.000000	88.626763
1321.000000	88.692545
1320.000000	88.763356
1319.000000	88.838761
1318.000000	88.912820
1317.000000	88.987625
1316.000000	89.069709
1315.000000	89.157896
1314.000000	89.247014
1313.000000	89.337850
1312.000000	89.431766
1311.000000	89.522563
1310.000000	89.605598
1309.000000	89.688314
1308.000000	89.779220
1307.000000	89.874668
1306.000000	89.966729
1305.000000	90.057958
1304.000000	90.153962
1303.000000	90.250523
1302.000000	90.341246
1301.000000	90.430443
1300.000000	90.524957
1299.000000	90.620353
1298.000000	90.708406
1297.000000	90.789976
1296.000000	90.868124
1295.000000	90.935998
1294.000000	90.986327
1293.000000	91.024714
1292.000000	91.060379
1291.000000	91.091476
1290.000000	91.111159
1289.000000	91.121366
1288.000000	91.128478
1287.000000	91.133330
1286.000000	91.136755
1285.000000	91.146052
1284.000000	91.164517
1283.000000	91.183353
1282.000000	91.194248
1281.000000	91.200781
1280.000000	91.206299
1279.000000	91.201163
1278.000000	91.174592
1277.000000	91.128488
1276.000000	91.068511
1275.000000	90.990462
1274.000000	90.888846
1273.000000	90.768635
1272.000000	90.635534
1271.000000	90.484386
1270.000000	90.308529
1269.000000	90.112955
1268.000000	89.906577
1267.000000	89.689170
1266.000000	89.458363
1265.000000	89.220798
1264.000000	88.985823
1263.000000	88.755069
1262.000000	88.528082
1261.000000	88.310962
1260.000000	88.109038
1259.000000	87.918014
1258.000000	87.733802
1257.000000	87.566503
1256.000000	87.432793
1255.000000	87.339818
1254.000000	87.283723
1253.000000	87.256637
1252.000000	87.246596
1251.000000	87.234851
1250.000000	87.206494
1249.000000	87.162011
1248.000000	87.110275
1247.000000	87.055058
1246.000000	86.996513
1245.000000	86.939522
1244.000000	86.890345
1243.000000	86.849396
1242.000000	86.816790
1241.000000	86.799759
1240.000000	86.805370
1239.000000	86.831532
1238.000000	86.873678
1237.000000	86.936241
1236.000000	87.025933
1235.000000	87.138949
1234.000000	87.266269
1233.000000	87.405799
1232.000000	87.560198
1231.000000	87.727847
1230.000000	87.908194
1229.000000	88.111515
1228.000000	88.348600
1227.000000	88.615530
1226.000000	88.898304
1225.000000	89.186776
1224.000000	89.473194
1223.000000	89.744255
1222.000000	89.989345
1221.000000	90.210703
1220.000000	90.413785
1219.000000	90.594080
1218.000000	90.746748
1217.000000	90.879020
1216.000000	90.999657
1215.000000	91.105606
1214.000000	91.190706
1213.000000	91.260094
1212.000000	91.320972
1211.000000	91.368139
1210.000000	91.393333
1209.000000	91.399633
1208.000000	91.394772
1207.000000	91.378297
1206.000000	91.348021
1205.000000	91.311236
1204.000000	91.276088
1203.000000	91.240652
1202.000000	91.201681
1201.000000	91.165070
1200.000000	91.135872
1199.000000	91.106664
1198.000000	91.068571
1197.000000	91.025202
1196.000000	90.983265
1195.000000	90.938377
1194.000000	90.882989
1193.000000	90.820472
1192.000000	90.758435
1191.000000	90.694883
1190.000000	90.623446
1189.000000	90.545047
1188.000000	90.463074
1187.000000	90.373895
1186.000000	90.272570
1185.000000	90.161580
1184.000000	90.043012
1183.000000	89.909992
1182.000000	89.756617
1181.000000	89.588508
1180.000000	89.414124
1179.000000	89.232787
1178.000000	89.042347
1177.000000	88.850291
1176.000000	88.665535
1175.000000	88.486963
1174.000000	88.310076
1173.000000	88.138393
1172.000000	87.977687
1171.000000	87.825856
1170.000000	87.678248
1169.000000	87.537586
1168.000000	87.409427
1167.000000	87.293106
1166.000000	87.187604
1165.000000	87.099468
1164.000000	87.035822
1163.000000	86.996415
1162.000000	86.980318
1161.000000	86.995179
1160.000000	87.047889
1159.000000	87.133253
1158.000000	87.244650
1157.000000	87.386878
1156.000000	87.568399
1155.000000	87.785313
1154.000000	88.026160
1153.000000	88.288464
1152.000000	88.575475
1151.000000	88.884049
1150.000000	89.207555
1149.000000	89.544856
1148.000000	89.894095
1147.000000	90.243703
1146.000000	90.583672
1145.000000	90.917820
1144.000000	91.252182
1143.000000	91.579766
1142.000000	91.890199
1141.000000	92.184103
1140.000000	92.463962
1139.000000	92.722283
1138.000000	92.951284
1137.000000	93.155190
1136.000000	93.338583
1135.000000	93.493955
1134.000000	93.615422
1133.000000	93.710761
1132.000000	93.789146
1131.000000	93.848293
1130.000000	93.885414
1129.000000	93.908372
1128.000000	93.922191
1127.000000	93.919813
1126.000000	93.897405
1125.000000	93.864090
1124.000000	93.826417
1123.000000	93.777499
1122.000000	93.713133
1121.000000	93.641609
1120.000000	93.564348
1119.000000	93.465094
1118.000000	93.329336
1117.000000	93.159418
1116.000000	92.959133
1115.000000	92.722228
1114.000000	92.451773
1113.000000	92.173253
1112.000000	91.915386
1111.000000	91.691982
1110.000000	91.513091
1109.000000	91.393894
1108.000000	91.338144
1107.000000	91.326995
1106.000000	91.337802
1105.000000	91.363378
1104.000000	91.399259
1103.000000	91.430039
1102.000000	91.442267
1101.000000	91.435709
1100.000000	91.409521
1099.000000	91.352522
1098.000000	91.263775
1097.000000	91.164433
1096.000000	91.075801
1095.000000	91.001015
1094.000000	90.940246
1093.000000	90.905598
1092.000000	90.906843
1091.000000	90.938722
1090.000000	90.997947
1089.000000	91.094128
1088.000000	91.229076
1087.000000	91.384388
1086.000000	91.544578
1085.000000	91.716801
1084.000000	91.909216
1083.000000	92.108360
1082.000000	92.296617
1081.000000	92.473974
1080.000000	92.644867
1079.000000	92.801412
1078.000000	92.939498
1077.000000	93.072001
1076.000000	93.207606
1075.000000	93.333499
1074.000000	93.436828
1073.000000	93.524092
1072.000000	93.601204
1071.000000	93.657129
1070.000000	93.685120
1069.000000	93.699647
1068.000000	93.712995
1067.000000	93.715478
1066.000000	93.698548
1065.000000	93.676330
1064.000000	93.663960
1063.000000	93.655310
1062.000000	93.641506
1061.000000	93.632060
1060.000000	93.637316
1059.000000	93.649166
1058.000000	93.658717
1057.000000	93.674623
1056.000000	93.705104
1055.000000	93.740775
1054.000000	93.774723
1053.000000	93.819068
1052.000000	93.882161
1051.000000	93.948407
1050.000000	94.003031
1049.000000	94.055777
1048.000000	94.117546
1047.000000	94.175174
1046.000000	94.211625
1045.000000	94.230393
1044.000000	94.238770
1043.000000	94.229379
1042.000000	94.197019
1041.000000	94.154485
1040.000000	94.111351
1039.000000	94.055692
1038.000000	93.976177
1037.000000	93.883166
1036.000000	93.790393
1035.000000	93.695985
1034.000000	93.599375
1033.000000	93.515879
1032.000000	93.454975
1031.000000	93.403860
1030.000000	93.351941
1029.000000	93.312420
1028.000000	93.300102
1027.000000	93.306802
1026.000000	93.318498
1025.000000	93.337070
1024.000000	93.366855
1023.000000	93.398422
1022.000000	93.426268
1021.000000	93.463634
1020.000000	93.519488
1019.000000	93.580288
1018.000000	93.633116
1017.000000	93.688207
1016.000000	93.758560
1015.000000	93.837201
1014.000000	93.914103
1013.000000	93.996409
1012.000000	94.091973
1011.000000	94.192411
1010.000000	94.290615
1009.000000	94.395813
1008.000000	94.512265
1007.000000	94.623295
1006.000000	94.715687
1005.000000	94.799796
1004.000000	94.887546
1003.000000	94.970477
1002.000000	95.038875
1001.000000	95.100611
1000.000000	95.162725
999.000000	95.214446
998.000000	95.248605
997.000000	95.278925
996.000000	95.315939
995.000000	95.346762
994.000000	95.358372
993.000000	95.361484
992.000000	95.371069
991.000000	95.383002
990.000000	95.388458
989.000000	95.392164
988.000000	95.397251
987.000000	95.392658
986.000000	95.373515
985.000000	95.354533
984.000000	95.344928
983.000000	95.331533
982.000000	95.304818
981.000000	95.278518
980.000000	95.263860
979.000000	95.245916
978.000000	95.207534
977.000000	95.155955
976.000000	95.105895
975.000000	95.055775
974.000000	95.001032
973.000000	94.950456
972.000000	94.909878
971.000000	94.869569
970.000000	94.827085
969.000000	94.801487
968.000000	94.805407
967.000000	94.823840
966.000000	94.840420
965.000000	94.863790
964.000000	94.905867
963.000000	94.957242
962.000000	95.005800
961.000000	95.060585
960.000000	95.133031
959.000000	95.213705
958.000000	95.290666
957.000000	95.372098
956.000000	95.468854
955.000000	95.572273
954.000000	95.671409
953.000000	95.773449
952.000000	95.885890
951.000000	95.996583
950.000000	96.093606
949.000000	96.185690
948.000000	96.282269
947.000000	96.372542
946.000000	96.445991
945.000000	96.513473
944.000000	96.586449
943.000000	96.655166
942.000000	96.708844
941.000000	96.757684
940.000000	96.811916
939.000000	96.860349
938.000000	96.891873
937.000000	96.920206
936.000000	96.963541
935.000000	97.017989
934.000000	97.071875
933.000000	97.127859
932.000000	97.189549
931.000000	97.244685
930.000000	97.283555
929.000000	97.316787
928.000000	97.356479
927.000000	97.397419
926.000000	97.434913
925.000000	97.479573
924.000000	97.536617
923.000000	97.591190
922.000000	97.633558
921.000000	97.676387
920.000000	97.728795
919.000000	97.777060
918.000000	97.811718
917.000000	97.849823
916.000000	97.907377
915.000000	97.972755
914.000000	98.028598
913.000000	98.078953
912.000000	98.132195
911.000000	98.180151
910.000000	98.215832
909.000000	98.250642
908.000000	98.292417
907.000000	98.329050
906.000000	98.354003
905.000000	98.383284
904.000000	98.425995
903.000000	98.463042
902.000000	98.478921
901.000000	98.489431
900.000000	98.515253
899.000000	98.550424
898.000000	98.580638
897.000000	98.607557
896.000000	98.633412
895.000000	98.645507
894.000000	98.639014
893.000000	98.631439
892.000000	98.631691
891.000000	98.617737
890.000000	98.558444
889.000000	98.426225
888.000000	98.171148
887.000000	97.723635
886.000000	97.065388
885.000000	96.273990
884.000000	95.462556
883.000000	94.690385
882.000000	93.939716
881.000000	93.151494
880.000000	92.263788
879.000000	91.253802
878.000000	90.178819
877.000000	89.166264
876.000000	88.343162
875.000000	87.789107
874.000000	87.563249
873.000000	87.723390
872.000000	88.287101
871.000000	89.183018
870.000000	90.273663
869.000000	91.419170
868.000000	92.501972
867.000000	93.433696
866.000000	94.181498
865.000000	94.777492
864.000000	95.269569
863.000000	95.679001
862.000000	96.017135
861.000000	96.309798
860.000000	96.574160
859.000000	96.798517
858.000000	96.975669
857.000000	97.127051
856.000000	97.268389
855.000000	97.384173
854.000000	97.463509
853.000000	97.525557
852.000000	97.574371
851.000000	97.567773
850.000000	97.479580
849.000000	97.365588
848.000000	97.321648
847.000000	97.387759
846.000000	97.526848
845.000000	97.679982
844.000000	97.806459
843.000000	97.888353
842.000000	97.934711
841.000000	97.974885
840.000000	98.023738
839.000000	98.064824
838.000000	98.082825
837.000000	98.089013
836.000000	98.094217
835.000000	98.086424
834.000000	98.060037
833.000000	98.039641
832.000000	98.046124
831.000000	98.066024
830.000000	98.082376
829.000000	98.108731
828.000000	98.161635
827.000000	98.225321
826.000000	98.277591
825.000000	98.324739
824.000000	98.377596
823.000000	98.420144
822.000000	98.438075
821.000000	98.450820
820.000000	98.481827
819.000000	98.522810
818.000000	98.555601
817.000000	98.582955
816.000000	98.610813
815.000000	98.626956
814.000000	98.623860
813.000000	98.618365
812.000000	98.623878
811.000000	98.627769
810.000000	98.618041
809.000000	98.605185
808.000000	98.596075
807.000000	98.576736
806.000000	98.543308
805.000000	98.518093
804.000000	98.510933
803.000000	98.498331
802.000000	98.465814
801.000000	98.435491
800.000000	98.424632
799.000000	98.412418
798.000000	98.378194
797.000000	98.338458
796.000000	98.314903
795.000000	98.297949
794.000000	98.272022
793.000000	98.245899
792.000000	98.228982
791.000000	98.207667
790.000000	98.172705
789.000000	98.140116
788.000000	98.119450
787.000000	98.092869
786.000000	98.051065
785.000000	98.017196
784.000000	98.008070
783.000000	98.003424
782.000000	97.981289
781.000000	97.953224
780.000000	97.936802
779.000000	97.922839
778.000000	97.897672
777.000000	97.869643
776.000000	97.846934
775.000000	97.817383
774.000000	97.775751
773.000000	97.743045
772.000000	97.733733
771.000000	97.731872
770.000000	97.722015
769.000000	97.713651
768.000000	97.712160
767.000000	97.698018
766.000000	97.659943
765.000000	97.617126
764.000000	97.584275
763.000000	97.546388
762.000000	97.492397
761.000000	97.439373
760.000000	97.398445
759.000000	97.351398
758.000000	97.287970
757.000000	97.230918
756.000000	97.196647
755.000000	97.166547
754.000000	97.126329
753.000000	97.098265
752.000000	97.101683
751.000000	97.115031
750.000000	97.109299
749.000000	97.089757
748.000000	97.073633
747.000000	97.057345
746.000000	97.035919
745.000000	97.024935
744.000000	97.032283
743.000000	97.036089
742.000000	97.018359
741.000000	96.991521
740.000000	96.967512
739.000000	96.932683
738.000000	96.879165
737.000000	96.826063
736.000000	96.783242
735.000000	96.728147
734.000000	96.646635
733.000000	96.560953
732.000000	96.490401
731.000000	96.420315
730.000000	96.338611
729.000000	96.265023
728.000000	96.215986
727.000000	96.177405
726.000000	96.137802
725.000000	96.112593
724.000000	96.104460
723.000000	96.077500
722.000000	96.000598
721.000000	95.882664
720.000000	95.734776
719.000000	95.531246
718.000000	95.235768
717.000000	94.826408
716.000000	94.276588
715.000000	93.576916
714.000000	92.826360
713.000000	92.247156
712.000000	92.037530
711.000000	92.212235
710.000000	92.617818
709.000000	93.068820
708.000000	93.438520
707.000000	93.674109
706.000000	93.790944
705.000000	93.847748
704.000000	93.887248
703.000000	93.903027
702.000000	93.880463
701.000000	93.837723
700.000000	93.795770
699.000000	93.748333
698.000000	93.691023
697.000000	93.648520
696.000000	93.638517
695.000000	93.639066
694.000000	93.629936
693.000000	93.629799
692.000000	93.654558
691.000000	93.679526
690.000000	93.678494
689.000000	93.665737
688.000000	93.662404
687.000000	93.654244
686.000000	93.629243
685.000000	93.612727
684.000000	93.622508
683.000000	93.633140
682.000000	93.624003
681.000000	93.617768
680.000000	93.632564
679.000000	93.644126
678.000000	93.635478
677.000000	93.632337
676.000000	93.659158
675.000000	93.698393
674.000000	93.734360
673.000000	93.788634
672.000000	93.873891
671.000000	93.965392
670.000000	94.052156
669.000000	94.167279
668.000000	94.289703
667.000000	94.332946
666.000000	94.336903
665.000000	94.342781
664.000000	94.359532
663.000000	94.373825
662.000000	94.374861
661.000000	94.383244
660.000000	94.415015
659.000000	94.444022
658.000000	94.441538
657.000000	94.415958
656.000000	94.386118
655.000000	94.338722
654.000000	94.255211
653.000000	94.154648
652.000000	94.067857
651.000000	93.990674
650.000000	93.902477
649.000000	93.808419
648.000000	93.724862
647.000000	93.643051
646.000000	93.542818
645.000000	93.428787
644.000000	93.314851
643.000000	93.192710
642.000000	93.052491
641.000000	92.909605
640.000000	92.782414
639.000000	92.668038
638.000000	92.566191
637.000000	92.499773
636.000000	92.483317
635.000000	92.493238
634.000000	92.504548
633.000000	92.528848
632.000000	92.579012
631.000000	92.627156
630.000000	92.639657
629.000000	92.628673
628.000000	92.628825
627.000000	92.646840
626.000000	92.666491
625.000000	92.682069
624.000000	92.685687
623.000000	92.649502
622.000000	92.562638
621.000000	92.461708
620.000000	92.385430
619.000000	92.325800
618.000000	92.258030
617.000000	92.189666
616.000000	92.140137
615.000000	92.100424
614.000000	92.056200
613.000000	92.020806
612.000000	92.007983
611.000000	92.000706
610.000000	91.985684
609.000000	91.987024
608.000000	92.029972
607.000000	92.101932
606.000000	92.184226
605.000000	92.292871
604.000000	92.447728
603.000000	92.636460
602.000000	92.847534
601.000000	93.094420
600.000000	93.366196
599.000000	93.604311
598.000000	93.775455
597.000000	93.920643
596.000000	94.084063
595.000000	94.248187
594.000000	94.382120
593.000000	94.502106
592.000000	94.628649
591.000000	94.732261
590.000000	94.782447
589.000000	94.802581
588.000000	94.823183
587.000000	94.832531
586.000000	94.822553
585.000000	94.829959
584.000000	94.881165
583.000000	94.943822
582.000000	94.983213
581.000000	95.014443
580.000000	95.053714
579.000000	95.074961
578.000000	95.065696
577.000000	95.066315
576.000000	95.102878
575.000000	95.139900
574.000000	95.153353
573.000000	95.183551
572.000000	95.256053
571.000000	95.322303
570.000000	95.334707
569.000000	95.323788
568.000000	95.335233
567.000000	95.353668
566.000000	95.354526
565.000000	95.363598
564.000000	95.398086
563.000000	95.415066
562.000000	95.385036
561.000000	95.353402
560.000000	95.363421
559.000000	95.381572
558.000000	95.366990
557.000000	95.348243
556.000000	95.364315
555.000000	95.391336
554.000000	95.396505
553.000000	95.402015
552.000000	95.427028
551.000000	95.433101
550.000000	95.397246
549.000000	95.375430
548.000000	95.417342
547.000000	95.483577
546.000000	95.516071
545.000000	95.528537
544.000000	95.552461
543.000000	95.564651
542.000000	95.542131
541.000000	95.522168
540.000000	95.536314
539.000000	95.548730
538.000000	95.527344
537.000000	95.509778
536.000000	95.531408
535.000000	95.555524
534.000000	95.545671
533.000000	95.532251
532.000000	95.538335
531.000000	95.517770
530.000000	95.444953
529.000000	95.386637
528.000000	95.406710
527.000000	95.469368
526.000000	95.505815
525.000000	95.521605
524.000000	95.551135
523.000000	95.573400
522.000000	95.563077
521.000000	95.554619
520.000000	95.581779
519.000000	95.612938
518.000000	95.617254
517.000000	95.635566
516.000000	95.700581
515.000000	95.764349
514.000000	95.784498
513.000000	95.794778
512.000000	95.832203
511.000000	95.872435
510.000000	95.896188
509.000000	95.940268
508.000000	96.018341
507.000000	96.071579
506.000000	96.069661
505.000000	96.073182
504.000000	96.126892
503.000000	96.188928
502.000000	96.225199
501.000000	96.275246
500.000000	96.346760
499.000000	96.368314
498.000000	96.318762
497.000000	96.285717
496.000000	96.324606
495.000000	96.363561
494.000000	96.333763
493.000000	96.288329
492.000000	96.297921
491.000000	96.337709
490.000000	96.375771
489.000000	96.456254
488.000000	96.589600
487.000000	96.676608
486.000000	96.645627
485.000000	96.573346
484.000000	96.565337
483.000000	96.607726
482.000000	96.653373
481.000000	96.731114
480.000000	96.853875
479.000000	96.937917
478.000000	96.926222
477.000000	96.893717
476.000000	96.920991
475.000000	96.970808
474.000000	96.995167
473.000000	97.050929
472.000000	97.176957
471.000000	97.271999
470.000000	97.265215
469.000000	97.242344
468.000000	97.284149
467.000000	97.338694
466.000000	97.349085
465.000000	97.377751
464.000000	97.475998
463.000000	97.573281
462.000000	97.622569
461.000000	97.721814
460.000000	97.947405
459.000000	98.188213
458.000000	98.281301
457.000000	98.265268
456.000000	98.293742
455.000000	98.374539
454.000000	98.447791
453.000000	98.523236
452.000000	98.604506
451.000000	98.625117
450.000000	98.587252
