PE IR       SUBTECH     SPECTRUM    ASCII       PEDS        4.00        
   -1
3C-YYX-C003_1.ASC
23/09/07
11:11:32.00
23/09/07
11:30:09.00
uco
Sample 003 By uco Date Thursday, September 07 2023
450.000000
#HDR
-1
-1
#GR
cm-1
%T
1.0
0.0
4000.000000
-1.000000
3551
8
98.667601
81.101733
#DATA
4000.000000	98.575894
3999.000000	98.572534
3998.000000	98.569208
3997.000000	98.566600
3996.000000	98.568431
3995.000000	98.568288
3994.000000	98.568143
3993.000000	98.567895
3992.000000	98.568019
3991.000000	98.568912
3990.000000	98.570089
3989.000000	98.570438
3988.000000	98.569400
3987.000000	98.567482
3986.000000	98.565371
3985.000000	98.562980
3984.000000	98.559990
3983.000000	98.557088
3982.000000	98.555939
3981.000000	98.557553
3980.000000	98.560938
3979.000000	98.563420
3978.000000	98.562274
3977.000000	98.556394
3976.000000	98.547205
3975.000000	98.538549
3974.000000	98.534824
3973.000000	98.538041
3972.000000	98.545996
3971.000000	98.553617
3970.000000	98.556865
3969.000000	98.555479
3968.000000	98.552272
3967.000000	98.550082
3966.000000	98.549384
3965.000000	98.548718
3964.000000	98.546868
3963.000000	98.544349
3962.000000	98.542940
3961.000000	98.543997
3960.000000	98.547087
3959.000000	98.550288
3958.000000	98.551590
3957.000000	98.549980
3956.000000	98.545830
3955.000000	98.540579
3954.000000	98.535915
3953.000000	98.533062
3952.000000	98.532583
3951.000000	98.534584
3950.000000	98.538699
3949.000000	98.543836
3948.000000	98.548473
3947.000000	98.551268
3946.000000	98.551424
3945.000000	98.548813
3944.000000	98.544556
3943.000000	98.541400
3942.000000	98.541865
3941.000000	98.545646
3940.000000	98.549367
3939.000000	98.549223
3938.000000	98.543959
3937.000000	98.535528
3936.000000	98.527517
3935.000000	98.523085
3934.000000	98.523794
3933.000000	98.529400
3932.000000	98.537975
3931.000000	98.546685
3930.000000	98.553245
3929.000000	98.556827
3928.000000	98.557710
3927.000000	98.556211
3926.000000	98.552900
3925.000000	98.549500
3924.000000	98.548096
3923.000000	98.549457
3922.000000	98.552790
3921.000000	98.556387
3920.000000	98.557793
3919.000000	98.554650
3918.000000	98.547277
3917.000000	98.540002
3916.000000	98.537484
3915.000000	98.539825
3914.000000	98.542675
3913.000000	98.542076
3912.000000	98.537377
3911.000000	98.530903
3910.000000	98.525561
3909.000000	98.522965
3908.000000	98.523118
3907.000000	98.525023
3906.000000	98.527398
3905.000000	98.529730
3904.000000	98.532704
3903.000000	98.537013
3902.000000	98.542048
3901.000000	98.546024
3900.000000	98.547750
3899.000000	98.547068
3898.000000	98.543899
3897.000000	98.538581
3896.000000	98.532620
3895.000000	98.528414
3894.000000	98.527832
3893.000000	98.531494
3892.000000	98.538864
3891.000000	98.548820
3890.000000	98.559225
3889.000000	98.566973
3888.000000	98.568538
3887.000000	98.562275
3886.000000	98.551548
3885.000000	98.543104
3884.000000	98.539887
3883.000000	98.538410
3882.000000	98.534517
3881.000000	98.528384
3880.000000	98.523842
3879.000000	98.523271
3878.000000	98.525048
3877.000000	98.526523
3876.000000	98.526980
3875.000000	98.528209
3874.000000	98.531940
3873.000000	98.535505
3872.000000	98.533058
3871.000000	98.523927
3870.000000	98.516824
3869.000000	98.520441
3868.000000	98.531813
3867.000000	98.540900
3866.000000	98.542303
3865.000000	98.538835
3864.000000	98.536290
3863.000000	98.537166
3862.000000	98.539141
3861.000000	98.539373
3860.000000	98.537637
3859.000000	98.536075
3858.000000	98.536623
3857.000000	98.538812
3856.000000	98.539605
3855.000000	98.535456
3854.000000	98.527243
3853.000000	98.522493
3852.000000	98.524369
3851.000000	98.527964
3850.000000	98.530546
3849.000000	98.533144
3848.000000	98.536892
3847.000000	98.540786
3846.000000	98.542160
3845.000000	98.538644
3844.000000	98.530093
3843.000000	98.519808
3842.000000	98.512088
3841.000000	98.509288
3840.000000	98.511947
3839.000000	98.519834
3838.000000	98.531223
3837.000000	98.543074
3836.000000	98.552731
3835.000000	98.558512
3834.000000	98.559262
3833.000000	98.555058
3832.000000	98.548080
3831.000000	98.540917
3830.000000	98.534397
3829.000000	98.527980
3828.000000	98.521686
3827.000000	98.517554
3826.000000	98.517782
3825.000000	98.521043
3824.000000	98.521855
3823.000000	98.515477
3822.000000	98.503658
3821.000000	98.495853
3820.000000	98.497783
3819.000000	98.503646
3818.000000	98.506672
3817.000000	98.507040
3816.000000	98.509862
3815.000000	98.516674
3814.000000	98.522707
3813.000000	98.523927
3812.000000	98.522090
3811.000000	98.521497
3810.000000	98.523518
3809.000000	98.525114
3808.000000	98.522933
3807.000000	98.518405
3806.000000	98.515951
3805.000000	98.516595
3804.000000	98.517177
3803.000000	98.515752
3802.000000	98.514770
3801.000000	98.517130
3800.000000	98.520216
3799.000000	98.520088
3798.000000	98.517401
3797.000000	98.515993
3796.000000	98.518193
3795.000000	98.521873
3794.000000	98.523614
3793.000000	98.523145
3792.000000	98.522968
3791.000000	98.524846
3790.000000	98.528258
3789.000000	98.531537
3788.000000	98.533366
3787.000000	98.532813
3786.000000	98.529633
3785.000000	98.525544
3784.000000	98.523792
3783.000000	98.526044
3782.000000	98.530716
3781.000000	98.534905
3780.000000	98.537249
3779.000000	98.538423
3778.000000	98.538715
3777.000000	98.537242
3776.000000	98.534174
3775.000000	98.531881
3774.000000	98.532366
3773.000000	98.534503
3772.000000	98.535147
3771.000000	98.533867
3770.000000	98.534313
3769.000000	98.538798
3768.000000	98.544393
3767.000000	98.546649
3766.000000	98.544734
3765.000000	98.541552
3764.000000	98.539644
3763.000000	98.538446
3762.000000	98.536276
3761.000000	98.533096
3760.000000	98.530046
3759.000000	98.527781
3758.000000	98.526697
3757.000000	98.527924
3756.000000	98.531697
3755.000000	98.536117
3754.000000	98.539346
3753.000000	98.542420
3752.000000	98.548406
3751.000000	98.557432
3750.000000	98.564976
3749.000000	98.568751
3748.000000	98.571661
3747.000000	98.574741
3746.000000	98.575513
3745.000000	98.572787
3744.000000	98.568460
3743.000000	98.563994
3742.000000	98.558395
3741.000000	98.551264
3740.000000	98.544385
3739.000000	98.540012
3738.000000	98.538825
3737.000000	98.541363
3736.000000	98.549798
3735.000000	98.564074
3734.000000	98.577387
3733.000000	98.582860
3732.000000	98.581879
3731.000000	98.580201
3730.000000	98.580060
3729.000000	98.578712
3728.000000	98.573325
3727.000000	98.564917
3726.000000	98.557124
3725.000000	98.551914
3724.000000	98.548934
3723.000000	98.548023
3722.000000	98.549131
3721.000000	98.551345
3720.000000	98.553514
3719.000000	98.555207
3718.000000	98.557058
3717.000000	98.560239
3716.000000	98.564991
3715.000000	98.569979
3714.000000	98.572657
3713.000000	98.570893
3712.000000	98.565714
3711.000000	98.561605
3710.000000	98.561050
3709.000000	98.561254
3708.000000	98.558969
3707.000000	98.554693
3706.000000	98.551296
3705.000000	98.551215
3704.000000	98.554897
3703.000000	98.561028
3702.000000	98.567959
3701.000000	98.574742
3700.000000	98.580858
3699.000000	98.585150
3698.000000	98.585911
3697.000000	98.582162
3696.000000	98.574049
3695.000000	98.562332
3694.000000	98.549054
3693.000000	98.538487
3692.000000	98.535461
3691.000000	98.541571
3690.000000	98.552215
3689.000000	98.559028
3688.000000	98.557891
3687.000000	98.552353
3686.000000	98.546640
3685.000000	98.540993
3684.000000	98.534525
3683.000000	98.527405
3682.000000	98.520040
3681.000000	98.512474
3680.000000	98.505615
3679.000000	98.499927
3678.000000	98.492649
3677.000000	98.480235
3676.000000	98.466622
3675.000000	98.462001
3674.000000	98.467163
3673.000000	98.473466
3672.000000	98.475136
3671.000000	98.472782
3670.000000	98.470194
3669.000000	98.468100
3668.000000	98.463061
3667.000000	98.453805
3666.000000	98.442682
3665.000000	98.432414
3664.000000	98.424006
3663.000000	98.417232
3662.000000	98.412449
3661.000000	98.411187
3660.000000	98.414493
3659.000000	98.420457
3658.000000	98.424324
3657.000000	98.422107
3656.000000	98.415535
3655.000000	98.411033
3654.000000	98.412444
3653.000000	98.416985
3652.000000	98.416997
3651.000000	98.404548
3650.000000	98.379815
3649.000000	98.356184
3648.000000	98.346204
3647.000000	98.345952
3646.000000	98.344082
3645.000000	98.335338
3644.000000	98.321857
3643.000000	98.308844
3642.000000	98.300056
3641.000000	98.295105
3640.000000	98.290911
3639.000000	98.286271
3638.000000	98.283208
3637.000000	98.283242
3636.000000	98.284221
3635.000000	98.282643
3634.000000	98.278334
3633.000000	98.274472
3632.000000	98.272737
3631.000000	98.270429
3630.000000	98.263006
3629.000000	98.249750
3628.000000	98.234056
3627.000000	98.217166
3626.000000	98.199395
3625.000000	98.183081
3624.000000	98.171574
3623.000000	98.166525
3622.000000	98.165423
3621.000000	98.162657
3620.000000	98.153797
3619.000000	98.139497
3618.000000	98.124400
3617.000000	98.112024
3616.000000	98.102480
3615.000000	98.093992
3614.000000	98.085202
3613.000000	98.075867
3612.000000	98.065817
3611.000000	98.053652
3610.000000	98.037339
3609.000000	98.017598
3608.000000	97.999847
3607.000000	97.989891
3606.000000	97.988067
3605.000000	97.989652
3604.000000	97.989374
3603.000000	97.983962
3602.000000	97.972963
3601.000000	97.958824
3600.000000	97.945136
3599.000000	97.933296
3598.000000	97.921907
3597.000000	97.908949
3596.000000	97.893818
3595.000000	97.878015
3594.000000	97.864025
3593.000000	97.853408
3592.000000	97.846136
3591.000000	97.840747
3590.000000	97.834311
3589.000000	97.823875
3588.000000	97.809453
3587.000000	97.794685
3586.000000	97.782134
3585.000000	97.771081
3584.000000	97.760343
3583.000000	97.749317
3582.000000	97.737163
3581.000000	97.723074
3580.000000	97.707336
3579.000000	97.691596
3578.000000	97.677774
3577.000000	97.666859
3576.000000	97.658189
3575.000000	97.649476
3574.000000	97.637935
3573.000000	97.622517
3572.000000	97.605509
3571.000000	97.590918
3570.000000	97.580424
3569.000000	97.571228
3568.000000	97.558676
3567.000000	97.541787
3566.000000	97.524327
3565.000000	97.509712
3564.000000	97.498231
3563.000000	97.488361
3562.000000	97.478293
3561.000000	97.466827
3560.000000	97.453687
3559.000000	97.439037
3558.000000	97.423013
3557.000000	97.405934
3556.000000	97.388467
3555.000000	97.370965
3554.000000	97.352978
3553.000000	97.334023
3552.000000	97.314979
3551.000000	97.298120
3550.000000	97.285504
3549.000000	97.277629
3548.000000	97.273086
3547.000000	97.268989
3546.000000	97.262434
3545.000000	97.252619
3544.000000	97.241098
3543.000000	97.229437
3542.000000	97.217038
3541.000000	97.201928
3540.000000	97.183380
3539.000000	97.163078
3538.000000	97.143584
3537.000000	97.126023
3536.000000	97.109436
3535.000000	97.092257
3534.000000	97.074156
3533.000000	97.056617
3532.000000	97.041989
3531.000000	97.031704
3530.000000	97.025160
3529.000000	97.020459
3528.000000	97.016324
3527.000000	97.012492
3526.000000	97.007999
3525.000000	97.000262
3524.000000	96.986852
3523.000000	96.968184
3522.000000	96.947700
3521.000000	96.929056
3520.000000	96.913361
3519.000000	96.898937
3518.000000	96.883212
3517.000000	96.865012
3516.000000	96.845551
3515.000000	96.827481
3514.000000	96.812844
3513.000000	96.801540
3512.000000	96.791586
3511.000000	96.780782
3510.000000	96.768458
3509.000000	96.756051
3508.000000	96.745953
3507.000000	96.739405
3506.000000	96.735319
3505.000000	96.730933
3504.000000	96.723684
3503.000000	96.712958
3502.000000	96.700277
3501.000000	96.687879
3500.000000	96.677014
3499.000000	96.667130
3498.000000	96.656369
3497.000000	96.642997
3496.000000	96.626670
3495.000000	96.608424
3494.000000	96.589869
3493.000000	96.572599
3492.000000	96.557904
3491.000000	96.546289
3490.000000	96.537027
3489.000000	96.528629
3488.000000	96.519855
3487.000000	96.510002
3486.000000	96.498406
3485.000000	96.484432
3484.000000	96.468302
3483.000000	96.451778
3482.000000	96.437533
3481.000000	96.427324
3480.000000	96.420696
3479.000000	96.415610
3478.000000	96.410485
3477.000000	96.405404
3476.000000	96.401237
3475.000000	96.397698
3474.000000	96.392799
3473.000000	96.384441
3472.000000	96.371958
3471.000000	96.356031
3470.000000	96.337973
3469.000000	96.319656
3468.000000	96.303251
3467.000000	96.289912
3466.000000	96.279055
3465.000000	96.269791
3464.000000	96.262548
3463.000000	96.258053
3462.000000	96.254822
3461.000000	96.248999
3460.000000	96.237203
3459.000000	96.218983
3458.000000	96.196699
3457.000000	96.174031
3456.000000	96.154727
3455.000000	96.141346
3454.000000	96.134130
3453.000000	96.131469
3452.000000	96.131564
3451.000000	96.133181
3450.000000	96.134894
3449.000000	96.134613
3448.000000	96.130684
3447.000000	96.123140
3446.000000	96.113161
3445.000000	96.101508
3444.000000	96.088121
3443.000000	96.073197
3442.000000	96.058370
3441.000000	96.046623
3440.000000	96.040551
3439.000000	96.040076
3438.000000	96.041612
3437.000000	96.039999
3436.000000	96.031950
3435.000000	96.017948
3434.000000	96.001120
3433.000000	95.984806
3432.000000	95.970935
3431.000000	95.959720
3430.000000	95.950160
3429.000000	95.940945
3428.000000	95.931357
3427.000000	95.921478
3426.000000	95.911763
3425.000000	95.902493
3424.000000	95.893478
3423.000000	95.884111
3422.000000	95.873912
3421.000000	95.863226
3420.000000	95.853002
3419.000000	95.843533
3418.000000	95.833794
3417.000000	95.822556
3416.000000	95.809883
3415.000000	95.797190
3414.000000	95.785994
3413.000000	95.776833
3412.000000	95.768967
3411.000000	95.760629
3410.000000	95.750197
3409.000000	95.738046
3408.000000	95.726911
3407.000000	95.719222
3406.000000	95.714088
3405.000000	95.707916
3404.000000	95.698213
3403.000000	95.686002
3402.000000	95.674215
3401.000000	95.664603
3400.000000	95.656538
3399.000000	95.647964
3398.000000	95.636925
3397.000000	95.622889
3396.000000	95.607372
3395.000000	95.593087
3394.000000	95.581881
3393.000000	95.573341
3392.000000	95.565444
3391.000000	95.556399
3390.000000	95.545764
3389.000000	95.534137
3388.000000	95.522279
3387.000000	95.510684
3386.000000	95.499728
3385.000000	95.489726
3384.000000	95.480249
3383.000000	95.469502
3382.000000	95.455349
3381.000000	95.437669
3380.000000	95.419257
3379.000000	95.403435
3378.000000	95.390896
3377.000000	95.379564
3376.000000	95.367382
3375.000000	95.354334
3374.000000	95.341783
3373.000000	95.330790
3372.000000	95.321399
3371.000000	95.312722
3370.000000	95.303099
3369.000000	95.290726
3368.000000	95.274887
3367.000000	95.256711
3366.000000	95.238528
3365.000000	95.222445
3364.000000	95.209121
3363.000000	95.197275
3362.000000	95.184274
3361.000000	95.167851
3360.000000	95.147771
3359.000000	95.125707
3358.000000	95.103449
3357.000000	95.081510
3356.000000	95.059509
3355.000000	95.037551
3354.000000	95.016920
3353.000000	94.999319
3352.000000	94.985214
3351.000000	94.972834
3350.000000	94.959212
3349.000000	94.942633
3348.000000	94.923867
3347.000000	94.904733
3346.000000	94.885878
3345.000000	94.866580
3344.000000	94.846286
3343.000000	94.825506
3342.000000	94.805185
3341.000000	94.786004
3340.000000	94.768478
3339.000000	94.752964
3338.000000	94.739083
3337.000000	94.725403
3336.000000	94.710165
3335.000000	94.692494
3334.000000	94.673045
3333.000000	94.653527
3332.000000	94.635421
3331.000000	94.619015
3330.000000	94.603723
3329.000000	94.588997
3328.000000	94.574217
3327.000000	94.557849
3326.000000	94.538138
3325.000000	94.515599
3324.000000	94.493952
3323.000000	94.477284
3322.000000	94.466397
3321.000000	94.458534
3320.000000	94.449884
3319.000000	94.437599
3318.000000	94.420517
3317.000000	94.399902
3316.000000	94.379597
3315.000000	94.363825
3314.000000	94.353860
3313.000000	94.347204
3312.000000	94.339855
3311.000000	94.328890
3310.000000	94.313545
3309.000000	94.295397
3308.000000	94.277670
3307.000000	94.262961
3306.000000	94.251007
3305.000000	94.239319
3304.000000	94.225995
3303.000000	94.211165
3302.000000	94.195894
3301.000000	94.181059
3300.000000	94.167739
3299.000000	94.157403
3298.000000	94.150737
3297.000000	94.146695
3296.000000	94.143142
3295.000000	94.138192
3294.000000	94.130947
3293.000000	94.121806
3292.000000	94.112240
3291.000000	94.103469
3290.000000	94.095138
3289.000000	94.086078
3288.000000	94.076622
3287.000000	94.069186
3286.000000	94.066157
3285.000000	94.067846
3284.000000	94.072451
3283.000000	94.077116
3282.000000	94.079068
3281.000000	94.077300
3280.000000	94.074147
3279.000000	94.074044
3278.000000	94.079691
3277.000000	94.089866
3276.000000	94.101647
3275.000000	94.114030
3274.000000	94.127965
3273.000000	94.143593
3272.000000	94.158929
3271.000000	94.171438
3270.000000	94.179975
3269.000000	94.185033
3268.000000	94.188219
3267.000000	94.191896
3266.000000	94.198550
3265.000000	94.209586
3264.000000	94.224642
3263.000000	94.242169
3262.000000	94.260429
3261.000000	94.277714
3260.000000	94.292237
3259.000000	94.302959
3258.000000	94.311308
3257.000000	94.321606
3256.000000	94.338613
3255.000000	94.363720
3254.000000	94.393581
3253.000000	94.422839
3252.000000	94.447980
3251.000000	94.468500
3250.000000	94.485236
3249.000000	94.498791
3248.000000	94.509795
3247.000000	94.519602
3246.000000	94.529827
3245.000000	94.540909
3244.000000	94.551354
3243.000000	94.558868
3242.000000	94.562724
3241.000000	94.565332
3240.000000	94.571205
3239.000000	94.583817
3238.000000	94.603191
3237.000000	94.626243
3236.000000	94.648861
3235.000000	94.667693
3234.000000	94.681093
3233.000000	94.689666
3232.000000	94.695779
3231.000000	94.701665
3230.000000	94.707859
3229.000000	94.713846
3228.000000	94.719819
3227.000000	94.726968
3226.000000	94.736078
3225.000000	94.746664
3224.000000	94.757561
3223.000000	94.767939
3222.000000	94.778056
3221.000000	94.789431
3220.000000	94.803711
3219.000000	94.820185
3218.000000	94.834866
3217.000000	94.843619
3216.000000	94.846459
3215.000000	94.847796
3214.000000	94.851890
3213.000000	94.859092
3212.000000	94.866981
3211.000000	94.873997
3210.000000	94.880905
3209.000000	94.889151
3208.000000	94.899065
3207.000000	94.909812
3206.000000	94.920563
3205.000000	94.931241
3204.000000	94.942113
3203.000000	94.952905
3202.000000	94.962903
3201.000000	94.972218
3200.000000	94.982440
3199.000000	94.995273
3198.000000	95.010602
3197.000000	95.026507
3196.000000	95.040951
3195.000000	95.052933
3194.000000	95.062429
3193.000000	95.070449
3192.000000	95.079155
3191.000000	95.090649
3190.000000	95.105081
3189.000000	95.120458
3188.000000	95.134517
3187.000000	95.146337
3186.000000	95.156573
3185.000000	95.167247
3184.000000	95.181190
3183.000000	95.200019
3182.000000	95.221818
3181.000000	95.241750
3180.000000	95.255919
3179.000000	95.264346
3178.000000	95.270294
3177.000000	95.277465
3176.000000	95.288278
3175.000000	95.303477
3174.000000	95.322139
3173.000000	95.342230
3172.000000	95.361928
3171.000000	95.380439
3170.000000	95.397455
3169.000000	95.412625
3168.000000	95.426027
3167.000000	95.438461
3166.000000	95.450680
3165.000000	95.462838
3164.000000	95.475123
3163.000000	95.488119
3162.000000	95.501838
3161.000000	95.515270
3160.000000	95.527891
3159.000000	95.541069
3158.000000	95.556675
3157.000000	95.574358
3156.000000	95.591307
3155.000000	95.605181
3154.000000	95.616602
3153.000000	95.628358
3152.000000	95.642308
3151.000000	95.657478
3150.000000	95.671299
3149.000000	95.682704
3148.000000	95.693547
3147.000000	95.706564
3146.000000	95.722083
3145.000000	95.737586
3144.000000	95.750610
3143.000000	95.761370
3142.000000	95.771996
3141.000000	95.783995
3140.000000	95.797032
3139.000000	95.809683
3138.000000	95.820515
3137.000000	95.828800
3136.000000	95.834798
3135.000000	95.839508
3134.000000	95.843912
3133.000000	95.848739
3132.000000	95.854859
3131.000000	95.862938
3130.000000	95.872164
3129.000000	95.880314
3128.000000	95.886210
3127.000000	95.891667
3126.000000	95.899691
3125.000000	95.910715
3124.000000	95.921672
3123.000000	95.929041
3122.000000	95.932092
3121.000000	95.932986
3120.000000	95.934414
3119.000000	95.937667
3118.000000	95.942320
3117.000000	95.947130
3116.000000	95.951161
3115.000000	95.954172
3114.000000	95.955848
3113.000000	95.954962
3112.000000	95.950073
3111.000000	95.941393
3110.000000	95.931555
3109.000000	95.924058
3108.000000	95.920773
3107.000000	95.920892
3106.000000	95.921920
3105.000000	95.921660
3104.000000	95.919732
3103.000000	95.917459
3102.000000	95.916075
3101.000000	95.914969
3100.000000	95.912298
3099.000000	95.907653
3098.000000	95.903301
3097.000000	95.901895
3096.000000	95.903364
3095.000000	95.904985
3094.000000	95.904359
3093.000000	95.901114
3092.000000	95.895620
3091.000000	95.887710
3090.000000	95.877791
3089.000000	95.868186
3088.000000	95.861707
3087.000000	95.858810
3086.000000	95.857121
3085.000000	95.853797
3084.000000	95.847766
3083.000000	95.839900
3082.000000	95.832077
3081.000000	95.826169
3080.000000	95.822883
3079.000000	95.821085
3078.000000	95.818876
3077.000000	95.815475
3076.000000	95.811447
3075.000000	95.807326
3074.000000	95.803284
3073.000000	95.800472
3072.000000	95.801160
3071.000000	95.806281
3070.000000	95.813515
3069.000000	95.818984
3068.000000	95.820785
3067.000000	95.820318
3066.000000	95.820430
3065.000000	95.822862
3064.000000	95.827220
3063.000000	95.831885
3062.000000	95.836014
3061.000000	95.840735
3060.000000	95.847844
3059.000000	95.857208
3058.000000	95.866486
3057.000000	95.874078
3056.000000	95.881299
3055.000000	95.890571
3054.000000	95.902178
3053.000000	95.914096
3052.000000	95.924638
3051.000000	95.934034
3050.000000	95.943634
3049.000000	95.954532
3048.000000	95.966841
3047.000000	95.979424
3046.000000	95.990478
3045.000000	95.999194
3044.000000	96.006792
3043.000000	96.015235
3042.000000	96.025232
3041.000000	96.036142
3040.000000	96.047405
3039.000000	96.059005
3038.000000	96.070884
3037.000000	96.083019
3036.000000	96.095921
3035.000000	96.109915
3034.000000	96.123915
3033.000000	96.136082
3032.000000	96.145772
3031.000000	96.153750
3030.000000	96.160379
3029.000000	96.165003
3028.000000	96.167643
3027.000000	96.170166
3026.000000	96.174994
3025.000000	96.183027
3024.000000	96.193002
3023.000000	96.202390
3022.000000	96.208808
3021.000000	96.211430
3020.000000	96.211476
3019.000000	96.210930
3018.000000	96.210829
3017.000000	96.211108
3016.000000	96.211654
3015.000000	96.212380
3014.000000	96.212131
3013.000000	96.208701
3012.000000	96.200320
3011.000000	96.186709
3010.000000	96.168898
3009.000000	96.149058
3008.000000	96.130535
3007.000000	96.116517
3006.000000	96.107803
3005.000000	96.102199
3004.000000	96.096262
3003.000000	96.087240
3002.000000	96.073742
3001.000000	96.056104
3000.000000	96.036500
2999.000000	96.017350
2998.000000	95.998603
2997.000000	95.977281
2996.000000	95.950347
2995.000000	95.917564
2994.000000	95.880987
2993.000000	95.842486
2992.000000	95.802330
2991.000000	95.759413
2990.000000	95.712110
2989.000000	95.659345
2988.000000	95.601704
2987.000000	95.541186
2986.000000	95.479220
2985.000000	95.415282
2984.000000	95.347807
2983.000000	95.276073
2982.000000	95.200463
2981.000000	95.121143
2980.000000	95.037530
2979.000000	94.949354
2978.000000	94.857594
2977.000000	94.763507
2976.000000	94.666377
2975.000000	94.562989
2974.000000	94.450165
2973.000000	94.328095
2972.000000	94.200472
2971.000000	94.070760
2970.000000	93.939230
2969.000000	93.804302
2968.000000	93.666335
2967.000000	93.528760
2966.000000	93.395460
2965.000000	93.268277
2964.000000	93.147542
2963.000000	93.034805
2962.000000	92.934142
2961.000000	92.850877
2960.000000	92.788774
2959.000000	92.748226
2958.000000	92.727604
2957.000000	92.725733
2956.000000	92.742843
2955.000000	92.778307
2954.000000	92.828512
2953.000000	92.887504
2952.000000	92.948741
2951.000000	93.005733
2950.000000	93.051228
2949.000000	93.078349
2948.000000	93.082850
2947.000000	93.064105
2946.000000	93.023542
2945.000000	92.962655
2944.000000	92.882674
2943.000000	92.784510
2942.000000	92.668755
2941.000000	92.535790
2940.000000	92.386896
2939.000000	92.225049
2938.000000	92.054307
2937.000000	91.878755
2936.000000	91.701574
2935.000000	91.525556
2934.000000	91.354410
2933.000000	91.193583
2932.000000	91.048596
2931.000000	90.921597
2930.000000	90.810178
2929.000000	90.710347
2928.000000	90.621122
2927.000000	90.545942
2926.000000	90.490071
2925.000000	90.457491
2924.000000	90.449434
2923.000000	90.465079
2922.000000	90.502955
2921.000000	90.562352
2920.000000	90.643711
2919.000000	90.747206
2918.000000	90.871663
2917.000000	91.015042
2916.000000	91.175754
2915.000000	91.352063
2914.000000	91.539583
2913.000000	91.730507
2912.000000	91.916218
2911.000000	92.091285
2910.000000	92.254546
2909.000000	92.406994
2908.000000	92.549654
2907.000000	92.683659
2906.000000	92.811532
2905.000000	92.937045
2904.000000	93.063403
2903.000000	93.191559
2902.000000	93.320416
2901.000000	93.448221
2900.000000	93.573131
2899.000000	93.693310
2898.000000	93.807456
2897.000000	93.915967
2896.000000	94.020870
2895.000000	94.123742
2894.000000	94.223736
2893.000000	94.318160
2892.000000	94.404702
2891.000000	94.482819
2890.000000	94.553144
2889.000000	94.615893
2888.000000	94.669704
2887.000000	94.711850
2886.000000	94.740369
2885.000000	94.756147
2884.000000	94.762180
2883.000000	94.760035
2882.000000	94.747843
2881.000000	94.722513
2880.000000	94.683047
2879.000000	94.630725
2878.000000	94.567218
2877.000000	94.494855
2876.000000	94.418615
2875.000000	94.345939
2874.000000	94.283823
2873.000000	94.236401
2872.000000	94.205132
2871.000000	94.189407
2870.000000	94.185889
2869.000000	94.187937
2868.000000	94.186982
2867.000000	94.175267
2866.000000	94.148088
2865.000000	94.104357
2864.000000	94.044817
2863.000000	93.969807
2862.000000	93.879239
2861.000000	93.775599
2860.000000	93.665938
2859.000000	93.559484
2858.000000	93.463278
2857.000000	93.381180
2856.000000	93.316590
2855.000000	93.273954
2854.000000	93.258071
2853.000000	93.273244
2852.000000	93.323792
2851.000000	93.414054
2850.000000	93.546452
2849.000000	93.719374
2848.000000	93.926186
2847.000000	94.155182
2846.000000	94.391102
2845.000000	94.619747
2844.000000	94.832380
2843.000000	95.026057
2842.000000	95.199752
2841.000000	95.351656
2840.000000	95.481264
2839.000000	95.591739
2838.000000	95.688215
2837.000000	95.774004
2836.000000	95.849382
2835.000000	95.913749
2834.000000	95.968050
2833.000000	96.015118
2832.000000	96.058341
2831.000000	96.099827
2830.000000	96.139423
2829.000000	96.175706
2828.000000	96.207704
2827.000000	96.235286
2826.000000	96.258461
2825.000000	96.277587
2824.000000	96.294538
2823.000000	96.312245
2822.000000	96.332344
2821.000000	96.353964
2820.000000	96.375084
2819.000000	96.394252
2818.000000	96.410839
2817.000000	96.425025
2816.000000	96.438224
2815.000000	96.452408
2814.000000	96.468255
2813.000000	96.484837
2812.000000	96.501571
2811.000000	96.519434
2810.000000	96.539604
2809.000000	96.561967
2808.000000	96.585585
2807.000000	96.609334
2806.000000	96.631158
2805.000000	96.648230
2804.000000	96.659478
2803.000000	96.667300
2802.000000	96.675403
2801.000000	96.685501
2800.000000	96.697089
2799.000000	96.709477
2798.000000	96.722460
2797.000000	96.735466
2796.000000	96.747708
2795.000000	96.759170
2794.000000	96.770204
2793.000000	96.780315
2792.000000	96.788693
2791.000000	96.795920
2790.000000	96.803875
2789.000000	96.813652
2788.000000	96.824735
2787.000000	96.836443
2786.000000	96.848899
2785.000000	96.861878
2784.000000	96.873704
2783.000000	96.882452
2782.000000	96.888015
2781.000000	96.892269
2780.000000	96.897194
2779.000000	96.903338
2778.000000	96.910041
2777.000000	96.916546
2776.000000	96.922551
2775.000000	96.928058
2774.000000	96.933324
2773.000000	96.939181
2772.000000	96.946838
2771.000000	96.956681
2770.000000	96.967249
2769.000000	96.975891
2768.000000	96.980795
2767.000000	96.982367
2766.000000	96.982776
2765.000000	96.984291
2764.000000	96.987906
2763.000000	96.993154
2762.000000	96.999109
2761.000000	97.005558
2760.000000	97.012947
2759.000000	97.021121
2758.000000	97.028649
2757.000000	97.033971
2756.000000	97.036999
2755.000000	97.039155
2754.000000	97.042023
2753.000000	97.046365
2752.000000	97.051915
2751.000000	97.057411
2750.000000	97.061084
2749.000000	97.062040
2748.000000	97.061302
2747.000000	97.060905
2746.000000	97.062075
2745.000000	97.064852
2744.000000	97.069124
2743.000000	97.074962
2742.000000	97.081887
2741.000000	97.088718
2740.000000	97.094471
2739.000000	97.098841
2738.000000	97.101820
2737.000000	97.103651
2736.000000	97.105312
2735.000000	97.108242
2734.000000	97.113183
2733.000000	97.119612
2732.000000	97.126339
2731.000000	97.132273
2730.000000	97.136921
2729.000000	97.140883
2728.000000	97.145687
2727.000000	97.152212
2726.000000	97.159334
2725.000000	97.165025
2724.000000	97.168821
2723.000000	97.172125
2722.000000	97.176046
2721.000000	97.180221
2720.000000	97.184246
2719.000000	97.189005
2718.000000	97.195558
2717.000000	97.203347
2716.000000	97.210361
2715.000000	97.214909
2714.000000	97.216830
2713.000000	97.217334
2712.000000	97.218068
2711.000000	97.220028
2710.000000	97.222913
2709.000000	97.225535
2708.000000	97.226975
2707.000000	97.227461
2706.000000	97.228373
2705.000000	97.231434
2704.000000	97.237265
2703.000000	97.244236
2702.000000	97.249357
2701.000000	97.251184
2700.000000	97.251552
2699.000000	97.253564
2698.000000	97.258152
2697.000000	97.263463
2696.000000	97.267295
2695.000000	97.269079
2694.000000	97.269572
2693.000000	97.269712
2692.000000	97.269889
2691.000000	97.269450
2690.000000	97.267018
2689.000000	97.262227
2688.000000	97.257122
2687.000000	97.254913
2686.000000	97.257270
2685.000000	97.263490
2684.000000	97.271759
2683.000000	97.279992
2682.000000	97.285893
2681.000000	97.288168
2680.000000	97.288179
2679.000000	97.288946
2678.000000	97.291829
2677.000000	97.295212
2676.000000	97.296890
2675.000000	97.296646
2674.000000	97.295936
2673.000000	97.296102
2672.000000	97.297593
2671.000000	97.300035
2670.000000	97.302351
2669.000000	97.303404
2668.000000	97.303084
2667.000000	97.302379
2666.000000	97.302201
2665.000000	97.302704
2664.000000	97.303717
2663.000000	97.304883
2662.000000	97.305217
2661.000000	97.303541
2660.000000	97.299782
2659.000000	97.295149
2658.000000	97.290864
2657.000000	97.287661
2656.000000	97.286738
2655.000000	97.289892
2654.000000	97.297805
2653.000000	97.308908
2652.000000	97.320413
2651.000000	97.330045
2650.000000	97.336735
2649.000000	97.340884
2648.000000	97.344559
2647.000000	97.350283
2646.000000	97.358605
2645.000000	97.367405
2644.000000	97.374238
2643.000000	97.378699
2642.000000	97.381977
2641.000000	97.384981
2640.000000	97.388019
2639.000000	97.391936
2638.000000	97.398265
2637.000000	97.407559
2636.000000	97.417808
2635.000000	97.425257
2634.000000	97.427708
2633.000000	97.427177
2632.000000	97.428442
2631.000000	97.434273
2630.000000	97.442846
2629.000000	97.450599
2628.000000	97.456566
2627.000000	97.462613
2626.000000	97.470316
2625.000000	97.479273
2624.000000	97.487936
2623.000000	97.494321
2622.000000	97.496525
2621.000000	97.494604
2620.000000	97.491706
2619.000000	97.491318
2618.000000	97.493482
2617.000000	97.495706
2616.000000	97.497216
2615.000000	97.499647
2614.000000	97.503664
2613.000000	97.507944
2612.000000	97.512238
2611.000000	97.518453
2610.000000	97.527240
2609.000000	97.535870
2608.000000	97.540992
2607.000000	97.541871
2606.000000	97.539797
2605.000000	97.536295
2604.000000	97.533199
2603.000000	97.532478
2602.000000	97.534242
2601.000000	97.536201
2600.000000	97.536563
2599.000000	97.536378
2598.000000	97.538108
2597.000000	97.543100
2596.000000	97.551467
2595.000000	97.562916
2594.000000	97.576005
2593.000000	97.587316
2592.000000	97.593077
2591.000000	97.592180
2590.000000	97.587523
2589.000000	97.584323
2588.000000	97.586205
2587.000000	97.591990
2586.000000	97.597099
2585.000000	97.598980
2584.000000	97.599884
2583.000000	97.602554
2582.000000	97.605024
2581.000000	97.603210
2580.000000	97.597807
2579.000000	97.594696
2578.000000	97.597577
2577.000000	97.603758
2576.000000	97.608449
2575.000000	97.610423
2574.000000	97.611699
2573.000000	97.613878
2572.000000	97.616784
2571.000000	97.619568
2570.000000	97.622053
2569.000000	97.625541
2568.000000	97.632015
2567.000000	97.640905
2566.000000	97.647400
2565.000000	97.646775
2564.000000	97.640849
2563.000000	97.637344
2562.000000	97.641933
2561.000000	97.652896
2560.000000	97.663848
2559.000000	97.669511
2558.000000	97.668423
2557.000000	97.662796
2556.000000	97.656810
2555.000000	97.653029
2554.000000	97.649825
2553.000000	97.644275
2552.000000	97.637580
2551.000000	97.634949
2550.000000	97.639604
2549.000000	97.649382
2548.000000	97.659635
2547.000000	97.666915
2546.000000	97.669538
2545.000000	97.667742
2544.000000	97.664529
2543.000000	97.663614
2542.000000	97.665252
2541.000000	97.666045
2540.000000	97.663524
2539.000000	97.658481
2538.000000	97.652529
2537.000000	97.646320
2536.000000	97.641101
2535.000000	97.638934
2534.000000	97.639533
2533.000000	97.639090
2532.000000	97.633679
2531.000000	97.622745
2530.000000	97.608826
2529.000000	97.595628
2528.000000	97.586185
2527.000000	97.580391
2526.000000	97.574198
2525.000000	97.563887
2524.000000	97.551094
2523.000000	97.540972
2522.000000	97.535640
2521.000000	97.533257
2520.000000	97.533475
2519.000000	97.539000
2518.000000	97.549792
2517.000000	97.559700
2516.000000	97.562322
2515.000000	97.558153
2514.000000	97.553887
2513.000000	97.555961
2512.000000	97.565851
2511.000000	97.579768
2510.000000	97.591646
2509.000000	97.598280
2508.000000	97.602598
2507.000000	97.610398
2506.000000	97.623515
2505.000000	97.638290
2504.000000	97.650646
2503.000000	97.659831
2502.000000	97.666670
2501.000000	97.671582
2500.000000	97.675879
2499.000000	97.682191
2498.000000	97.691734
2497.000000	97.703076
2496.000000	97.714439
2495.000000	97.724991
2494.000000	97.733299
2493.000000	97.737651
2492.000000	97.739427
2491.000000	97.743157
2490.000000	97.751303
2489.000000	97.761219
2488.000000	97.769415
2487.000000	97.776718
2486.000000	97.786786
2485.000000	97.800808
2484.000000	97.815744
2483.000000	97.827484
2482.000000	97.834494
2481.000000	97.838529
2480.000000	97.842291
2479.000000	97.846025
2478.000000	97.846862
2477.000000	97.842720
2476.000000	97.836274
2475.000000	97.833408
2474.000000	97.837590
2473.000000	97.846851
2472.000000	97.855893
2471.000000	97.860149
2470.000000	97.858962
2469.000000	97.856395
2468.000000	97.857600
2467.000000	97.862592
2466.000000	97.865431
2465.000000	97.861959
2464.000000	97.856397
2463.000000	97.856725
2462.000000	97.865099
2461.000000	97.876544
2460.000000	97.885670
2459.000000	97.890258
2458.000000	97.889269
2457.000000	97.882793
2456.000000	97.874493
2455.000000	97.869682
2454.000000	97.869942
2453.000000	97.873079
2452.000000	97.878190
2451.000000	97.886352
2450.000000	97.896036
2449.000000	97.902792
2448.000000	97.904960
2447.000000	97.905534
2446.000000	97.907091
2445.000000	97.908737
2444.000000	97.909283
2443.000000	97.909331
2442.000000	97.908876
2441.000000	97.906711
2440.000000	97.903791
2439.000000	97.903416
2438.000000	97.906434
2437.000000	97.909579
2436.000000	97.910080
2435.000000	97.908579
2434.000000	97.906179
2433.000000	97.902329
2432.000000	97.897602
2431.000000	97.895433
2430.000000	97.898785
2429.000000	97.906994
2428.000000	97.916986
2427.000000	97.925644
2426.000000	97.930599
2425.000000	97.931389
2424.000000	97.930410
2423.000000	97.930325
2422.000000	97.930411
2421.000000	97.928255
2420.000000	97.924362
2419.000000	97.921398
2418.000000	97.919170
2417.000000	97.914965
2416.000000	97.909441
2415.000000	97.907631
2414.000000	97.912667
2413.000000	97.922199
2412.000000	97.932087
2411.000000	97.939897
2410.000000	97.943914
2409.000000	97.943258
2408.000000	97.940930
2407.000000	97.942629
2406.000000	97.949800
2405.000000	97.956678
2404.000000	97.956561
2403.000000	97.949085
2402.000000	97.939898
2401.000000	97.935282
2400.000000	97.937902
2399.000000	97.945167
2398.000000	97.950853
2397.000000	97.950449
2396.000000	97.945528
2395.000000	97.940982
2394.000000	97.938553
2393.000000	97.936300
2392.000000	97.934025
2391.000000	97.934997
2390.000000	97.941281
2389.000000	97.950693
2388.000000	97.959859
2387.000000	97.967082
2386.000000	97.971929
2385.000000	97.974743
2384.000000	97.977553
2383.000000	97.983164
2382.000000	97.991649
2381.000000	98.000839
2380.000000	98.009459
2379.000000	98.016854
2378.000000	98.020166
2377.000000	98.016044
2376.000000	98.006363
2375.000000	97.997389
2374.000000	97.992363
2373.000000	97.989353
2372.000000	97.988123
2371.000000	97.992808
2370.000000	98.004947
2369.000000	98.019332
2368.000000	98.028446
2367.000000	98.028659
2366.000000	98.020599
2365.000000	98.008276
2364.000000	97.998505
2363.000000	97.994775
2362.000000	97.993592
2361.000000	97.991133
2360.000000	97.989146
2359.000000	97.992401
2358.000000	98.001300
2357.000000	98.010226
2356.000000	98.013859
2355.000000	98.008048
2354.000000	97.996432
2353.000000	97.986152
2352.000000	97.981788
2351.000000	97.982328
2350.000000	97.984064
2349.000000	97.983496
2348.000000	97.979851
2347.000000	97.977239
2346.000000	97.978027
2345.000000	97.976109
2344.000000	97.967216
2343.000000	97.955648
2342.000000	97.949132
2341.000000	97.949546
2340.000000	97.953273
2339.000000	97.956397
2338.000000	97.957014
2337.000000	97.955780
2336.000000	97.954288
2335.000000	97.956033
2334.000000	97.962236
2333.000000	97.971062
2332.000000	97.975784
2331.000000	97.974763
2330.000000	97.969354
2329.000000	97.963364
2328.000000	97.952816
2327.000000	97.933340
2326.000000	97.904786
2325.000000	97.876712
2324.000000	97.862680
2323.000000	97.869538
2322.000000	97.888084
2321.000000	97.901032
2320.000000	97.899818
2319.000000	97.893326
2318.000000	97.892036
2317.000000	97.898720
2316.000000	97.908199
2315.000000	97.918772
2314.000000	97.928972
2313.000000	97.938615
2312.000000	97.948311
2311.000000	97.962692
2310.000000	97.980969
2309.000000	97.995942
2308.000000	98.000912
2307.000000	97.999408
2306.000000	97.997722
2305.000000	97.995658
2304.000000	97.987272
2303.000000	97.971936
2302.000000	97.955898
2301.000000	97.946929
2300.000000	97.947675
2299.000000	97.957091
2298.000000	97.969715
2297.000000	97.979126
2296.000000	97.980734
2295.000000	97.976264
2294.000000	97.970009
2293.000000	97.965743
2292.000000	97.965686
2291.000000	97.971220
2290.000000	97.980024
2289.000000	97.985518
2288.000000	97.982662
2287.000000	97.973271
2286.000000	97.963868
2285.000000	97.959257
2284.000000	97.961091
2283.000000	97.969039
2282.000000	97.981373
2281.000000	97.994592
2280.000000	98.005066
2279.000000	98.009338
2278.000000	98.004187
2277.000000	97.990925
2276.000000	97.979538
2275.000000	97.981964
2274.000000	97.998209
2273.000000	98.015208
2272.000000	98.022403
2271.000000	98.023312
2270.000000	98.027635
2269.000000	98.038085
2268.000000	98.050200
2267.000000	98.060755
2266.000000	98.070189
2265.000000	98.079040
2264.000000	98.086166
2263.000000	98.089086
2262.000000	98.084396
2261.000000	98.070775
2260.000000	98.053549
2259.000000	98.042494
2258.000000	98.044123
2257.000000	98.058444
2256.000000	98.082020
2255.000000	98.108250
2254.000000	98.125889
2253.000000	98.126364
2252.000000	98.114452
2251.000000	98.104149
2250.000000	98.102061
2249.000000	98.102819
2248.000000	98.100903
2247.000000	98.098071
2246.000000	98.096493
2245.000000	98.095176
2244.000000	98.096470
2243.000000	98.106388
2242.000000	98.123520
2241.000000	98.136446
2240.000000	98.136947
2239.000000	98.128179
2238.000000	98.116010
2237.000000	98.101806
2236.000000	98.088371
2235.000000	98.083672
2234.000000	98.092324
2233.000000	98.109669
2232.000000	98.127492
2231.000000	98.138593
2230.000000	98.134820
2229.000000	98.112478
2228.000000	98.084036
2227.000000	98.072660
2226.000000	98.088919
2225.000000	98.121374
2224.000000	98.153610
2223.000000	98.179550
2222.000000	98.198508
2221.000000	98.208554
2220.000000	98.212256
2219.000000	98.217140
2218.000000	98.223303
2217.000000	98.221545
2216.000000	98.209998
2215.000000	98.200309
2214.000000	98.199968
2213.000000	98.201282
2212.000000	98.196920
2211.000000	98.195011
2210.000000	98.207295
2209.000000	98.230557
2208.000000	98.250494
2207.000000	98.258608
2206.000000	98.257194
2205.000000	98.252073
2204.000000	98.246258
2203.000000	98.237037
2202.000000	98.218285
2201.000000	98.191705
2200.000000	98.173296
2199.000000	98.177185
2198.000000	98.194937
2197.000000	98.205318
2196.000000	98.205417
2195.000000	98.214427
2194.000000	98.242902
2193.000000	98.276032
2192.000000	98.294107
2191.000000	98.293953
2190.000000	98.282684
2189.000000	98.268277
2188.000000	98.264051
2187.000000	98.284682
2186.000000	98.326249
2185.000000	98.364664
2184.000000	98.384552
2183.000000	98.395913
2182.000000	98.410778
2181.000000	98.419648
2180.000000	98.405696
2179.000000	98.369882
2178.000000	98.329708
2177.000000	98.303668
2176.000000	98.304325
2175.000000	98.333392
2174.000000	98.373916
2173.000000	98.396371
2172.000000	98.382323
2171.000000	98.339100
2170.000000	98.290806
2169.000000	98.261578
2168.000000	98.261880
2167.000000	98.279874
2166.000000	98.290700
2165.000000	98.285537
2164.000000	98.285061
2163.000000	98.308611
2162.000000	98.344770
2161.000000	98.378984
2160.000000	98.433195
2159.000000	98.532432
2158.000000	98.635744
2157.000000	98.667601
2156.000000	98.618532
2155.000000	98.547254
2154.000000	98.497485
2153.000000	98.468020
2152.000000	98.450433
2151.000000	98.448241
2150.000000	98.457526
2149.000000	98.464086
2148.000000	98.468516
2147.000000	98.484017
2146.000000	98.502753
2145.000000	98.493851
2144.000000	98.445550
2143.000000	98.382706
2142.000000	98.333825
2141.000000	98.304330
2140.000000	98.288200
2139.000000	98.283543
2138.000000	98.287251
2137.000000	98.292720
2136.000000	98.301792
2135.000000	98.323246
2134.000000	98.352589
2133.000000	98.370135
2132.000000	98.365196
2131.000000	98.347197
2130.000000	98.328404
2129.000000	98.310728
2128.000000	98.293019
2127.000000	98.277693
2126.000000	98.265155
2125.000000	98.251944
2124.000000	98.237997
2123.000000	98.226289
2122.000000	98.214063
2121.000000	98.195320
2120.000000	98.173512
2119.000000	98.159605
2118.000000	98.155344
2117.000000	98.150823
2116.000000	98.141876
2115.000000	98.137268
2114.000000	98.143199
2113.000000	98.152217
2112.000000	98.153696
2111.000000	98.146112
2110.000000	98.133451
2109.000000	98.118985
2108.000000	98.107634
2107.000000	98.105140
2106.000000	98.110138
2105.000000	98.115249
2104.000000	98.118894
2103.000000	98.126644
2102.000000	98.138339
2101.000000	98.145320
2100.000000	98.144276
2099.000000	98.142909
2098.000000	98.148510
2097.000000	98.160693
2096.000000	98.178460
2095.000000	98.201266
2094.000000	98.219939
2093.000000	98.220238
2092.000000	98.200792
2091.000000	98.175915
2090.000000	98.157636
2089.000000	98.146140
2088.000000	98.139667
2087.000000	98.140711
2086.000000	98.147464
2085.000000	98.151548
2084.000000	98.149957
2083.000000	98.149224
2082.000000	98.152712
2081.000000	98.154253
2080.000000	98.148734
2079.000000	98.138885
2078.000000	98.128907
2077.000000	98.121998
2076.000000	98.126515
2075.000000	98.150371
2074.000000	98.185795
2073.000000	98.213307
2072.000000	98.224019
2071.000000	98.225544
2070.000000	98.224116
2069.000000	98.218301
2068.000000	98.214171
2067.000000	98.226897
2066.000000	98.259098
2065.000000	98.292312
2064.000000	98.308071
2063.000000	98.305175
2062.000000	98.291460
2061.000000	98.275171
2060.000000	98.267157
2059.000000	98.273219
2058.000000	98.281995
2057.000000	98.279028
2056.000000	98.273111
2055.000000	98.285821
2054.000000	98.312373
2053.000000	98.321542
2052.000000	98.302111
2051.000000	98.281451
2050.000000	98.286458
2049.000000	98.309390
2048.000000	98.328369
2047.000000	98.342191
2046.000000	98.361561
2045.000000	98.384864
2044.000000	98.404517
2043.000000	98.419719
2042.000000	98.428188
2041.000000	98.425339
2040.000000	98.422251
2039.000000	98.439762
2038.000000	98.476283
2037.000000	98.508699
2036.000000	98.531702
2035.000000	98.564092
2034.000000	98.604804
2033.000000	98.623395
2032.000000	98.611122
2031.000000	98.596484
2030.000000	98.590489
2029.000000	98.564520
2028.000000	98.504294
2027.000000	98.445065
2026.000000	98.426923
2025.000000	98.449637
2024.000000	98.486789
2023.000000	98.516763
2022.000000	98.525500
2021.000000	98.511164
2020.000000	98.499694
2019.000000	98.522524
2018.000000	98.568659
2017.000000	98.591071
2016.000000	98.571634
2015.000000	98.539773
2014.000000	98.518227
2013.000000	98.499986
2012.000000	98.485335
2011.000000	98.493974
2010.000000	98.526204
2009.000000	98.553362
2008.000000	98.560278
2007.000000	98.558943
2006.000000	98.548339
2005.000000	98.511624
2004.000000	98.463228
2003.000000	98.446708
2002.000000	98.469716
2001.000000	98.484696
2000.000000	98.454702
1999.000000	98.400608
1998.000000	98.369276
1997.000000	98.382650
1996.000000	98.431522
1995.000000	98.490479
1994.000000	98.524450
1993.000000	98.508924
1992.000000	98.465408
1991.000000	98.446930
1990.000000	98.470187
1989.000000	98.498189
1988.000000	98.496902
1987.000000	98.471123
1986.000000	98.436422
1985.000000	98.395716
1984.000000	98.357741
1983.000000	98.339555
1982.000000	98.332906
1981.000000	98.305880
1980.000000	98.262468
1979.000000	98.259536
1978.000000	98.336951
1977.000000	98.456689
1976.000000	98.549723
1975.000000	98.591838
1974.000000	98.594740
1973.000000	98.568809
1972.000000	98.532025
1971.000000	98.514462
1970.000000	98.524673
1969.000000	98.540787
1968.000000	98.550498
1967.000000	98.568476
1966.000000	98.597584
1965.000000	98.611880
1964.000000	98.598414
1963.000000	98.578166
1962.000000	98.569103
1961.000000	98.561507
1960.000000	98.544204
1959.000000	98.526373
1958.000000	98.517915
1957.000000	98.515314
1956.000000	98.517649
1955.000000	98.528977
1954.000000	98.538345
1953.000000	98.527408
1952.000000	98.504107
1951.000000	98.502330
1950.000000	98.533522
1949.000000	98.569990
1948.000000	98.587034
1947.000000	98.590698
1946.000000	98.592187
1945.000000	98.584929
1944.000000	98.563355
1943.000000	98.540211
1942.000000	98.527070
1941.000000	98.518585
1940.000000	98.509487
1939.000000	98.504500
1938.000000	98.502226
1937.000000	98.491409
1936.000000	98.472678
1935.000000	98.463539
1934.000000	98.471281
1933.000000	98.479927
1932.000000	98.473090
1931.000000	98.455546
1930.000000	98.435547
1929.000000	98.412841
1928.000000	98.394011
1927.000000	98.393285
1926.000000	98.414342
1925.000000	98.438245
1924.000000	98.453231
1923.000000	98.469863
1922.000000	98.494935
1921.000000	98.512053
1920.000000	98.505077
1919.000000	98.481579
1918.000000	98.461218
1917.000000	98.449116
1916.000000	98.439817
1915.000000	98.432446
1914.000000	98.430252
1913.000000	98.433647
1912.000000	98.442294
1911.000000	98.457589
1910.000000	98.472530
1909.000000	98.473707
1908.000000	98.460294
1907.000000	98.445216
1906.000000	98.439255
1905.000000	98.436681
1904.000000	98.433507
1903.000000	98.435126
1902.000000	98.440316
1901.000000	98.439817
1900.000000	98.435279
1899.000000	98.438835
1898.000000	98.452744
1897.000000	98.460293
1896.000000	98.453464
1895.000000	98.449191
1894.000000	98.462826
1893.000000	98.483891
1892.000000	98.493571
1891.000000	98.489842
1890.000000	98.482449
1889.000000	98.476201
1888.000000	98.472399
1887.000000	98.474912
1886.000000	98.483460
1885.000000	98.490521
1884.000000	98.491298
1883.000000	98.489509
1882.000000	98.485158
1881.000000	98.472785
1880.000000	98.456550
1879.000000	98.451057
1878.000000	98.463649
1877.000000	98.481536
1876.000000	98.487473
1875.000000	98.484043
1874.000000	98.486052
1873.000000	98.498177
1872.000000	98.514179
1871.000000	98.530364
1870.000000	98.548436
1869.000000	98.566666
1868.000000	98.578682
1867.000000	98.580159
1866.000000	98.566959
1865.000000	98.537837
1864.000000	98.503633
1863.000000	98.481811
1862.000000	98.477655
1861.000000	98.479954
1860.000000	98.479092
1859.000000	98.478167
1858.000000	98.482630
1857.000000	98.490128
1856.000000	98.496763
1855.000000	98.503664
1854.000000	98.510585
1853.000000	98.512924
1852.000000	98.513456
1851.000000	98.513828
1850.000000	98.515602
1849.000000	98.521637
1848.000000	98.537817
1847.000000	98.564462
1846.000000	98.589522
1845.000000	98.600301
1844.000000	98.599217
1843.000000	98.598532
1842.000000	98.594074
1841.000000	98.571893
1840.000000	98.536427
1839.000000	98.508518
1838.000000	98.500638
1837.000000	98.500203
1836.000000	98.497244
1835.000000	98.501133
1834.000000	98.519273
1833.000000	98.541227
1832.000000	98.554854
1831.000000	98.562326
1830.000000	98.578420
1829.000000	98.600195
1828.000000	98.608087
1827.000000	98.593919
1826.000000	98.569602
1825.000000	98.551464
1824.000000	98.542087
1823.000000	98.535350
1822.000000	98.528126
1821.000000	98.524395
1820.000000	98.527982
1819.000000	98.536514
1818.000000	98.544251
1817.000000	98.544461
1816.000000	98.540558
1815.000000	98.540514
1814.000000	98.541749
1813.000000	98.536549
1812.000000	98.521947
1811.000000	98.508957
1810.000000	98.503793
1809.000000	98.494463
1808.000000	98.472029
1807.000000	98.444040
1806.000000	98.420648
1805.000000	98.400560
1804.000000	98.378150
1803.000000	98.353428
1802.000000	98.325930
1801.000000	98.296869
1800.000000	98.264610
1799.000000	98.233833
1798.000000	98.209767
1797.000000	98.195665
1796.000000	98.193929
1795.000000	98.203335
1794.000000	98.217958
1793.000000	98.240619
1792.000000	98.278542
1791.000000	98.331210
1790.000000	98.381829
1789.000000	98.413892
1788.000000	98.426729
1787.000000	98.433227
1786.000000	98.445093
1785.000000	98.463491
1784.000000	98.485196
1783.000000	98.505815
1782.000000	98.514743
1781.000000	98.515328
1780.000000	98.513426
1779.000000	98.517219
1778.000000	98.528445
1777.000000	98.548133
1776.000000	98.580254
1775.000000	98.614672
1774.000000	98.630777
1773.000000	98.620844
1772.000000	98.598069
1771.000000	98.573436
1770.000000	98.533557
1769.000000	98.458967
1768.000000	98.365480
1767.000000	98.295747
1766.000000	98.260309
1765.000000	98.225306
1764.000000	98.154932
1763.000000	98.046140
1762.000000	97.915050
1761.000000	97.774608
1760.000000	97.615922
1759.000000	97.421303
1758.000000	97.161669
1757.000000	96.828711
1756.000000	96.467386
1755.000000	96.131363
1754.000000	95.810147
1753.000000	95.444169
1752.000000	94.996796
1751.000000	94.498913
1750.000000	94.012867
1749.000000	93.548717
1748.000000	93.110136
1747.000000	92.730451
1746.000000	92.420259
1745.000000	92.157128
1744.000000	91.931228
1743.000000	91.765973
1742.000000	91.665954
1741.000000	91.602889
1740.000000	91.579487
1739.000000	91.641542
1738.000000	91.777484
1737.000000	91.923402
1736.000000	92.062580
1735.000000	92.275176
1734.000000	92.639636
1733.000000	93.049020
1732.000000	93.374765
1731.000000	93.644543
1730.000000	93.924554
1729.000000	94.231943
1728.000000	94.549306
1727.000000	94.858845
1726.000000	95.155405
1725.000000	95.442047
1724.000000	95.719969
1723.000000	95.994597
1722.000000	96.252069
1721.000000	96.466431
1720.000000	96.637271
1719.000000	96.803497
1718.000000	97.000074
1717.000000	97.182495
1716.000000	97.287718
1715.000000	97.326992
1714.000000	97.333314
1713.000000	97.318290
1712.000000	97.293531
1711.000000	97.277870
1710.000000	97.277596
1709.000000	97.282748
1708.000000	97.278342
1707.000000	97.251924
1706.000000	97.208846
1705.000000	97.169534
1704.000000	97.152589
1703.000000	97.136207
1702.000000	97.066822
1701.000000	96.924453
1700.000000	96.789200
1699.000000	96.738886
1698.000000	96.685592
1697.000000	96.516016
1696.000000	96.250022
1695.000000	96.023860
1694.000000	95.888419
1693.000000	95.772855
1692.000000	95.635242
1691.000000	95.494002
1690.000000	95.370869
1689.000000	95.272260
1688.000000	95.203670
1687.000000	95.152192
1686.000000	95.077029
1685.000000	94.914167
1684.000000	94.675433
1683.000000	94.476281
1682.000000	94.320864
1681.000000	94.143710
1680.000000	93.954983
1679.000000	93.801965
1678.000000	93.683112
1677.000000	93.544020
1676.000000	93.352221
1675.000000	93.154571
1674.000000	93.009930
1673.000000	92.898430
1672.000000	92.761056
1671.000000	92.577999
1670.000000	92.353435
1669.000000	92.110449
1668.000000	91.892536
1667.000000	91.724751
1666.000000	91.588186
1665.000000	91.438821
1664.000000	91.243483
1663.000000	91.016880
1662.000000	90.797947
1661.000000	90.604561
1660.000000	90.424764
1659.000000	90.260915
1658.000000	90.138223
1657.000000	90.071546
1656.000000	90.037971
1655.000000	89.979271
1654.000000	89.818301
1653.000000	89.542487
1652.000000	89.348570
1651.000000	89.299865
1650.000000	89.287738
1649.000000	89.252375
1648.000000	89.181033
1647.000000	89.094691
1646.000000	89.038610
1645.000000	89.016556
1644.000000	89.005086
1643.000000	89.001037
1642.000000	89.006515
1641.000000	89.028701
1640.000000	89.075856
1639.000000	89.146979
1638.000000	89.224208
1637.000000	89.273659
1636.000000	89.284245
1635.000000	89.287372
1634.000000	89.315926
1633.000000	89.349269
1632.000000	89.377647
1631.000000	89.418366
1630.000000	89.485772
1629.000000	89.578792
1628.000000	89.692185
1627.000000	89.822133
1626.000000	89.956350
1625.000000	90.084853
1624.000000	90.212391
1623.000000	90.357638
1622.000000	90.520825
1621.000000	90.686522
1620.000000	90.845712
1619.000000	91.000163
1618.000000	91.158909
1617.000000	91.331593
1616.000000	91.513573
1615.000000	91.678098
1614.000000	91.809107
1613.000000	91.918434
1612.000000	92.033425
1611.000000	92.169143
1610.000000	92.313129
1609.000000	92.449783
1608.000000	92.579795
1607.000000	92.708097
1606.000000	92.825519
1605.000000	92.928351
1604.000000	93.020995
1603.000000	93.105206
1602.000000	93.177391
1601.000000	93.236112
1600.000000	93.287666
1599.000000	93.337525
1598.000000	93.385484
1597.000000	93.431627
1596.000000	93.478778
1595.000000	93.525566
1594.000000	93.562177
1593.000000	93.582679
1592.000000	93.592889
1591.000000	93.600994
1590.000000	93.606580
1589.000000	93.605505
1588.000000	93.596441
1587.000000	93.579298
1586.000000	93.552666
1585.000000	93.518691
1584.000000	93.485897
1583.000000	93.448450
1582.000000	93.402291
1581.000000	93.362493
1580.000000	93.348454
1579.000000	93.349752
1578.000000	93.333530
1577.000000	93.271913
1576.000000	93.178254
1575.000000	93.099104
1574.000000	93.044110
1573.000000	92.994776
1572.000000	92.938925
1571.000000	92.868242
1570.000000	92.772934
1569.000000	92.663832
1568.000000	92.569959
1567.000000	92.482316
1566.000000	92.377457
1565.000000	92.259006
1564.000000	92.169627
1563.000000	92.134421
1562.000000	92.135211
1561.000000	92.121937
1560.000000	92.024121
1559.000000	91.767238
1558.000000	91.489729
1557.000000	91.308465
1556.000000	91.139789
1555.000000	90.944686
1554.000000	90.747456
1553.000000	90.584076
1552.000000	90.444974
1551.000000	90.298982
1550.000000	90.144259
1549.000000	90.004118
1548.000000	89.900956
1547.000000	89.824126
1546.000000	89.756264
1545.000000	89.696611
1544.000000	89.660190
1543.000000	89.652465
1542.000000	89.651280
1541.000000	89.600110
1540.000000	89.478851
1539.000000	89.362953
1538.000000	89.308646
1537.000000	89.288788
1536.000000	89.275883
1535.000000	89.264749
1534.000000	89.257883
1533.000000	89.260549
1532.000000	89.270991
1531.000000	89.288258
1530.000000	89.312114
1529.000000	89.338470
1528.000000	89.367376
1527.000000	89.406855
1526.000000	89.462298
1525.000000	89.528189
1524.000000	89.586230
1523.000000	89.618078
1522.000000	89.617082
1521.000000	89.600226
1520.000000	89.598810
1519.000000	89.607134
1518.000000	89.595413
1517.000000	89.556934
1516.000000	89.522735
1515.000000	89.523160
1514.000000	89.545714
1513.000000	89.576036
1512.000000	89.626709
1511.000000	89.723022
1510.000000	89.856795
1509.000000	89.990251
1508.000000	90.083386
1507.000000	90.123300
1506.000000	90.125230
1505.000000	90.116461
1504.000000	90.110107
1503.000000	90.110627
1502.000000	90.121346
1501.000000	90.139522
1500.000000	90.163769
1499.000000	90.193906
1498.000000	90.217951
1497.000000	90.210678
1496.000000	90.177359
1495.000000	90.161121
1494.000000	90.169616
1493.000000	90.177570
1492.000000	90.172421
1491.000000	90.165692
1490.000000	90.154996
1489.000000	90.109806
1488.000000	90.021702
1487.000000	89.921861
1486.000000	89.825380
1485.000000	89.722584
1484.000000	89.613261
1483.000000	89.496184
1482.000000	89.367559
1481.000000	89.222660
1480.000000	89.073902
1479.000000	88.932516
1478.000000	88.789762
1477.000000	88.631212
1476.000000	88.463188
1475.000000	88.295372
1474.000000	88.085408
1473.000000	87.777650
1472.000000	87.407408
1471.000000	87.078712
1470.000000	86.810800
1469.000000	86.568216
1468.000000	86.341688
1467.000000	86.140482
1466.000000	85.949838
1465.000000	85.751433
1464.000000	85.568670
1463.000000	85.436371
1462.000000	85.348451
1461.000000	85.275492
1460.000000	85.201391
1459.000000	85.102550
1458.000000	84.923834
1457.000000	84.639935
1456.000000	84.374617
1455.000000	84.214271
1454.000000	84.097540
1453.000000	83.975435
1452.000000	83.859185
1451.000000	83.775344
1450.000000	83.712692
1449.000000	83.637059
1448.000000	83.544539
1447.000000	83.463996
1446.000000	83.397043
1445.000000	83.328765
1444.000000	83.251580
1443.000000	83.172068
1442.000000	83.095193
1441.000000	83.021548
1440.000000	82.953914
1439.000000	82.883375
1438.000000	82.780986
1437.000000	82.622828
1436.000000	82.457476
1435.000000	82.353973
1434.000000	82.298185
1433.000000	82.244605
1432.000000	82.183376
1431.000000	82.120527
1430.000000	82.042184
1429.000000	81.926713
1428.000000	81.789780
1427.000000	81.665210
1426.000000	81.552994
1425.000000	81.447710
1424.000000	81.369960
1423.000000	81.342801
1422.000000	81.342693
1421.000000	81.322328
1420.000000	81.266853
1419.000000	81.203761
1418.000000	81.158558
1417.000000	81.124045
1416.000000	81.101733
1415.000000	81.107482
1414.000000	81.142124
1413.000000	81.194154
1412.000000	81.263611
1411.000000	81.360145
1410.000000	81.480107
1409.000000	81.608402
1408.000000	81.742712
1407.000000	81.890276
1406.000000	82.041165
1405.000000	82.182386
1404.000000	82.316887
1403.000000	82.450476
1402.000000	82.572606
1401.000000	82.672519
1400.000000	82.762781
1399.000000	82.864241
1398.000000	82.972673
1397.000000	83.066991
1396.000000	83.147641
1395.000000	83.233560
1394.000000	83.330260
1393.000000	83.433008
1392.000000	83.543778
1391.000000	83.667754
1390.000000	83.800872
1389.000000	83.936082
1388.000000	84.075424
1387.000000	84.223117
1386.000000	84.367357
1385.000000	84.496396
1384.000000	84.617467
1383.000000	84.744356
1382.000000	84.881030
1381.000000	85.023239
1380.000000	85.175327
1379.000000	85.345458
1378.000000	85.531401
1377.000000	85.725710
1376.000000	85.930753
1375.000000	86.150417
1374.000000	86.370354
1373.000000	86.568980
1372.000000	86.742391
1371.000000	86.899975
1370.000000	87.045505
1369.000000	87.183166
1368.000000	87.320361
1367.000000	87.460851
1366.000000	87.601148
1365.000000	87.739005
1364.000000	87.875952
1363.000000	88.006382
1362.000000	88.116153
1361.000000	88.201301
1360.000000	88.273430
1359.000000	88.341979
1358.000000	88.407172
1357.000000	88.470118
1356.000000	88.536092
1355.000000	88.606056
1354.000000	88.674406
1353.000000	88.738297
1352.000000	88.801352
1351.000000	88.867052
1350.000000	88.930388
1349.000000	88.987485
1348.000000	89.035839
1347.000000	89.069677
1346.000000	89.081458
1345.000000	89.073715
1344.000000	89.059329
1343.000000	89.046014
1342.000000	89.027139
1341.000000	88.991397
1340.000000	88.935927
1339.000000	88.868319
1338.000000	88.799937
1337.000000	88.742361
1336.000000	88.706997
1335.000000	88.700544
1334.000000	88.721412
1333.000000	88.764690
1332.000000	88.827253
1331.000000	88.905292
1330.000000	88.991354
1329.000000	89.078987
1328.000000	89.167022
1327.000000	89.256331
1326.000000	89.345069
1325.000000	89.431600
1324.000000	89.515292
1323.000000	89.593972
1322.000000	89.664416
1321.000000	89.727104
1320.000000	89.786650
1319.000000	89.846801
1318.000000	89.908515
1317.000000	89.973309
1316.000000	90.043810
1315.000000	90.119545
1314.000000	90.196755
1313.000000	90.273266
1312.000000	90.349993
1311.000000	90.427561
1310.000000	90.505584
1309.000000	90.585327
1308.000000	90.668206
1307.000000	90.752364
1306.000000	90.834006
1305.000000	90.913545
1304.000000	90.994171
1303.000000	91.076098
1302.000000	91.156406
1301.000000	91.234608
1300.000000	91.313242
1299.000000	91.393017
1298.000000	91.471533
1297.000000	91.546203
1296.000000	91.614835
1295.000000	91.673489
1294.000000	91.718968
1293.000000	91.752641
1292.000000	91.778529
1291.000000	91.798869
1290.000000	91.813825
1289.000000	91.824120
1288.000000	91.830397
1287.000000	91.831930
1286.000000	91.829586
1285.000000	91.827720
1284.000000	91.829884
1283.000000	91.834844
1282.000000	91.839596
1281.000000	91.843389
1280.000000	91.844798
1279.000000	91.837865
1278.000000	91.816806
1277.000000	91.781961
1276.000000	91.736874
1275.000000	91.680369
1274.000000	91.607560
1273.000000	91.517115
1272.000000	91.411800
1271.000000	91.292749
1270.000000	91.157105
1269.000000	91.003175
1268.000000	90.834239
1267.000000	90.655377
1266.000000	90.470196
1265.000000	90.281260
1264.000000	90.091878
1263.000000	89.905290
1262.000000	89.722978
1261.000000	89.545468
1260.000000	89.373871
1259.000000	89.208918
1258.000000	89.051107
1257.000000	88.905655
1256.000000	88.784396
1255.000000	88.698432
1254.000000	88.648166
1253.000000	88.622431
1252.000000	88.607133
1251.000000	88.590238
1250.000000	88.562336
1249.000000	88.519205
1248.000000	88.464464
1247.000000	88.406137
1246.000000	88.349789
1245.000000	88.297087
1244.000000	88.249705
1243.000000	88.210588
1242.000000	88.181857
1241.000000	88.164908
1240.000000	88.162276
1239.000000	88.176498
1238.000000	88.207340
1237.000000	88.254845
1236.000000	88.322502
1235.000000	88.412805
1234.000000	88.521216
1233.000000	88.638352
1232.000000	88.759719
1231.000000	88.889670
1230.000000	89.037144
1229.000000	89.210739
1228.000000	89.414084
1227.000000	89.643090
1226.000000	89.887288
1225.000000	90.135849
1224.000000	90.381376
1223.000000	90.617298
1222.000000	90.836555
1221.000000	91.034844
1220.000000	91.212369
1219.000000	91.370410
1218.000000	91.509892
1217.000000	91.632399
1216.000000	91.739041
1215.000000	91.828715
1214.000000	91.899591
1213.000000	91.954077
1212.000000	91.997802
1211.000000	92.033282
1210.000000	92.057844
1209.000000	92.067066
1208.000000	92.059351
1207.000000	92.037160
1206.000000	92.006529
1205.000000	91.975141
1204.000000	91.947474
1203.000000	91.922353
1202.000000	91.897016
1201.000000	91.872766
1200.000000	91.853635
1199.000000	91.839908
1198.000000	91.827018
1197.000000	91.811598
1196.000000	91.795110
1195.000000	91.780055
1194.000000	91.765667
1193.000000	91.749023
1192.000000	91.727766
1191.000000	91.700015
1190.000000	91.664401
1189.000000	91.621884
1188.000000	91.575530
1187.000000	91.526513
1186.000000	91.471281
1185.000000	91.404957
1184.000000	91.325547
1183.000000	91.233523
1182.000000	91.129492
1181.000000	91.014488
1180.000000	90.892227
1179.000000	90.767395
1178.000000	90.641514
1177.000000	90.513108
1176.000000	90.381833
1175.000000	90.250309
1174.000000	90.121301
1173.000000	89.995901
1172.000000	89.875097
1171.000000	89.761044
1170.000000	89.655252
1169.000000	89.557406
1168.000000	89.466935
1167.000000	89.383731
1166.000000	89.308515
1165.000000	89.244368
1164.000000	89.197797
1163.000000	89.175388
1162.000000	89.177781
1161.000000	89.201594
1160.000000	89.246300
1159.000000	89.316007
1158.000000	89.415378
1157.000000	89.545089
1156.000000	89.702975
1155.000000	89.884989
1154.000000	90.085546
1153.000000	90.301061
1152.000000	90.531122
1151.000000	90.775565
1150.000000	91.030978
1149.000000	91.292416
1148.000000	91.557171
1147.000000	91.824127
1146.000000	92.091631
1145.000000	92.357082
1144.000000	92.617022
1143.000000	92.866741
1142.000000	93.102813
1141.000000	93.325895
1140.000000	93.538053
1139.000000	93.737892
1138.000000	93.919803
1137.000000	94.078986
1136.000000	94.213864
1135.000000	94.324503
1134.000000	94.412828
1133.000000	94.482253
1132.000000	94.535962
1131.000000	94.574982
1130.000000	94.599397
1129.000000	94.611560
1128.000000	94.615157
1127.000000	94.612676
1126.000000	94.603979
1125.000000	94.586271
1124.000000	94.556316
1123.000000	94.513658
1122.000000	94.462241
1121.000000	94.406187
1120.000000	94.343285
1119.000000	94.266120
1118.000000	94.168406
1117.000000	94.047734
1116.000000	93.902437
1115.000000	93.730529
1114.000000	93.535671
1113.000000	93.331149
1112.000000	93.136313
1111.000000	92.968690
1110.000000	92.838601
1109.000000	92.747871
1108.000000	92.692397
1107.000000	92.666201
1106.000000	92.663253
1105.000000	92.677887
1104.000000	92.702429
1103.000000	92.726789
1102.000000	92.740962
1101.000000	92.737847
1100.000000	92.714383
1099.000000	92.670861
1098.000000	92.611543
1097.000000	92.542791
1096.000000	92.470184
1095.000000	92.398394
1094.000000	92.334632
1093.000000	92.289516
1092.000000	92.273029
1091.000000	92.289401
1090.000000	92.337242
1089.000000	92.411434
1088.000000	92.503321
1087.000000	92.603027
1086.000000	92.705694
1085.000000	92.816183
1084.000000	92.941636
1083.000000	93.079717
1082.000000	93.218897
1081.000000	93.350054
1080.000000	93.473262
1079.000000	93.592397
1078.000000	93.708403
1077.000000	93.819275
1076.000000	93.922935
1075.000000	94.018008
1074.000000	94.104025
1073.000000	94.181225
1072.000000	94.247426
1071.000000	94.297256
1070.000000	94.327082
1069.000000	94.340225
1068.000000	94.344398
1067.000000	94.344369
1066.000000	94.340694
1065.000000	94.333994
1064.000000	94.326789
1063.000000	94.320851
1062.000000	94.315506
1061.000000	94.309701
1060.000000	94.304264
1059.000000	94.302328
1058.000000	94.308540
1057.000000	94.327285
1056.000000	94.359164
1055.000000	94.399292
1054.000000	94.441052
1053.000000	94.481475
1052.000000	94.521950
1051.000000	94.563922
1050.000000	94.606096
1049.000000	94.645837
1048.000000	94.681635
1047.000000	94.713573
1046.000000	94.741632
1045.000000	94.763137
1044.000000	94.772276
1043.000000	94.765032
1042.000000	94.744374
1041.000000	94.717436
1040.000000	94.686418
1039.000000	94.645061
1038.000000	94.586581
1037.000000	94.512123
1036.000000	94.430242
1035.000000	94.350718
1034.000000	94.280331
1033.000000	94.221462
1032.000000	94.172293
1031.000000	94.130388
1030.000000	94.097430
1029.000000	94.079141
1028.000000	94.078469
1027.000000	94.091614
1026.000000	94.112725
1025.000000	94.139133
1024.000000	94.169726
1023.000000	94.201279
1022.000000	94.231602
1021.000000	94.264118
1020.000000	94.303856
1019.000000	94.350370
1018.000000	94.398955
1017.000000	94.448223
1016.000000	94.501420
1015.000000	94.560531
1014.000000	94.624432
1013.000000	94.693133
1012.000000	94.769148
1011.000000	94.853518
1010.000000	94.943776
1009.000000	95.036746
1008.000000	95.130093
1007.000000	95.221079
1006.000000	95.307259
1005.000000	95.388538
1004.000000	95.465496
1003.000000	95.536147
1002.000000	95.597960
1001.000000	95.651868
1000.000000	95.700748
999.000000	95.744185
998.000000	95.779159
997.000000	95.806038
996.000000	95.829216
995.000000	95.851624
994.000000	95.872125
993.000000	95.889515
992.000000	95.905442
991.000000	95.921169
990.000000	95.934213
989.000000	95.940404
988.000000	95.938521
987.000000	95.931737
986.000000	95.924680
985.000000	95.919186
984.000000	95.912370
983.000000	95.899450
982.000000	95.879387
981.000000	95.856604
980.000000	95.835728
979.000000	95.815399
978.000000	95.788949
977.000000	95.750749
976.000000	95.700172
975.000000	95.640862
974.000000	95.578741
973.000000	95.521018
972.000000	95.474444
971.000000	95.442745
970.000000	95.425693
969.000000	95.420619
968.000000	95.424769
967.000000	95.436522
966.000000	95.456579
965.000000	95.487343
964.000000	95.528871
963.000000	95.576046
962.000000	95.622246
961.000000	95.667223
960.000000	95.718194
959.000000	95.781202
958.000000	95.854223
957.000000	95.930531
956.000000	96.007213
955.000000	96.087094
954.000000	96.173063
953.000000	96.264106
952.000000	96.357179
951.000000	96.450463
950.000000	96.542573
949.000000	96.629851
948.000000	96.706942
947.000000	96.771395
946.000000	96.826330
945.000000	96.876825
944.000000	96.925070
943.000000	96.970684
942.000000	97.014803
941.000000	97.060123
940.000000	97.106093
939.000000	97.147241
938.000000	97.178144
937.000000	97.199731
936.000000	97.219925
935.000000	97.248904
934.000000	97.292637
933.000000	97.348150
932.000000	97.404853
931.000000	97.452714
930.000000	97.489567
929.000000	97.519655
928.000000	97.546822
927.000000	97.572612
926.000000	97.599819
925.000000	97.632282
924.000000	97.670344
923.000000	97.710709
922.000000	97.752109
921.000000	97.796569
920.000000	97.843505
919.000000	97.887294
918.000000	97.923997
917.000000	97.957015
916.000000	97.992868
915.000000	98.034263
914.000000	98.079362
913.000000	98.125095
912.000000	98.168881
911.000000	98.209707
910.000000	98.249518
909.000000	98.290941
908.000000	98.332321
907.000000	98.368575
906.000000	98.398140
905.000000	98.424458
904.000000	98.448790
903.000000	98.466711
902.000000	98.475387
901.000000	98.480079
900.000000	98.489697
899.000000	98.508627
898.000000	98.535912
897.000000	98.567950
896.000000	98.598609
895.000000	98.620281
894.000000	98.629582
893.000000	98.630250
892.000000	98.626349
891.000000	98.613398
890.000000	98.573201
889.000000	98.470028
888.000000	98.253092
887.000000	97.875769
886.000000	97.332632
885.000000	96.678332
884.000000	95.998691
883.000000	95.353816
882.000000	94.737308
881.000000	94.088428
880.000000	93.346544
879.000000	92.504347
878.000000	91.617993
877.000000	90.779422
876.000000	90.082483
875.000000	89.606808
874.000000	89.417106
873.000000	89.555386
872.000000	90.027298
871.000000	90.780984
870.000000	91.705553
869.000000	92.667433
868.000000	93.556467
867.000000	94.313424
866.000000	94.928876
865.000000	95.426357
864.000000	95.838124
863.000000	96.187806
862.000000	96.486496
861.000000	96.739518
860.000000	96.952318
859.000000	97.130566
858.000000	97.281149
857.000000	97.410408
856.000000	97.519863
855.000000	97.607643
854.000000	97.676201
853.000000	97.732100
852.000000	97.769571
851.000000	97.764432
850.000000	97.702836
849.000000	97.616707
848.000000	97.573410
847.000000	97.618425
846.000000	97.735011
845.000000	97.868007
844.000000	97.976679
843.000000	98.055000
842.000000	98.111454
841.000000	98.149317
840.000000	98.170066
839.000000	98.181264
838.000000	98.191338
837.000000	98.200716
836.000000	98.204358
835.000000	98.201033
834.000000	98.195875
833.000000	98.195055
832.000000	98.200986
831.000000	98.213121
830.000000	98.231646
829.000000	98.259685
828.000000	98.300570
827.000000	98.351621
826.000000	98.402490
825.000000	98.442845
824.000000	98.471000
823.000000	98.491937
822.000000	98.508827
821.000000	98.521749
820.000000	98.533189
819.000000	98.547568
818.000000	98.563945
817.000000	98.575398
816.000000	98.578446
815.000000	98.578240
814.000000	98.581357
813.000000	98.587982
812.000000	98.595220
811.000000	98.602714
810.000000	98.609107
809.000000	98.606854
808.000000	98.588823
807.000000	98.559481
806.000000	98.532213
805.000000	98.514678
804.000000	98.502443
803.000000	98.488192
802.000000	98.470829
801.000000	98.452506
800.000000	98.431844
799.000000	98.404406
798.000000	98.368294
797.000000	98.327290
796.000000	98.289429
795.000000	98.262164
794.000000	98.246145
793.000000	98.233864
792.000000	98.217429
791.000000	98.197196
790.000000	98.178961
789.000000	98.163192
788.000000	98.142693
787.000000	98.112818
786.000000	98.079669
785.000000	98.054869
784.000000	98.044386
783.000000	98.044247
782.000000	98.044689
781.000000	98.037087
780.000000	98.019147
779.000000	97.995334
778.000000	97.971609
777.000000	97.949116
776.000000	97.924435
775.000000	97.895540
774.000000	97.864885
773.000000	97.836918
772.000000	97.815543
771.000000	97.803298
770.000000	97.798761
769.000000	97.794500
768.000000	97.781948
767.000000	97.759555
766.000000	97.732457
765.000000	97.703954
764.000000	97.672648
763.000000	97.639357
762.000000	97.609935
761.000000	97.586253
760.000000	97.559260
759.000000	97.517695
758.000000	97.462353
757.000000	97.406243
756.000000	97.360902
755.000000	97.327491
754.000000	97.301793
753.000000	97.282542
752.000000	97.270864
751.000000	97.263938
750.000000	97.254212
749.000000	97.237252
748.000000	97.218122
747.000000	97.206406
746.000000	97.205104
745.000000	97.207411
744.000000	97.205294
743.000000	97.197552
742.000000	97.187081
741.000000	97.173950
740.000000	97.155279
739.000000	97.129260
738.000000	97.094375
737.000000	97.046858
736.000000	96.984972
735.000000	96.915343
734.000000	96.848418
733.000000	96.786744
732.000000	96.724014
731.000000	96.656956
730.000000	96.591586
729.000000	96.534213
728.000000	96.484349
727.000000	96.439888
726.000000	96.401104
725.000000	96.366230
724.000000	96.328591
723.000000	96.281702
722.000000	96.221853
721.000000	96.142488
720.000000	96.031422
719.000000	95.875299
718.000000	95.657030
717.000000	95.343674
716.000000	94.895368
715.000000	94.315997
714.000000	93.704282
713.000000	93.232657
712.000000	93.046263
711.000000	93.164596
710.000000	93.477251
709.000000	93.829026
708.000000	94.110729
707.000000	94.291523
706.000000	94.391303
705.000000	94.440399
704.000000	94.459676
703.000000	94.458077
702.000000	94.438049
701.000000	94.402619
700.000000	94.357939
699.000000	94.312822
698.000000	94.275169
697.000000	94.250264
696.000000	94.241205
695.000000	94.245807
694.000000	94.257195
693.000000	94.268318
692.000000	94.274627
691.000000	94.276082
690.000000	94.275316
689.000000	94.275054
688.000000	94.275100
687.000000	94.270010
686.000000	94.256029
685.000000	94.237275
684.000000	94.219432
683.000000	94.201374
682.000000	94.178771
681.000000	94.155211
680.000000	94.141431
679.000000	94.142763
678.000000	94.153153
677.000000	94.160948
676.000000	94.165923
675.000000	94.179780
674.000000	94.215404
673.000000	94.276533
672.000000	94.356250
671.000000	94.444736
670.000000	94.538515
669.000000	94.632400
668.000000	94.682791
667.000000	94.670803
666.000000	94.674769
665.000000	94.695666
664.000000	94.710478
663.000000	94.722115
662.000000	94.733435
661.000000	94.736123
660.000000	94.727528
659.000000	94.720752
658.000000	94.724191
657.000000	94.722051
656.000000	94.699054
655.000000	94.660516
654.000000	94.616466
653.000000	94.563612
652.000000	94.499042
651.000000	94.432463
650.000000	94.371444
649.000000	94.307186
648.000000	94.231317
647.000000	94.149886
646.000000	94.066287
645.000000	93.970305
644.000000	93.856769
643.000000	93.738383
642.000000	93.629220
641.000000	93.526737
640.000000	93.424807
639.000000	93.332307
638.000000	93.261910
637.000000	93.214356
636.000000	93.187203
635.000000	93.183279
634.000000	93.199995
633.000000	93.225966
632.000000	93.256239
631.000000	93.294755
630.000000	93.334260
629.000000	93.353469
628.000000	93.344630
627.000000	93.325128
626.000000	93.309625
625.000000	93.290358
624.000000	93.255902
623.000000	93.210089
622.000000	93.160535
621.000000	93.106308
620.000000	93.050196
619.000000	93.004082
618.000000	92.968264
617.000000	92.924245
616.000000	92.865976
615.000000	92.818406
614.000000	92.802911
613.000000	92.804180
612.000000	92.793668
611.000000	92.771040
610.000000	92.759775
609.000000	92.773711
608.000000	92.810512
607.000000	92.869206
606.000000	92.950293
605.000000	93.047440
604.000000	93.156712
603.000000	93.286378
602.000000	93.442023
601.000000	93.608007
600.000000	93.761025
599.000000	93.897759
598.000000	94.034191
597.000000	94.179893
596.000000	94.328280
595.000000	94.470051
594.000000	94.601798
593.000000	94.719668
592.000000	94.814663
591.000000	94.880122
590.000000	94.919887
589.000000	94.946847
588.000000	94.976096
587.000000	95.015708
586.000000	95.058393
585.000000	95.087531
584.000000	95.098501
583.000000	95.106158
582.000000	95.122126
581.000000	95.135773
580.000000	95.131687
579.000000	95.118732
578.000000	95.123390
577.000000	95.156498
576.000000	95.202529
575.000000	95.240090
574.000000	95.262330
573.000000	95.274864
572.000000	95.285933
571.000000	95.303546
570.000000	95.331352
569.000000	95.362855
568.000000	95.386849
567.000000	95.398503
566.000000	95.399954
565.000000	95.392607
564.000000	95.375941
563.000000	95.353700
562.000000	95.334878
561.000000	95.327325
560.000000	95.332055
559.000000	95.342066
558.000000	95.345520
557.000000	95.337346
556.000000	95.330083
555.000000	95.342487
554.000000	95.373443
553.000000	95.399621
552.000000	95.404308
551.000000	95.396182
550.000000	95.394842
549.000000	95.410357
548.000000	95.443655
547.000000	95.489777
546.000000	95.530611
545.000000	95.543234
544.000000	95.529465
543.000000	95.518792
542.000000	95.530577
541.000000	95.550671
540.000000	95.558443
539.000000	95.557364
538.000000	95.559338
537.000000	95.556838
536.000000	95.534976
535.000000	95.500886
534.000000	95.475983
533.000000	95.465179
532.000000	95.455073
531.000000	95.438283
530.000000	95.421784
529.000000	95.414848
528.000000	95.424353
527.000000	95.456125
526.000000	95.503610
525.000000	95.542360
524.000000	95.557032
523.000000	95.559383
522.000000	95.565172
521.000000	95.574007
520.000000	95.583427
519.000000	95.605933
518.000000	95.653062
517.000000	95.712433
516.000000	95.765399
515.000000	95.812524
514.000000	95.860063
513.000000	95.900869
512.000000	95.927697
511.000000	95.950346
510.000000	95.980746
509.000000	96.011984
508.000000	96.031875
507.000000	96.048129
506.000000	96.076240
505.000000	96.111994
504.000000	96.141081
503.000000	96.163562
502.000000	96.189222
501.000000	96.218476
500.000000	96.249930
499.000000	96.293488
498.000000	96.349376
497.000000	96.389803
496.000000	96.388616
495.000000	96.360365
494.000000	96.345377
493.000000	96.361246
492.000000	96.396340
491.000000	96.447003
490.000000	96.524121
489.000000	96.620480
488.000000	96.701961
487.000000	96.739518
486.000000	96.734067
485.000000	96.710503
484.000000	96.701665
483.000000	96.733363
482.000000	96.800600
481.000000	96.859505
480.000000	96.864042
479.000000	96.812795
478.000000	96.751769
477.000000	96.732703
476.000000	96.776044
475.000000	96.870305
474.000000	96.985937
473.000000	97.088276
472.000000	97.161483
471.000000	97.220389
470.000000	97.277551
469.000000	97.319508
468.000000	97.333320
467.000000	97.334383
466.000000	97.346510
465.000000	97.369881
464.000000	97.398736
463.000000	97.453025
462.000000	97.562471
461.000000	97.726440
460.000000	97.918821
459.000000	98.106170
458.000000	98.109104
457.000000	98.123941
456.000000	98.109114
455.000000	98.162017
454.000000	98.316122
453.000000	98.500670
452.000000	98.608027
451.000000	98.613583
450.000000	98.586305
