PE IR       SUBTECH     SPECTRUM    ASCII       PEDS        4.00        
   -1
3C-XXX-F017_1.ASC
23/09/07
10:50:15.00
23/09/07
11:30:09.00
uco
Sample 017 By uco Date Thursday, September 07 2023
450.000000
#HDR
-1
-1
#GR
cm-1
%T
1.0
0.0
4000.000000
-1.000000
3551
8
98.809141
86.149551
#DATA
4000.000000	98.739570
3999.000000	98.739204
3998.000000	98.738974
3997.000000	98.739817
3996.000000	98.742434
3995.000000	98.746366
3994.000000	98.749667
3993.000000	98.749901
3992.000000	98.745874
3991.000000	98.738505
3990.000000	98.730100
3989.000000	98.722762
3988.000000	98.717571
3987.000000	98.714763
3986.000000	98.714089
3985.000000	98.714889
3984.000000	98.716150
3983.000000	98.716994
3982.000000	98.717260
3981.000000	98.717511
3980.000000	98.718232
3979.000000	98.718837
3978.000000	98.717582
3977.000000	98.712849
3976.000000	98.704942
3975.000000	98.696724
3974.000000	98.691897
3973.000000	98.692221
3972.000000	98.696251
3971.000000	98.700712
3970.000000	98.703305
3969.000000	98.704234
3968.000000	98.705315
3967.000000	98.707752
3966.000000	98.710846
3965.000000	98.712844
3964.000000	98.712777
3963.000000	98.711163
3962.000000	98.709037
3961.000000	98.706757
3960.000000	98.704222
3959.000000	98.701864
3958.000000	98.700588
3957.000000	98.700621
3956.000000	98.700852
3955.000000	98.699726
3954.000000	98.696685
3953.000000	98.692714
3952.000000	98.689653
3951.000000	98.689114
3950.000000	98.691578
3949.000000	98.696032
3948.000000	98.700295
3947.000000	98.701938
3946.000000	98.699632
3945.000000	98.694213
3944.000000	98.688815
3943.000000	98.687358
3942.000000	98.691583
3941.000000	98.699430
3940.000000	98.706733
3939.000000	98.709977
3938.000000	98.707679
3937.000000	98.700382
3936.000000	98.690364
3935.000000	98.681352
3934.000000	98.677309
3933.000000	98.680346
3932.000000	98.689054
3931.000000	98.699131
3930.000000	98.706359
3929.000000	98.708664
3928.000000	98.706069
3927.000000	98.700371
3926.000000	98.694908
3925.000000	98.693106
3924.000000	98.696112
3923.000000	98.702272
3922.000000	98.709035
3921.000000	98.714198
3920.000000	98.715792
3919.000000	98.712867
3918.000000	98.707433
3917.000000	98.704106
3916.000000	98.705994
3915.000000	98.711216
3914.000000	98.714622
3913.000000	98.712161
3912.000000	98.703706
3911.000000	98.692873
3910.000000	98.684207
3909.000000	98.679788
3908.000000	98.678059
3907.000000	98.675879
3906.000000	98.672099
3905.000000	98.669517
3904.000000	98.672162
3903.000000	98.679865
3902.000000	98.687582
3901.000000	98.691199
3900.000000	98.691736
3899.000000	98.692943
3898.000000	98.696915
3897.000000	98.702933
3896.000000	98.709245
3895.000000	98.713985
3894.000000	98.715366
3893.000000	98.712976
3892.000000	98.709491
3891.000000	98.708671
3890.000000	98.710731
3889.000000	98.712496
3888.000000	98.711502
3887.000000	98.708660
3886.000000	98.706917
3885.000000	98.706757
3884.000000	98.705301
3883.000000	98.700734
3882.000000	98.694785
3881.000000	98.691128
3880.000000	98.691252
3879.000000	98.692435
3878.000000	98.691456
3877.000000	98.688178
3876.000000	98.685325
3875.000000	98.686074
3874.000000	98.689901
3873.000000	98.691742
3872.000000	98.688063
3871.000000	98.682921
3870.000000	98.684856
3869.000000	98.695522
3868.000000	98.707198
3867.000000	98.713098
3866.000000	98.713210
3865.000000	98.710819
3864.000000	98.708169
3863.000000	98.705241
3862.000000	98.701750
3861.000000	98.698683
3860.000000	98.697686
3859.000000	98.699469
3858.000000	98.702610
3857.000000	98.703527
3856.000000	98.698132
3855.000000	98.686070
3854.000000	98.676480
3853.000000	98.679982
3852.000000	98.690553
3851.000000	98.696983
3850.000000	98.698623
3849.000000	98.699678
3848.000000	98.701982
3847.000000	98.704317
3846.000000	98.704880
3845.000000	98.703641
3844.000000	98.702958
3843.000000	98.704967
3842.000000	98.709122
3841.000000	98.713301
3840.000000	98.716154
3839.000000	98.717785
3838.000000	98.718765
3837.000000	98.719185
3836.000000	98.718621
3835.000000	98.716360
3834.000000	98.712001
3833.000000	98.706340
3832.000000	98.700957
3831.000000	98.696503
3830.000000	98.692230
3829.000000	98.687245
3828.000000	98.682542
3827.000000	98.680845
3826.000000	98.683244
3825.000000	98.687181
3824.000000	98.689088
3823.000000	98.688708
3822.000000	98.691059
3821.000000	98.700732
3820.000000	98.712329
3819.000000	98.716208
3818.000000	98.710377
3817.000000	98.701005
3816.000000	98.695702
3815.000000	98.695153
3814.000000	98.694301
3813.000000	98.691252
3812.000000	98.688966
3811.000000	98.690507
3810.000000	98.695376
3809.000000	98.700590
3808.000000	98.704612
3807.000000	98.708242
3806.000000	98.711386
3805.000000	98.712184
3804.000000	98.710029
3803.000000	98.707993
3802.000000	98.710946
3801.000000	98.718092
3800.000000	98.721562
3799.000000	98.717228
3798.000000	98.708148
3797.000000	98.699130
3796.000000	98.691774
3795.000000	98.684260
3794.000000	98.675902
3793.000000	98.669261
3792.000000	98.667402
3791.000000	98.670598
3790.000000	98.676225
3789.000000	98.681246
3788.000000	98.684217
3787.000000	98.685190
3786.000000	98.684945
3785.000000	98.684575
3784.000000	98.684970
3783.000000	98.686199
3782.000000	98.687441
3781.000000	98.687636
3780.000000	98.686675
3779.000000	98.685623
3778.000000	98.685205
3777.000000	98.685181
3776.000000	98.685571
3775.000000	98.687153
3774.000000	98.690074
3773.000000	98.692750
3772.000000	98.693191
3771.000000	98.691383
3770.000000	98.689508
3769.000000	98.689477
3768.000000	98.691273
3767.000000	98.694335
3766.000000	98.698686
3765.000000	98.703223
3764.000000	98.704901
3763.000000	98.701376
3762.000000	98.693899
3761.000000	98.686413
3760.000000	98.682072
3759.000000	98.681411
3758.000000	98.683488
3757.000000	98.687996
3756.000000	98.694890
3755.000000	98.703552
3754.000000	98.713265
3753.000000	98.723389
3752.000000	98.732566
3751.000000	98.738971
3750.000000	98.741704
3749.000000	98.741995
3748.000000	98.741834
3747.000000	98.742048
3746.000000	98.743395
3745.000000	98.746985
3744.000000	98.749903
3743.000000	98.746091
3742.000000	98.735826
3741.000000	98.724619
3740.000000	98.716586
3739.000000	98.712526
3738.000000	98.711908
3737.000000	98.715882
3736.000000	98.725752
3735.000000	98.737704
3734.000000	98.745022
3733.000000	98.746356
3732.000000	98.746132
3731.000000	98.747596
3730.000000	98.749272
3729.000000	98.747849
3728.000000	98.741700
3727.000000	98.731514
3726.000000	98.719128
3725.000000	98.707280
3724.000000	98.699535
3723.000000	98.697938
3722.000000	98.701041
3721.000000	98.705432
3720.000000	98.709036
3719.000000	98.712556
3718.000000	98.717674
3717.000000	98.724495
3716.000000	98.731443
3715.000000	98.736843
3714.000000	98.739797
3713.000000	98.740619
3712.000000	98.741447
3711.000000	98.744461
3710.000000	98.747943
3709.000000	98.748109
3708.000000	98.744224
3707.000000	98.738884
3706.000000	98.734848
3705.000000	98.732652
3704.000000	98.730548
3703.000000	98.726222
3702.000000	98.719464
3701.000000	98.713015
3700.000000	98.709764
3699.000000	98.710081
3698.000000	98.712497
3697.000000	98.715166
3696.000000	98.716680
3695.000000	98.716878
3694.000000	98.717226
3693.000000	98.719394
3692.000000	98.722843
3691.000000	98.724473
3690.000000	98.721358
3689.000000	98.714464
3688.000000	98.707721
3687.000000	98.703570
3686.000000	98.701875
3685.000000	98.701960
3684.000000	98.703319
3683.000000	98.704757
3682.000000	98.704712
3681.000000	98.703325
3680.000000	98.702377
3679.000000	98.701768
3678.000000	98.698623
3677.000000	98.692084
3676.000000	98.688093
3675.000000	98.691457
3674.000000	98.695590
3673.000000	98.692402
3672.000000	98.682553
3671.000000	98.673465
3670.000000	98.671388
3669.000000	98.672781
3668.000000	98.668879
3667.000000	98.657554
3666.000000	98.643477
3665.000000	98.632074
3664.000000	98.626051
3663.000000	98.625205
3662.000000	98.627607
3661.000000	98.630951
3660.000000	98.633297
3659.000000	98.633699
3658.000000	98.633068
3657.000000	98.634463
3656.000000	98.640302
3655.000000	98.648934
3654.000000	98.656448
3653.000000	98.659904
3652.000000	98.657247
3651.000000	98.646375
3650.000000	98.627610
3649.000000	98.607582
3648.000000	98.594901
3647.000000	98.590594
3646.000000	98.589007
3645.000000	98.585565
3644.000000	98.580129
3643.000000	98.575173
3642.000000	98.572075
3641.000000	98.569700
3640.000000	98.566726
3639.000000	98.563894
3638.000000	98.562119
3637.000000	98.559797
3636.000000	98.554523
3635.000000	98.547176
3634.000000	98.541663
3633.000000	98.539671
3632.000000	98.537991
3631.000000	98.532193
3630.000000	98.522852
3629.000000	98.516430
3628.000000	98.515074
3627.000000	98.512951
3626.000000	98.506690
3625.000000	98.498430
3624.000000	98.491308
3623.000000	98.486160
3622.000000	98.481689
3621.000000	98.476541
3620.000000	98.470391
3619.000000	98.463332
3618.000000	98.455064
3617.000000	98.445631
3616.000000	98.436153
3615.000000	98.427973
3614.000000	98.421342
3613.000000	98.414876
3612.000000	98.406955
3611.000000	98.397618
3610.000000	98.388656
3609.000000	98.382033
3608.000000	98.377624
3607.000000	98.372986
3606.000000	98.366505
3605.000000	98.359686
3604.000000	98.355441
3603.000000	98.354618
3602.000000	98.354768
3601.000000	98.352483
3600.000000	98.346437
3599.000000	98.337937
3598.000000	98.328400
3597.000000	98.317637
3596.000000	98.305362
3595.000000	98.292966
3594.000000	98.282321
3593.000000	98.273375
3592.000000	98.264148
3591.000000	98.252856
3590.000000	98.239240
3589.000000	98.224735
3588.000000	98.211832
3587.000000	98.202359
3586.000000	98.196063
3585.000000	98.191380
3584.000000	98.186682
3583.000000	98.180748
3582.000000	98.173314
3581.000000	98.165380
3580.000000	98.158361
3579.000000	98.152569
3578.000000	98.146965
3577.000000	98.140541
3576.000000	98.133452
3575.000000	98.126376
3574.000000	98.119100
3573.000000	98.110670
3572.000000	98.100816
3571.000000	98.090360
3570.000000	98.080162
3569.000000	98.070330
3568.000000	98.060417
3567.000000	98.050051
3566.000000	98.039379
3565.000000	98.029018
3564.000000	98.019385
3563.000000	98.010263
3562.000000	98.001051
3561.000000	97.991328
3560.000000	97.981040
3559.000000	97.970167
3558.000000	97.958548
3557.000000	97.946319
3556.000000	97.934049
3555.000000	97.922011
3554.000000	97.909536
3553.000000	97.895898
3552.000000	97.882102
3551.000000	97.870796
3550.000000	97.863783
3549.000000	97.860147
3548.000000	97.856976
3547.000000	97.851821
3546.000000	97.844800
3545.000000	97.838054
3544.000000	97.832504
3543.000000	97.825885
3542.000000	97.814839
3541.000000	97.798831
3540.000000	97.781349
3539.000000	97.767196
3538.000000	97.758443
3537.000000	97.753090
3536.000000	97.747268
3535.000000	97.738438
3534.000000	97.726666
3533.000000	97.714024
3532.000000	97.703282
3531.000000	97.696026
3530.000000	97.690988
3529.000000	97.684774
3528.000000	97.675311
3527.000000	97.664188
3526.000000	97.654696
3525.000000	97.647937
3524.000000	97.641786
3523.000000	97.633416
3522.000000	97.622073
3521.000000	97.609252
3520.000000	97.596893
3519.000000	97.585791
3518.000000	97.575324
3517.000000	97.564439
3516.000000	97.553242
3515.000000	97.543392
3514.000000	97.536377
3513.000000	97.531358
3512.000000	97.525302
3511.000000	97.515594
3510.000000	97.502590
3509.000000	97.489537
3508.000000	97.479924
3507.000000	97.474878
3506.000000	97.472680
3505.000000	97.470124
3504.000000	97.464555
3503.000000	97.455655
3502.000000	97.445459
3501.000000	97.436176
3500.000000	97.427978
3499.000000	97.419191
3498.000000	97.408397
3497.000000	97.396081
3496.000000	97.384111
3495.000000	97.373679
3494.000000	97.364195
3493.000000	97.354456
3492.000000	97.344501
3491.000000	97.335707
3490.000000	97.329023
3489.000000	97.323570
3488.000000	97.317308
3487.000000	97.308812
3486.000000	97.298033
3485.000000	97.285611
3484.000000	97.272437
3483.000000	97.260177
3482.000000	97.251196
3481.000000	97.246700
3480.000000	97.245030
3479.000000	97.242707
3478.000000	97.237518
3477.000000	97.230129
3476.000000	97.222820
3475.000000	97.217111
3474.000000	97.212679
3473.000000	97.207986
3472.000000	97.201332
3471.000000	97.191678
3470.000000	97.179374
3469.000000	97.166292
3468.000000	97.154645
3467.000000	97.145314
3466.000000	97.137804
3465.000000	97.131934
3464.000000	97.128594
3463.000000	97.127970
3462.000000	97.127471
3461.000000	97.122727
3460.000000	97.111339
3459.000000	97.095335
3458.000000	97.079506
3457.000000	97.067551
3456.000000	97.059814
3455.000000	97.054256
3454.000000	97.049053
3453.000000	97.043885
3452.000000	97.039087
3451.000000	97.034494
3450.000000	97.029831
3449.000000	97.025802
3448.000000	97.023764
3447.000000	97.023755
3446.000000	97.023392
3445.000000	97.019566
3444.000000	97.011032
3443.000000	96.999319
3442.000000	96.987700
3441.000000	96.979195
3440.000000	96.974643
3439.000000	96.972111
3438.000000	96.968326
3437.000000	96.961126
3436.000000	96.950689
3435.000000	96.938626
3434.000000	96.926625
3433.000000	96.916126
3432.000000	96.908286
3431.000000	96.903211
3430.000000	96.899519
3429.000000	96.895400
3428.000000	96.890059
3427.000000	96.883680
3426.000000	96.876455
3425.000000	96.868417
3424.000000	96.859949
3423.000000	96.851503
3422.000000	96.842827
3421.000000	96.833459
3420.000000	96.824303
3419.000000	96.817681
3418.000000	96.814895
3417.000000	96.814126
3416.000000	96.811397
3415.000000	96.803772
3414.000000	96.791648
3413.000000	96.778110
3412.000000	96.766208
3411.000000	96.756857
3410.000000	96.749146
3409.000000	96.742344
3408.000000	96.737157
3407.000000	96.734705
3406.000000	96.734360
3405.000000	96.733062
3404.000000	96.727297
3403.000000	96.716134
3402.000000	96.702358
3401.000000	96.690250
3400.000000	96.681823
3399.000000	96.675040
3398.000000	96.665847
3397.000000	96.652101
3396.000000	96.635438
3395.000000	96.619511
3394.000000	96.606942
3393.000000	96.598124
3392.000000	96.592156
3391.000000	96.588043
3390.000000	96.584957
3389.000000	96.582098
3388.000000	96.578942
3387.000000	96.575654
3386.000000	96.572857
3385.000000	96.570551
3384.000000	96.567306
3383.000000	96.561023
3382.000000	96.551020
3381.000000	96.539261
3380.000000	96.528942
3379.000000	96.521503
3378.000000	96.515293
3377.000000	96.507294
3376.000000	96.495813
3375.000000	96.481352
3374.000000	96.465545
3373.000000	96.450105
3372.000000	96.436660
3371.000000	96.426519
3370.000000	96.419641
3369.000000	96.413808
3368.000000	96.405418
3367.000000	96.391856
3366.000000	96.373762
3365.000000	96.355137
3364.000000	96.340805
3363.000000	96.332935
3362.000000	96.329299
3361.000000	96.324721
3360.000000	96.314725
3359.000000	96.298590
3358.000000	96.279405
3357.000000	96.261163
3356.000000	96.245545
3355.000000	96.231348
3354.000000	96.216822
3353.000000	96.202012
3352.000000	96.188414
3351.000000	96.176747
3350.000000	96.165785
3349.000000	96.153433
3348.000000	96.138549
3347.000000	96.121766
3346.000000	96.104883
3345.000000	96.089304
3344.000000	96.074689
3343.000000	96.059400
3342.000000	96.042831
3341.000000	96.026922
3340.000000	96.014399
3339.000000	96.005634
3338.000000	95.998124
3337.000000	95.989021
3336.000000	95.977211
3335.000000	95.962963
3334.000000	95.947031
3333.000000	95.930803
3332.000000	95.916065
3331.000000	95.903505
3330.000000	95.892117
3329.000000	95.880810
3328.000000	95.869786
3327.000000	95.859405
3326.000000	95.848547
3325.000000	95.835424
3324.000000	95.819934
3323.000000	95.804091
3322.000000	95.790051
3321.000000	95.778392
3320.000000	95.768163
3319.000000	95.757840
3318.000000	95.746342
3317.000000	95.733714
3316.000000	95.720900
3315.000000	95.708598
3314.000000	95.696649
3313.000000	95.684892
3312.000000	95.673916
3311.000000	95.664223
3310.000000	95.655159
3309.000000	95.645646
3308.000000	95.635760
3307.000000	95.626462
3306.000000	95.617680
3305.000000	95.607625
3304.000000	95.594481
3303.000000	95.578482
3302.000000	95.562234
3301.000000	95.549152
3300.000000	95.541243
3299.000000	95.537715
3298.000000	95.535623
3297.000000	95.532161
3296.000000	95.526425
3295.000000	95.519014
3294.000000	95.510585
3293.000000	95.501557
3292.000000	95.492819
3291.000000	95.485686
3290.000000	95.480907
3289.000000	95.478108
3288.000000	95.476318
3287.000000	95.474842
3286.000000	95.473836
3285.000000	95.474183
3284.000000	95.476233
3283.000000	95.478285
3282.000000	95.477140
3281.000000	95.471349
3280.000000	95.463718
3279.000000	95.459381
3278.000000	95.461182
3277.000000	95.467485
3276.000000	95.474645
3275.000000	95.480940
3274.000000	95.487583
3273.000000	95.496602
3272.000000	95.508294
3271.000000	95.520536
3270.000000	95.530291
3269.000000	95.535928
3268.000000	95.538471
3267.000000	95.540808
3266.000000	95.545574
3265.000000	95.553398
3264.000000	95.562823
3263.000000	95.571914
3262.000000	95.580307
3261.000000	95.589770
3260.000000	95.602361
3259.000000	95.617856
3258.000000	95.633733
3257.000000	95.648013
3256.000000	95.661281
3255.000000	95.675288
3254.000000	95.690214
3253.000000	95.704394
3252.000000	95.716449
3251.000000	95.726548
3250.000000	95.735575
3249.000000	95.744099
3248.000000	95.752484
3247.000000	95.761175
3246.000000	95.770337
3245.000000	95.779512
3244.000000	95.788047
3243.000000	95.795724
3242.000000	95.802788
3241.000000	95.809632
3240.000000	95.816803
3239.000000	95.825365
3238.000000	95.836888
3237.000000	95.852442
3236.000000	95.870957
3235.000000	95.888865
3234.000000	95.902359
3233.000000	95.910395
3232.000000	95.914935
3231.000000	95.918039
3230.000000	95.919716
3229.000000	95.919393
3228.000000	95.918524
3227.000000	95.920305
3226.000000	95.926710
3225.000000	95.936609
3224.000000	95.946681
3223.000000	95.953758
3222.000000	95.957005
3221.000000	95.958916
3220.000000	95.963885
3219.000000	95.974178
3218.000000	95.986923
3217.000000	95.996379
3216.000000	95.999585
3215.000000	95.999216
3214.000000	96.000450
3213.000000	96.005841
3212.000000	96.013907
3211.000000	96.021843
3210.000000	96.028477
3209.000000	96.034547
3208.000000	96.041204
3207.000000	96.048896
3206.000000	96.057479
3205.000000	96.066706
3204.000000	96.076161
3203.000000	96.085008
3202.000000	96.092417
3201.000000	96.098385
3200.000000	96.103678
3199.000000	96.108818
3198.000000	96.113729
3197.000000	96.118580
3196.000000	96.124159
3195.000000	96.130773
3194.000000	96.137612
3193.000000	96.144154
3192.000000	96.151744
3191.000000	96.162584
3190.000000	96.177109
3189.000000	96.193137
3188.000000	96.207551
3187.000000	96.218265
3186.000000	96.225101
3185.000000	96.230143
3184.000000	96.237142
3183.000000	96.248975
3182.000000	96.264798
3181.000000	96.280404
3180.000000	96.292018
3179.000000	96.299316
3178.000000	96.304853
3177.000000	96.311503
3176.000000	96.321071
3175.000000	96.334177
3174.000000	96.349969
3173.000000	96.365889
3172.000000	96.378805
3171.000000	96.387150
3170.000000	96.392013
3169.000000	96.396248
3168.000000	96.402410
3167.000000	96.411062
3166.000000	96.420612
3165.000000	96.428929
3164.000000	96.435525
3163.000000	96.442212
3162.000000	96.451474
3161.000000	96.464136
3160.000000	96.478642
3159.000000	96.492556
3158.000000	96.504758
3157.000000	96.516113
3156.000000	96.528024
3155.000000	96.540477
3154.000000	96.551929
3153.000000	96.561064
3152.000000	96.568101
3151.000000	96.574098
3150.000000	96.579868
3149.000000	96.586292
3148.000000	96.594889
3147.000000	96.606542
3146.000000	96.619597
3145.000000	96.630583
3144.000000	96.637441
3143.000000	96.641425
3142.000000	96.645448
3141.000000	96.651370
3140.000000	96.659404
3139.000000	96.669354
3138.000000	96.681269
3137.000000	96.694798
3136.000000	96.708299
3135.000000	96.718882
3134.000000	96.723945
3133.000000	96.723570
3132.000000	96.721582
3131.000000	96.723035
3130.000000	96.729957
3129.000000	96.739909
3128.000000	96.749009
3127.000000	96.755735
3126.000000	96.761431
3125.000000	96.767860
3124.000000	96.775185
3123.000000	96.781983
3122.000000	96.786449
3121.000000	96.787818
3120.000000	96.787279
3119.000000	96.787333
3118.000000	96.789457
3117.000000	96.792614
3116.000000	96.794739
3115.000000	96.795474
3114.000000	96.796282
3113.000000	96.797703
3112.000000	96.797960
3111.000000	96.795299
3110.000000	96.791000
3109.000000	96.788642
3108.000000	96.790054
3107.000000	96.792873
3106.000000	96.792757
3105.000000	96.787858
3104.000000	96.780654
3103.000000	96.775422
3102.000000	96.774161
3101.000000	96.774996
3100.000000	96.774260
3099.000000	96.769913
3098.000000	96.762933
3097.000000	96.755934
3096.000000	96.751040
3095.000000	96.748967
3094.000000	96.749319
3093.000000	96.750916
3092.000000	96.751929
3091.000000	96.750575
3090.000000	96.746331
3089.000000	96.740244
3088.000000	96.733665
3087.000000	96.726886
3086.000000	96.719387
3085.000000	96.711236
3084.000000	96.703750
3083.000000	96.698667
3082.000000	96.696912
3081.000000	96.698035
3080.000000	96.700587
3079.000000	96.703066
3078.000000	96.704722
3077.000000	96.705297
3076.000000	96.704035
3075.000000	96.699804
3074.000000	96.692954
3073.000000	96.686430
3072.000000	96.683689
3071.000000	96.685357
3070.000000	96.688883
3069.000000	96.691586
3068.000000	96.692921
3067.000000	96.693511
3066.000000	96.693451
3065.000000	96.692660
3064.000000	96.691891
3063.000000	96.692098
3062.000000	96.693314
3061.000000	96.695222
3060.000000	96.698377
3059.000000	96.703680
3058.000000	96.710851
3057.000000	96.718632
3056.000000	96.726620
3055.000000	96.735825
3054.000000	96.746794
3053.000000	96.757823
3052.000000	96.765699
3051.000000	96.768490
3050.000000	96.767872
3049.000000	96.768735
3048.000000	96.775666
3047.000000	96.788983
3046.000000	96.804436
3045.000000	96.817320
3044.000000	96.826687
3043.000000	96.834950
3042.000000	96.843815
3041.000000	96.851897
3040.000000	96.856889
3039.000000	96.859256
3038.000000	96.862706
3037.000000	96.870686
3036.000000	96.882773
3035.000000	96.894922
3034.000000	96.903372
3033.000000	96.908014
3032.000000	96.911554
3031.000000	96.915797
3030.000000	96.919922
3029.000000	96.922736
3028.000000	96.925297
3027.000000	96.929952
3026.000000	96.937248
3025.000000	96.945154
3024.000000	96.951502
3023.000000	96.956238
3022.000000	96.960816
3021.000000	96.966087
3020.000000	96.971326
3019.000000	96.975026
3018.000000	96.976276
3017.000000	96.975436
3016.000000	96.973690
3015.000000	96.972038
3014.000000	96.970747
3013.000000	96.969538
3012.000000	96.967696
3011.000000	96.963843
3010.000000	96.956420
3009.000000	96.945223
3008.000000	96.932364
3007.000000	96.921116
3006.000000	96.913616
3005.000000	96.909514
3004.000000	96.906145
3003.000000	96.899741
3002.000000	96.887430
3001.000000	96.869319
3000.000000	96.848588
2999.000000	96.828808
2998.000000	96.810974
2997.000000	96.793509
2996.000000	96.774628
2995.000000	96.753819
2994.000000	96.731196
2993.000000	96.706643
2992.000000	96.680063
2991.000000	96.651633
2990.000000	96.621232
2989.000000	96.587915
2988.000000	96.550545
2987.000000	96.509058
2986.000000	96.464927
2985.000000	96.420235
2984.000000	96.375833
2983.000000	96.330151
2982.000000	96.280116
2981.000000	96.223563
2980.000000	96.160995
2979.000000	96.095046
2978.000000	96.028661
2977.000000	95.963516
2976.000000	95.898809
2975.000000	95.831013
2974.000000	95.755702
2973.000000	95.670947
2972.000000	95.578691
2971.000000	95.482148
2970.000000	95.382730
2969.000000	95.280527
2968.000000	95.177120
2967.000000	95.076090
2966.000000	94.980483
2965.000000	94.891043
2964.000000	94.807280
2963.000000	94.729611
2962.000000	94.659956
2961.000000	94.601111
2960.000000	94.555722
2959.000000	94.525230
2958.000000	94.509637
2957.000000	94.508284
2956.000000	94.520951
2955.000000	94.547250
2954.000000	94.585032
2953.000000	94.629969
2952.000000	94.676772
2951.000000	94.720659
2950.000000	94.757281
2949.000000	94.782312
2948.000000	94.791652
2947.000000	94.782687
2946.000000	94.755629
2945.000000	94.713482
2944.000000	94.660022
2943.000000	94.596689
2942.000000	94.521838
2941.000000	94.433281
2940.000000	94.331502
2939.000000	94.219884
2938.000000	94.102348
2937.000000	93.981937
2936.000000	93.861136
2935.000000	93.742599
2934.000000	93.629180
2933.000000	93.523906
2932.000000	93.429536
2931.000000	93.346876
2930.000000	93.273594
2929.000000	93.205971
2928.000000	93.143000
2927.000000	93.088391
2926.000000	93.047971
2925.000000	93.025385
2924.000000	93.020238
2923.000000	93.029971
2922.000000	93.052559
2921.000000	93.087454
2920.000000	93.134688
2919.000000	93.193902
2918.000000	93.265171
2917.000000	93.350413
2916.000000	93.452772
2915.000000	93.573122
2914.000000	93.706768
2913.000000	93.844320
2912.000000	93.976366
2911.000000	94.097911
2910.000000	94.209076
2909.000000	94.312636
2908.000000	94.411214
2907.000000	94.505796
2906.000000	94.596126
2905.000000	94.682243
2904.000000	94.765688
2903.000000	94.848875
2902.000000	94.933245
2901.000000	95.018388
2900.000000	95.102921
2899.000000	95.185642
2898.000000	95.265706
2897.000000	95.342607
2896.000000	95.416621
2895.000000	95.488674
2894.000000	95.558994
2893.000000	95.626123
2892.000000	95.687865
2891.000000	95.743145
2890.000000	95.792312
2889.000000	95.835612
2888.000000	95.871943
2887.000000	95.899416
2886.000000	95.917065
2885.000000	95.925830
2884.000000	95.927927
2883.000000	95.925089
2882.000000	95.917163
2881.000000	95.902264
2880.000000	95.878262
2879.000000	95.844309
2878.000000	95.801286
2877.000000	95.751441
2876.000000	95.697920
2875.000000	95.644565
2874.000000	95.595855
2873.000000	95.556350
2872.000000	95.529593
2871.000000	95.516742
2870.000000	95.515486
2869.000000	95.519939
2868.000000	95.522255
2867.000000	95.515829
2866.000000	95.498202
2865.000000	95.470973
2864.000000	95.436294
2863.000000	95.393761
2862.000000	95.341228
2861.000000	95.278596
2860.000000	95.209772
2859.000000	95.140856
2858.000000	95.077276
2857.000000	95.022850
2856.000000	94.980162
2855.000000	94.950579
2854.000000	94.935126
2853.000000	94.936598
2852.000000	94.960600
2851.000000	95.013382
2850.000000	95.098054
2849.000000	95.212923
2848.000000	95.352464
2847.000000	95.508523
2846.000000	95.671033
2845.000000	95.829793
2844.000000	95.976911
2843.000000	96.108253
2842.000000	96.222794
2841.000000	96.321242
2840.000000	96.405687
2839.000000	96.479348
2838.000000	96.545442
2837.000000	96.605684
2836.000000	96.659613
2835.000000	96.705573
2834.000000	96.743019
2833.000000	96.774179
2832.000000	96.803009
2831.000000	96.831852
2830.000000	96.859609
2829.000000	96.883931
2828.000000	96.904443
2827.000000	96.922736
2826.000000	96.939814
2825.000000	96.955286
2824.000000	96.969268
2823.000000	96.983277
2822.000000	96.998421
2821.000000	97.013830
2820.000000	97.027826
2819.000000	97.040097
2818.000000	97.051992
2817.000000	97.065090
2816.000000	97.079851
2815.000000	97.095138
2814.000000	97.108777
2813.000000	97.119294
2812.000000	97.127596
2811.000000	97.136476
2810.000000	97.148067
2809.000000	97.162183
2808.000000	97.177308
2807.000000	97.192254
2806.000000	97.206290
2805.000000	97.218564
2804.000000	97.228455
2803.000000	97.236274
2802.000000	97.242943
2801.000000	97.249239
2800.000000	97.255805
2799.000000	97.263401
2798.000000	97.272302
2797.000000	97.281584
2796.000000	97.289706
2795.000000	97.295852
2794.000000	97.300330
2793.000000	97.303906
2792.000000	97.307347
2791.000000	97.311596
2790.000000	97.317732
2789.000000	97.326357
2788.000000	97.337080
2787.000000	97.348609
2786.000000	97.359304
2785.000000	97.367897
2784.000000	97.374133
2783.000000	97.378924
2782.000000	97.383726
2781.000000	97.389577
2780.000000	97.396509
2779.000000	97.403742
2778.000000	97.410368
2777.000000	97.415888
2776.000000	97.420113
2775.000000	97.422742
2774.000000	97.423551
2773.000000	97.423376
2772.000000	97.424397
2771.000000	97.428564
2770.000000	97.435530
2769.000000	97.442735
2768.000000	97.447902
2767.000000	97.451244
2766.000000	97.455050
2765.000000	97.461181
2764.000000	97.469025
2763.000000	97.475778
2762.000000	97.478950
2761.000000	97.478852
2760.000000	97.478481
2759.000000	97.480683
2758.000000	97.485672
2757.000000	97.491557
2756.000000	97.496721
2755.000000	97.500940
2754.000000	97.504603
2753.000000	97.508069
2752.000000	97.511954
2751.000000	97.516935
2750.000000	97.522598
2749.000000	97.527138
2748.000000	97.528848
2747.000000	97.527688
2746.000000	97.525175
2745.000000	97.523227
2744.000000	97.523407
2743.000000	97.526570
2742.000000	97.532350
2741.000000	97.538961
2740.000000	97.544122
2739.000000	97.546535
2738.000000	97.546579
2737.000000	97.545776
2736.000000	97.545728
2735.000000	97.547367
2734.000000	97.550798
2733.000000	97.555505
2732.000000	97.560551
2731.000000	97.564746
2730.000000	97.567223
2729.000000	97.568354
2728.000000	97.569934
2727.000000	97.573920
2726.000000	97.580804
2725.000000	97.589349
2724.000000	97.597763
2723.000000	97.604721
2722.000000	97.609418
2721.000000	97.611542
2720.000000	97.611865
2719.000000	97.612409
2718.000000	97.615139
2717.000000	97.620076
2716.000000	97.625025
2715.000000	97.627567
2714.000000	97.627368
2713.000000	97.626276
2712.000000	97.626268
2711.000000	97.627810
2710.000000	97.630374
2709.000000	97.633642
2708.000000	97.637314
2707.000000	97.640367
2706.000000	97.642005
2705.000000	97.643376
2704.000000	97.646789
2703.000000	97.652565
2702.000000	97.658039
2701.000000	97.660727
2700.000000	97.661416
2699.000000	97.662802
2698.000000	97.665902
2697.000000	97.669332
2696.000000	97.671692
2695.000000	97.673062
2694.000000	97.674011
2693.000000	97.674555
2692.000000	97.674619
2691.000000	97.674584
2690.000000	97.674892
2689.000000	97.675547
2688.000000	97.676244
2687.000000	97.676611
2686.000000	97.676365
2685.000000	97.675667
2684.000000	97.675191
2683.000000	97.675360
2682.000000	97.675867
2681.000000	97.676559
2680.000000	97.678326
2679.000000	97.682117
2678.000000	97.687278
2677.000000	97.691875
2676.000000	97.694653
2675.000000	97.695739
2674.000000	97.695555
2673.000000	97.694308
2672.000000	97.692799
2671.000000	97.692378
2670.000000	97.693364
2669.000000	97.694359
2668.000000	97.693914
2667.000000	97.692359
2666.000000	97.691305
2665.000000	97.691751
2664.000000	97.693364
2663.000000	97.695445
2662.000000	97.697787
2661.000000	97.700261
2660.000000	97.701974
2659.000000	97.701523
2658.000000	97.698485
2657.000000	97.694403
2656.000000	97.691768
2655.000000	97.692021
2654.000000	97.695104
2653.000000	97.700784
2652.000000	97.709067
2651.000000	97.718785
2650.000000	97.727133
2649.000000	97.732054
2648.000000	97.734527
2647.000000	97.737257
2646.000000	97.741499
2645.000000	97.746399
2644.000000	97.750980
2643.000000	97.755082
2642.000000	97.758396
2641.000000	97.760202
2640.000000	97.760719
2639.000000	97.761727
2638.000000	97.765209
2637.000000	97.771706
2636.000000	97.779833
2635.000000	97.786816
2634.000000	97.790079
2633.000000	97.789577
2632.000000	97.788465
2631.000000	97.790290
2630.000000	97.795580
2629.000000	97.802320
2628.000000	97.809391
2627.000000	97.817736
2626.000000	97.827781
2625.000000	97.837293
2624.000000	97.842725
2623.000000	97.842021
2622.000000	97.836063
2621.000000	97.828402
2620.000000	97.823638
2619.000000	97.824729
2618.000000	97.831141
2617.000000	97.839890
2616.000000	97.848087
2615.000000	97.854008
2614.000000	97.857108
2613.000000	97.858986
2612.000000	97.863554
2611.000000	97.873331
2610.000000	97.885214
2609.000000	97.892485
2608.000000	97.892039
2607.000000	97.887882
2606.000000	97.886522
2605.000000	97.890756
2604.000000	97.898793
2603.000000	97.907159
2602.000000	97.912660
2601.000000	97.913051
2600.000000	97.908261
2599.000000	97.901134
2598.000000	97.895806
2597.000000	97.895096
2596.000000	97.899381
2595.000000	97.906949
2594.000000	97.914657
2593.000000	97.919075
2592.000000	97.918487
2591.000000	97.914470
2590.000000	97.911454
2589.000000	97.914059
2588.000000	97.923574
2587.000000	97.936304
2586.000000	97.946187
2585.000000	97.949909
2584.000000	97.948958
2583.000000	97.946140
2582.000000	97.941792
2581.000000	97.935253
2580.000000	97.928461
2579.000000	97.925113
2578.000000	97.926220
2577.000000	97.928993
2576.000000	97.930587
2575.000000	97.931153
2574.000000	97.932839
2573.000000	97.937372
2572.000000	97.944901
2571.000000	97.953709
2570.000000	97.961122
2569.000000	97.966155
2568.000000	97.970987
2567.000000	97.977978
2566.000000	97.985646
2565.000000	97.989909
2564.000000	97.989583
2563.000000	97.988274
2562.000000	97.990012
2561.000000	97.994805
2560.000000	97.999174
2559.000000	97.999922
2558.000000	97.996999
2557.000000	97.993653
2556.000000	97.993591
2555.000000	97.996895
2554.000000	97.999391
2553.000000	97.997463
2552.000000	97.992409
2551.000000	97.988197
2550.000000	97.986205
2549.000000	97.984875
2548.000000	97.983396
2547.000000	97.982252
2546.000000	97.980461
2545.000000	97.976019
2544.000000	97.969705
2543.000000	97.965225
2542.000000	97.964629
2541.000000	97.966075
2540.000000	97.966849
2539.000000	97.966257
2538.000000	97.965191
2537.000000	97.965480
2536.000000	97.969996
2535.000000	97.980215
2534.000000	97.992629
2533.000000	98.000245
2532.000000	97.998758
2531.000000	97.989395
2530.000000	97.975493
2529.000000	97.959587
2528.000000	97.944760
2527.000000	97.935139
2526.000000	97.932348
2525.000000	97.933188
2524.000000	97.932828
2523.000000	97.929409
2522.000000	97.924932
2521.000000	97.923056
2520.000000	97.926396
2519.000000	97.934062
2518.000000	97.941048
2517.000000	97.941877
2516.000000	97.935761
2515.000000	97.926985
2514.000000	97.920567
2513.000000	97.919431
2512.000000	97.924848
2511.000000	97.936006
2510.000000	97.948655
2509.000000	97.957824
2508.000000	97.963231
2507.000000	97.969087
2506.000000	97.977541
2505.000000	97.985742
2504.000000	97.991038
2503.000000	97.995738
2502.000000	98.003991
2501.000000	98.016086
2500.000000	98.028280
2499.000000	98.036490
2498.000000	98.038610
2497.000000	98.035223
2496.000000	98.030007
2495.000000	98.027695
2494.000000	98.029677
2493.000000	98.033252
2492.000000	98.036587
2491.000000	98.041868
2490.000000	98.051238
2489.000000	98.062013
2488.000000	98.069606
2487.000000	98.074162
2486.000000	98.080640
2485.000000	98.091990
2484.000000	98.104867
2483.000000	98.113388
2482.000000	98.115689
2481.000000	98.115481
2480.000000	98.117609
2479.000000	98.122544
2478.000000	98.125486
2477.000000	98.121296
2476.000000	98.110201
2475.000000	98.098398
2474.000000	98.092986
2473.000000	98.096632
2472.000000	98.106687
2471.000000	98.118270
2470.000000	98.127925
2469.000000	98.134973
2468.000000	98.139989
2467.000000	98.142634
2466.000000	98.142152
2465.000000	98.140159
2464.000000	98.140789
2463.000000	98.146304
2462.000000	98.153936
2461.000000	98.159033
2460.000000	98.160362
2459.000000	98.160135
2458.000000	98.159943
2457.000000	98.159526
2456.000000	98.158898
2455.000000	98.158713
2454.000000	98.158717
2453.000000	98.158765
2452.000000	98.161121
2451.000000	98.168292
2450.000000	98.178048
2449.000000	98.184228
2448.000000	98.183932
2447.000000	98.181097
2446.000000	98.181299
2445.000000	98.185398
2444.000000	98.189920
2443.000000	98.191498
2442.000000	98.189272
2441.000000	98.184575
2440.000000	98.180020
2439.000000	98.177959
2438.000000	98.178481
2437.000000	98.179347
2436.000000	98.178314
2435.000000	98.174828
2434.000000	98.169752
2433.000000	98.164944
2432.000000	98.163051
2431.000000	98.165869
2430.000000	98.172442
2429.000000	98.179785
2428.000000	98.185240
2427.000000	98.187100
2426.000000	98.184201
2425.000000	98.177401
2424.000000	98.170817
2423.000000	98.168677
2422.000000	98.170634
2421.000000	98.172577
2420.000000	98.171965
2419.000000	98.169854
2418.000000	98.167978
2417.000000	98.167071
2416.000000	98.168371
2415.000000	98.173284
2414.000000	98.180231
2413.000000	98.184835
2412.000000	98.185151
2411.000000	98.184590
2410.000000	98.187961
2409.000000	98.196119
2408.000000	98.205627
2407.000000	98.212191
2406.000000	98.213306
2405.000000	98.209054
2404.000000	98.201956
2403.000000	98.195489
2402.000000	98.191982
2401.000000	98.192047
2400.000000	98.195242
2399.000000	98.199897
2398.000000	98.202772
2397.000000	98.200943
2396.000000	98.194478
2395.000000	98.186173
2394.000000	98.178970
2393.000000	98.175005
2392.000000	98.176245
2391.000000	98.183527
2390.000000	98.194919
2389.000000	98.207216
2388.000000	98.219342
2387.000000	98.232086
2386.000000	98.244759
2385.000000	98.254494
2384.000000	98.259886
2383.000000	98.263719
2382.000000	98.270471
2381.000000	98.282217
2380.000000	98.296415
2379.000000	98.306598
2378.000000	98.306300
2377.000000	98.294527
2376.000000	98.277781
2375.000000	98.264590
2374.000000	98.258516
2373.000000	98.258197
2372.000000	98.262576
2371.000000	98.271564
2370.000000	98.282324
2369.000000	98.289874
2368.000000	98.291506
2367.000000	98.288156
2366.000000	98.281559
2365.000000	98.273261
2364.000000	98.265452
2363.000000	98.258535
2362.000000	98.250126
2361.000000	98.240134
2360.000000	98.233522
2359.000000	98.235191
2358.000000	98.243694
2357.000000	98.253257
2356.000000	98.258601
2355.000000	98.257606
2354.000000	98.253338
2353.000000	98.250154
2352.000000	98.249022
2351.000000	98.248465
2350.000000	98.247301
2349.000000	98.244728
2348.000000	98.241303
2347.000000	98.239373
2346.000000	98.237919
2345.000000	98.232055
2344.000000	98.222674
2343.000000	98.217433
2342.000000	98.219673
2341.000000	98.224817
2340.000000	98.226713
2339.000000	98.223090
2338.000000	98.216094
2337.000000	98.209395
2336.000000	98.206185
2335.000000	98.207918
2334.000000	98.213664
2333.000000	98.219764
2332.000000	98.222098
2331.000000	98.220332
2330.000000	98.217130
2329.000000	98.212474
2328.000000	98.201135
2327.000000	98.178980
2326.000000	98.150130
2325.000000	98.126309
2324.000000	98.119059
2323.000000	98.130265
2322.000000	98.149785
2321.000000	98.163976
2320.000000	98.167630
2319.000000	98.165529
2318.000000	98.163829
2317.000000	98.164383
2316.000000	98.166869
2315.000000	98.171722
2314.000000	98.179226
2313.000000	98.189443
2312.000000	98.203462
2311.000000	98.221568
2310.000000	98.239148
2309.000000	98.248755
2308.000000	98.248328
2307.000000	98.243664
2306.000000	98.241179
2305.000000	98.241750
2304.000000	98.243489
2303.000000	98.245681
2302.000000	98.247271
2301.000000	98.245283
2300.000000	98.239207
2299.000000	98.234141
2298.000000	98.235222
2297.000000	98.240428
2296.000000	98.241770
2295.000000	98.233689
2294.000000	98.218010
2293.000000	98.201934
2292.000000	98.192760
2291.000000	98.193322
2290.000000	98.200037
2289.000000	98.205626
2288.000000	98.205305
2287.000000	98.200226
2286.000000	98.194866
2285.000000	98.192689
2284.000000	98.195209
2283.000000	98.202985
2282.000000	98.215814
2281.000000	98.232092
2280.000000	98.248241
2279.000000	98.258181
2278.000000	98.255471
2277.000000	98.239701
2276.000000	98.220234
2275.000000	98.209877
2274.000000	98.214412
2273.000000	98.230518
2272.000000	98.251960
2271.000000	98.273361
2270.000000	98.289460
2269.000000	98.297298
2268.000000	98.300348
2267.000000	98.305099
2266.000000	98.312209
2265.000000	98.315815
2264.000000	98.312173
2263.000000	98.303628
2262.000000	98.293427
2261.000000	98.282483
2260.000000	98.272622
2259.000000	98.267749
2258.000000	98.270292
2257.000000	98.280331
2256.000000	98.297740
2255.000000	98.319790
2254.000000	98.337499
2253.000000	98.341957
2252.000000	98.335582
2251.000000	98.330515
2250.000000	98.334928
2249.000000	98.346495
2248.000000	98.358415
2247.000000	98.364667
2246.000000	98.360112
2245.000000	98.344453
2244.000000	98.326937
2243.000000	98.318600
2242.000000	98.319254
2241.000000	98.320578
2240.000000	98.321546
2239.000000	98.329613
2238.000000	98.345238
2237.000000	98.357924
2236.000000	98.362190
2235.000000	98.366204
2234.000000	98.378254
2233.000000	98.394084
2232.000000	98.403886
2231.000000	98.403811
2230.000000	98.395284
2229.000000	98.381105
2228.000000	98.367758
2227.000000	98.363923
2226.000000	98.371549
2225.000000	98.384561
2224.000000	98.399193
2223.000000	98.417184
2222.000000	98.435702
2221.000000	98.444347
2220.000000	98.438315
2219.000000	98.426249
2218.000000	98.419626
2217.000000	98.421924
2216.000000	98.431355
2215.000000	98.444936
2214.000000	98.455687
2213.000000	98.456069
2212.000000	98.450594
2211.000000	98.455291
2210.000000	98.476916
2209.000000	98.500729
2208.000000	98.507172
2207.000000	98.495186
2206.000000	98.481122
2205.000000	98.477833
2204.000000	98.481207
2203.000000	98.476837
2202.000000	98.457791
2201.000000	98.435722
2200.000000	98.430810
2199.000000	98.447755
2198.000000	98.468130
2197.000000	98.473584
2196.000000	98.469526
2195.000000	98.473935
2194.000000	98.489642
2193.000000	98.503417
2192.000000	98.508834
2191.000000	98.512049
2190.000000	98.515308
2189.000000	98.513694
2188.000000	98.509457
2187.000000	98.511204
2186.000000	98.516620
2185.000000	98.515031
2184.000000	98.511051
2183.000000	98.524844
2182.000000	98.560670
2181.000000	98.593819
2180.000000	98.598650
2179.000000	98.574545
2178.000000	98.538595
2177.000000	98.510948
2176.000000	98.510864
2175.000000	98.544394
2174.000000	98.586197
2173.000000	98.592061
2172.000000	98.543208
2171.000000	98.467593
2170.000000	98.412168
2169.000000	98.404268
2168.000000	98.438121
2167.000000	98.485277
2166.000000	98.515322
2165.000000	98.518686
2164.000000	98.512961
2163.000000	98.515550
2162.000000	98.518059
2161.000000	98.509132
2160.000000	98.512937
2159.000000	98.566162
2158.000000	98.651464
2157.000000	98.705760
2156.000000	98.703431
2155.000000	98.678228
2154.000000	98.665506
2153.000000	98.667890
2152.000000	98.673504
2151.000000	98.673513
2150.000000	98.659857
2149.000000	98.632345
2148.000000	98.610800
2147.000000	98.615346
2146.000000	98.632801
2145.000000	98.627863
2144.000000	98.591142
2143.000000	98.549786
2142.000000	98.526763
2141.000000	98.516445
2140.000000	98.507024
2139.000000	98.502718
2138.000000	98.511166
2137.000000	98.526748
2136.000000	98.538403
2135.000000	98.541410
2134.000000	98.533909
2133.000000	98.515454
2132.000000	98.495408
2131.000000	98.488410
2130.000000	98.494823
2129.000000	98.497550
2128.000000	98.484543
2127.000000	98.464766
2126.000000	98.455914
2125.000000	98.463547
2124.000000	98.477081
2123.000000	98.480076
2122.000000	98.461765
2121.000000	98.425750
2120.000000	98.390004
2119.000000	98.371494
2118.000000	98.369227
2117.000000	98.368543
2116.000000	98.361155
2115.000000	98.351679
2114.000000	98.344620
2113.000000	98.337430
2112.000000	98.329293
2111.000000	98.324715
2110.000000	98.323428
2109.000000	98.317709
2108.000000	98.305557
2107.000000	98.296980
2106.000000	98.301208
2105.000000	98.316247
2104.000000	98.335976
2103.000000	98.358117
2102.000000	98.379345
2101.000000	98.391625
2100.000000	98.390504
2099.000000	98.381278
2098.000000	98.373162
2097.000000	98.373564
2096.000000	98.388377
2095.000000	98.416573
2094.000000	98.442658
2093.000000	98.447343
2092.000000	98.430038
2091.000000	98.409274
2090.000000	98.398407
2089.000000	98.393151
2088.000000	98.386587
2087.000000	98.382985
2086.000000	98.388404
2085.000000	98.398606
2084.000000	98.405039
2083.000000	98.405026
2082.000000	98.399006
2081.000000	98.385849
2080.000000	98.367961
2079.000000	98.353472
2078.000000	98.347121
2077.000000	98.345653
2076.000000	98.346923
2075.000000	98.354604
2074.000000	98.369741
2073.000000	98.386769
2072.000000	98.402466
2071.000000	98.419442
2070.000000	98.435809
2069.000000	98.443133
2068.000000	98.440790
2067.000000	98.440564
2066.000000	98.450255
2065.000000	98.462646
2064.000000	98.466714
2063.000000	98.460604
2062.000000	98.449297
2061.000000	98.441066
2060.000000	98.448121
2059.000000	98.475600
2058.000000	98.507817
2057.000000	98.522037
2056.000000	98.518898
2055.000000	98.519636
2054.000000	98.528240
2053.000000	98.521289
2052.000000	98.487238
2051.000000	98.451821
2050.000000	98.447047
2049.000000	98.469102
2048.000000	98.486538
2047.000000	98.483895
2046.000000	98.474737
2045.000000	98.476542
2044.000000	98.492638
2043.000000	98.513450
2042.000000	98.522308
2041.000000	98.508773
2040.000000	98.485754
2039.000000	98.479646
2038.000000	98.498027
2037.000000	98.524532
2036.000000	98.549225
2035.000000	98.581120
2034.000000	98.621537
2033.000000	98.653592
2032.000000	98.673240
2031.000000	98.698595
2030.000000	98.731744
2029.000000	98.744274
2028.000000	98.721873
2027.000000	98.693085
2026.000000	98.692475
2025.000000	98.720676
2024.000000	98.754804
2023.000000	98.773443
2022.000000	98.757339
2021.000000	98.697204
2020.000000	98.620882
2019.000000	98.581773
2018.000000	98.600024
2017.000000	98.636300
2016.000000	98.642636
2015.000000	98.616169
2014.000000	98.583370
2013.000000	98.565003
2012.000000	98.576353
2011.000000	98.629192
2010.000000	98.710438
2009.000000	98.779424
2008.000000	98.808804
2007.000000	98.809141
2006.000000	98.795652
2005.000000	98.762214
2004.000000	98.708164
2003.000000	98.659104
2002.000000	98.636091
2001.000000	98.627080
2000.000000	98.607715
1999.000000	98.574716
1998.000000	98.545320
1997.000000	98.535066
1996.000000	98.549232
1995.000000	98.584423
1994.000000	98.625841
1993.000000	98.651316
1992.000000	98.651646
1991.000000	98.639162
1990.000000	98.625187
1989.000000	98.604635
1988.000000	98.572929
1987.000000	98.540711
1986.000000	98.522347
1985.000000	98.523564
1984.000000	98.543733
1983.000000	98.574230
1982.000000	98.590240
1981.000000	98.569249
1980.000000	98.528402
1979.000000	98.519140
1978.000000	98.569804
1977.000000	98.649898
1976.000000	98.710604
1975.000000	98.738170
1974.000000	98.745206
1973.000000	98.741027
1972.000000	98.733001
1971.000000	98.729685
1970.000000	98.726477
1969.000000	98.709030
1968.000000	98.681884
1967.000000	98.672688
1966.000000	98.695798
1965.000000	98.733022
1964.000000	98.760609
1963.000000	98.772231
1962.000000	98.769882
1961.000000	98.756560
1960.000000	98.742030
1959.000000	98.734155
1958.000000	98.723041
1957.000000	98.695016
1956.000000	98.661022
1955.000000	98.645648
1954.000000	98.650570
1953.000000	98.654559
1952.000000	98.651300
1951.000000	98.659813
1950.000000	98.688449
1949.000000	98.718785
1948.000000	98.735457
1947.000000	98.744770
1946.000000	98.752435
1945.000000	98.747391
1944.000000	98.722787
1943.000000	98.693910
1942.000000	98.679424
1941.000000	98.679610
1940.000000	98.685656
1939.000000	98.692723
1938.000000	98.693370
1937.000000	98.677170
1936.000000	98.648815
1935.000000	98.629907
1934.000000	98.632754
1933.000000	98.644437
1932.000000	98.646708
1931.000000	98.638860
1930.000000	98.626833
1929.000000	98.612800
1928.000000	98.602479
1927.000000	98.607782
1926.000000	98.630911
1925.000000	98.655303
1924.000000	98.668866
1923.000000	98.678873
1922.000000	98.692759
1921.000000	98.700596
1920.000000	98.689378
1919.000000	98.664049
1918.000000	98.640313
1917.000000	98.624109
1916.000000	98.613372
1915.000000	98.609886
1914.000000	98.617563
1913.000000	98.633854
1912.000000	98.651753
1911.000000	98.667643
1910.000000	98.677480
1909.000000	98.676238
1908.000000	98.665313
1907.000000	98.654840
1906.000000	98.651794
1905.000000	98.650391
1904.000000	98.646093
1903.000000	98.643503
1902.000000	98.644432
1901.000000	98.643580
1900.000000	98.639077
1899.000000	98.638613
1898.000000	98.648353
1897.000000	98.661876
1896.000000	98.671484
1895.000000	98.679923
1894.000000	98.691445
1893.000000	98.700995
1892.000000	98.701064
1891.000000	98.692350
1890.000000	98.680391
1889.000000	98.668229
1888.000000	98.658975
1887.000000	98.656831
1886.000000	98.661314
1885.000000	98.667183
1884.000000	98.672092
1883.000000	98.678133
1882.000000	98.683190
1881.000000	98.682498
1880.000000	98.679071
1879.000000	98.682162
1878.000000	98.694077
1877.000000	98.703886
1876.000000	98.702340
1875.000000	98.696319
1874.000000	98.697314
1873.000000	98.705547
1872.000000	98.715009
1871.000000	98.725466
1870.000000	98.740604
1869.000000	98.756037
1868.000000	98.762331
1867.000000	98.758891
1866.000000	98.748775
1865.000000	98.730767
1864.000000	98.706362
1863.000000	98.682844
1862.000000	98.665422
1861.000000	98.653620
1860.000000	98.648014
1859.000000	98.652436
1858.000000	98.665622
1857.000000	98.678874
1856.000000	98.685759
1855.000000	98.689461
1854.000000	98.692636
1853.000000	98.693627
1852.000000	98.692181
1851.000000	98.689372
1850.000000	98.689627
1849.000000	98.697858
1848.000000	98.716290
1847.000000	98.739878
1846.000000	98.756862
1845.000000	98.759793
1844.000000	98.753891
1843.000000	98.748874
1842.000000	98.742266
1841.000000	98.726098
1840.000000	98.703820
1839.000000	98.689167
1838.000000	98.687173
1837.000000	98.687269
1836.000000	98.685878
1835.000000	98.694811
1834.000000	98.718437
1833.000000	98.743462
1832.000000	98.754589
1831.000000	98.753852
1830.000000	98.757151
1829.000000	98.765035
1828.000000	98.761075
1827.000000	98.737193
1826.000000	98.705110
1825.000000	98.683646
1824.000000	98.678712
1823.000000	98.682254
1822.000000	98.684958
1821.000000	98.684896
1820.000000	98.684855
1819.000000	98.688665
1818.000000	98.697402
1817.000000	98.706396
1816.000000	98.714819
1815.000000	98.725108
1814.000000	98.734834
1813.000000	98.735605
1812.000000	98.721429
1811.000000	98.701183
1810.000000	98.686120
1809.000000	98.673825
1808.000000	98.658331
1807.000000	98.642060
1806.000000	98.630231
1805.000000	98.619274
1804.000000	98.602898
1803.000000	98.579415
1802.000000	98.552660
1801.000000	98.527913
1800.000000	98.506166
1799.000000	98.489309
1798.000000	98.479779
1797.000000	98.479365
1796.000000	98.489584
1795.000000	98.506225
1794.000000	98.521454
1793.000000	98.533197
1792.000000	98.546228
1791.000000	98.566707
1790.000000	98.591857
1789.000000	98.611165
1788.000000	98.619648
1787.000000	98.623395
1786.000000	98.632969
1785.000000	98.651141
1784.000000	98.674360
1783.000000	98.692453
1782.000000	98.696477
1781.000000	98.690743
1780.000000	98.684890
1779.000000	98.688356
1778.000000	98.701280
1777.000000	98.721043
1776.000000	98.746916
1775.000000	98.770801
1774.000000	98.781991
1773.000000	98.780440
1772.000000	98.771717
1771.000000	98.753580
1770.000000	98.715694
1769.000000	98.651502
1768.000000	98.580606
1767.000000	98.535647
1766.000000	98.520771
1765.000000	98.505014
1764.000000	98.458740
1763.000000	98.378687
1762.000000	98.281374
1761.000000	98.178878
1760.000000	98.065336
1759.000000	97.923937
1758.000000	97.731217
1757.000000	97.483974
1756.000000	97.218676
1755.000000	96.975241
1754.000000	96.743030
1753.000000	96.474735
1752.000000	96.140468
1751.000000	95.764090
1750.000000	95.393321
1749.000000	95.040722
1748.000000	94.711143
1747.000000	94.426089
1746.000000	94.192487
1745.000000	93.994769
1744.000000	93.828715
1743.000000	93.711440
1742.000000	93.642692
1741.000000	93.596533
1740.000000	93.576361
1739.000000	93.622228
1738.000000	93.729920
1737.000000	93.851989
1736.000000	93.968342
1735.000000	94.134720
1734.000000	94.406096
1733.000000	94.705016
1732.000000	94.946622
1731.000000	95.156612
1730.000000	95.378169
1729.000000	95.618203
1728.000000	95.862965
1727.000000	96.100284
1726.000000	96.328843
1725.000000	96.548431
1724.000000	96.759672
1723.000000	96.968856
1722.000000	97.167942
1721.000000	97.337239
1720.000000	97.472207
1719.000000	97.598220
1718.000000	97.738935
1717.000000	97.860162
1716.000000	97.920733
1715.000000	97.938129
1714.000000	97.939397
1713.000000	97.928883
1712.000000	97.911805
1711.000000	97.901827
1710.000000	97.905534
1709.000000	97.915286
1708.000000	97.914373
1707.000000	97.891965
1706.000000	97.855681
1705.000000	97.825369
1704.000000	97.814996
1703.000000	97.805550
1702.000000	97.754341
1701.000000	97.646465
1700.000000	97.539765
1699.000000	97.487214
1698.000000	97.434808
1697.000000	97.294124
1696.000000	97.073419
1695.000000	96.877747
1694.000000	96.758611
1693.000000	96.668486
1692.000000	96.568861
1691.000000	96.465376
1690.000000	96.372757
1689.000000	96.301880
1688.000000	96.256596
1687.000000	96.221224
1686.000000	96.158490
1685.000000	96.022997
1684.000000	95.833717
1683.000000	95.670512
1682.000000	95.540940
1681.000000	95.401626
1680.000000	95.259688
1679.000000	95.143505
1678.000000	95.047368
1677.000000	94.931971
1676.000000	94.783500
1675.000000	94.641028
1674.000000	94.538781
1673.000000	94.454669
1672.000000	94.349277
1671.000000	94.212210
1670.000000	94.045358
1669.000000	93.859356
1668.000000	93.684537
1667.000000	93.544641
1666.000000	93.429493
1665.000000	93.306055
1664.000000	93.154092
1663.000000	92.986656
1662.000000	92.826158
1661.000000	92.676968
1660.000000	92.531986
1659.000000	92.400197
1658.000000	92.301362
1657.000000	92.242258
1656.000000	92.199692
1655.000000	92.136789
1654.000000	92.020378
1653.000000	91.854783
1652.000000	91.721992
1651.000000	91.659556
1650.000000	91.620137
1649.000000	91.574358
1648.000000	91.517475
1647.000000	91.463968
1646.000000	91.429195
1645.000000	91.403290
1644.000000	91.378268
1643.000000	91.361161
1642.000000	91.357993
1641.000000	91.374967
1640.000000	91.412698
1639.000000	91.466004
1638.000000	91.520556
1637.000000	91.559897
1636.000000	91.581048
1635.000000	91.595084
1634.000000	91.610356
1633.000000	91.620529
1632.000000	91.629845
1631.000000	91.653659
1630.000000	91.702222
1629.000000	91.775371
1628.000000	91.869592
1627.000000	91.976787
1626.000000	92.083562
1625.000000	92.184119
1624.000000	92.290550
1623.000000	92.418476
1622.000000	92.556944
1621.000000	92.685485
1620.000000	92.800372
1619.000000	92.910007
1618.000000	93.027667
1617.000000	93.165921
1616.000000	93.313326
1615.000000	93.437362
1614.000000	93.527326
1613.000000	93.601352
1612.000000	93.687128
1611.000000	93.797170
1610.000000	93.917204
1609.000000	94.028494
1608.000000	94.129781
1607.000000	94.226057
1606.000000	94.313640
1605.000000	94.392001
1604.000000	94.465019
1603.000000	94.532216
1602.000000	94.587956
1601.000000	94.631645
1600.000000	94.671714
1599.000000	94.713242
1598.000000	94.752897
1597.000000	94.788156
1596.000000	94.823077
1595.000000	94.859235
1594.000000	94.888729
1593.000000	94.905573
1592.000000	94.915105
1591.000000	94.924429
1590.000000	94.931348
1589.000000	94.931223
1588.000000	94.924987
1587.000000	94.915714
1586.000000	94.900206
1585.000000	94.877670
1584.000000	94.853656
1583.000000	94.826830
1582.000000	94.794941
1581.000000	94.768163
1580.000000	94.760249
1579.000000	94.765419
1578.000000	94.760228
1577.000000	94.722351
1576.000000	94.658688
1575.000000	94.597670
1574.000000	94.548939
1573.000000	94.505742
1572.000000	94.461755
1571.000000	94.413032
1570.000000	94.351355
1569.000000	94.278417
1568.000000	94.208556
1567.000000	94.139910
1566.000000	94.059361
1565.000000	93.973980
1564.000000	93.911994
1563.000000	93.886541
1562.000000	93.878248
1561.000000	93.853203
1560.000000	93.783300
1559.000000	93.636502
1558.000000	93.452663
1557.000000	93.293161
1556.000000	93.139956
1555.000000	92.981010
1554.000000	92.832009
1553.000000	92.707186
1552.000000	92.594191
1551.000000	92.478541
1550.000000	92.365180
1549.000000	92.265306
1548.000000	92.183515
1547.000000	92.111527
1546.000000	92.046328
1545.000000	91.998904
1544.000000	91.978349
1543.000000	91.978673
1542.000000	91.977840
1541.000000	91.941728
1540.000000	91.864288
1539.000000	91.786258
1538.000000	91.734697
1537.000000	91.697650
1536.000000	91.666887
1535.000000	91.647072
1534.000000	91.649543
1533.000000	91.668984
1532.000000	91.683960
1531.000000	91.692944
1530.000000	91.704394
1529.000000	91.718425
1528.000000	91.736570
1527.000000	91.767886
1526.000000	91.818925
1525.000000	91.879228
1524.000000	91.926603
1523.000000	91.949187
1522.000000	91.952715
1521.000000	91.949626
1520.000000	91.946847
1519.000000	91.939904
1518.000000	91.920700
1517.000000	91.890969
1516.000000	91.867516
1515.000000	91.862611
1514.000000	91.871735
1513.000000	91.891383
1512.000000	91.932702
1511.000000	92.006856
1510.000000	92.105262
1509.000000	92.205859
1508.000000	92.293771
1507.000000	92.360454
1506.000000	92.390321
1505.000000	92.388556
1504.000000	92.377054
1503.000000	92.370370
1502.000000	92.375653
1501.000000	92.395079
1500.000000	92.425880
1499.000000	92.460654
1498.000000	92.485778
1497.000000	92.486396
1496.000000	92.473744
1495.000000	92.478144
1494.000000	92.500223
1493.000000	92.516657
1492.000000	92.516697
1491.000000	92.512315
1490.000000	92.508720
1489.000000	92.485397
1488.000000	92.432885
1487.000000	92.371672
1486.000000	92.310856
1485.000000	92.244015
1484.000000	92.169472
1483.000000	92.087220
1482.000000	91.996340
1481.000000	91.894490
1480.000000	91.788787
1479.000000	91.686500
1478.000000	91.583697
1477.000000	91.472299
1476.000000	91.357996
1475.000000	91.245181
1474.000000	91.102399
1473.000000	90.883447
1472.000000	90.607052
1471.000000	90.352009
1470.000000	90.145810
1469.000000	89.964912
1468.000000	89.799254
1467.000000	89.652836
1466.000000	89.517741
1465.000000	89.382781
1464.000000	89.257909
1463.000000	89.163613
1462.000000	89.098799
1461.000000	89.048729
1460.000000	89.001492
1459.000000	88.936908
1458.000000	88.809709
1457.000000	88.599695
1456.000000	88.394346
1455.000000	88.263936
1454.000000	88.173299
1453.000000	88.087483
1452.000000	88.011329
1451.000000	87.956561
1450.000000	87.911646
1449.000000	87.853643
1448.000000	87.786853
1447.000000	87.731990
1446.000000	87.688316
1445.000000	87.643471
1444.000000	87.592018
1443.000000	87.539817
1442.000000	87.490951
1441.000000	87.444801
1440.000000	87.399434
1439.000000	87.346784
1438.000000	87.270480
1437.000000	87.162589
1436.000000	87.055236
1435.000000	86.986341
1434.000000	86.946963
1433.000000	86.911135
1432.000000	86.874392
1431.000000	86.838251
1430.000000	86.789636
1429.000000	86.713429
1428.000000	86.623375
1427.000000	86.541417
1426.000000	86.466212
1425.000000	86.395481
1424.000000	86.344590
1423.000000	86.326893
1422.000000	86.324709
1421.000000	86.307230
1420.000000	86.267546
1419.000000	86.223626
1418.000000	86.188349
1417.000000	86.161330
1416.000000	86.149551
1415.000000	86.162147
1414.000000	86.194811
1413.000000	86.237644
1412.000000	86.291436
1411.000000	86.363868
1410.000000	86.453379
1409.000000	86.549996
1408.000000	86.652140
1407.000000	86.763114
1406.000000	86.876280
1405.000000	86.985348
1404.000000	87.092111
1403.000000	87.195420
1402.000000	87.283994
1401.000000	87.352380
1400.000000	87.415283
1399.000000	87.489545
1398.000000	87.568200
1397.000000	87.632166
1396.000000	87.680885
1395.000000	87.728244
1394.000000	87.782373
1393.000000	87.845973
1392.000000	87.921826
1391.000000	88.008992
1390.000000	88.099711
1389.000000	88.188598
1388.000000	88.282159
1387.000000	88.387539
1386.000000	88.494921
1385.000000	88.592281
1384.000000	88.682625
1383.000000	88.775661
1382.000000	88.874051
1381.000000	88.974971
1380.000000	89.083233
1379.000000	89.207116
1378.000000	89.345281
1377.000000	89.490319
1376.000000	89.642272
1375.000000	89.803687
1374.000000	89.964540
1373.000000	90.108869
1372.000000	90.233790
1371.000000	90.345716
1370.000000	90.448283
1369.000000	90.547424
1368.000000	90.650776
1367.000000	90.758736
1366.000000	90.862943
1365.000000	90.957632
1364.000000	91.046139
1363.000000	91.132152
1362.000000	91.211744
1361.000000	91.280600
1360.000000	91.340673
1359.000000	91.393597
1358.000000	91.438246
1357.000000	91.477465
1356.000000	91.519276
1355.000000	91.568490
1354.000000	91.622402
1353.000000	91.675294
1352.000000	91.724914
1351.000000	91.770786
1350.000000	91.810010
1349.000000	91.842240
1348.000000	91.868627
1347.000000	91.887434
1346.000000	91.894418
1345.000000	91.890145
1344.000000	91.880919
1343.000000	91.870026
1342.000000	91.852953
1341.000000	91.823492
1340.000000	91.781366
1339.000000	91.732972
1338.000000	91.687143
1337.000000	91.651444
1336.000000	91.631118
1335.000000	91.628356
1334.000000	91.642418
1333.000000	91.672123
1332.000000	91.716842
1331.000000	91.773905
1330.000000	91.837881
1329.000000	91.903918
1328.000000	91.969802
1327.000000	92.033814
1326.000000	92.093817
1325.000000	92.150138
1324.000000	92.204127
1323.000000	92.254998
1322.000000	92.301334
1321.000000	92.344880
1320.000000	92.388976
1319.000000	92.434053
1318.000000	92.478762
1317.000000	92.524745
1316.000000	92.575654
1315.000000	92.631777
1314.000000	92.689885
1313.000000	92.747535
1312.000000	92.804143
1311.000000	92.858720
1310.000000	92.910834
1309.000000	92.962961
1308.000000	93.018276
1307.000000	93.076635
1306.000000	93.135531
1305.000000	93.194516
1304.000000	93.254096
1303.000000	93.312865
1302.000000	93.369564
1301.000000	93.426425
1300.000000	93.485894
1299.000000	93.545668
1298.000000	93.601084
1297.000000	93.650702
1296.000000	93.695630
1295.000000	93.734881
1294.000000	93.766590
1293.000000	93.791959
1292.000000	93.813568
1291.000000	93.831184
1290.000000	93.842671
1289.000000	93.848016
1288.000000	93.849071
1287.000000	93.847199
1286.000000	93.844646
1285.000000	93.845620
1284.000000	93.852322
1283.000000	93.861898
1282.000000	93.870264
1281.000000	93.876551
1280.000000	93.879972
1279.000000	93.875541
1278.000000	93.858252
1277.000000	93.829202
1276.000000	93.792946
1275.000000	93.749530
1274.000000	93.694510
1273.000000	93.625637
1272.000000	93.544610
1271.000000	93.453192
1270.000000	93.351185
1269.000000	93.239053
1268.000000	93.118999
1267.000000	92.992582
1266.000000	92.860607
1265.000000	92.725175
1264.000000	92.589511
1263.000000	92.455402
1262.000000	92.323069
1261.000000	92.194230
1260.000000	92.072611
1259.000000	91.959956
1258.000000	91.854800
1257.000000	91.757968
1256.000000	91.676060
1255.000000	91.616476
1254.000000	91.579844
1253.000000	91.559092
1252.000000	91.544808
1251.000000	91.528448
1250.000000	91.503385
1249.000000	91.467476
1248.000000	91.424288
1247.000000	91.379437
1246.000000	91.335841
1245.000000	91.293906
1244.000000	91.255012
1243.000000	91.222130
1242.000000	91.197659
1241.000000	91.182643
1240.000000	91.178140
1239.000000	91.185911
1238.000000	91.207683
1237.000000	91.245270
1236.000000	91.299329
1235.000000	91.366917
1234.000000	91.442783
1233.000000	91.524029
1232.000000	91.612545
1231.000000	91.711667
1230.000000	91.823540
1229.000000	91.951045
1228.000000	92.097281
1227.000000	92.261162
1226.000000	92.435709
1225.000000	92.612341
1224.000000	92.784648
1223.000000	92.947667
1222.000000	93.098106
1221.000000	93.236471
1220.000000	93.365216
1219.000000	93.483656
1218.000000	93.588762
1217.000000	93.680094
1216.000000	93.759682
1215.000000	93.827670
1214.000000	93.882177
1213.000000	93.924735
1212.000000	93.960330
1211.000000	93.990887
1210.000000	94.013016
1209.000000	94.022635
1208.000000	94.019276
1207.000000	94.005089
1206.000000	93.983402
1205.000000	93.959477
1204.000000	93.938516
1203.000000	93.921432
1202.000000	93.904929
1201.000000	93.887119
1200.000000	93.870668
1199.000000	93.858731
1198.000000	93.850335
1197.000000	93.841564
1196.000000	93.829579
1195.000000	93.814046
1194.000000	93.796112
1193.000000	93.777324
1192.000000	93.758162
1191.000000	93.736640
1190.000000	93.709909
1189.000000	93.677360
1188.000000	93.640388
1187.000000	93.598800
1186.000000	93.549790
1185.000000	93.491931
1184.000000	93.427402
1183.000000	93.358629
1182.000000	93.284609
1181.000000	93.202294
1180.000000	93.111078
1179.000000	93.013667
1178.000000	92.913483
1177.000000	92.813269
1176.000000	92.715196
1175.000000	92.619962
1174.000000	92.525759
1173.000000	92.430592
1172.000000	92.335665
1171.000000	92.244837
1170.000000	92.160804
1169.000000	92.084007
1168.000000	92.014965
1167.000000	91.954649
1166.000000	91.903137
1165.000000	91.860159
1164.000000	91.827666
1163.000000	91.809924
1162.000000	91.809851
1161.000000	91.828143
1160.000000	91.864856
1159.000000	91.919838
1158.000000	91.992856
1157.000000	92.084196
1156.000000	92.195100
1155.000000	92.324522
1154.000000	92.467454
1153.000000	92.619982
1152.000000	92.783036
1151.000000	92.959097
1150.000000	93.146664
1149.000000	93.340970
1148.000000	93.538502
1147.000000	93.737220
1146.000000	93.934471
1145.000000	94.127574
1144.000000	94.315366
1143.000000	94.496735
1142.000000	94.669209
1141.000000	94.830435
1140.000000	94.979997
1139.000000	95.118888
1138.000000	95.247186
1137.000000	95.363459
1136.000000	95.465080
1135.000000	95.549194
1134.000000	95.615264
1133.000000	95.665753
1132.000000	95.704534
1131.000000	95.734439
1130.000000	95.756409
1129.000000	95.770631
1128.000000	95.777085
1127.000000	95.776441
1126.000000	95.770383
1125.000000	95.759970
1124.000000	95.744487
1123.000000	95.722738
1122.000000	95.695440
1121.000000	95.663767
1120.000000	95.624941
1119.000000	95.572411
1118.000000	95.500667
1117.000000	95.408547
1116.000000	95.297437
1115.000000	95.168823
1114.000000	95.026229
1113.000000	94.878043
1112.000000	94.737173
1111.000000	94.616812
1110.000000	94.525460
1109.000000	94.464454
1108.000000	94.430012
1107.000000	94.416850
1106.000000	94.419322
1105.000000	94.431687
1104.000000	94.448397
1103.000000	94.465103
1102.000000	94.477774
1101.000000	94.480495
1100.000000	94.465915
1099.000000	94.429967
1098.000000	94.376394
1097.000000	94.314609
1096.000000	94.254202
1095.000000	94.202216
1094.000000	94.163490
1093.000000	94.140452
1092.000000	94.133470
1091.000000	94.143471
1090.000000	94.174063
1089.000000	94.227145
1088.000000	94.296529
1087.000000	94.370476
1086.000000	94.442293
1085.000000	94.516279
1084.000000	94.599832
1083.000000	94.692717
1082.000000	94.787986
1081.000000	94.880784
1080.000000	94.971895
1079.000000	95.063152
1078.000000	95.153491
1077.000000	95.239704
1076.000000	95.318683
1075.000000	95.389062
1074.000000	95.452305
1073.000000	95.510620
1072.000000	95.561783
1071.000000	95.599162
1070.000000	95.619193
1069.000000	95.626806
1068.000000	95.630838
1067.000000	95.635676
1066.000000	95.639935
1065.000000	95.640683
1064.000000	95.636480
1063.000000	95.628410
1062.000000	95.620862
1061.000000	95.619606
1060.000000	95.626565
1059.000000	95.638251
1058.000000	95.651321
1057.000000	95.667401
1056.000000	95.689478
1055.000000	95.715901
1054.000000	95.741902
1053.000000	95.765699
1052.000000	95.789507
1051.000000	95.814944
1050.000000	95.840933
1049.000000	95.865965
1048.000000	95.889261
1047.000000	95.909456
1046.000000	95.924500
1045.000000	95.932901
1044.000000	95.933683
1043.000000	95.926485
1042.000000	95.912811
1041.000000	95.895712
1040.000000	95.876260
1039.000000	95.850905
1038.000000	95.814417
1037.000000	95.764886
1036.000000	95.705783
1035.000000	95.644643
1034.000000	95.589913
1033.000000	95.546486
1032.000000	95.512732
1031.000000	95.483532
1030.000000	95.457124
1029.000000	95.437746
1028.000000	95.430552
1027.000000	95.436291
1026.000000	95.452078
1025.000000	95.474470
1024.000000	95.500094
1023.000000	95.525700
1022.000000	95.550992
1021.000000	95.579540
1020.000000	95.613599
1019.000000	95.650064
1018.000000	95.684646
1017.000000	95.718586
1016.000000	95.757292
1015.000000	95.803139
1014.000000	95.853684
1013.000000	95.906729
1012.000000	95.963519
1011.000000	96.026068
1010.000000	96.093679
1009.000000	96.163053
1008.000000	96.230363
1007.000000	96.293619
1006.000000	96.354319
1005.000000	96.415662
1004.000000	96.477429
1003.000000	96.534227
1002.000000	96.581206
1001.000000	96.619674
1000.000000	96.654719
999.000000	96.688485
998.000000	96.718686
997.000000	96.742835
996.000000	96.760778
995.000000	96.773957
994.000000	96.784364
993.000000	96.794017
992.000000	96.803927
991.000000	96.813798
990.000000	96.823628
989.000000	96.833934
988.000000	96.843284
987.000000	96.848159
986.000000	96.847355
985.000000	96.844477
984.000000	96.843184
983.000000	96.841630
982.000000	96.834811
981.000000	96.821039
980.000000	96.803185
979.000000	96.784088
978.000000	96.763801
977.000000	96.741181
976.000000	96.715130
975.000000	96.684366
974.000000	96.649024
973.000000	96.613582
972.000000	96.585949
971.000000	96.571791
970.000000	96.569779
969.000000	96.573105
968.000000	96.575713
967.000000	96.577241
966.000000	96.583337
965.000000	96.600859
964.000000	96.631558
963.000000	96.670274
962.000000	96.709627
961.000000	96.746919
960.000000	96.785585
959.000000	96.830098
958.000000	96.880999
957.000000	96.934890
956.000000	96.988653
955.000000	97.043111
954.000000	97.102414
953.000000	97.169553
952.000000	97.241957
951.000000	97.312132
950.000000	97.373352
949.000000	97.424374
948.000000	97.468607
947.000000	97.510134
946.000000	97.550894
945.000000	97.590139
944.000000	97.625893
943.000000	97.657744
942.000000	97.688387
941.000000	97.720251
940.000000	97.750343
939.000000	97.771565
938.000000	97.781035
937.000000	97.785664
936.000000	97.797248
935.000000	97.822632
934.000000	97.859188
933.000000	97.898418
932.000000	97.933026
931.000000	97.961229
930.000000	97.985501
929.000000	98.007685
928.000000	98.026504
927.000000	98.041283
926.000000	98.056381
925.000000	98.078357
924.000000	98.108673
923.000000	98.142147
922.000000	98.173415
921.000000	98.201914
920.000000	98.229685
919.000000	98.257462
918.000000	98.284865
917.000000	98.312360
916.000000	98.341104
915.000000	98.371877
914.000000	98.404555
913.000000	98.437286
912.000000	98.466736
911.000000	98.491344
910.000000	98.513729
909.000000	98.537163
908.000000	98.560629
907.000000	98.581407
906.000000	98.601383
905.000000	98.625035
904.000000	98.650442
903.000000	98.668441
902.000000	98.673767
901.000000	98.672936
900.000000	98.678347
899.000000	98.696842
898.000000	98.725269
897.000000	98.753543
896.000000	98.771267
895.000000	98.775376
894.000000	98.772788
893.000000	98.771867
892.000000	98.770397
891.000000	98.755786
890.000000	98.714199
889.000000	98.630250
888.000000	98.477477
887.000000	98.222466
886.000000	97.853737
885.000000	97.403866
884.000000	96.932486
883.000000	96.482988
882.000000	96.051723
881.000000	95.597283
880.000000	95.079450
879.000000	94.495139
878.000000	93.884555
877.000000	93.311990
876.000000	92.842016
875.000000	92.527673
874.000000	92.409837
873.000000	92.514075
872.000000	92.843641
871.000000	93.366162
870.000000	94.010353
869.000000	94.686613
868.000000	95.316842
867.000000	95.855328
866.000000	96.291737
865.000000	96.640982
864.000000	96.926441
863.000000	97.167334
862.000000	97.374407
861.000000	97.551598
860.000000	97.699486
859.000000	97.818992
858.000000	97.915469
857.000000	97.996377
856.000000	98.065096
855.000000	98.121395
854.000000	98.167613
853.000000	98.207573
852.000000	98.234967
851.000000	98.232238
850.000000	98.192481
849.000000	98.140176
848.000000	98.119254
847.000000	98.155243
846.000000	98.233169
845.000000	98.315287
844.000000	98.375298
843.000000	98.413072
842.000000	98.442614
841.000000	98.473489
840.000000	98.504308
839.000000	98.527871
838.000000	98.538319
837.000000	98.534452
836.000000	98.519937
835.000000	98.502459
834.000000	98.490962
833.000000	98.490776
832.000000	98.500533
831.000000	98.514920
830.000000	98.530707
829.000000	98.549506
828.000000	98.574642
827.000000	98.606031
826.000000	98.638146
825.000000	98.662553
824.000000	98.673729
823.000000	98.674650
822.000000	98.675742
821.000000	98.685291
820.000000	98.700918
819.000000	98.712885
818.000000	98.716219
817.000000	98.716547
816.000000	98.722691
815.000000	98.736118
814.000000	98.749951
813.000000	98.757612
812.000000	98.759795
811.000000	98.762050
810.000000	98.766811
809.000000	98.768983
808.000000	98.760594
807.000000	98.739872
806.000000	98.714193
805.000000	98.693221
804.000000	98.680281
803.000000	98.672010
802.000000	98.664588
801.000000	98.657394
800.000000	98.651187
799.000000	98.645455
798.000000	98.638492
797.000000	98.628545
796.000000	98.614561
795.000000	98.597078
794.000000	98.578359
793.000000	98.560590
792.000000	98.543969
791.000000	98.527026
790.000000	98.508089
789.000000	98.485678
788.000000	98.459122
787.000000	98.430865
786.000000	98.407329
785.000000	98.395235
784.000000	98.396404
783.000000	98.406073
782.000000	98.415315
781.000000	98.415414
780.000000	98.403108
779.000000	98.383702
778.000000	98.366915
777.000000	98.356921
776.000000	98.347982
775.000000	98.332110
774.000000	98.308793
773.000000	98.284435
772.000000	98.264733
771.000000	98.251510
770.000000	98.244904
769.000000	98.243433
768.000000	98.241952
767.000000	98.233984
766.000000	98.217182
765.000000	98.193966
764.000000	98.167182
763.000000	98.138575
762.000000	98.110629
761.000000	98.085191
760.000000	98.059982
759.000000	98.031035
758.000000	97.999340
757.000000	97.970047
756.000000	97.943795
755.000000	97.914940
754.000000	97.882353
753.000000	97.856715
752.000000	97.850181
751.000000	97.860085
750.000000	97.868654
749.000000	97.860629
748.000000	97.837790
747.000000	97.814602
746.000000	97.802577
745.000000	97.801137
744.000000	97.801856
743.000000	97.797868
742.000000	97.787930
741.000000	97.773729
740.000000	97.756469
739.000000	97.736511
738.000000	97.714034
737.000000	97.688324
736.000000	97.657269
735.000000	97.618747
734.000000	97.572251
733.000000	97.519458
732.000000	97.464784
731.000000	97.415036
730.000000	97.374745
729.000000	97.339709
728.000000	97.300348
727.000000	97.254740
726.000000	97.213673
725.000000	97.188726
724.000000	97.177096
723.000000	97.161778
722.000000	97.124707
721.000000	97.056974
720.000000	96.959227
719.000000	96.835020
718.000000	96.679211
717.000000	96.467380
716.000000	96.164875
715.000000	95.766986
714.000000	95.340773
713.000000	95.012877
712.000000	94.892563
711.000000	94.993322
710.000000	95.229230
709.000000	95.483868
708.000000	95.681065
707.000000	95.804533
706.000000	95.871502
705.000000	95.902870
704.000000	95.913081
703.000000	95.910797
702.000000	95.900590
701.000000	95.884091
700.000000	95.861269
699.000000	95.833949
698.000000	95.807476
697.000000	95.788449
696.000000	95.779551
695.000000	95.776001
694.000000	95.772213
693.000000	95.770258
692.000000	95.776686
691.000000	95.792724
690.000000	95.810158
689.000000	95.818760
688.000000	95.814822
687.000000	95.800921
686.000000	95.783369
685.000000	95.769834
684.000000	95.763468
683.000000	95.758792
682.000000	95.747510
681.000000	95.729558
680.000000	95.713340
679.000000	95.705679
678.000000	95.706145
677.000000	95.710942
676.000000	95.721536
675.000000	95.740423
674.000000	95.766350
673.000000	95.797000
672.000000	95.831862
671.000000	95.871372
670.000000	95.918317
669.000000	95.974464
668.000000	96.011388
667.000000	96.019204
666.000000	96.043878
665.000000	96.071175
664.000000	96.080618
663.000000	96.081383
662.000000	96.084296
661.000000	96.087518
660.000000	96.088077
659.000000	96.092400
658.000000	96.101895
657.000000	96.101767
656.000000	96.082175
655.000000	96.051841
654.000000	96.021163
653.000000	95.985918
652.000000	95.939881
651.000000	95.888392
650.000000	95.837798
649.000000	95.782463
648.000000	95.717088
647.000000	95.649577
646.000000	95.587523
645.000000	95.524835
644.000000	95.454530
643.000000	95.384176
642.000000	95.326187
641.000000	95.278627
640.000000	95.229464
639.000000	95.175884
638.000000	95.125965
637.000000	95.087110
636.000000	95.063595
635.000000	95.059328
634.000000	95.074424
633.000000	95.102002
632.000000	95.132229
631.000000	95.154718
630.000000	95.157254
629.000000	95.134222
628.000000	95.099654
627.000000	95.078912
626.000000	95.079025
625.000000	95.079563
624.000000	95.060721
623.000000	95.026538
622.000000	94.991779
621.000000	94.959203
620.000000	94.922035
619.000000	94.878819
618.000000	94.833341
617.000000	94.787433
616.000000	94.745678
615.000000	94.720412
614.000000	94.717994
613.000000	94.725553
612.000000	94.724216
611.000000	94.713015
610.000000	94.709371
609.000000	94.727275
608.000000	94.763645
607.000000	94.805564
606.000000	94.845455
605.000000	94.891988
604.000000	94.966482
603.000000	95.082628
602.000000	95.228225
601.000000	95.373080
600.000000	95.495669
599.000000	95.595405
598.000000	95.680745
597.000000	95.756295
596.000000	95.826189
595.000000	95.898766
594.000000	95.978335
593.000000	96.057427
592.000000	96.123187
591.000000	96.168640
590.000000	96.195370
589.000000	96.210410
588.000000	96.223419
587.000000	96.240495
586.000000	96.257699
585.000000	96.268151
584.000000	96.277752
583.000000	96.300321
582.000000	96.332007
581.000000	96.347469
580.000000	96.333055
579.000000	96.309027
578.000000	96.302949
577.000000	96.314934
576.000000	96.326760
575.000000	96.333868
574.000000	96.348562
573.000000	96.375693
572.000000	96.406850
571.000000	96.435687
570.000000	96.462129
569.000000	96.484255
568.000000	96.500881
567.000000	96.519966
566.000000	96.548417
565.000000	96.573999
564.000000	96.574523
563.000000	96.547491
562.000000	96.517516
561.000000	96.509936
560.000000	96.526875
559.000000	96.551358
558.000000	96.562957
557.000000	96.549930
556.000000	96.518461
555.000000	96.491904
554.000000	96.490354
553.000000	96.508425
552.000000	96.523678
551.000000	96.524536
550.000000	96.518838
549.000000	96.517262
548.000000	96.522295
547.000000	96.533066
546.000000	96.546317
545.000000	96.551158
544.000000	96.538699
543.000000	96.519342
542.000000	96.516840
541.000000	96.542396
540.000000	96.584753
539.000000	96.627091
538.000000	96.660009
537.000000	96.676363
536.000000	96.667926
535.000000	96.635964
534.000000	96.597588
533.000000	96.570354
532.000000	96.554374
531.000000	96.535072
530.000000	96.502900
529.000000	96.467691
528.000000	96.453564
527.000000	96.478584
526.000000	96.534780
525.000000	96.593212
524.000000	96.635543
523.000000	96.664698
522.000000	96.682445
521.000000	96.680804
520.000000	96.663046
519.000000	96.654540
518.000000	96.675411
517.000000	96.711625
516.000000	96.735810
515.000000	96.744862
514.000000	96.754597
513.000000	96.773443
512.000000	96.801731
511.000000	96.842247
510.000000	96.892615
509.000000	96.935087
508.000000	96.953513
507.000000	96.956139
506.000000	96.961641
505.000000	96.970084
504.000000	96.972821
503.000000	96.984032
502.000000	97.031437
501.000000	97.108939
500.000000	97.174230
499.000000	97.200952
498.000000	97.199991
497.000000	97.190378
496.000000	97.174745
495.000000	97.150274
494.000000	97.128013
493.000000	97.124854
492.000000	97.143621
491.000000	97.175435
490.000000	97.215977
489.000000	97.266997
488.000000	97.321716
487.000000	97.354805
486.000000	97.336978
485.000000	97.271116
484.000000	97.212207
483.000000	97.228702
482.000000	97.330229
481.000000	97.456837
480.000000	97.548393
479.000000	97.597107
478.000000	97.627252
477.000000	97.650739
476.000000	97.664688
475.000000	97.677024
474.000000	97.703073
473.000000	97.739822
472.000000	97.771496
471.000000	97.799516
470.000000	97.827659
469.000000	97.828108
468.000000	97.769970
467.000000	97.680302
466.000000	97.635862
465.000000	97.677320
464.000000	97.779003
463.000000	97.902324
462.000000	98.039565
461.000000	98.189332
460.000000	98.337117
459.000000	98.438106
458.000000	98.435011
457.000000	98.420866
456.000000	98.424267
455.000000	98.498409
454.000000	98.628094
453.000000	98.746949
452.000000	98.785201
451.000000	98.755453
450.000000	98.733557
