PE IR       SUBTECH     SPECTRUM    ASCII       PEDS        4.00        
   -1
3C-XXX-C014_1.ASC
23/09/07
10:30:15.00
23/09/07
11:30:09.00
uco
Sample 014 By uco Date Thursday, September 07 2023
450.000000
#HDR
-1
-1
#GR
cm-1
%T
1.0
0.0
4000.000000
-1.000000
3551
8
99.109107
89.567866
#DATA
4000.000000	98.985174
3999.000000	98.980572
3998.000000	98.975974
3997.000000	98.971364
3996.000000	98.968598
3995.000000	98.967780
3994.000000	98.968160
3993.000000	98.968979
3992.000000	98.969800
3991.000000	98.970145
3990.000000	98.969246
3989.000000	98.966572
3988.000000	98.962566
3987.000000	98.958485
3986.000000	98.955451
3985.000000	98.953889
3984.000000	98.953961
3983.000000	98.956029
3982.000000	98.960173
3981.000000	98.965326
3980.000000	98.969352
3979.000000	98.970290
3978.000000	98.967538
3977.000000	98.961997
3976.000000	98.955516
3975.000000	98.950252
3974.000000	98.947967
3973.000000	98.949250
3972.000000	98.953117
3971.000000	98.957419
3970.000000	98.959972
3969.000000	98.959680
3968.000000	98.956999
3967.000000	98.953472
3966.000000	98.950634
3965.000000	98.949186
3964.000000	98.948821
3963.000000	98.948550
3962.000000	98.947268
3961.000000	98.944359
3960.000000	98.940271
3959.000000	98.936501
3958.000000	98.934631
3957.000000	98.935180
3956.000000	98.937140
3955.000000	98.938734
3954.000000	98.938799
3953.000000	98.937660
3952.000000	98.936756
3951.000000	98.937242
3950.000000	98.938861
3949.000000	98.940143
3948.000000	98.939851
3947.000000	98.938143
3946.000000	98.936320
3945.000000	98.935621
3944.000000	98.936462
3943.000000	98.938811
3942.000000	98.942646
3941.000000	98.947676
3940.000000	98.952634
3939.000000	98.955117
3938.000000	98.952924
3937.000000	98.946204
3936.000000	98.937681
3935.000000	98.930647
3934.000000	98.926874
3933.000000	98.926296
3932.000000	98.927968
3931.000000	98.930518
3930.000000	98.932432
3929.000000	98.932591
3928.000000	98.930953
3927.000000	98.928849
3926.000000	98.927909
3925.000000	98.928672
3924.000000	98.930767
3923.000000	98.934406
3922.000000	98.939934
3921.000000	98.945259
3920.000000	98.945968
3919.000000	98.939430
3918.000000	98.928200
3917.000000	98.918680
3916.000000	98.916113
3915.000000	98.920987
3914.000000	98.929482
3913.000000	98.936203
3912.000000	98.937223
3911.000000	98.932780
3910.000000	98.926596
3909.000000	98.922248
3908.000000	98.920433
3907.000000	98.919709
3906.000000	98.919056
3905.000000	98.919233
3904.000000	98.921743
3903.000000	98.926742
3902.000000	98.933003
3901.000000	98.938642
3900.000000	98.941373
3899.000000	98.939928
3898.000000	98.936045
3897.000000	98.933575
3896.000000	98.934597
3895.000000	98.937642
3894.000000	98.939961
3893.000000	98.940368
3892.000000	98.939261
3891.000000	98.937836
3890.000000	98.937841
3889.000000	98.941740
3888.000000	98.949740
3887.000000	98.956873
3886.000000	98.956808
3885.000000	98.948137
3884.000000	98.936498
3883.000000	98.929483
3882.000000	98.928133
3881.000000	98.927142
3880.000000	98.923063
3879.000000	98.917935
3878.000000	98.916683
3877.000000	98.921557
3876.000000	98.928861
3875.000000	98.933024
3874.000000	98.931838
3873.000000	98.927889
3872.000000	98.926798
3871.000000	98.931682
3870.000000	98.939383
3869.000000	98.944354
3868.000000	98.946378
3867.000000	98.950036
3866.000000	98.954698
3865.000000	98.954111
3864.000000	98.946163
3863.000000	98.935750
3862.000000	98.928500
3861.000000	98.925313
3860.000000	98.923765
3859.000000	98.922626
3858.000000	98.921973
3857.000000	98.921844
3856.000000	98.922240
3855.000000	98.923250
3854.000000	98.924934
3853.000000	98.927205
3852.000000	98.931128
3851.000000	98.941343
3850.000000	98.957156
3849.000000	98.968282
3848.000000	98.969181
3847.000000	98.963223
3846.000000	98.954365
3845.000000	98.943292
3844.000000	98.929844
3843.000000	98.916166
3842.000000	98.906415
3841.000000	98.904779
3840.000000	98.912538
3839.000000	98.926103
3838.000000	98.939098
3837.000000	98.947391
3836.000000	98.951162
3835.000000	98.952237
3834.000000	98.951724
3833.000000	98.950032
3832.000000	98.947093
3831.000000	98.941982
3830.000000	98.934435
3829.000000	98.926059
3828.000000	98.918874
3827.000000	98.913632
3826.000000	98.909226
3825.000000	98.904645
3824.000000	98.901139
3823.000000	98.900995
3822.000000	98.905131
3821.000000	98.911664
3820.000000	98.916424
3819.000000	98.920144
3818.000000	98.927135
3817.000000	98.934990
3816.000000	98.938532
3815.000000	98.937174
3814.000000	98.935383
3813.000000	98.937706
3812.000000	98.941591
3811.000000	98.941510
3810.000000	98.937789
3809.000000	98.934865
3808.000000	98.934745
3807.000000	98.935032
3806.000000	98.932664
3805.000000	98.929525
3804.000000	98.930733
3803.000000	98.937227
3802.000000	98.944876
3801.000000	98.948175
3800.000000	98.945357
3799.000000	98.942352
3798.000000	98.942944
3797.000000	98.942637
3796.000000	98.937771
3795.000000	98.930221
3794.000000	98.924424
3793.000000	98.922489
3792.000000	98.922498
3791.000000	98.921851
3790.000000	98.920023
3789.000000	98.917484
3788.000000	98.914683
3787.000000	98.912691
3786.000000	98.912943
3785.000000	98.915459
3784.000000	98.918360
3783.000000	98.920285
3782.000000	98.921905
3781.000000	98.923983
3780.000000	98.925126
3779.000000	98.923094
3778.000000	98.918033
3777.000000	98.913656
3776.000000	98.913477
3775.000000	98.917365
3774.000000	98.922874
3773.000000	98.928084
3772.000000	98.931747
3771.000000	98.932266
3770.000000	98.928991
3769.000000	98.924709
3768.000000	98.924587
3767.000000	98.930927
3766.000000	98.939620
3765.000000	98.943558
3764.000000	98.939724
3763.000000	98.931497
3762.000000	98.924004
3761.000000	98.919368
3760.000000	98.917431
3759.000000	98.918290
3758.000000	98.922001
3757.000000	98.927626
3756.000000	98.933654
3755.000000	98.940181
3754.000000	98.949280
3753.000000	98.962859
3752.000000	98.979866
3751.000000	98.993999
3750.000000	98.997511
3749.000000	98.989921
3748.000000	98.978483
3747.000000	98.971628
3746.000000	98.974231
3745.000000	98.984783
3744.000000	98.993401
3743.000000	98.991026
3742.000000	98.983222
3741.000000	98.975731
3740.000000	98.962714
3739.000000	98.944070
3738.000000	98.930410
3737.000000	98.929807
3736.000000	98.939463
3735.000000	98.949431
3734.000000	98.954622
3733.000000	98.958559
3732.000000	98.964714
3731.000000	98.971827
3730.000000	98.978405
3729.000000	98.984604
3728.000000	98.989747
3727.000000	98.991833
3726.000000	98.989319
3725.000000	98.983087
3724.000000	98.976187
3723.000000	98.970304
3722.000000	98.964747
3721.000000	98.959684
3720.000000	98.957267
3719.000000	98.959067
3718.000000	98.963709
3717.000000	98.967996
3716.000000	98.969910
3715.000000	98.969848
3714.000000	98.968465
3713.000000	98.965446
3712.000000	98.961420
3711.000000	98.959043
3710.000000	98.960602
3709.000000	98.965167
3708.000000	98.969238
3707.000000	98.970369
3706.000000	98.969473
3705.000000	98.969582
3704.000000	98.972623
3703.000000	98.977198
3702.000000	98.979760
3701.000000	98.978534
3700.000000	98.975710
3699.000000	98.974620
3698.000000	98.975508
3697.000000	98.975371
3696.000000	98.971803
3695.000000	98.965869
3694.000000	98.960726
3693.000000	98.958525
3692.000000	98.959903
3691.000000	98.964985
3690.000000	98.972117
3689.000000	98.977421
3688.000000	98.978887
3687.000000	98.979292
3686.000000	98.982156
3685.000000	98.986623
3684.000000	98.988612
3683.000000	98.985844
3682.000000	98.979450
3681.000000	98.971355
3680.000000	98.962311
3679.000000	98.952929
3678.000000	98.945962
3677.000000	98.944634
3676.000000	98.947743
3675.000000	98.948474
3674.000000	98.943629
3673.000000	98.940249
3672.000000	98.942729
3671.000000	98.945860
3670.000000	98.944574
3669.000000	98.938036
3668.000000	98.929248
3667.000000	98.922014
3666.000000	98.915154
3665.000000	98.906158
3664.000000	98.896049
3663.000000	98.886704
3662.000000	98.878104
3661.000000	98.869668
3660.000000	98.862774
3659.000000	98.860226
3658.000000	98.862732
3657.000000	98.866460
3656.000000	98.865943
3655.000000	98.860225
3654.000000	98.854127
3653.000000	98.850885
3652.000000	98.847755
3651.000000	98.840866
3650.000000	98.830125
3649.000000	98.818877
3648.000000	98.810741
3647.000000	98.805746
3646.000000	98.800617
3645.000000	98.794093
3644.000000	98.788378
3643.000000	98.785942
3642.000000	98.786944
3641.000000	98.789556
3640.000000	98.791831
3639.000000	98.792329
3638.000000	98.789419
3637.000000	98.782025
3636.000000	98.771538
3635.000000	98.761155
3634.000000	98.753335
3633.000000	98.748693
3632.000000	98.747182
3631.000000	98.747573
3630.000000	98.745398
3629.000000	98.734850
3628.000000	98.715506
3627.000000	98.696311
3626.000000	98.686103
3625.000000	98.681857
3624.000000	98.675901
3623.000000	98.667253
3622.000000	98.659149
3621.000000	98.652584
3620.000000	98.645075
3619.000000	98.634776
3618.000000	98.624342
3617.000000	98.618690
3616.000000	98.618763
3615.000000	98.619038
3614.000000	98.612270
3613.000000	98.596884
3612.000000	98.579628
3611.000000	98.569245
3610.000000	98.567446
3609.000000	98.567401
3608.000000	98.561351
3607.000000	98.548761
3606.000000	98.535402
3605.000000	98.525812
3604.000000	98.519660
3603.000000	98.514331
3602.000000	98.507767
3601.000000	98.498788
3600.000000	98.486925
3599.000000	98.472789
3598.000000	98.457765
3597.000000	98.442869
3596.000000	98.428950
3595.000000	98.417197
3594.000000	98.408237
3593.000000	98.401227
3592.000000	98.394580
3591.000000	98.386835
3590.000000	98.376930
3589.000000	98.364299
3588.000000	98.348890
3587.000000	98.331836
3586.000000	98.316643
3585.000000	98.307509
3584.000000	98.304656
3583.000000	98.303415
3582.000000	98.298637
3581.000000	98.288633
3580.000000	98.275404
3579.000000	98.261996
3578.000000	98.249959
3577.000000	98.239110
3576.000000	98.228777
3575.000000	98.218277
3574.000000	98.206600
3573.000000	98.193101
3572.000000	98.178650
3571.000000	98.165106
3570.000000	98.153092
3569.000000	98.140833
3568.000000	98.125699
3567.000000	98.107869
3566.000000	98.091605
3565.000000	98.081169
3564.000000	98.076110
3563.000000	98.071634
3562.000000	98.063290
3561.000000	98.050478
3560.000000	98.035694
3559.000000	98.021358
3558.000000	98.008012
3557.000000	97.995164
3556.000000	97.982536
3555.000000	97.969745
3554.000000	97.955304
3553.000000	97.937488
3552.000000	97.917049
3551.000000	97.897881
3550.000000	97.883648
3549.000000	97.874318
3548.000000	97.866536
3547.000000	97.856941
3546.000000	97.844787
3545.000000	97.831709
3544.000000	97.819478
3543.000000	97.808119
3542.000000	97.795986
3541.000000	97.781540
3540.000000	97.764913
3539.000000	97.747667
3538.000000	97.731130
3537.000000	97.715465
3536.000000	97.700597
3535.000000	97.687316
3534.000000	97.676709
3533.000000	97.668711
3532.000000	97.661911
3531.000000	97.654547
3530.000000	97.645479
3529.000000	97.634568
3528.000000	97.622850
3527.000000	97.611900
3526.000000	97.602010
3525.000000	97.591012
3524.000000	97.575980
3523.000000	97.556873
3522.000000	97.537674
3521.000000	97.522897
3520.000000	97.513171
3519.000000	97.504707
3518.000000	97.492905
3517.000000	97.476432
3516.000000	97.458133
3515.000000	97.442222
3514.000000	97.430825
3513.000000	97.422813
3512.000000	97.415275
3511.000000	97.405803
3510.000000	97.394057
3509.000000	97.381810
3508.000000	97.371462
3507.000000	97.364132
3506.000000	97.358768
3505.000000	97.352822
3504.000000	97.344048
3503.000000	97.332276
3502.000000	97.319568
3501.000000	97.308301
3500.000000	97.298953
3499.000000	97.290023
3498.000000	97.280093
3497.000000	97.269573
3496.000000	97.259871
3495.000000	97.250860
3494.000000	97.240173
3493.000000	97.225798
3492.000000	97.208842
3491.000000	97.192884
3490.000000	97.180773
3489.000000	97.172560
3488.000000	97.166371
3487.000000	97.160330
3486.000000	97.153279
3485.000000	97.144330
3484.000000	97.132790
3483.000000	97.118924
3482.000000	97.104484
3481.000000	97.092073
3480.000000	97.083757
3479.000000	97.080022
3478.000000	97.079566
3477.000000	97.079791
3476.000000	97.077809
3475.000000	97.071877
3474.000000	97.062360
3473.000000	97.050944
3472.000000	97.038523
3471.000000	97.024290
3470.000000	97.007515
3469.000000	96.989921
3468.000000	96.975202
3467.000000	96.965705
3466.000000	96.960384
3465.000000	96.956599
3464.000000	96.953044
3463.000000	96.950055
3462.000000	96.947679
3461.000000	96.944581
3460.000000	96.938950
3459.000000	96.929745
3458.000000	96.917098
3457.000000	96.902304
3456.000000	96.887595
3455.000000	96.875079
3454.000000	96.865382
3453.000000	96.857553
3452.000000	96.850508
3451.000000	96.844432
3450.000000	96.840534
3449.000000	96.839306
3448.000000	96.839127
3447.000000	96.836834
3446.000000	96.830050
3445.000000	96.818782
3444.000000	96.804521
3443.000000	96.788751
3442.000000	96.773106
3441.000000	96.760117
3440.000000	96.752013
3439.000000	96.748234
3438.000000	96.745073
3437.000000	96.738716
3436.000000	96.728393
3435.000000	96.716177
3434.000000	96.704484
3433.000000	96.694543
3432.000000	96.686587
3431.000000	96.680115
3430.000000	96.673790
3429.000000	96.666119
3428.000000	96.656788
3427.000000	96.646877
3426.000000	96.637592
3425.000000	96.629228
3424.000000	96.621355
3423.000000	96.613358
3422.000000	96.604577
3421.000000	96.594596
3420.000000	96.583838
3419.000000	96.573457
3418.000000	96.564344
3417.000000	96.556560
3416.000000	96.549739
3415.000000	96.543467
3414.000000	96.537021
3413.000000	96.529235
3412.000000	96.519121
3411.000000	96.506642
3410.000000	96.493066
3409.000000	96.480898
3408.000000	96.473049
3407.000000	96.470805
3406.000000	96.471898
3405.000000	96.471263
3404.000000	96.464800
3403.000000	96.452744
3402.000000	96.439092
3401.000000	96.427786
3400.000000	96.419551
3399.000000	96.411942
3398.000000	96.401901
3397.000000	96.388318
3396.000000	96.372598
3395.000000	96.357059
3394.000000	96.342916
3393.000000	96.329851
3392.000000	96.317354
3391.000000	96.306056
3390.000000	96.297469
3389.000000	96.292450
3388.000000	96.290038
3387.000000	96.287792
3386.000000	96.283354
3385.000000	96.275834
3384.000000	96.265804
3383.000000	96.254187
3382.000000	96.241560
3381.000000	96.228562
3380.000000	96.216280
3379.000000	96.205448
3378.000000	96.195459
3377.000000	96.184824
3376.000000	96.172735
3375.000000	96.159779
3374.000000	96.146995
3373.000000	96.134683
3372.000000	96.122357
3371.000000	96.109621
3370.000000	96.096756
3369.000000	96.084381
3368.000000	96.072560
3367.000000	96.060451
3366.000000	96.047168
3365.000000	96.033003
3364.000000	96.019159
3363.000000	96.005901
3362.000000	95.991515
3361.000000	95.973865
3360.000000	95.952960
3359.000000	95.931239
3358.000000	95.911083
3357.000000	95.892508
3356.000000	95.873627
3355.000000	95.853115
3354.000000	95.831792
3353.000000	95.811687
3352.000000	95.793799
3351.000000	95.777082
3350.000000	95.759712
3349.000000	95.741061
3348.000000	95.722080
3347.000000	95.703831
3346.000000	95.686208
3345.000000	95.668286
3344.000000	95.649489
3343.000000	95.630054
3342.000000	95.610618
3341.000000	95.591714
3340.000000	95.573569
3339.000000	95.556150
3338.000000	95.539407
3337.000000	95.523397
3336.000000	95.507890
3335.000000	95.491959
3334.000000	95.474651
3333.000000	95.456309
3332.000000	95.438663
3331.000000	95.423200
3330.000000	95.409722
3329.000000	95.396541
3328.000000	95.381631
3327.000000	95.363613
3326.000000	95.342552
3325.000000	95.320324
3324.000000	95.299620
3323.000000	95.281961
3322.000000	95.267035
3321.000000	95.254141
3320.000000	95.243324
3319.000000	95.234604
3318.000000	95.227033
3317.000000	95.219349
3316.000000	95.210931
3315.000000	95.201321
3314.000000	95.189566
3313.000000	95.175179
3312.000000	95.159124
3311.000000	95.142791
3310.000000	95.126641
3309.000000	95.111092
3308.000000	95.098059
3307.000000	95.089597
3306.000000	95.084781
3305.000000	95.079502
3304.000000	95.070040
3303.000000	95.056245
3302.000000	95.041135
3301.000000	95.028247
3300.000000	95.019549
3299.000000	95.014784
3298.000000	95.012204
3297.000000	95.010253
3296.000000	95.008679
3295.000000	95.007603
3294.000000	95.005888
3293.000000	95.001679
3292.000000	94.994700
3291.000000	94.986832
3290.000000	94.980000
3289.000000	94.974317
3288.000000	94.968738
3287.000000	94.962724
3286.000000	94.956801
3285.000000	94.952156
3284.000000	94.949950
3283.000000	94.950306
3282.000000	94.951640
3281.000000	94.951959
3280.000000	94.951321
3279.000000	94.951927
3278.000000	94.955384
3277.000000	94.960851
3276.000000	94.966824
3275.000000	94.973816
3274.000000	94.983595
3273.000000	94.996141
3272.000000	95.008724
3271.000000	95.018123
3270.000000	95.022831
3269.000000	95.023124
3268.000000	95.020437
3267.000000	95.017372
3266.000000	95.017262
3265.000000	95.022246
3264.000000	95.031468
3263.000000	95.041731
3262.000000	95.050244
3261.000000	95.056725
3260.000000	95.063022
3259.000000	95.071091
3258.000000	95.081738
3257.000000	95.094909
3256.000000	95.110235
3255.000000	95.126966
3254.000000	95.143866
3253.000000	95.159850
3252.000000	95.174550
3251.000000	95.187746
3250.000000	95.198449
3249.000000	95.205482
3248.000000	95.209256
3247.000000	95.212095
3246.000000	95.216035
3245.000000	95.220531
3244.000000	95.223358
3243.000000	95.223983
3242.000000	95.225037
3241.000000	95.229806
3240.000000	95.238675
3239.000000	95.249066
3238.000000	95.259005
3237.000000	95.269662
3236.000000	95.283408
3235.000000	95.299881
3234.000000	95.315418
3233.000000	95.326551
3232.000000	95.333102
3231.000000	95.337305
3230.000000	95.340842
3229.000000	95.343843
3228.000000	95.346319
3227.000000	95.349392
3226.000000	95.354710
3225.000000	95.363077
3224.000000	95.373779
3223.000000	95.384967
3222.000000	95.394877
3221.000000	95.403155
3220.000000	95.411002
3219.000000	95.419539
3218.000000	95.428051
3217.000000	95.434503
3216.000000	95.437850
3215.000000	95.439408
3214.000000	95.441669
3213.000000	95.446012
3212.000000	95.451835
3211.000000	95.457707
3210.000000	95.463066
3209.000000	95.468663
3208.000000	95.475567
3207.000000	95.484091
3206.000000	95.493855
3205.000000	95.504504
3204.000000	95.515770
3203.000000	95.526963
3202.000000	95.537205
3201.000000	95.546328
3200.000000	95.554752
3199.000000	95.562239
3198.000000	95.567875
3197.000000	95.572079
3196.000000	95.577550
3195.000000	95.586788
3194.000000	95.599252
3193.000000	95.612343
3192.000000	95.624940
3191.000000	95.638490
3190.000000	95.654381
3189.000000	95.671712
3188.000000	95.688291
3187.000000	95.702835
3186.000000	95.715556
3185.000000	95.727486
3184.000000	95.739822
3183.000000	95.753183
3182.000000	95.766703
3181.000000	95.778433
3180.000000	95.787381
3179.000000	95.794837
3178.000000	95.803246
3177.000000	95.814254
3176.000000	95.828370
3175.000000	95.845501
3174.000000	95.864477
3173.000000	95.882390
3172.000000	95.895980
3171.000000	95.904387
3170.000000	95.909901
3169.000000	95.915835
3168.000000	95.924225
3167.000000	95.935601
3166.000000	95.949869
3165.000000	95.966404
3164.000000	95.983614
3163.000000	95.999357
3162.000000	96.012260
3161.000000	96.022610
3160.000000	96.032063
3159.000000	96.042611
3158.000000	96.055437
3157.000000	96.070161
3156.000000	96.085095
3155.000000	96.098673
3154.000000	96.110984
3153.000000	96.123743
3152.000000	96.138535
3151.000000	96.155204
3150.000000	96.172041
3149.000000	96.187294
3148.000000	96.200232
3147.000000	96.211158
3146.000000	96.221145
3145.000000	96.231804
3144.000000	96.244434
3143.000000	96.258658
3142.000000	96.272186
3141.000000	96.282584
3140.000000	96.289419
3139.000000	96.294449
3138.000000	96.299911
3137.000000	96.307052
3136.000000	96.315918
3135.000000	96.325617
3134.000000	96.334593
3133.000000	96.341414
3132.000000	96.345914
3131.000000	96.349298
3130.000000	96.352944
3129.000000	96.357448
3128.000000	96.362948
3127.000000	96.369756
3126.000000	96.378159
3125.000000	96.387817
3124.000000	96.397667
3123.000000	96.406183
3122.000000	96.411678
3121.000000	96.413117
3120.000000	96.411455
3119.000000	96.409729
3118.000000	96.410666
3117.000000	96.414085
3116.000000	96.417347
3115.000000	96.418515
3114.000000	96.418112
3113.000000	96.417371
3112.000000	96.416001
3111.000000	96.412912
3110.000000	96.408701
3109.000000	96.405887
3108.000000	96.406003
3107.000000	96.407211
3106.000000	96.405598
3105.000000	96.398895
3104.000000	96.388778
3103.000000	96.379500
3102.000000	96.374105
3101.000000	96.371709
3100.000000	96.368656
3099.000000	96.362671
3098.000000	96.355419
3097.000000	96.350428
3096.000000	96.348902
3095.000000	96.348533
3094.000000	96.346371
3093.000000	96.341569
3092.000000	96.334840
3091.000000	96.326766
3090.000000	96.318033
3089.000000	96.310429
3088.000000	96.305754
3087.000000	96.303584
3086.000000	96.301354
3085.000000	96.296926
3084.000000	96.290246
3083.000000	96.282402
3082.000000	96.274277
3081.000000	96.266650
3080.000000	96.260570
3079.000000	96.256593
3078.000000	96.253951
3077.000000	96.251190
3076.000000	96.247562
3075.000000	96.243684
3074.000000	96.241151
3073.000000	96.241626
3072.000000	96.245765
3071.000000	96.252598
3070.000000	96.260204
3069.000000	96.267082
3068.000000	96.272584
3067.000000	96.276281
3066.000000	96.277975
3065.000000	96.278789
3064.000000	96.281161
3063.000000	96.286782
3062.000000	96.294950
3061.000000	96.303590
3060.000000	96.311473
3059.000000	96.318778
3058.000000	96.326083
3057.000000	96.333766
3056.000000	96.342252
3055.000000	96.352026
3054.000000	96.363221
3053.000000	96.375503
3052.000000	96.388197
3051.000000	96.400295
3050.000000	96.411008
3049.000000	96.421032
3048.000000	96.432697
3047.000000	96.447762
3046.000000	96.465158
3045.000000	96.481878
3044.000000	96.496102
3043.000000	96.508551
3042.000000	96.520699
3041.000000	96.532720
3040.000000	96.543828
3039.000000	96.553988
3038.000000	96.564502
3037.000000	96.576915
3036.000000	96.591700
3035.000000	96.607877
3034.000000	96.623556
3033.000000	96.636965
3032.000000	96.647372
3031.000000	96.655444
3030.000000	96.662863
3029.000000	96.671362
3028.000000	96.681619
3027.000000	96.692725
3026.000000	96.703012
3025.000000	96.711721
3024.000000	96.719685
3023.000000	96.728199
3022.000000	96.737737
3021.000000	96.748188
3020.000000	96.759652
3019.000000	96.771991
3018.000000	96.783776
3017.000000	96.792736
3016.000000	96.797625
3015.000000	96.799246
3014.000000	96.799620
3013.000000	96.800608
3012.000000	96.803062
3011.000000	96.806224
3010.000000	96.807737
3009.000000	96.805173
3008.000000	96.798398
3007.000000	96.790301
3006.000000	96.784816
3005.000000	96.783911
3004.000000	96.785916
3003.000000	96.786350
3002.000000	96.780914
3001.000000	96.768760
3000.000000	96.753198
2999.000000	96.738689
2998.000000	96.726939
2997.000000	96.716305
2996.000000	96.704655
2995.000000	96.691641
2994.000000	96.677917
2993.000000	96.663500
2992.000000	96.647957
2991.000000	96.631347
2990.000000	96.613739
2989.000000	96.593998
2988.000000	96.570312
2987.000000	96.542394
2986.000000	96.512555
2985.000000	96.484210
2984.000000	96.459244
2983.000000	96.436615
2982.000000	96.413105
2981.000000	96.385345
2980.000000	96.351850
2979.000000	96.313716
2978.000000	96.273652
2977.000000	96.234168
2976.000000	96.196090
2975.000000	96.158301
2974.000000	96.118675
2973.000000	96.075576
2972.000000	96.028722
2971.000000	95.978659
2970.000000	95.925780
2969.000000	95.870367
2968.000000	95.813707
2967.000000	95.758408
2966.000000	95.706873
2965.000000	95.659518
2964.000000	95.614882
2963.000000	95.571782
2962.000000	95.531106
2961.000000	95.495628
2960.000000	95.468271
2959.000000	95.450607
2958.000000	95.442879
2957.000000	95.444810
2956.000000	95.456152
2955.000000	95.476047
2954.000000	95.502019
2953.000000	95.529953
2952.000000	95.555483
2951.000000	95.575857
2950.000000	95.590235
2949.000000	95.598386
2948.000000	95.599318
2947.000000	95.591760
2946.000000	95.575874
2945.000000	95.553775
2944.000000	95.527815
2943.000000	95.498315
2942.000000	95.463550
2941.000000	95.421832
2940.000000	95.373345
2939.000000	95.319945
2938.000000	95.263828
2937.000000	95.206914
2936.000000	95.151081
2935.000000	95.098522
2934.000000	95.051588
2933.000000	95.012261
2932.000000	94.981325
2931.000000	94.957567
2930.000000	94.938010
2929.000000	94.919596
2928.000000	94.901503
2927.000000	94.886058
2926.000000	94.877292
2925.000000	94.878386
2924.000000	94.890252
2923.000000	94.912448
2922.000000	94.944695
2921.000000	94.986876
2920.000000	95.037606
2919.000000	95.093668
2918.000000	95.151830
2917.000000	95.211027
2916.000000	95.272507
2915.000000	95.337794
2914.000000	95.406784
2913.000000	95.477502
2912.000000	95.546995
2911.000000	95.612494
2910.000000	95.672335
2909.000000	95.726405
2908.000000	95.775764
2907.000000	95.821652
2906.000000	95.864918
2905.000000	95.906249
2904.000000	95.946609
2903.000000	95.987109
2902.000000	96.028457
2901.000000	96.070449
2900.000000	96.111839
2899.000000	96.150928
2898.000000	96.186762
2897.000000	96.219912
2896.000000	96.251811
2895.000000	96.283236
2894.000000	96.313811
2893.000000	96.343049
2892.000000	96.371239
2891.000000	96.398836
2890.000000	96.425159
2889.000000	96.448011
2888.000000	96.464650
2887.000000	96.473352
2886.000000	96.474670
2885.000000	96.471267
2884.000000	96.465909
2883.000000	96.459249
2882.000000	96.449899
2881.000000	96.436645
2880.000000	96.419794
2879.000000	96.400114
2878.000000	96.377625
2877.000000	96.352606
2876.000000	96.327178
2875.000000	96.304664
2874.000000	96.287412
2873.000000	96.275917
2872.000000	96.269929
2871.000000	96.269454
2870.000000	96.274349
2869.000000	96.283438
2868.000000	96.294317
2867.000000	96.303885
2866.000000	96.309339
2865.000000	96.309224
2864.000000	96.303463
2863.000000	96.292333
2862.000000	96.275912
2861.000000	96.255142
2860.000000	96.232808
2859.000000	96.212306
2858.000000	96.195481
2857.000000	96.182650
2856.000000	96.174734
2855.000000	96.174170
2854.000000	96.183462
2853.000000	96.203597
2852.000000	96.234316
2851.000000	96.275285
2850.000000	96.326344
2849.000000	96.386823
2848.000000	96.454862
2847.000000	96.527199
2846.000000	96.599775
2845.000000	96.669355
2844.000000	96.734702
2843.000000	96.795845
2842.000000	96.852152
2841.000000	96.901780
2840.000000	96.943446
2839.000000	96.977999
2838.000000	97.007830
2837.000000	97.035143
2836.000000	97.060842
2835.000000	97.084437
2834.000000	97.104650
2833.000000	97.120803
2832.000000	97.134092
2831.000000	97.146822
2830.000000	97.159897
2829.000000	97.171894
2828.000000	97.181352
2827.000000	97.189300
2826.000000	97.198386
2825.000000	97.209748
2824.000000	97.221834
2823.000000	97.232432
2822.000000	97.241004
2821.000000	97.248764
2820.000000	97.257063
2819.000000	97.266122
2818.000000	97.275038
2817.000000	97.282708
2816.000000	97.288891
2815.000000	97.294469
2814.000000	97.300657
2813.000000	97.307964
2812.000000	97.315986
2811.000000	97.324012
2810.000000	97.331737
2809.000000	97.339651
2808.000000	97.348950
2807.000000	97.360577
2806.000000	97.373724
2805.000000	97.385545
2804.000000	97.393167
2803.000000	97.396309
2802.000000	97.397485
2801.000000	97.399515
2800.000000	97.403176
2799.000000	97.407268
2798.000000	97.410443
2797.000000	97.412705
2796.000000	97.415611
2795.000000	97.421197
2794.000000	97.430136
2793.000000	97.440452
2792.000000	97.448507
2791.000000	97.452114
2790.000000	97.452927
2789.000000	97.455326
2788.000000	97.462747
2787.000000	97.475058
2786.000000	97.489136
2785.000000	97.501477
2784.000000	97.510339
2783.000000	97.516122
2782.000000	97.520275
2781.000000	97.523802
2780.000000	97.526557
2779.000000	97.527990
2778.000000	97.528518
2777.000000	97.529801
2776.000000	97.533387
2775.000000	97.539159
2774.000000	97.545436
2773.000000	97.550634
2772.000000	97.554708
2771.000000	97.558983
2770.000000	97.564669
2769.000000	97.571594
2768.000000	97.578349
2767.000000	97.583796
2766.000000	97.588334
2765.000000	97.593364
2764.000000	97.599414
2763.000000	97.605302
2762.000000	97.609566
2761.000000	97.612384
2760.000000	97.615417
2759.000000	97.619864
2758.000000	97.625254
2757.000000	97.630196
2756.000000	97.633859
2755.000000	97.636649
2754.000000	97.639849
2753.000000	97.644596
2752.000000	97.650667
2751.000000	97.656212
2750.000000	97.659257
2749.000000	97.659681
2748.000000	97.659323
2747.000000	97.660047
2746.000000	97.662377
2745.000000	97.666147
2744.000000	97.671496
2743.000000	97.678457
2742.000000	97.686061
2741.000000	97.692689
2740.000000	97.697270
2739.000000	97.699713
2738.000000	97.700529
2737.000000	97.700730
2736.000000	97.701944
2735.000000	97.705810
2734.000000	97.712833
2733.000000	97.721956
2732.000000	97.731283
2731.000000	97.739100
2730.000000	97.744491
2729.000000	97.747546
2728.000000	97.749196
2727.000000	97.750628
2726.000000	97.752657
2725.000000	97.755571
2724.000000	97.759335
2723.000000	97.763675
2722.000000	97.767963
2721.000000	97.771346
2720.000000	97.773383
2719.000000	97.774787
2718.000000	97.777280
2717.000000	97.782027
2716.000000	97.787802
2715.000000	97.791267
2714.000000	97.789975
2713.000000	97.785105
2712.000000	97.780594
2711.000000	97.779664
2710.000000	97.782834
2709.000000	97.788887
2708.000000	97.796259
2707.000000	97.803158
2706.000000	97.807984
2705.000000	97.810798
2704.000000	97.813515
2703.000000	97.817597
2702.000000	97.822285
2701.000000	97.826079
2700.000000	97.829067
2699.000000	97.832303
2698.000000	97.835481
2697.000000	97.837025
2696.000000	97.836639
2695.000000	97.836295
2694.000000	97.838083
2693.000000	97.842044
2692.000000	97.846504
2691.000000	97.849667
2690.000000	97.850504
2689.000000	97.849010
2688.000000	97.846448
2687.000000	97.844959
2686.000000	97.846153
2685.000000	97.849921
2684.000000	97.854651
2683.000000	97.858451
2682.000000	97.860240
2681.000000	97.860173
2680.000000	97.859315
2679.000000	97.858679
2678.000000	97.858421
2677.000000	97.858042
2676.000000	97.857250
2675.000000	97.856308
2674.000000	97.855706
2673.000000	97.855981
2672.000000	97.857831
2671.000000	97.861652
2670.000000	97.866528
2669.000000	97.870154
2668.000000	97.870493
2667.000000	97.867770
2666.000000	97.864601
2665.000000	97.863848
2664.000000	97.866162
2663.000000	97.869574
2662.000000	97.871495
2661.000000	97.870887
2660.000000	97.868369
2659.000000	97.864726
2658.000000	97.860265
2657.000000	97.855858
2656.000000	97.853698
2655.000000	97.856103
2654.000000	97.863592
2653.000000	97.874448
2652.000000	97.885787
2651.000000	97.894931
2650.000000	97.900554
2649.000000	97.903446
2648.000000	97.905926
2647.000000	97.909744
2646.000000	97.914622
2645.000000	97.919271
2644.000000	97.923279
2643.000000	97.927103
2642.000000	97.930679
2641.000000	97.933271
2640.000000	97.934849
2639.000000	97.936629
2638.000000	97.939881
2637.000000	97.944847
2636.000000	97.950992
2635.000000	97.957723
2634.000000	97.964645
2633.000000	97.971706
2632.000000	97.979245
2631.000000	97.987406
2630.000000	97.995390
2629.000000	98.001906
2628.000000	98.006671
2627.000000	98.011047
2626.000000	98.016824
2625.000000	98.024349
2624.000000	98.031835
2623.000000	98.036553
2622.000000	98.037210
2621.000000	98.035414
2620.000000	98.034293
2619.000000	98.035463
2618.000000	98.038041
2617.000000	98.040949
2616.000000	98.044818
2615.000000	98.050500
2614.000000	98.057053
2613.000000	98.063141
2612.000000	98.069655
2611.000000	98.078369
2610.000000	98.087856
2609.000000	98.093457
2608.000000	98.092578
2607.000000	98.088331
2606.000000	98.086220
2605.000000	98.088354
2604.000000	98.092493
2603.000000	98.095821
2602.000000	98.097705
2601.000000	98.098752
2600.000000	98.099297
2599.000000	98.100000
2598.000000	98.102934
2597.000000	98.110423
2596.000000	98.122337
2595.000000	98.135182
2594.000000	98.144244
2593.000000	98.146636
2592.000000	98.142907
2591.000000	98.137003
2590.000000	98.134798
2589.000000	98.140543
2588.000000	98.152576
2587.000000	98.163276
2586.000000	98.165701
2585.000000	98.160420
2584.000000	98.154118
2583.000000	98.151584
2582.000000	98.151841
2581.000000	98.152519
2580.000000	98.154246
2579.000000	98.158214
2578.000000	98.162086
2577.000000	98.162212
2576.000000	98.159129
2575.000000	98.157810
2574.000000	98.162212
2573.000000	98.171706
2572.000000	98.182810
2571.000000	98.192227
2570.000000	98.197989
2569.000000	98.199761
2568.000000	98.199024
2567.000000	98.197892
2566.000000	98.197354
2565.000000	98.197398
2564.000000	98.198585
2563.000000	98.202157
2562.000000	98.208331
2561.000000	98.215408
2560.000000	98.220801
2559.000000	98.222761
2558.000000	98.221741
2557.000000	98.220634
2556.000000	98.222626
2555.000000	98.227731
2554.000000	98.232383
2553.000000	98.233653
2552.000000	98.232634
2551.000000	98.232181
2550.000000	98.232509
2549.000000	98.231245
2548.000000	98.227233
2547.000000	98.222150
2546.000000	98.218679
2545.000000	98.218972
2544.000000	98.224462
2543.000000	98.234660
2542.000000	98.245574
2541.000000	98.251251
2540.000000	98.248258
2539.000000	98.238574
2538.000000	98.228388
2537.000000	98.224263
2536.000000	98.228977
2535.000000	98.239416
2534.000000	98.249212
2533.000000	98.254818
2532.000000	98.258149
2531.000000	98.262093
2530.000000	98.265160
2529.000000	98.263306
2528.000000	98.256188
2527.000000	98.248621
2526.000000	98.245656
2525.000000	98.248331
2524.000000	98.254158
2523.000000	98.259466
2522.000000	98.261231
2521.000000	98.258955
2520.000000	98.255490
2519.000000	98.254419
2518.000000	98.256246
2517.000000	98.258359
2516.000000	98.258704
2515.000000	98.257931
2514.000000	98.258072
2513.000000	98.260538
2512.000000	98.265082
2511.000000	98.269422
2510.000000	98.270633
2509.000000	98.268633
2508.000000	98.267293
2507.000000	98.269865
2506.000000	98.274488
2505.000000	98.277188
2504.000000	98.278431
2503.000000	98.282827
2502.000000	98.292069
2501.000000	98.302139
2500.000000	98.308761
2499.000000	98.312289
2498.000000	98.315353
2497.000000	98.318463
2496.000000	98.320222
2495.000000	98.319851
2494.000000	98.317483
2493.000000	98.313626
2492.000000	98.310208
2491.000000	98.310411
2490.000000	98.315169
2489.000000	98.320886
2488.000000	98.323147
2487.000000	98.322424
2486.000000	98.323880
2485.000000	98.331139
2484.000000	98.341662
2483.000000	98.349141
2482.000000	98.349718
2481.000000	98.344987
2480.000000	98.339346
2479.000000	98.335339
2478.000000	98.332302
2477.000000	98.329138
2476.000000	98.326938
2475.000000	98.328193
2474.000000	98.334008
2473.000000	98.342807
2472.000000	98.351337
2471.000000	98.356693
2470.000000	98.358265
2469.000000	98.358303
2468.000000	98.359665
2467.000000	98.362375
2466.000000	98.363650
2465.000000	98.362162
2464.000000	98.360759
2463.000000	98.363276
2462.000000	98.369851
2461.000000	98.377077
2460.000000	98.381759
2459.000000	98.382678
2458.000000	98.379667
2457.000000	98.373495
2456.000000	98.366368
2455.000000	98.360691
2454.000000	98.357598
2453.000000	98.358193
2452.000000	98.364809
2451.000000	98.377985
2450.000000	98.392594
2449.000000	98.400578
2448.000000	98.398890
2447.000000	98.392523
2446.000000	98.388593
2445.000000	98.389293
2444.000000	98.391803
2443.000000	98.393219
2442.000000	98.393824
2441.000000	98.395918
2440.000000	98.400368
2439.000000	98.404573
2438.000000	98.404116
2437.000000	98.397144
2436.000000	98.386911
2435.000000	98.379238
2434.000000	98.377784
2433.000000	98.382204
2432.000000	98.389667
2431.000000	98.396841
2430.000000	98.401314
2429.000000	98.403010
2428.000000	98.404194
2427.000000	98.406815
2426.000000	98.410179
2425.000000	98.412277
2424.000000	98.412531
2423.000000	98.411824
2422.000000	98.410812
2421.000000	98.409886
2420.000000	98.409808
2419.000000	98.410386
2418.000000	98.409494
2417.000000	98.405901
2416.000000	98.402464
2415.000000	98.403798
2414.000000	98.410719
2413.000000	98.419319
2412.000000	98.425610
2411.000000	98.428656
2410.000000	98.428905
2409.000000	98.426464
2408.000000	98.422506
2407.000000	98.420262
2406.000000	98.422339
2405.000000	98.427273
2404.000000	98.429975
2403.000000	98.426120
2402.000000	98.416490
2401.000000	98.407301
2400.000000	98.405634
2399.000000	98.413346
2398.000000	98.425477
2397.000000	98.434936
2396.000000	98.438172
2395.000000	98.436194
2394.000000	98.431950
2393.000000	98.428276
2392.000000	98.427230
2391.000000	98.429323
2390.000000	98.433534
2389.000000	98.439095
2388.000000	98.446439
2387.000000	98.455064
2386.000000	98.462090
2385.000000	98.465107
2384.000000	98.466026
2383.000000	98.470178
2382.000000	98.481419
2381.000000	98.499643
2380.000000	98.521822
2379.000000	98.543193
2378.000000	98.558149
2377.000000	98.562889
2376.000000	98.558249
2375.000000	98.548138
2374.000000	98.535448
2373.000000	98.521642
2372.000000	98.509686
2371.000000	98.503198
2370.000000	98.501839
2369.000000	98.500894
2368.000000	98.496039
2367.000000	98.486568
2366.000000	98.473664
2365.000000	98.458666
2364.000000	98.443692
2363.000000	98.430986
2362.000000	98.421480
2361.000000	98.415237
2360.000000	98.412625
2359.000000	98.415653
2358.000000	98.427045
2357.000000	98.446767
2356.000000	98.468446
2355.000000	98.482634
2354.000000	98.488189
2353.000000	98.492633
2352.000000	98.497040
2351.000000	98.491445
2350.000000	98.471450
2349.000000	98.446831
2348.000000	98.431670
2347.000000	98.432025
2346.000000	98.440369
2345.000000	98.441639
2344.000000	98.429994
2343.000000	98.414159
2342.000000	98.407337
2341.000000	98.415895
2340.000000	98.434099
2339.000000	98.449066
2338.000000	98.451883
2337.000000	98.444603
2336.000000	98.436614
2335.000000	98.436147
2334.000000	98.444583
2333.000000	98.457760
2332.000000	98.468273
2331.000000	98.470025
2330.000000	98.461688
2329.000000	98.447773
2328.000000	98.432225
2327.000000	98.414588
2326.000000	98.393795
2325.000000	98.375401
2324.000000	98.370162
2323.000000	98.383228
2322.000000	98.406467
2321.000000	98.425791
2320.000000	98.434427
2319.000000	98.435926
2318.000000	98.435095
2317.000000	98.433290
2316.000000	98.429984
2315.000000	98.425763
2314.000000	98.421511
2313.000000	98.420051
2312.000000	98.425726
2311.000000	98.440062
2310.000000	98.456809
2309.000000	98.467273
2308.000000	98.469613
2307.000000	98.469584
2306.000000	98.470808
2305.000000	98.470171
2304.000000	98.463458
2303.000000	98.451755
2302.000000	98.439136
2301.000000	98.428184
2300.000000	98.419644
2299.000000	98.414759
2298.000000	98.413925
2297.000000	98.415185
2296.000000	98.414882
2295.000000	98.410570
2294.000000	98.402011
2293.000000	98.391011
2292.000000	98.380226
2291.000000	98.371692
2290.000000	98.366313
2289.000000	98.364899
2288.000000	98.367958
2287.000000	98.373083
2286.000000	98.375316
2285.000000	98.372880
2284.000000	98.370726
2283.000000	98.374733
2282.000000	98.384508
2281.000000	98.395652
2280.000000	98.406509
2279.000000	98.416778
2278.000000	98.421551
2277.000000	98.414711
2276.000000	98.398860
2275.000000	98.385237
2274.000000	98.382593
2273.000000	98.391588
2272.000000	98.409818
2271.000000	98.435125
2270.000000	98.462452
2269.000000	98.484536
2268.000000	98.498855
2267.000000	98.508697
2266.000000	98.515226
2265.000000	98.514195
2264.000000	98.503179
2263.000000	98.486867
2262.000000	98.472322
2261.000000	98.462704
2260.000000	98.457225
2259.000000	98.453850
2258.000000	98.451223
2257.000000	98.450872
2256.000000	98.456863
2255.000000	98.469742
2254.000000	98.482791
2253.000000	98.489450
2252.000000	98.491804
2251.000000	98.495281
2250.000000	98.498112
2249.000000	98.494756
2248.000000	98.487741
2247.000000	98.486027
2246.000000	98.492055
2245.000000	98.500355
2244.000000	98.509005
2243.000000	98.521258
2242.000000	98.534110
2241.000000	98.537383
2240.000000	98.528866
2239.000000	98.520092
2238.000000	98.521434
2237.000000	98.530359
2236.000000	98.539857
2235.000000	98.549984
2234.000000	98.563700
2233.000000	98.577428
2232.000000	98.582911
2231.000000	98.575239
2230.000000	98.555305
2229.000000	98.528757
2228.000000	98.505559
2227.000000	98.496045
2226.000000	98.504491
2225.000000	98.528896
2224.000000	98.565290
2223.000000	98.605983
2222.000000	98.635525
2221.000000	98.639345
2220.000000	98.620038
2219.000000	98.596264
2218.000000	98.582436
2217.000000	98.577045
2216.000000	98.572193
2215.000000	98.564849
2214.000000	98.555316
2213.000000	98.544123
2212.000000	98.536029
2211.000000	98.539800
2210.000000	98.558550
2209.000000	98.584875
2208.000000	98.608887
2207.000000	98.626249
2206.000000	98.635943
2205.000000	98.635966
2204.000000	98.624845
2203.000000	98.604239
2202.000000	98.579641
2201.000000	98.561255
2200.000000	98.560009
2199.000000	98.576175
2198.000000	98.596592
2197.000000	98.611865
2196.000000	98.631414
2195.000000	98.668736
2194.000000	98.714967
2193.000000	98.742085
2192.000000	98.734166
2191.000000	98.702485
2190.000000	98.668245
2189.000000	98.645694
2188.000000	98.642628
2187.000000	98.660410
2186.000000	98.687351
2185.000000	98.705039
2184.000000	98.708794
2183.000000	98.712035
2182.000000	98.724921
2181.000000	98.739166
2180.000000	98.739159
2179.000000	98.718284
2178.000000	98.681167
2177.000000	98.640799
2176.000000	98.615209
2175.000000	98.614631
2174.000000	98.628970
2173.000000	98.636879
2172.000000	98.628298
2171.000000	98.610108
2170.000000	98.592856
2169.000000	98.582772
2168.000000	98.583566
2167.000000	98.594972
2166.000000	98.612031
2165.000000	98.634896
2164.000000	98.671363
2163.000000	98.716264
2162.000000	98.742342
2161.000000	98.738512
2160.000000	98.748607
2159.000000	98.831202
2158.000000	98.971347
2157.000000	99.082901
2156.000000	99.109107
2155.000000	99.068044
2154.000000	99.003049
2153.000000	98.939713
2152.000000	98.888405
2151.000000	98.852098
2150.000000	98.826740
2149.000000	98.811964
2148.000000	98.819898
2147.000000	98.854675
2146.000000	98.888559
2145.000000	98.883169
2144.000000	98.836692
2143.000000	98.785763
2142.000000	98.758394
2141.000000	98.748019
2140.000000	98.736640
2139.000000	98.721557
2138.000000	98.710180
2137.000000	98.705798
2136.000000	98.708560
2135.000000	98.718603
2134.000000	98.730653
2133.000000	98.735359
2132.000000	98.731079
2131.000000	98.725361
2130.000000	98.722172
2129.000000	98.716814
2128.000000	98.704761
2127.000000	98.686900
2126.000000	98.665453
2125.000000	98.643622
2124.000000	98.629650
2123.000000	98.630751
2122.000000	98.640943
2121.000000	98.644118
2120.000000	98.632232
2119.000000	98.611643
2118.000000	98.589720
2117.000000	98.566425
2116.000000	98.543352
2115.000000	98.530120
2114.000000	98.533560
2113.000000	98.547142
2112.000000	98.558265
2111.000000	98.561618
2110.000000	98.559286
2109.000000	98.552578
2108.000000	98.540975
2107.000000	98.526767
2106.000000	98.515385
2105.000000	98.511473
2104.000000	98.516293
2103.000000	98.526681
2102.000000	98.535727
2101.000000	98.537925
2100.000000	98.535528
2099.000000	98.537133
2098.000000	98.549852
2097.000000	98.575057
2096.000000	98.609035
2095.000000	98.643008
2094.000000	98.665036
2093.000000	98.668859
2092.000000	98.660098
2091.000000	98.647584
2090.000000	98.631462
2089.000000	98.607029
2088.000000	98.577892
2087.000000	98.556326
2086.000000	98.550451
2085.000000	98.558092
2084.000000	98.571804
2083.000000	98.583352
2082.000000	98.586071
2081.000000	98.581639
2080.000000	98.582119
2079.000000	98.595142
2078.000000	98.609222
2077.000000	98.606404
2076.000000	98.587872
2075.000000	98.573639
2074.000000	98.576890
2073.000000	98.592493
2072.000000	98.611691
2071.000000	98.631402
2070.000000	98.646525
2069.000000	98.649917
2068.000000	98.646604
2067.000000	98.652747
2066.000000	98.673147
2065.000000	98.691678
2064.000000	98.691135
2063.000000	98.672371
2062.000000	98.648122
2061.000000	98.630791
2060.000000	98.629371
2059.000000	98.644160
2058.000000	98.661506
2057.000000	98.668160
2056.000000	98.673220
2055.000000	98.697752
2054.000000	98.736951
2053.000000	98.754355
2052.000000	98.726568
2051.000000	98.674697
2050.000000	98.639299
2049.000000	98.637484
2048.000000	98.656517
2047.000000	98.680216
2046.000000	98.703287
2045.000000	98.721855
2044.000000	98.728350
2043.000000	98.718223
2042.000000	98.694847
2041.000000	98.671264
2040.000000	98.666858
2039.000000	98.690259
2038.000000	98.725197
2037.000000	98.747260
2036.000000	98.757645
2035.000000	98.783045
2034.000000	98.835788
2033.000000	98.896260
2032.000000	98.943710
2031.000000	98.979090
2030.000000	99.002711
2029.000000	98.998357
2028.000000	98.961380
2027.000000	98.921236
2026.000000	98.914203
2025.000000	98.943354
2024.000000	98.978544
2023.000000	98.987765
2022.000000	98.962235
2021.000000	98.919925
2020.000000	98.889622
2019.000000	98.882676
2018.000000	98.881231
2017.000000	98.863812
2016.000000	98.837578
2015.000000	98.827024
2014.000000	98.839140
2013.000000	98.862455
2012.000000	98.891520
2011.000000	98.928318
2010.000000	98.962845
2009.000000	98.978550
2008.000000	98.978555
2007.000000	98.979730
2006.000000	98.979491
2005.000000	98.958902
2004.000000	98.921240
2003.000000	98.894390
2002.000000	98.891571
2001.000000	98.894493
2000.000000	98.879536
1999.000000	98.843682
1998.000000	98.798990
1997.000000	98.763555
1996.000000	98.758784
1995.000000	98.793194
1994.000000	98.842088
1993.000000	98.860395
1992.000000	98.828769
1991.000000	98.775405
1990.000000	98.739828
1989.000000	98.734576
1988.000000	98.749597
1987.000000	98.771730
1986.000000	98.791080
1985.000000	98.802361
1984.000000	98.805686
1983.000000	98.796780
1982.000000	98.761680
1981.000000	98.700255
1980.000000	98.651518
1979.000000	98.669036
1978.000000	98.759800
1977.000000	98.869618
1976.000000	98.939371
1975.000000	98.952980
1974.000000	98.924179
1973.000000	98.878104
1972.000000	98.852102
1971.000000	98.874087
1970.000000	98.930337
1969.000000	98.978459
1968.000000	98.995722
1967.000000	98.994254
1966.000000	98.988426
1965.000000	98.977540
1964.000000	98.964830
1963.000000	98.962851
1962.000000	98.974549
1961.000000	98.989911
1960.000000	99.002818
1959.000000	99.011068
1958.000000	99.003085
1957.000000	98.970421
1956.000000	98.930581
1955.000000	98.911198
1954.000000	98.912556
1953.000000	98.910430
1952.000000	98.896718
1951.000000	98.890507
1950.000000	98.906246
1949.000000	98.932142
1948.000000	98.948876
1947.000000	98.951310
1946.000000	98.942389
1945.000000	98.923772
1944.000000	98.902454
1943.000000	98.892659
1942.000000	98.899937
1941.000000	98.913543
1940.000000	98.921801
1939.000000	98.920841
1938.000000	98.908819
1937.000000	98.886909
1936.000000	98.865174
1935.000000	98.854187
1934.000000	98.851099
1933.000000	98.845135
1932.000000	98.834686
1931.000000	98.826053
1930.000000	98.820621
1929.000000	98.814212
1928.000000	98.810563
1927.000000	98.819969
1926.000000	98.840654
1925.000000	98.860014
1924.000000	98.871566
1923.000000	98.884474
1922.000000	98.906136
1921.000000	98.927985
1920.000000	98.935727
1919.000000	98.923573
1918.000000	98.897109
1917.000000	98.870105
1916.000000	98.855401
1915.000000	98.854639
1914.000000	98.858579
1913.000000	98.860881
1912.000000	98.865325
1911.000000	98.874601
1910.000000	98.878986
1909.000000	98.866706
1908.000000	98.844260
1907.000000	98.829451
1906.000000	98.826934
1905.000000	98.830366
1904.000000	98.837102
1903.000000	98.850919
1902.000000	98.867384
1901.000000	98.873323
1900.000000	98.867717
1899.000000	98.866029
1898.000000	98.876795
1897.000000	98.891188
1896.000000	98.897120
1895.000000	98.895618
1894.000000	98.894350
1893.000000	98.894649
1892.000000	98.892814
1891.000000	98.886735
1890.000000	98.876804
1889.000000	98.866276
1888.000000	98.862477
1887.000000	98.869864
1886.000000	98.882286
1885.000000	98.890135
1884.000000	98.893032
1883.000000	98.896986
1882.000000	98.901350
1881.000000	98.899612
1880.000000	98.894532
1879.000000	98.896520
1878.000000	98.904796
1877.000000	98.907050
1876.000000	98.898020
1875.000000	98.886168
1874.000000	98.882093
1873.000000	98.889158
1872.000000	98.906775
1871.000000	98.933483
1870.000000	98.961994
1869.000000	98.979493
1868.000000	98.981910
1867.000000	98.978171
1866.000000	98.970935
1865.000000	98.953756
1864.000000	98.928352
1863.000000	98.907302
1862.000000	98.897949
1861.000000	98.895250
1860.000000	98.893889
1859.000000	98.895975
1858.000000	98.902283
1857.000000	98.908296
1856.000000	98.913411
1855.000000	98.922190
1854.000000	98.933608
1853.000000	98.939833
1852.000000	98.939296
1851.000000	98.939984
1850.000000	98.940813
1849.000000	98.935647
1848.000000	98.929707
1847.000000	98.936542
1846.000000	98.954974
1845.000000	98.965650
1844.000000	98.956978
1843.000000	98.943840
1842.000000	98.943010
1841.000000	98.947048
1840.000000	98.942921
1839.000000	98.932116
1838.000000	98.922057
1837.000000	98.914342
1836.000000	98.907211
1835.000000	98.905796
1834.000000	98.914701
1833.000000	98.928412
1832.000000	98.938766
1831.000000	98.944611
1830.000000	98.946803
1829.000000	98.945250
1828.000000	98.942126
1827.000000	98.940277
1826.000000	98.938233
1825.000000	98.934654
1824.000000	98.933065
1823.000000	98.937090
1822.000000	98.942287
1821.000000	98.941783
1820.000000	98.938668
1819.000000	98.940938
1818.000000	98.947878
1817.000000	98.952433
1816.000000	98.953097
1815.000000	98.957050
1814.000000	98.965037
1813.000000	98.967047
1812.000000	98.958896
1811.000000	98.948301
1810.000000	98.944304
1809.000000	98.942849
1808.000000	98.934080
1807.000000	98.918574
1806.000000	98.904795
1805.000000	98.897862
1804.000000	98.897060
1803.000000	98.899681
1802.000000	98.901203
1801.000000	98.895731
1800.000000	98.886488
1799.000000	98.879851
1798.000000	98.876870
1797.000000	98.873850
1796.000000	98.872643
1795.000000	98.879063
1794.000000	98.890752
1793.000000	98.897501
1792.000000	98.898801
1791.000000	98.905531
1790.000000	98.922081
1789.000000	98.938043
1788.000000	98.944705
1787.000000	98.944706
1786.000000	98.943899
1785.000000	98.942391
1784.000000	98.940510
1783.000000	98.944054
1782.000000	98.951375
1781.000000	98.950497
1780.000000	98.943291
1779.000000	98.941231
1778.000000	98.950196
1777.000000	98.963576
1776.000000	98.977595
1775.000000	98.994968
1774.000000	99.008977
1773.000000	99.007849
1772.000000	98.997427
1771.000000	98.995332
1770.000000	98.994999
1769.000000	98.972246
1768.000000	98.923705
1767.000000	98.879272
1766.000000	98.864328
1765.000000	98.865306
1764.000000	98.851915
1763.000000	98.811300
1762.000000	98.752126
1761.000000	98.686043
1760.000000	98.619582
1759.000000	98.545775
1758.000000	98.446233
1757.000000	98.304223
1756.000000	98.139617
1755.000000	97.992952
1754.000000	97.864158
1753.000000	97.712825
1752.000000	97.514138
1751.000000	97.295299
1750.000000	97.102146
1749.000000	96.941770
1748.000000	96.796970
1747.000000	96.673636
1746.000000	96.578359
1745.000000	96.501169
1744.000000	96.440101
1743.000000	96.408521
1742.000000	96.415585
1741.000000	96.451298
1740.000000	96.505809
1739.000000	96.581667
1738.000000	96.677129
1737.000000	96.775805
1736.000000	96.869910
1735.000000	96.988616
1734.000000	97.160502
1733.000000	97.344517
1732.000000	97.508344
1731.000000	97.660658
1730.000000	97.802819
1729.000000	97.927067
1728.000000	98.035448
1727.000000	98.139437
1726.000000	98.239367
1725.000000	98.328099
1724.000000	98.406827
1723.000000	98.480665
1722.000000	98.550700
1721.000000	98.607291
1720.000000	98.642771
1719.000000	98.665958
1718.000000	98.695393
1717.000000	98.729921
1716.000000	98.753859
1715.000000	98.765086
1714.000000	98.758880
1713.000000	98.727393
1712.000000	98.677103
1711.000000	98.624884
1710.000000	98.577323
1709.000000	98.526951
1708.000000	98.469732
1707.000000	98.405633
1706.000000	98.327714
1705.000000	98.237907
1704.000000	98.157867
1703.000000	98.094481
1702.000000	98.006273
1701.000000	97.837747
1700.000000	97.622428
1699.000000	97.487911
1698.000000	97.436641
1697.000000	97.344677
1696.000000	97.149731
1695.000000	96.929566
1694.000000	96.785643
1693.000000	96.703449
1692.000000	96.615814
1691.000000	96.496139
1690.000000	96.359817
1689.000000	96.228860
1688.000000	96.118067
1687.000000	96.025039
1686.000000	95.916975
1685.000000	95.748226
1684.000000	95.528756
1683.000000	95.360019
1682.000000	95.259532
1681.000000	95.149897
1680.000000	94.997905
1679.000000	94.836895
1678.000000	94.695761
1677.000000	94.549093
1676.000000	94.357773
1675.000000	94.142067
1674.000000	93.965938
1673.000000	93.838163
1672.000000	93.712669
1671.000000	93.550020
1670.000000	93.345247
1669.000000	93.117994
1668.000000	92.906069
1667.000000	92.735836
1666.000000	92.595542
1665.000000	92.448154
1664.000000	92.263720
1663.000000	92.051319
1662.000000	91.853146
1661.000000	91.686114
1660.000000	91.536708
1659.000000	91.395193
1658.000000	91.266205
1657.000000	91.155305
1656.000000	91.053618
1655.000000	90.933098
1654.000000	90.759524
1653.000000	90.551411
1652.000000	90.407647
1651.000000	90.366567
1650.000000	90.370014
1649.000000	90.343569
1648.000000	90.258727
1647.000000	90.146978
1646.000000	90.059439
1645.000000	90.001002
1644.000000	89.952181
1643.000000	89.907757
1642.000000	89.865669
1641.000000	89.820194
1640.000000	89.777088
1639.000000	89.747679
1638.000000	89.729360
1637.000000	89.701931
1636.000000	89.652987
1635.000000	89.606068
1634.000000	89.585214
1633.000000	89.584055
1632.000000	89.580451
1631.000000	89.570412
1630.000000	89.567866
1629.000000	89.585842
1628.000000	89.628231
1627.000000	89.693943
1626.000000	89.777828
1625.000000	89.873108
1624.000000	89.982372
1623.000000	90.112831
1622.000000	90.257241
1621.000000	90.396210
1620.000000	90.522030
1619.000000	90.639797
1618.000000	90.770031
1617.000000	90.940502
1616.000000	91.145127
1615.000000	91.345818
1614.000000	91.522651
1613.000000	91.679196
1612.000000	91.826716
1611.000000	91.978093
1610.000000	92.138103
1609.000000	92.302780
1608.000000	92.467307
1607.000000	92.626632
1606.000000	92.774991
1605.000000	92.910649
1604.000000	93.039408
1603.000000	93.161416
1602.000000	93.271554
1601.000000	93.371657
1600.000000	93.468306
1599.000000	93.561158
1598.000000	93.643631
1597.000000	93.715672
1596.000000	93.783946
1595.000000	93.849080
1594.000000	93.904564
1593.000000	93.947751
1592.000000	93.982088
1591.000000	94.007965
1590.000000	94.022654
1589.000000	94.029061
1588.000000	94.034060
1587.000000	94.036974
1586.000000	94.031249
1585.000000	94.014733
1584.000000	93.991945
1583.000000	93.964100
1582.000000	93.924566
1581.000000	93.877917
1580.000000	93.837460
1579.000000	93.801642
1578.000000	93.748633
1577.000000	93.665975
1576.000000	93.570840
1575.000000	93.492115
1574.000000	93.436881
1573.000000	93.388331
1572.000000	93.324084
1571.000000	93.227068
1570.000000	93.097829
1569.000000	92.964623
1568.000000	92.856214
1567.000000	92.762950
1566.000000	92.654246
1565.000000	92.524116
1564.000000	92.397665
1563.000000	92.298736
1562.000000	92.212685
1561.000000	92.106912
1560.000000	91.949155
1559.000000	91.745163
1558.000000	91.581699
1557.000000	91.488797
1556.000000	91.409004
1555.000000	91.298940
1554.000000	91.161198
1553.000000	91.033306
1552.000000	90.938636
1551.000000	90.855851
1550.000000	90.763624
1549.000000	90.672129
1548.000000	90.598988
1547.000000	90.541168
1546.000000	90.482402
1545.000000	90.424167
1544.000000	90.385487
1543.000000	90.372821
1542.000000	90.368638
1541.000000	90.358515
1540.000000	90.345289
1539.000000	90.333002
1538.000000	90.323470
1537.000000	90.327178
1536.000000	90.335258
1535.000000	90.337753
1534.000000	90.343871
1533.000000	90.366769
1532.000000	90.402578
1531.000000	90.436557
1530.000000	90.464823
1529.000000	90.493586
1528.000000	90.531340
1527.000000	90.583662
1526.000000	90.646720
1525.000000	90.710674
1524.000000	90.770318
1523.000000	90.825577
1522.000000	90.885171
1521.000000	90.951930
1520.000000	91.017042
1519.000000	91.081375
1518.000000	91.144975
1517.000000	91.207750
1516.000000	91.272929
1515.000000	91.341578
1514.000000	91.412706
1513.000000	91.484702
1512.000000	91.564062
1511.000000	91.659292
1510.000000	91.769050
1509.000000	91.882159
1508.000000	92.007351
1507.000000	92.178265
1506.000000	92.365731
1505.000000	92.500993
1504.000000	92.598793
1503.000000	92.688179
1502.000000	92.774517
1501.000000	92.863031
1500.000000	92.960248
1499.000000	93.070709
1498.000000	93.192176
1497.000000	93.316518
1496.000000	93.430967
1495.000000	93.534285
1494.000000	93.633833
1493.000000	93.724569
1492.000000	93.802574
1491.000000	93.882687
1490.000000	93.980800
1489.000000	94.079802
1488.000000	94.151667
1487.000000	94.195143
1486.000000	94.222079
1485.000000	94.232130
1484.000000	94.226082
1483.000000	94.213051
1482.000000	94.195451
1481.000000	94.170023
1480.000000	94.134999
1479.000000	94.094032
1478.000000	94.044218
1477.000000	93.980051
1476.000000	93.905681
1475.000000	93.831847
1474.000000	93.749850
1473.000000	93.630538
1472.000000	93.476035
1471.000000	93.327136
1470.000000	93.202984
1469.000000	93.088113
1468.000000	92.971991
1467.000000	92.860353
1466.000000	92.757779
1465.000000	92.657292
1464.000000	92.560855
1463.000000	92.478733
1462.000000	92.409528
1461.000000	92.342192
1460.000000	92.267854
1459.000000	92.179942
1458.000000	92.059629
1457.000000	91.898470
1456.000000	91.746414
1455.000000	91.657685
1454.000000	91.612257
1453.000000	91.567523
1452.000000	91.517648
1451.000000	91.479222
1450.000000	91.457797
1449.000000	91.443219
1448.000000	91.433252
1447.000000	91.437671
1446.000000	91.455197
1445.000000	91.472449
1444.000000	91.487644
1443.000000	91.504504
1442.000000	91.525952
1441.000000	91.551809
1440.000000	91.581283
1439.000000	91.610565
1438.000000	91.636579
1437.000000	91.665910
1436.000000	91.709406
1435.000000	91.770735
1434.000000	91.838750
1433.000000	91.898677
1432.000000	91.946744
1431.000000	91.990086
1430.000000	92.030964
1429.000000	92.061740
1428.000000	92.075835
1427.000000	92.079776
1426.000000	92.081958
1425.000000	92.084518
1424.000000	92.091544
1423.000000	92.101933
1422.000000	92.106794
1421.000000	92.095923
1420.000000	92.071754
1419.000000	92.051708
1418.000000	92.048173
1417.000000	92.055646
1416.000000	92.061310
1415.000000	92.060397
1414.000000	92.056131
1413.000000	92.052520
1412.000000	92.050286
1411.000000	92.047762
1410.000000	92.043603
1409.000000	92.037401
1408.000000	92.027639
1407.000000	92.015099
1406.000000	92.003347
1405.000000	91.995349
1404.000000	91.994471
1403.000000	91.998795
1402.000000	92.001663
1401.000000	91.998255
1400.000000	91.994233
1399.000000	92.001852
1398.000000	92.021780
1397.000000	92.041398
1396.000000	92.051929
1395.000000	92.059110
1394.000000	92.072546
1393.000000	92.096047
1392.000000	92.129007
1391.000000	92.165838
1390.000000	92.199480
1389.000000	92.228011
1388.000000	92.258773
1387.000000	92.301677
1386.000000	92.356538
1385.000000	92.413585
1384.000000	92.466330
1383.000000	92.514833
1382.000000	92.562803
1381.000000	92.614441
1380.000000	92.672990
1379.000000	92.740549
1378.000000	92.815194
1377.000000	92.894148
1376.000000	92.979662
1375.000000	93.076690
1374.000000	93.179664
1373.000000	93.273136
1372.000000	93.350827
1371.000000	93.420057
1370.000000	93.489173
1369.000000	93.561622
1368.000000	93.638651
1367.000000	93.718112
1366.000000	93.796254
1365.000000	93.871245
1364.000000	93.944316
1363.000000	94.015040
1362.000000	94.077782
1361.000000	94.128227
1360.000000	94.168466
1359.000000	94.201498
1358.000000	94.227189
1357.000000	94.245707
1356.000000	94.259650
1355.000000	94.270011
1354.000000	94.273059
1353.000000	94.264821
1352.000000	94.246419
1351.000000	94.223721
1350.000000	94.200788
1349.000000	94.175583
1348.000000	94.144238
1347.000000	94.103799
1346.000000	94.054557
1345.000000	94.000165
1344.000000	93.946478
1343.000000	93.896490
1342.000000	93.847341
1341.000000	93.794342
1340.000000	93.738742
1339.000000	93.688867
1338.000000	93.652340
1337.000000	93.630729
1336.000000	93.622985
1335.000000	93.628682
1334.000000	93.646513
1333.000000	93.674166
1332.000000	93.710907
1331.000000	93.757752
1330.000000	93.813409
1329.000000	93.872560
1328.000000	93.929698
1327.000000	93.982410
1326.000000	94.029946
1325.000000	94.070935
1324.000000	94.104157
1323.000000	94.129214
1322.000000	94.147091
1321.000000	94.160172
1320.000000	94.171913
1319.000000	94.185334
1318.000000	94.201465
1317.000000	94.220050
1316.000000	94.241525
1315.000000	94.267081
1314.000000	94.296925
1313.000000	94.329986
1312.000000	94.365114
1311.000000	94.401587
1310.000000	94.438457
1309.000000	94.475102
1308.000000	94.512555
1307.000000	94.552766
1306.000000	94.595481
1305.000000	94.637170
1304.000000	94.674485
1303.000000	94.707397
1302.000000	94.738871
1301.000000	94.771513
1300.000000	94.805500
1299.000000	94.839131
1298.000000	94.870080
1297.000000	94.895579
1296.000000	94.912644
1295.000000	94.919184
1294.000000	94.915277
1293.000000	94.903028
1292.000000	94.885250
1291.000000	94.864295
1290.000000	94.840722
1289.000000	94.813033
1288.000000	94.779661
1287.000000	94.741948
1286.000000	94.704457
1285.000000	94.671667
1284.000000	94.645407
1283.000000	94.625766
1282.000000	94.612883
1281.000000	94.606180
1280.000000	94.602479
1279.000000	94.596618
1278.000000	94.585279
1277.000000	94.570004
1276.000000	94.555107
1275.000000	94.542395
1274.000000	94.528630
1273.000000	94.508700
1272.000000	94.480399
1271.000000	94.445385
1270.000000	94.405694
1269.000000	94.361134
1268.000000	94.310546
1267.000000	94.253797
1266.000000	94.192002
1265.000000	94.126763
1264.000000	94.060048
1263.000000	93.993648
1262.000000	93.927595
1261.000000	93.860471
1260.000000	93.792219
1259.000000	93.725004
1258.000000	93.660278
1257.000000	93.597154
1256.000000	93.534861
1255.000000	93.474484
1254.000000	93.416414
1253.000000	93.358029
1252.000000	93.295832
1251.000000	93.228721
1250.000000	93.157673
1249.000000	93.083930
1248.000000	93.009008
1247.000000	92.934590
1246.000000	92.860808
1245.000000	92.786343
1244.000000	92.711673
1243.000000	92.640459
1242.000000	92.576440
1241.000000	92.520709
1240.000000	92.473400
1239.000000	92.435827
1238.000000	92.409248
1237.000000	92.394580
1236.000000	92.393829
1235.000000	92.409001
1234.000000	92.438680
1233.000000	92.477890
1232.000000	92.523834
1231.000000	92.579054
1230.000000	92.648417
1229.000000	92.735720
1228.000000	92.842235
1227.000000	92.966159
1226.000000	93.101836
1225.000000	93.241721
1224.000000	93.380774
1223.000000	93.517760
1222.000000	93.653156
1221.000000	93.786479
1220.000000	93.914659
1219.000000	94.032024
1218.000000	94.133835
1217.000000	94.220186
1216.000000	94.294503
1215.000000	94.357919
1214.000000	94.406857
1213.000000	94.438470
1212.000000	94.455203
1211.000000	94.461611
1210.000000	94.458971
1209.000000	94.444986
1208.000000	94.418982
1207.000000	94.384408
1206.000000	94.346618
1205.000000	94.310798
1204.000000	94.281611
1203.000000	94.262100
1202.000000	94.252038
1201.000000	94.249900
1200.000000	94.256773
1199.000000	94.275933
1198.000000	94.307505
1197.000000	94.346464
1196.000000	94.387168
1195.000000	94.427393
1194.000000	94.467372
1193.000000	94.506913
1192.000000	94.544984
1191.000000	94.580828
1190.000000	94.614348
1189.000000	94.645744
1188.000000	94.674820
1187.000000	94.699930
1186.000000	94.717890
1185.000000	94.726725
1184.000000	94.727779
1183.000000	94.723635
1182.000000	94.714249
1181.000000	94.696793
1180.000000	94.670325
1179.000000	94.638075
1178.000000	94.604098
1177.000000	94.569803
1176.000000	94.534679
1175.000000	94.498623
1174.000000	94.461856
1173.000000	94.424329
1172.000000	94.386852
1171.000000	94.351322
1170.000000	94.318515
1169.000000	94.286975
1168.000000	94.255360
1167.000000	94.224383
1166.000000	94.195636
1165.000000	94.170088
1164.000000	94.149136
1163.000000	94.135646
1162.000000	94.132162
1161.000000	94.140145
1160.000000	94.161495
1159.000000	94.198800
1158.000000	94.252990
1157.000000	94.321672
1156.000000	94.401721
1155.000000	94.491502
1154.000000	94.590010
1153.000000	94.696063
1152.000000	94.808412
1151.000000	94.925899
1150.000000	95.046793
1149.000000	95.169138
1148.000000	95.291970
1147.000000	95.414836
1146.000000	95.536341
1145.000000	95.654266
1144.000000	95.767055
1143.000000	95.873904
1142.000000	95.973924
1141.000000	96.066363
1140.000000	96.152106
1139.000000	96.234170
1138.000000	96.315005
1137.000000	96.393355
1136.000000	96.463837
1135.000000	96.520391
1134.000000	96.561272
1133.000000	96.590286
1132.000000	96.613712
1131.000000	96.635603
1130.000000	96.655250
1129.000000	96.669229
1128.000000	96.675825
1127.000000	96.677987
1126.000000	96.681039
1125.000000	96.687057
1124.000000	96.693055
1123.000000	96.695124
1122.000000	96.693067
1121.000000	96.689100
1120.000000	96.682710
1119.000000	96.669554
1118.000000	96.645561
1117.000000	96.610560
1116.000000	96.566963
1115.000000	96.516236
1114.000000	96.458607
1113.000000	96.395920
1112.000000	96.333748
1111.000000	96.279651
1110.000000	96.239028
1109.000000	96.212779
1108.000000	96.198627
1107.000000	96.193154
1106.000000	96.192664
1105.000000	96.194570
1104.000000	96.198855
1103.000000	96.206535
1102.000000	96.214982
1101.000000	96.216058
1100.000000	96.201106
1099.000000	96.167899
1098.000000	96.121631
1097.000000	96.069969
1096.000000	96.019114
1095.000000	95.973530
1094.000000	95.935812
1093.000000	95.905293
1092.000000	95.878601
1091.000000	95.852625
1090.000000	95.826271
1089.000000	95.799511
1088.000000	95.772494
1087.000000	95.746371
1086.000000	95.723544
1085.000000	95.707006
1084.000000	95.699677
1083.000000	95.703828
1082.000000	95.720259
1081.000000	95.747854
1080.000000	95.785460
1079.000000	95.833303
1078.000000	95.891469
1077.000000	95.958014
1076.000000	96.029218
1075.000000	96.101443
1074.000000	96.171302
1073.000000	96.234533
1072.000000	96.286731
1071.000000	96.326333
1070.000000	96.355592
1069.000000	96.377331
1068.000000	96.392117
1067.000000	96.400001
1066.000000	96.404297
1065.000000	96.410711
1064.000000	96.422342
1063.000000	96.437431
1062.000000	96.452251
1061.000000	96.464744
1060.000000	96.474664
1059.000000	96.482383
1058.000000	96.489756
1057.000000	96.501233
1056.000000	96.521121
1055.000000	96.548640
1054.000000	96.577562
1053.000000	96.602413
1052.000000	96.623939
1051.000000	96.646234
1050.000000	96.669372
1049.000000	96.688452
1048.000000	96.700889
1047.000000	96.710966
1046.000000	96.724311
1045.000000	96.739970
1044.000000	96.751050
1043.000000	96.752589
1042.000000	96.745561
1041.000000	96.732926
1040.000000	96.714528
1039.000000	96.686858
1038.000000	96.646139
1037.000000	96.590561
1036.000000	96.522470
1035.000000	96.450216
1034.000000	96.385448
1033.000000	96.335996
1032.000000	96.302368
1031.000000	96.282135
1030.000000	96.275114
1029.000000	96.282914
1028.000000	96.304959
1027.000000	96.338204
1026.000000	96.380349
1025.000000	96.430246
1024.000000	96.485115
1023.000000	96.539336
1022.000000	96.588104
1021.000000	96.631193
1020.000000	96.671498
1019.000000	96.710797
1018.000000	96.748084
1017.000000	96.781677
1016.000000	96.811736
1015.000000	96.840888
1014.000000	96.873247
1013.000000	96.912617
1012.000000	96.960728
1011.000000	97.016423
1010.000000	97.076032
1009.000000	97.134893
1008.000000	97.189676
1007.000000	97.240555
1006.000000	97.290931
1005.000000	97.343460
1004.000000	97.396069
1003.000000	97.443559
1002.000000	97.483780
1001.000000	97.520393
1000.000000	97.558766
999.000000	97.600481
998.000000	97.642905
997.000000	97.682695
996.000000	97.717879
995.000000	97.747838
994.000000	97.773176
993.000000	97.795646
992.000000	97.817348
991.000000	97.839723
990.000000	97.863130
989.000000	97.886121
988.000000	97.904986
987.000000	97.916005
986.000000	97.919304
985.000000	97.919534
984.000000	97.921466
983.000000	97.925753
982.000000	97.929834
981.000000	97.931233
980.000000	97.928922
979.000000	97.922861
978.000000	97.914115
977.000000	97.904673
976.000000	97.895244
975.000000	97.883842
974.000000	97.868628
973.000000	97.852233
972.000000	97.841456
971.000000	97.842152
970.000000	97.854937
969.000000	97.875805
968.000000	97.899557
967.000000	97.922283
966.000000	97.942638
965.000000	97.961923
964.000000	97.982188
963.000000	98.003877
962.000000	98.025997
961.000000	98.048688
960.000000	98.073598
959.000000	98.100763
958.000000	98.127059
957.000000	98.149576
956.000000	98.169617
955.000000	98.191376
954.000000	98.217323
953.000000	98.246663
952.000000	98.277485
951.000000	98.307675
950.000000	98.333599
949.000000	98.351113
948.000000	98.359607
947.000000	98.363499
946.000000	98.367596
945.000000	98.372083
944.000000	98.374258
943.000000	98.374004
942.000000	98.375016
941.000000	98.379978
940.000000	98.386684
939.000000	98.390141
938.000000	98.387870
937.000000	98.383208
936.000000	98.383914
935.000000	98.396878
934.000000	98.422237
933.000000	98.452309
932.000000	98.477668
931.000000	98.494351
930.000000	98.504358
929.000000	98.510560
928.000000	98.514089
927.000000	98.516805
926.000000	98.522487
925.000000	98.533272
924.000000	98.546983
923.000000	98.560233
922.000000	98.573018
921.000000	98.588243
920.000000	98.607725
919.000000	98.630342
918.000000	98.653606
917.000000	98.675783
916.000000	98.696952
915.000000	98.719167
914.000000	98.744401
913.000000	98.770837
912.000000	98.792853
911.000000	98.807153
910.000000	98.818090
909.000000	98.833980
908.000000	98.857579
907.000000	98.882754
906.000000	98.901275
905.000000	98.910701
904.000000	98.914467
903.000000	98.916003
902.000000	98.915728
901.000000	98.914204
900.000000	98.916244
899.000000	98.928891
898.000000	98.953690
897.000000	98.982390
896.000000	99.002829
895.000000	99.009765
894.000000	99.008279
893.000000	99.006222
892.000000	99.005924
891.000000	99.004285
890.000000	98.996873
889.000000	98.978019
888.000000	98.938415
887.000000	98.867102
886.000000	98.759213
885.000000	98.621524
884.000000	98.470044
883.000000	98.321036
882.000000	98.180570
881.000000	98.041324
880.000000	97.891680
879.000000	97.729561
878.000000	97.565797
877.000000	97.415583
876.000000	97.290960
875.000000	97.202666
874.000000	97.163470
873.000000	97.183401
872.000000	97.263021
871.000000	97.391736
870.000000	97.551765
869.000000	97.723399
868.000000	97.888437
867.000000	98.033558
866.000000	98.152913
865.000000	98.247650
864.000000	98.322431
863.000000	98.382655
862.000000	98.433398
861.000000	98.478473
860.000000	98.519716
859.000000	98.557332
858.000000	98.590627
857.000000	98.617546
856.000000	98.635815
855.000000	98.646902
854.000000	98.656875
853.000000	98.669771
852.000000	98.680466
851.000000	98.679189
850.000000	98.665025
849.000000	98.651380
848.000000	98.655038
847.000000	98.680720
846.000000	98.718484
845.000000	98.755203
844.000000	98.786014
843.000000	98.815014
842.000000	98.847398
841.000000	98.882379
840.000000	98.913098
839.000000	98.932312
838.000000	98.938222
837.000000	98.934933
836.000000	98.928114
835.000000	98.921771
834.000000	98.918985
833.000000	98.923211
832.000000	98.936187
831.000000	98.954834
830.000000	98.972664
829.000000	98.985442
828.000000	98.994195
827.000000	99.001234
826.000000	99.004895
825.000000	99.001212
824.000000	98.990608
823.000000	98.980031
822.000000	98.976507
821.000000	98.979968
820.000000	98.983931
819.000000	98.982011
818.000000	98.972874
817.000000	98.960134
816.000000	98.949215
815.000000	98.943988
814.000000	98.945058
813.000000	98.950973
812.000000	98.960860
811.000000	98.974593
810.000000	98.989885
809.000000	99.001176
808.000000	99.003861
807.000000	98.999324
806.000000	98.993604
805.000000	98.990698
804.000000	98.988859
803.000000	98.984500
802.000000	98.978169
801.000000	98.974095
800.000000	98.973315
799.000000	98.969509
798.000000	98.954828
797.000000	98.930156
796.000000	98.906327
795.000000	98.893043
794.000000	98.889248
793.000000	98.887695
792.000000	98.885775
791.000000	98.885766
790.000000	98.885679
789.000000	98.877856
788.000000	98.859253
787.000000	98.837100
786.000000	98.820878
785.000000	98.813379
784.000000	98.813290
783.000000	98.821050
782.000000	98.836209
781.000000	98.852691
780.000000	98.862953
779.000000	98.865380
778.000000	98.862784
777.000000	98.855557
776.000000	98.842030
775.000000	98.824476
774.000000	98.808750
773.000000	98.797742
772.000000	98.790059
771.000000	98.785153
770.000000	98.784725
769.000000	98.788531
768.000000	98.793332
767.000000	98.796770
766.000000	98.798064
765.000000	98.794301
764.000000	98.780977
763.000000	98.758474
762.000000	98.734375
761.000000	98.716464
760.000000	98.705354
759.000000	98.695491
758.000000	98.681142
757.000000	98.660043
756.000000	98.633784
755.000000	98.607272
754.000000	98.587096
753.000000	98.578335
752.000000	98.581395
751.000000	98.590744
750.000000	98.596493
749.000000	98.589727
748.000000	98.569368
747.000000	98.543729
746.000000	98.523417
745.000000	98.512483
744.000000	98.507241
743.000000	98.502160
742.000000	98.494780
741.000000	98.485753
740.000000	98.476439
739.000000	98.466633
738.000000	98.453651
737.000000	98.434739
736.000000	98.411364
735.000000	98.388782
734.000000	98.369173
733.000000	98.347890
732.000000	98.319654
731.000000	98.286130
730.000000	98.253432
729.000000	98.223882
728.000000	98.195832
727.000000	98.170483
726.000000	98.152137
725.000000	98.141036
724.000000	98.130649
723.000000	98.113105
722.000000	98.084085
721.000000	98.043130
720.000000	97.993921
719.000000	97.943110
718.000000	97.892831
717.000000	97.832780
716.000000	97.744796
715.000000	97.621925
714.000000	97.483719
713.000000	97.368805
712.000000	97.309680
711.000000	97.312197
710.000000	97.355693
709.000000	97.409345
708.000000	97.450274
707.000000	97.472175
706.000000	97.480235
705.000000	97.479825
704.000000	97.470651
703.000000	97.450090
702.000000	97.420664
701.000000	97.391684
700.000000	97.371953
699.000000	97.363259
698.000000	97.361654
697.000000	97.363487
696.000000	97.367063
695.000000	97.368256
694.000000	97.361888
693.000000	97.349690
692.000000	97.341120
691.000000	97.343285
690.000000	97.353053
689.000000	97.363257
688.000000	97.372758
687.000000	97.383282
686.000000	97.390185
685.000000	97.383596
684.000000	97.357838
683.000000	97.316502
682.000000	97.269661
681.000000	97.230084
680.000000	97.207468
679.000000	97.200065
678.000000	97.194640
677.000000	97.179190
676.000000	97.156396
675.000000	97.137610
674.000000	97.124535
673.000000	97.113878
672.000000	97.117700
671.000000	97.164831
670.000000	97.267810
669.000000	97.394750
668.000000	97.454834
667.000000	97.385618
666.000000	97.269791
665.000000	97.193601
664.000000	97.156971
663.000000	97.136936
662.000000	97.113111
661.000000	97.081917
660.000000	97.056867
659.000000	97.055619
658.000000	97.079511
657.000000	97.109306
656.000000	97.126704
655.000000	97.128915
654.000000	97.118491
653.000000	97.096178
652.000000	97.070319
651.000000	97.054936
650.000000	97.050100
649.000000	97.039714
648.000000	97.016922
647.000000	96.993559
646.000000	96.976119
645.000000	96.952964
644.000000	96.916508
643.000000	96.879211
642.000000	96.854970
641.000000	96.839277
640.000000	96.822384
639.000000	96.809552
638.000000	96.810689
637.000000	96.820839
636.000000	96.826335
635.000000	96.822150
634.000000	96.812802
633.000000	96.803573
632.000000	96.798596
631.000000	96.798927
630.000000	96.795346
629.000000	96.774582
628.000000	96.740596
627.000000	96.716796
626.000000	96.717171
625.000000	96.728678
624.000000	96.732729
623.000000	96.728391
622.000000	96.722741
621.000000	96.714519
620.000000	96.701817
619.000000	96.692011
618.000000	96.689159
617.000000	96.682341
616.000000	96.661745
615.000000	96.636058
614.000000	96.618379
613.000000	96.607539
612.000000	96.599481
611.000000	96.603794
610.000000	96.629607
609.000000	96.665448
608.000000	96.691880
607.000000	96.706023
606.000000	96.716593
605.000000	96.724807
604.000000	96.728871
603.000000	96.738680
602.000000	96.765067
601.000000	96.797855
600.000000	96.814895
599.000000	96.811922
598.000000	96.807382
597.000000	96.817628
596.000000	96.842015
595.000000	96.871818
594.000000	96.900592
593.000000	96.925823
592.000000	96.948868
591.000000	96.971894
590.000000	96.989942
589.000000	96.992759
588.000000	96.979728
587.000000	96.963956
586.000000	96.955683
585.000000	96.951928
584.000000	96.951708
583.000000	96.965940
582.000000	96.995479
581.000000	97.014658
580.000000	96.999234
579.000000	96.963007
578.000000	96.943630
577.000000	96.956483
576.000000	96.982270
575.000000	96.996172
574.000000	96.991741
573.000000	96.974657
572.000000	96.951143
571.000000	96.928109
570.000000	96.911378
569.000000	96.901178
568.000000	96.896560
567.000000	96.898957
566.000000	96.902739
565.000000	96.891192
564.000000	96.854818
563.000000	96.806342
562.000000	96.765916
561.000000	96.739342
560.000000	96.723214
559.000000	96.720738
558.000000	96.733475
557.000000	96.747561
556.000000	96.748186
555.000000	96.741051
554.000000	96.743156
553.000000	96.758460
552.000000	96.778286
551.000000	96.796997
550.000000	96.811532
549.000000	96.816555
548.000000	96.816363
547.000000	96.829558
546.000000	96.863525
545.000000	96.895675
544.000000	96.902516
543.000000	96.895384
542.000000	96.903512
541.000000	96.929600
540.000000	96.945948
539.000000	96.932250
538.000000	96.895645
537.000000	96.854728
536.000000	96.821692
535.000000	96.799969
534.000000	96.785133
533.000000	96.766410
532.000000	96.737465
531.000000	96.703639
530.000000	96.672463
529.000000	96.647067
528.000000	96.638381
527.000000	96.668941
526.000000	96.744329
525.000000	96.831730
524.000000	96.890673
523.000000	96.908240
522.000000	96.890610
521.000000	96.850663
520.000000	96.818010
519.000000	96.832339
518.000000	96.898169
517.000000	96.966451
516.000000	96.995273
515.000000	97.000342
514.000000	97.016431
513.000000	97.045673
512.000000	97.071638
511.000000	97.096309
510.000000	97.131434
509.000000	97.167860
508.000000	97.186583
507.000000	97.192626
506.000000	97.209013
505.000000	97.245014
504.000000	97.296256
503.000000	97.361190
502.000000	97.427663
501.000000	97.463463
500.000000	97.455823
499.000000	97.439320
498.000000	97.457424
497.000000	97.510317
496.000000	97.561611
495.000000	97.586612
494.000000	97.590770
493.000000	97.589564
492.000000	97.597545
491.000000	97.630799
490.000000	97.691168
489.000000	97.750182
488.000000	97.771199
487.000000	97.744792
486.000000	97.695198
485.000000	97.663654
484.000000	97.689191
483.000000	97.782955
482.000000	97.901814
481.000000	97.973470
480.000000	97.968781
479.000000	97.929357
478.000000	97.913088
477.000000	97.932825
476.000000	97.968902
475.000000	98.012839
474.000000	98.063766
473.000000	98.105473
472.000000	98.129939
471.000000	98.162370
470.000000	98.213976
469.000000	98.245900
468.000000	98.227999
467.000000	98.200973
466.000000	98.226840
465.000000	98.294901
464.000000	98.345163
463.000000	98.366024
462.000000	98.407759
461.000000	98.503625
460.000000	98.631389
459.000000	98.755230
458.000000	98.847672
457.000000	98.891977
456.000000	98.902507
455.000000	98.938119
454.000000	99.015950
453.000000	99.082805
452.000000	99.066603
451.000000	98.980852
450.000000	98.902863
