PE IR       SUBTECH     SPECTRUM    ASCII       PEDS        4.00        
   -1
3C-YYX-F016_1.ASC
23/09/07
11:05:30.00
23/09/07
11:30:09.00
uco
Sample 016 By uco Date Thursday, September 07 2023
450.000000
#HDR
-1
-1
#GR
cm-1
%T
1.0
0.0
4000.000000
-1.000000
3551
8
98.823297
83.150443
#DATA
4000.000000	98.749898
3999.000000	98.748190
3998.000000	98.743924
3997.000000	98.739582
3996.000000	98.737171
3995.000000	98.737058
3994.000000	98.737845
3993.000000	98.737665
3992.000000	98.735658
3991.000000	98.732384
3990.000000	98.729119
3989.000000	98.726996
3988.000000	98.726741
3987.000000	98.728551
3986.000000	98.731792
3985.000000	98.735112
3984.000000	98.737341
3983.000000	98.738435
3982.000000	98.739194
3981.000000	98.740001
3980.000000	98.740113
3979.000000	98.738239
3978.000000	98.733673
3977.000000	98.726997
3976.000000	98.720119
3975.000000	98.715808
3974.000000	98.716463
3973.000000	98.722465
3972.000000	98.731417
3971.000000	98.739263
3970.000000	98.742797
3969.000000	98.741310
3968.000000	98.736314
3967.000000	98.730071
3966.000000	98.724384
3965.000000	98.720479
3964.000000	98.719104
3963.000000	98.720126
3962.000000	98.722104
3961.000000	98.722764
3960.000000	98.720570
3959.000000	98.716026
3958.000000	98.711339
3957.000000	98.708664
3956.000000	98.708442
3955.000000	98.709351
3954.000000	98.709725
3953.000000	98.708973
3952.000000	98.707797
3951.000000	98.707385
3950.000000	98.708359
3949.000000	98.710330
3948.000000	98.712253
3947.000000	98.713081
3946.000000	98.712291
3945.000000	98.710025
3944.000000	98.707241
3943.000000	98.705746
3942.000000	98.707202
3941.000000	98.711860
3940.000000	98.718139
3939.000000	98.723361
3938.000000	98.725208
3937.000000	98.722863
3936.000000	98.717380
3935.000000	98.711011
3934.000000	98.706207
3933.000000	98.705021
3932.000000	98.708176
3931.000000	98.714058
3930.000000	98.719072
3929.000000	98.719959
3928.000000	98.716232
3927.000000	98.710301
3926.000000	98.705795
3925.000000	98.705217
3924.000000	98.708274
3923.000000	98.712561
3922.000000	98.715805
3921.000000	98.716803
3920.000000	98.715014
3919.000000	98.710548
3918.000000	98.705070
3917.000000	98.701753
3916.000000	98.702930
3915.000000	98.707744
3914.000000	98.712512
3913.000000	98.713554
3912.000000	98.709573
3911.000000	98.702500
3910.000000	98.696213
3909.000000	98.693726
3908.000000	98.695327
3907.000000	98.698619
3906.000000	98.700233
3905.000000	98.698482
3904.000000	98.695233
3903.000000	98.694791
3902.000000	98.700266
3901.000000	98.710928
3900.000000	98.722883
3899.000000	98.731182
3898.000000	98.732464
3897.000000	98.726799
3896.000000	98.717032
3895.000000	98.707072
3894.000000	98.700578
3893.000000	98.700221
3892.000000	98.706417
3891.000000	98.716230
3890.000000	98.725066
3889.000000	98.730210
3888.000000	98.731180
3887.000000	98.728728
3886.000000	98.724904
3885.000000	98.721877
3884.000000	98.720146
3883.000000	98.718705
3882.000000	98.716656
3881.000000	98.713992
3880.000000	98.710924
3879.000000	98.707298
3878.000000	98.703841
3877.000000	98.702526
3876.000000	98.704900
3875.000000	98.710545
3874.000000	98.716572
3873.000000	98.719347
3872.000000	98.717853
3871.000000	98.715159
3870.000000	98.715461
3869.000000	98.719003
3868.000000	98.722209
3867.000000	98.722418
3866.000000	98.720258
3865.000000	98.718876
3864.000000	98.720894
3863.000000	98.725399
3862.000000	98.728635
3861.000000	98.727976
3860.000000	98.724213
3859.000000	98.719953
3858.000000	98.716753
3857.000000	98.713669
3856.000000	98.708314
3855.000000	98.698701
3854.000000	98.685822
3853.000000	98.676005
3852.000000	98.674675
3851.000000	98.680877
3850.000000	98.690815
3849.000000	98.700622
3848.000000	98.707671
3847.000000	98.710799
3846.000000	98.710020
3845.000000	98.706246
3844.000000	98.701258
3843.000000	98.697370
3842.000000	98.696042
3841.000000	98.697050
3840.000000	98.698986
3839.000000	98.700380
3838.000000	98.701334
3837.000000	98.704381
3836.000000	98.712333
3835.000000	98.724802
3834.000000	98.737409
3833.000000	98.744589
3832.000000	98.743174
3831.000000	98.734246
3830.000000	98.722005
3829.000000	98.710709
3828.000000	98.702480
3827.000000	98.697539
3826.000000	98.695093
3825.000000	98.694237
3824.000000	98.694694
3823.000000	98.697282
3822.000000	98.702872
3821.000000	98.709707
3820.000000	98.712628
3819.000000	98.708737
3818.000000	98.701210
3817.000000	98.695604
3816.000000	98.695482
3815.000000	98.699140
3814.000000	98.702500
3813.000000	98.704089
3812.000000	98.704956
3811.000000	98.706704
3810.000000	98.709967
3809.000000	98.713731
3808.000000	98.715963
3807.000000	98.715257
3806.000000	98.712101
3805.000000	98.708596
3804.000000	98.706694
3803.000000	98.707852
3802.000000	98.712611
3801.000000	98.717719
3800.000000	98.717804
3799.000000	98.712411
3798.000000	98.705395
3797.000000	98.700719
3796.000000	98.699896
3795.000000	98.700806
3794.000000	98.700203
3793.000000	98.697045
3792.000000	98.692795
3791.000000	98.689684
3790.000000	98.689016
3789.000000	98.690356
3788.000000	98.692512
3787.000000	98.694937
3786.000000	98.698234
3785.000000	98.703163
3784.000000	98.709207
3783.000000	98.714662
3782.000000	98.718378
3781.000000	98.720767
3780.000000	98.723194
3779.000000	98.726351
3778.000000	98.729248
3777.000000	98.730831
3776.000000	98.731531
3775.000000	98.732432
3774.000000	98.733493
3773.000000	98.733124
3772.000000	98.729633
3771.000000	98.723737
3770.000000	98.719139
3769.000000	98.719171
3768.000000	98.723816
3767.000000	98.730599
3766.000000	98.736842
3765.000000	98.740654
3764.000000	98.741191
3763.000000	98.738530
3762.000000	98.733234
3761.000000	98.726017
3760.000000	98.718033
3759.000000	98.711211
3758.000000	98.707618
3757.000000	98.708199
3756.000000	98.712294
3755.000000	98.718492
3754.000000	98.725921
3753.000000	98.734295
3752.000000	98.742002
3751.000000	98.745141
3750.000000	98.741320
3749.000000	98.734300
3748.000000	98.730673
3747.000000	98.733139
3746.000000	98.740194
3745.000000	98.747795
3744.000000	98.749922
3743.000000	98.744713
3742.000000	98.736531
3741.000000	98.728596
3740.000000	98.721456
3739.000000	98.716206
3738.000000	98.714633
3737.000000	98.717779
3736.000000	98.725603
3735.000000	98.736843
3734.000000	98.748312
3733.000000	98.756380
3732.000000	98.759123
3731.000000	98.756947
3730.000000	98.751917
3729.000000	98.746141
3728.000000	98.741063
3727.000000	98.737422
3726.000000	98.735042
3725.000000	98.733504
3724.000000	98.733255
3723.000000	98.734923
3722.000000	98.737501
3721.000000	98.739367
3720.000000	98.740636
3719.000000	98.742547
3718.000000	98.745058
3717.000000	98.746204
3716.000000	98.744003
3715.000000	98.738217
3714.000000	98.729969
3713.000000	98.721475
3712.000000	98.716673
3711.000000	98.719319
3710.000000	98.728126
3709.000000	98.736933
3708.000000	98.741143
3707.000000	98.741017
3706.000000	98.739688
3705.000000	98.739908
3704.000000	98.741847
3703.000000	98.743469
3702.000000	98.743389
3701.000000	98.743040
3700.000000	98.745041
3699.000000	98.749808
3698.000000	98.754979
3697.000000	98.757424
3696.000000	98.755135
3695.000000	98.747823
3694.000000	98.736809
3693.000000	98.725182
3692.000000	98.717858
3691.000000	98.720254
3690.000000	98.733611
3689.000000	98.750095
3688.000000	98.758151
3687.000000	98.755157
3686.000000	98.747092
3685.000000	98.738721
3684.000000	98.730616
3683.000000	98.721631
3682.000000	98.711493
3681.000000	98.701766
3680.000000	98.694912
3679.000000	98.691655
3678.000000	98.689652
3677.000000	98.686027
3676.000000	98.681465
3675.000000	98.679019
3674.000000	98.678330
3673.000000	98.677601
3672.000000	98.676802
3671.000000	98.676612
3670.000000	98.676261
3669.000000	98.672365
3668.000000	98.663022
3667.000000	98.650863
3666.000000	98.639687
3665.000000	98.631626
3664.000000	98.626876
3663.000000	98.624472
3662.000000	98.623376
3661.000000	98.623070
3660.000000	98.623441
3659.000000	98.624061
3658.000000	98.623829
3657.000000	98.621858
3656.000000	98.618862
3655.000000	98.617155
3654.000000	98.618302
3653.000000	98.620654
3652.000000	98.619036
3651.000000	98.607143
3650.000000	98.583663
3649.000000	98.557987
3648.000000	98.542466
3647.000000	98.538636
3646.000000	98.539395
3645.000000	98.538776
3644.000000	98.535322
3643.000000	98.530275
3642.000000	98.525045
3641.000000	98.519854
3640.000000	98.514480
3639.000000	98.509738
3638.000000	98.506805
3637.000000	98.505161
3636.000000	98.502243
3635.000000	98.496103
3634.000000	98.487936
3633.000000	98.480935
3632.000000	98.476653
3631.000000	98.473723
3630.000000	98.469991
3629.000000	98.465118
3628.000000	98.459253
3627.000000	98.451138
3626.000000	98.440899
3625.000000	98.429945
3624.000000	98.420155
3623.000000	98.413282
3622.000000	98.409496
3621.000000	98.406739
3620.000000	98.401371
3619.000000	98.390061
3618.000000	98.372589
3617.000000	98.352572
3616.000000	98.334484
3615.000000	98.320632
3614.000000	98.310951
3613.000000	98.304339
3612.000000	98.299656
3611.000000	98.295525
3610.000000	98.289781
3609.000000	98.281202
3608.000000	98.271745
3607.000000	98.264760
3606.000000	98.260873
3605.000000	98.257539
3604.000000	98.252246
3603.000000	98.244460
3602.000000	98.235237
3601.000000	98.225902
3600.000000	98.216943
3599.000000	98.207725
3598.000000	98.197075
3597.000000	98.184046
3596.000000	98.168690
3595.000000	98.153028
3594.000000	98.140234
3593.000000	98.131928
3592.000000	98.126214
3591.000000	98.118809
3590.000000	98.105795
3589.000000	98.086940
3588.000000	98.067606
3587.000000	98.055105
3586.000000	98.050889
3585.000000	98.050394
3584.000000	98.048787
3583.000000	98.042886
3582.000000	98.031021
3581.000000	98.014334
3580.000000	97.997404
3579.000000	97.985725
3578.000000	97.981331
3577.000000	97.981333
3576.000000	97.980231
3575.000000	97.973616
3574.000000	97.960348
3573.000000	97.942760
3572.000000	97.925150
3571.000000	97.911152
3570.000000	97.901473
3569.000000	97.893849
3568.000000	97.885425
3567.000000	97.875565
3566.000000	97.865447
3565.000000	97.855612
3564.000000	97.845682
3563.000000	97.835099
3562.000000	97.823507
3561.000000	97.811103
3560.000000	97.798640
3559.000000	97.786545
3558.000000	97.774237
3557.000000	97.760670
3556.000000	97.745481
3555.000000	97.729298
3554.000000	97.713227
3553.000000	97.698328
3552.000000	97.685429
3551.000000	97.674752
3550.000000	97.665658
3549.000000	97.657101
3548.000000	97.648352
3547.000000	97.639515
3546.000000	97.631448
3545.000000	97.624925
3544.000000	97.619301
3543.000000	97.612043
3542.000000	97.600210
3541.000000	97.583351
3540.000000	97.564893
3539.000000	97.549793
3538.000000	97.540185
3537.000000	97.533668
3536.000000	97.526096
3535.000000	97.515536
3534.000000	97.502836
3533.000000	97.489693
3532.000000	97.477413
3531.000000	97.466832
3530.000000	97.457929
3529.000000	97.449392
3528.000000	97.439610
3527.000000	97.428288
3526.000000	97.416419
3525.000000	97.404670
3524.000000	97.392677
3523.000000	97.380077
3522.000000	97.367540
3521.000000	97.356288
3520.000000	97.346826
3519.000000	97.338225
3518.000000	97.328542
3517.000000	97.316202
3516.000000	97.301410
3515.000000	97.286176
3514.000000	97.272445
3513.000000	97.260121
3512.000000	97.247440
3511.000000	97.233490
3510.000000	97.219824
3509.000000	97.208938
3508.000000	97.201601
3507.000000	97.196663
3506.000000	97.193119
3505.000000	97.190739
3504.000000	97.188359
3503.000000	97.182873
3502.000000	97.171657
3501.000000	97.155756
3500.000000	97.139158
3499.000000	97.125039
3498.000000	97.113780
3497.000000	97.104180
3496.000000	97.095188
3495.000000	97.085902
3494.000000	97.075058
3493.000000	97.061950
3492.000000	97.047685
3491.000000	97.034615
3490.000000	97.024406
3489.000000	97.017050
3488.000000	97.011527
3487.000000	97.006547
3486.000000	97.000495
3485.000000	96.991536
3484.000000	96.978601
3483.000000	96.962574
3482.000000	96.946326
3481.000000	96.933054
3480.000000	96.924207
3479.000000	96.918866
3478.000000	96.914938
3477.000000	96.910577
3476.000000	96.904619
3475.000000	96.896417
3474.000000	96.886046
3473.000000	96.874480
3472.000000	96.862755
3471.000000	96.850937
3470.000000	96.838744
3469.000000	96.827273
3468.000000	96.818922
3467.000000	96.814737
3466.000000	96.812680
3465.000000	96.809536
3464.000000	96.803790
3463.000000	96.795698
3462.000000	96.785333
3461.000000	96.772293
3460.000000	96.757388
3459.000000	96.743127
3458.000000	96.731743
3457.000000	96.723351
3456.000000	96.716354
3455.000000	96.709157
3454.000000	96.701179
3453.000000	96.692834
3452.000000	96.685007
3451.000000	96.678498
3450.000000	96.673710
3449.000000	96.670679
3448.000000	96.668962
3447.000000	96.667106
3446.000000	96.662628
3445.000000	96.653473
3444.000000	96.639767
3443.000000	96.624126
3442.000000	96.610468
3441.000000	96.602047
3440.000000	96.599554
3439.000000	96.600322
3438.000000	96.599643
3437.000000	96.593941
3436.000000	96.583302
3435.000000	96.570910
3434.000000	96.560095
3433.000000	96.552039
3432.000000	96.545730
3431.000000	96.539296
3430.000000	96.531426
3429.000000	96.522166
3428.000000	96.512529
3427.000000	96.503024
3426.000000	96.492902
3425.000000	96.481346
3424.000000	96.469025
3423.000000	96.457514
3422.000000	96.447073
3421.000000	96.436054
3420.000000	96.423088
3419.000000	96.409304
3418.000000	96.397603
3417.000000	96.390029
3416.000000	96.386220
3415.000000	96.384130
3414.000000	96.381807
3413.000000	96.378389
3412.000000	96.373562
3411.000000	96.366577
3410.000000	96.356691
3409.000000	96.344845
3408.000000	96.334019
3407.000000	96.326720
3406.000000	96.322207
3405.000000	96.316999
3404.000000	96.308334
3403.000000	96.296714
3402.000000	96.285043
3401.000000	96.275917
3400.000000	96.269620
3399.000000	96.263888
3398.000000	96.255330
3397.000000	96.241964
3396.000000	96.225068
3395.000000	96.208380
3394.000000	96.195191
3393.000000	96.186238
3392.000000	96.180061
3391.000000	96.174745
3390.000000	96.169063
3389.000000	96.162538
3388.000000	96.155108
3387.000000	96.146928
3386.000000	96.138301
3385.000000	96.129621
3384.000000	96.121114
3383.000000	96.112431
3382.000000	96.102786
3381.000000	96.091928
3380.000000	96.080878
3379.000000	96.071075
3378.000000	96.062672
3377.000000	96.054028
3376.000000	96.043059
3375.000000	96.028959
3374.000000	96.012785
3373.000000	95.996826
3372.000000	95.983391
3371.000000	95.973515
3370.000000	95.966218
3369.000000	95.958911
3368.000000	95.948778
3367.000000	95.934298
3366.000000	95.916234
3365.000000	95.897635
3364.000000	95.882326
3363.000000	95.872252
3362.000000	95.865739
3361.000000	95.858571
3360.000000	95.847186
3359.000000	95.830974
3358.000000	95.811818
3357.000000	95.792050
3356.000000	95.773186
3355.000000	95.756093
3354.000000	95.741432
3353.000000	95.729181
3352.000000	95.717830
3351.000000	95.704851
3350.000000	95.688725
3349.000000	95.670362
3348.000000	95.652102
3347.000000	95.635546
3346.000000	95.620893
3345.000000	95.607828
3344.000000	95.595726
3343.000000	95.582907
3342.000000	95.567274
3341.000000	95.548714
3340.000000	95.529913
3339.000000	95.513872
3338.000000	95.501120
3337.000000	95.489907
3336.000000	95.478280
3335.000000	95.465096
3334.000000	95.449871
3333.000000	95.433117
3332.000000	95.416674
3331.000000	95.402443
3330.000000	95.390542
3329.000000	95.379338
3328.000000	95.367161
3327.000000	95.353427
3326.000000	95.338438
3325.000000	95.322931
3324.000000	95.307788
3323.000000	95.293591
3322.000000	95.280532
3321.000000	95.269195
3320.000000	95.260630
3319.000000	95.254707
3318.000000	95.248898
3317.000000	95.240038
3316.000000	95.227442
3315.000000	95.213376
3314.000000	95.200377
3313.000000	95.188910
3312.000000	95.177559
3311.000000	95.164621
3310.000000	95.149566
3309.000000	95.133726
3308.000000	95.119480
3307.000000	95.107950
3306.000000	95.097540
3305.000000	95.085423
3304.000000	95.070265
3303.000000	95.052929
3302.000000	95.035198
3301.000000	95.019061
3300.000000	95.006870
3299.000000	95.000242
3298.000000	94.998229
3297.000000	94.997620
3296.000000	94.995506
3295.000000	94.990893
3294.000000	94.983901
3293.000000	94.975072
3292.000000	94.965969
3291.000000	94.958818
3290.000000	94.954327
3289.000000	94.950584
3288.000000	94.945110
3287.000000	94.937606
3286.000000	94.929998
3285.000000	94.924328
3284.000000	94.921183
3283.000000	94.919793
3282.000000	94.919226
3281.000000	94.919731
3280.000000	94.923201
3279.000000	94.931553
3278.000000	94.944226
3277.000000	94.957787
3276.000000	94.968696
3275.000000	94.976331
3274.000000	94.982688
3273.000000	94.989653
3272.000000	94.997217
3271.000000	95.004066
3270.000000	95.009188
3269.000000	95.012816
3268.000000	95.016385
3267.000000	95.021764
3266.000000	95.030239
3265.000000	95.041962
3264.000000	95.056187
3263.000000	95.071858
3262.000000	95.087989
3261.000000	95.103743
3260.000000	95.118418
3259.000000	95.131351
3258.000000	95.142114
3257.000000	95.151312
3256.000000	95.161209
3255.000000	95.174985
3254.000000	95.194612
3253.000000	95.219209
3252.000000	95.245414
3251.000000	95.269253
3250.000000	95.288012
3249.000000	95.301184
3248.000000	95.310364
3247.000000	95.318190
3246.000000	95.326831
3245.000000	95.336821
3244.000000	95.347019
3243.000000	95.355775
3242.000000	95.362397
3241.000000	95.367843
3240.000000	95.374235
3239.000000	95.383815
3238.000000	95.398129
3237.000000	95.417317
3236.000000	95.439206
3235.000000	95.459425
3234.000000	95.473807
3233.000000	95.481432
3232.000000	95.484858
3231.000000	95.487059
3230.000000	95.489000
3229.000000	95.490658
3228.000000	95.493117
3227.000000	95.498232
3226.000000	95.506579
3225.000000	95.516978
3224.000000	95.527897
3223.000000	95.538590
3222.000000	95.549306
3221.000000	95.561328
3220.000000	95.576264
3219.000000	95.593686
3218.000000	95.609546
3217.000000	95.618700
3216.000000	95.619758
3215.000000	95.616787
3214.000000	95.615585
3213.000000	95.618823
3212.000000	95.625091
3211.000000	95.631674
3210.000000	95.637449
3209.000000	95.643357
3208.000000	95.650996
3207.000000	95.660936
3206.000000	95.672241
3205.000000	95.683464
3204.000000	95.693909
3203.000000	95.703836
3202.000000	95.713725
3201.000000	95.723678
3200.000000	95.733319
3199.000000	95.742067
3198.000000	95.749925
3197.000000	95.758162
3196.000000	95.768307
3195.000000	95.779706
3194.000000	95.789297
3193.000000	95.795224
3192.000000	95.800173
3191.000000	95.809136
3190.000000	95.823710
3189.000000	95.840316
3188.000000	95.854672
3187.000000	95.866446
3186.000000	95.878621
3185.000000	95.893529
3184.000000	95.910784
3183.000000	95.928328
3182.000000	95.944043
3181.000000	95.956566
3180.000000	95.965692
3179.000000	95.972462
3178.000000	95.978551
3177.000000	95.985431
3176.000000	95.994105
3175.000000	96.005030
3174.000000	96.017759
3173.000000	96.030947
3172.000000	96.043207
3171.000000	96.054065
3170.000000	96.063941
3169.000000	96.073659
3168.000000	96.084177
3167.000000	96.096288
3166.000000	96.109994
3165.000000	96.124175
3164.000000	96.137291
3163.000000	96.148511
3162.000000	96.158271
3161.000000	96.167997
3160.000000	96.179340
3159.000000	96.193141
3158.000000	96.208563
3157.000000	96.223333
3156.000000	96.235338
3155.000000	96.244564
3154.000000	96.253565
3153.000000	96.265629
3152.000000	96.281663
3151.000000	96.298710
3150.000000	96.312136
3149.000000	96.319896
3148.000000	96.324208
3147.000000	96.328858
3146.000000	96.335677
3145.000000	96.344511
3144.000000	96.355433
3143.000000	96.369048
3142.000000	96.384589
3141.000000	96.399506
3140.000000	96.411705
3139.000000	96.421013
3138.000000	96.427954
3137.000000	96.432477
3136.000000	96.434858
3135.000000	96.436794
3134.000000	96.440310
3133.000000	96.445958
3132.000000	96.452971
3131.000000	96.460783
3130.000000	96.469519
3129.000000	96.479322
3128.000000	96.490030
3127.000000	96.501324
3126.000000	96.512457
3125.000000	96.522003
3124.000000	96.528633
3123.000000	96.532252
3122.000000	96.534046
3121.000000	96.535578
3120.000000	96.538088
3119.000000	96.542105
3118.000000	96.546802
3117.000000	96.550110
3116.000000	96.550534
3115.000000	96.549041
3114.000000	96.548212
3113.000000	96.549191
3112.000000	96.550351
3111.000000	96.549502
3110.000000	96.546862
3109.000000	96.544987
3108.000000	96.545824
3107.000000	96.548420
3106.000000	96.549732
3105.000000	96.547407
3104.000000	96.541711
3103.000000	96.534937
3102.000000	96.529024
3101.000000	96.523733
3100.000000	96.517326
3099.000000	96.509304
3098.000000	96.502175
3097.000000	96.499821
3096.000000	96.503818
3095.000000	96.511548
3094.000000	96.518194
3093.000000	96.520391
3092.000000	96.517918
3091.000000	96.512687
3090.000000	96.506956
3089.000000	96.502175
3088.000000	96.498339
3087.000000	96.494002
3086.000000	96.487474
3085.000000	96.478600
3084.000000	96.469409
3083.000000	96.462798
3082.000000	96.460429
3081.000000	96.461531
3080.000000	96.463391
3079.000000	96.463250
3078.000000	96.460300
3077.000000	96.455807
3076.000000	96.451127
3075.000000	96.446280
3074.000000	96.441212
3073.000000	96.437765
3072.000000	96.438633
3071.000000	96.444095
3070.000000	96.451240
3069.000000	96.457046
3068.000000	96.460961
3067.000000	96.463763
3066.000000	96.465403
3065.000000	96.465466
3064.000000	96.464757
3063.000000	96.464871
3062.000000	96.466750
3061.000000	96.470852
3060.000000	96.477951
3059.000000	96.488059
3058.000000	96.498939
3057.000000	96.507553
3056.000000	96.513381
3055.000000	96.519043
3054.000000	96.527207
3053.000000	96.537791
3052.000000	96.548361
3051.000000	96.556462
3050.000000	96.561675
3049.000000	96.566400
3048.000000	96.574409
3047.000000	96.587418
3046.000000	96.602985
3045.000000	96.616749
3044.000000	96.626660
3043.000000	96.633918
3042.000000	96.640066
3041.000000	96.645067
3040.000000	96.648905
3039.000000	96.653431
3038.000000	96.661198
3037.000000	96.672959
3036.000000	96.687118
3035.000000	96.701080
3034.000000	96.712555
3033.000000	96.720313
3032.000000	96.724716
3031.000000	96.727437
3030.000000	96.730116
3029.000000	96.733455
3028.000000	96.737714
3027.000000	96.743225
3026.000000	96.749766
3025.000000	96.756037
3024.000000	96.760688
3023.000000	96.763823
3022.000000	96.766941
3021.000000	96.771443
3020.000000	96.777514
3019.000000	96.784205
3018.000000	96.790080
3017.000000	96.793801
3016.000000	96.794665
3015.000000	96.793003
3014.000000	96.789992
3013.000000	96.786693
3012.000000	96.782837
3011.000000	96.776590
3010.000000	96.766118
3009.000000	96.751816
3008.000000	96.736799
3007.000000	96.724667
3006.000000	96.716720
3005.000000	96.711206
3004.000000	96.704677
3003.000000	96.693888
3002.000000	96.677254
3001.000000	96.655752
3000.000000	96.632411
2999.000000	96.610102
2998.000000	96.589397
2997.000000	96.568693
2996.000000	96.546054
2995.000000	96.520510
2994.000000	96.491974
2993.000000	96.460838
2992.000000	96.427595
2991.000000	96.392005
2990.000000	96.352719
2989.000000	96.308412
2988.000000	96.259453
2987.000000	96.207758
2986.000000	96.154910
2985.000000	96.101033
2984.000000	96.045275
2983.000000	95.986480
2982.000000	95.923181
2981.000000	95.853727
2980.000000	95.777350
2979.000000	95.695112
2978.000000	95.609735
2977.000000	95.524123
2976.000000	95.439121
2975.000000	95.352376
2974.000000	95.259882
2973.000000	95.159344
2972.000000	95.051637
2971.000000	94.938667
2970.000000	94.821237
2969.000000	94.700168
2968.000000	94.578548
2967.000000	94.460748
2966.000000	94.349109
2965.000000	94.243260
2964.000000	94.142850
2963.000000	94.050029
2962.000000	93.968744
2961.000000	93.902854
2960.000000	93.854911
2959.000000	93.825453
2958.000000	93.813252
2957.000000	93.816618
2956.000000	93.835044
2955.000000	93.868304
2954.000000	93.914131
2953.000000	93.967786
2952.000000	94.023819
2951.000000	94.077449
2950.000000	94.123497
2949.000000	94.156115
2948.000000	94.170459
2947.000000	94.164497
2946.000000	94.138595
2945.000000	94.094058
2944.000000	94.032903
2943.000000	93.957592
2942.000000	93.869972
2941.000000	93.770148
2940.000000	93.657700
2939.000000	93.534037
2938.000000	93.403083
2937.000000	93.269740
2936.000000	93.137697
2935.000000	93.009254
2934.000000	92.886763
2933.000000	92.773780
2932.000000	92.673982
2931.000000	92.588692
2930.000000	92.516149
2929.000000	92.453580
2928.000000	92.399987
2927.000000	92.356574
2926.000000	92.325145
2925.000000	92.307113
2924.000000	92.303552
2923.000000	92.315260
2922.000000	92.342082
2921.000000	92.383009
2920.000000	92.437441
2919.000000	92.505806
2918.000000	92.589032
2917.000000	92.687633
2916.000000	92.801445
2915.000000	92.929209
2914.000000	93.067348
2913.000000	93.209503
2912.000000	93.348167
2911.000000	93.477946
2910.000000	93.597629
2909.000000	93.709512
2908.000000	93.816972
2907.000000	93.922296
2906.000000	94.026267
2905.000000	94.129050
2904.000000	94.231098
2903.000000	94.333106
2902.000000	94.435369
2901.000000	94.537403
2900.000000	94.637952
2899.000000	94.735574
2898.000000	94.829550
2897.000000	94.920544
2896.000000	95.009912
2895.000000	95.097787
2894.000000	95.182105
2893.000000	95.260151
2892.000000	95.330825
2891.000000	95.394942
2890.000000	95.453406
2889.000000	95.505602
2888.000000	95.549458
2887.000000	95.582499
2886.000000	95.603238
2885.000000	95.612156
2884.000000	95.611425
2883.000000	95.603120
2882.000000	95.587573
2881.000000	95.563487
2880.000000	95.528989
2879.000000	95.482434
2878.000000	95.423474
2877.000000	95.355122
2876.000000	95.284430
2875.000000	95.219690
2874.000000	95.166675
2873.000000	95.127630
2872.000000	95.103036
2871.000000	95.092309
2870.000000	95.092413
2869.000000	95.097236
2868.000000	95.099517
2867.000000	95.093468
2866.000000	95.075901
2865.000000	95.046096
2864.000000	95.005001
2863.000000	94.954294
2862.000000	94.895803
2861.000000	94.832033
2860.000000	94.766631
2859.000000	94.703410
2858.000000	94.645015
2857.000000	94.593575
2856.000000	94.552512
2855.000000	94.526291
2854.000000	94.518714
2853.000000	94.532404
2852.000000	94.570254
2851.000000	94.636204
2850.000000	94.733500
2849.000000	94.862241
2848.000000	95.018006
2847.000000	95.191859
2846.000000	95.371869
2845.000000	95.546771
2844.000000	95.709169
2843.000000	95.855940
2842.000000	95.986181
2841.000000	96.099873
2840.000000	96.198541
2839.000000	96.284955
2838.000000	96.361193
2837.000000	96.427798
2836.000000	96.485148
2835.000000	96.534449
2834.000000	96.576884
2833.000000	96.612982
2832.000000	96.643690
2831.000000	96.671113
2830.000000	96.697237
2829.000000	96.722733
2828.000000	96.747407
2827.000000	96.770928
2826.000000	96.792529
2825.000000	96.811044
2824.000000	96.826311
2823.000000	96.839894
2822.000000	96.853708
2821.000000	96.868357
2820.000000	96.883268
2819.000000	96.897765
2818.000000	96.911479
2817.000000	96.924387
2816.000000	96.937077
2815.000000	96.950495
2814.000000	96.965090
2813.000000	96.980718
2812.000000	96.997329
2811.000000	97.014731
2810.000000	97.031561
2809.000000	97.045938
2808.000000	97.057839
2807.000000	97.069592
2806.000000	97.083084
2805.000000	97.097460
2804.000000	97.110380
2803.000000	97.120666
2802.000000	97.128828
2801.000000	97.136111
2800.000000	97.144089
2799.000000	97.154226
2798.000000	97.166478
2797.000000	97.178862
2796.000000	97.189424
2795.000000	97.198146
2794.000000	97.205959
2793.000000	97.212795
2792.000000	97.218012
2791.000000	97.222263
2790.000000	97.227486
2789.000000	97.234966
2788.000000	97.244559
2787.000000	97.255686
2786.000000	97.267933
2785.000000	97.280464
2784.000000	97.291832
2783.000000	97.300844
2782.000000	97.307222
2781.000000	97.311421
2780.000000	97.314315
2779.000000	97.317093
2778.000000	97.320797
2777.000000	97.325636
2776.000000	97.330889
2775.000000	97.335510
2774.000000	97.338820
2773.000000	97.341028
2772.000000	97.343365
2771.000000	97.347351
2770.000000	97.353462
2769.000000	97.360657
2768.000000	97.367434
2767.000000	97.373141
2766.000000	97.378070
2765.000000	97.382643
2764.000000	97.386878
2763.000000	97.390520
2762.000000	97.393532
2761.000000	97.396540
2760.000000	97.400639
2759.000000	97.406298
2758.000000	97.412504
2757.000000	97.417635
2756.000000	97.421247
2755.000000	97.424414
2754.000000	97.428247
2753.000000	97.432838
2752.000000	97.437693
2751.000000	97.442243
2750.000000	97.445549
2749.000000	97.446553
2748.000000	97.445382
2747.000000	97.443771
2746.000000	97.443570
2745.000000	97.445336
2744.000000	97.448733
2743.000000	97.453448
2742.000000	97.458939
2741.000000	97.463921
2740.000000	97.466997
2739.000000	97.467631
2738.000000	97.466188
2737.000000	97.463743
2736.000000	97.462411
2735.000000	97.464972
2734.000000	97.472820
2733.000000	97.484201
2732.000000	97.495286
2731.000000	97.503086
2730.000000	97.507104
2729.000000	97.508738
2728.000000	97.509986
2727.000000	97.512557
2726.000000	97.517218
2725.000000	97.523445
2724.000000	97.530008
2723.000000	97.536008
2722.000000	97.541170
2721.000000	97.545420
2720.000000	97.548834
2719.000000	97.552061
2718.000000	97.556128
2717.000000	97.561260
2716.000000	97.566086
2715.000000	97.568546
2714.000000	97.567866
2713.000000	97.565539
2712.000000	97.564213
2711.000000	97.565683
2710.000000	97.570033
2709.000000	97.576164
2708.000000	97.582400
2707.000000	97.586868
2706.000000	97.588611
2705.000000	97.588880
2704.000000	97.590217
2703.000000	97.593395
2702.000000	97.596189
2701.000000	97.596345
2700.000000	97.594932
2699.000000	97.595130
2698.000000	97.598152
2697.000000	97.602106
2696.000000	97.604854
2695.000000	97.606265
2694.000000	97.607193
2693.000000	97.607901
2692.000000	97.608404
2691.000000	97.609163
2690.000000	97.610452
2689.000000	97.611818
2688.000000	97.612959
2687.000000	97.614570
2686.000000	97.617549
2685.000000	97.621719
2684.000000	97.625715
2683.000000	97.627882
2682.000000	97.627318
2681.000000	97.624797
2680.000000	97.622813
2679.000000	97.623795
2678.000000	97.627837
2677.000000	97.632751
2676.000000	97.636445
2675.000000	97.638396
2674.000000	97.638807
2673.000000	97.637749
2672.000000	97.635870
2671.000000	97.634704
2670.000000	97.635174
2669.000000	97.636380
2668.000000	97.636762
2667.000000	97.636001
2666.000000	97.635048
2665.000000	97.634748
2664.000000	97.635200
2663.000000	97.636061
2662.000000	97.636712
2661.000000	97.636350
2660.000000	97.634598
2659.000000	97.632048
2658.000000	97.629888
2657.000000	97.629117
2656.000000	97.630342
2655.000000	97.634030
2654.000000	97.640550
2653.000000	97.649893
2652.000000	97.661144
2651.000000	97.672097
2650.000000	97.679997
2649.000000	97.683857
2648.000000	97.686110
2647.000000	97.690746
2646.000000	97.699086
2645.000000	97.708089
2644.000000	97.713363
2643.000000	97.713308
2642.000000	97.710183
2641.000000	97.708131
2640.000000	97.710648
2639.000000	97.718871
2638.000000	97.731017
2637.000000	97.743382
2636.000000	97.752487
2635.000000	97.756735
2634.000000	97.756861
2633.000000	97.755718
2632.000000	97.757089
2631.000000	97.762877
2630.000000	97.770909
2629.000000	97.776862
2628.000000	97.779123
2627.000000	97.780670
2626.000000	97.785407
2625.000000	97.793627
2624.000000	97.801936
2623.000000	97.806769
2622.000000	97.807158
2621.000000	97.804882
2620.000000	97.802942
2619.000000	97.803538
2618.000000	97.806701
2617.000000	97.810921
2616.000000	97.815045
2615.000000	97.819024
2614.000000	97.823149
2613.000000	97.827803
2612.000000	97.833889
2611.000000	97.841689
2610.000000	97.848741
2609.000000	97.850915
2608.000000	97.847127
2607.000000	97.841816
2606.000000	97.840948
2605.000000	97.845991
2604.000000	97.853049
2603.000000	97.857429
2602.000000	97.857880
2601.000000	97.856489
2600.000000	97.855820
2599.000000	97.856865
2598.000000	97.859452
2597.000000	97.863878
2596.000000	97.871118
2595.000000	97.880800
2594.000000	97.889554
2593.000000	97.892713
2592.000000	97.888437
2591.000000	97.880027
2590.000000	97.873997
2589.000000	97.875437
2588.000000	97.884024
2587.000000	97.893980
2586.000000	97.899113
2585.000000	97.898848
2584.000000	97.898379
2583.000000	97.901767
2582.000000	97.906567
2581.000000	97.907303
2580.000000	97.902774
2579.000000	97.897225
2578.000000	97.894801
2577.000000	97.896089
2576.000000	97.900156
2575.000000	97.906824
2574.000000	97.915485
2573.000000	97.923607
2572.000000	97.928051
2571.000000	97.927495
2570.000000	97.923702
2569.000000	97.921082
2568.000000	97.923789
2567.000000	97.931063
2566.000000	97.936382
2565.000000	97.933980
2564.000000	97.926291
2563.000000	97.922042
2562.000000	97.926610
2561.000000	97.936593
2560.000000	97.944210
2559.000000	97.944916
2558.000000	97.940172
2557.000000	97.935113
2556.000000	97.934131
2555.000000	97.937091
2554.000000	97.939633
2553.000000	97.938692
2552.000000	97.936843
2551.000000	97.938921
2550.000000	97.945195
2549.000000	97.951232
2548.000000	97.954014
2547.000000	97.954527
2546.000000	97.954138
2545.000000	97.952354
2544.000000	97.949211
2543.000000	97.946354
2542.000000	97.944302
2541.000000	97.941521
2540.000000	97.937337
2539.000000	97.932975
2538.000000	97.928903
2537.000000	97.924206
2536.000000	97.919676
2535.000000	97.918216
2534.000000	97.920525
2533.000000	97.923115
2532.000000	97.921991
2531.000000	97.916092
2530.000000	97.906217
2529.000000	97.893761
2528.000000	97.881757
2527.000000	97.873980
2526.000000	97.870994
2525.000000	97.869522
2524.000000	97.867166
2523.000000	97.865118
2522.000000	97.864838
2521.000000	97.865152
2520.000000	97.864682
2519.000000	97.864427
2518.000000	97.865393
2517.000000	97.865691
2516.000000	97.862601
2515.000000	97.856314
2514.000000	97.849941
2513.000000	97.846764
2512.000000	97.848321
2511.000000	97.853766
2510.000000	97.860346
2509.000000	97.866240
2508.000000	97.873218
2507.000000	97.884314
2506.000000	97.898847
2505.000000	97.912829
2504.000000	97.924978
2503.000000	97.938622
2502.000000	97.955977
2501.000000	97.973940
2500.000000	97.987864
2499.000000	97.996792
2498.000000	98.002846
2497.000000	98.007959
2496.000000	98.013088
2495.000000	98.018158
2494.000000	98.020709
2493.000000	98.017593
2492.000000	98.010619
2491.000000	98.007514
2490.000000	98.014044
2489.000000	98.026918
2488.000000	98.038052
2487.000000	98.044550
2486.000000	98.050977
2485.000000	98.062247
2484.000000	98.077150
2483.000000	98.089698
2482.000000	98.095380
2481.000000	98.095535
2480.000000	98.096103
2479.000000	98.101469
2478.000000	98.109331
2477.000000	98.112993
2476.000000	98.108803
2475.000000	98.100026
2474.000000	98.092923
2473.000000	98.090979
2472.000000	98.093584
2471.000000	98.097871
2470.000000	98.100592
2469.000000	98.100290
2468.000000	98.099353
2467.000000	98.102313
2466.000000	98.110673
2465.000000	98.120617
2464.000000	98.127091
2463.000000	98.128792
2462.000000	98.128196
2461.000000	98.128288
2460.000000	98.130154
2459.000000	98.132375
2458.000000	98.131759
2457.000000	98.126166
2456.000000	98.117577
2455.000000	98.111217
2454.000000	98.111083
2453.000000	98.117554
2452.000000	98.128709
2451.000000	98.141164
2450.000000	98.149543
2449.000000	98.148990
2448.000000	98.140496
2447.000000	98.131499
2446.000000	98.129214
2445.000000	98.134759
2444.000000	98.144455
2443.000000	98.153875
2442.000000	98.159375
2441.000000	98.158741
2440.000000	98.153358
2439.000000	98.148033
2438.000000	98.146284
2437.000000	98.146694
2436.000000	98.145410
2435.000000	98.140797
2434.000000	98.134196
2433.000000	98.128012
2432.000000	98.125186
2431.000000	98.129054
2430.000000	98.140907
2429.000000	98.157301
2428.000000	98.171144
2427.000000	98.176421
2426.000000	98.172508
2425.000000	98.164813
2424.000000	98.160692
2423.000000	98.163197
2422.000000	98.168463
2421.000000	98.170504
2420.000000	98.167923
2419.000000	98.164259
2418.000000	98.162530
2417.000000	98.162346
2416.000000	98.162437
2415.000000	98.162855
2414.000000	98.163755
2413.000000	98.164745
2412.000000	98.166592
2411.000000	98.171095
2410.000000	98.178108
2409.000000	98.184863
2408.000000	98.189558
2407.000000	98.193504
2406.000000	98.198343
2405.000000	98.202986
2404.000000	98.204732
2403.000000	98.202054
2402.000000	98.195366
2401.000000	98.186689
2400.000000	98.179396
2399.000000	98.176489
2398.000000	98.177861
2397.000000	98.180395
2396.000000	98.181538
2395.000000	98.181777
2394.000000	98.183231
2393.000000	98.187001
2392.000000	98.192108
2391.000000	98.195981
2390.000000	98.196156
2389.000000	98.193115
2388.000000	98.191312
2387.000000	98.194876
2386.000000	98.202572
2385.000000	98.208721
2384.000000	98.209552
2383.000000	98.207342
2382.000000	98.207326
2381.000000	98.212848
2380.000000	98.222569
2379.000000	98.230447
2378.000000	98.229332
2377.000000	98.217538
2376.000000	98.202607
2375.000000	98.194991
2374.000000	98.197474
2373.000000	98.203477
2372.000000	98.206583
2371.000000	98.207947
2370.000000	98.213220
2369.000000	98.225232
2368.000000	98.239328
2367.000000	98.245457
2366.000000	98.235856
2365.000000	98.213298
2364.000000	98.189519
2363.000000	98.172097
2362.000000	98.158596
2361.000000	98.146423
2360.000000	98.139962
2359.000000	98.144852
2358.000000	98.159700
2357.000000	98.177283
2356.000000	98.191129
2355.000000	98.194947
2354.000000	98.188933
2353.000000	98.179478
2352.000000	98.173152
2351.000000	98.170807
2350.000000	98.169701
2349.000000	98.166882
2348.000000	98.161596
2347.000000	98.157164
2346.000000	98.156048
2345.000000	98.154162
2344.000000	98.149760
2343.000000	98.148764
2342.000000	98.157723
2341.000000	98.173598
2340.000000	98.185439
2339.000000	98.184752
2338.000000	98.171447
2337.000000	98.152368
2336.000000	98.135344
2335.000000	98.127487
2334.000000	98.130665
2333.000000	98.140281
2332.000000	98.145207
2331.000000	98.141082
2330.000000	98.131940
2329.000000	98.126045
2328.000000	98.121393
2327.000000	98.110427
2326.000000	98.088377
2325.000000	98.061151
2324.000000	98.041698
2323.000000	98.041200
2322.000000	98.059259
2321.000000	98.084844
2320.000000	98.105551
2319.000000	98.118278
2318.000000	98.124708
2317.000000	98.127712
2316.000000	98.128135
2315.000000	98.129733
2314.000000	98.135040
2313.000000	98.145070
2312.000000	98.157519
2311.000000	98.170974
2310.000000	98.182705
2309.000000	98.190488
2308.000000	98.194038
2307.000000	98.196862
2306.000000	98.200366
2305.000000	98.201949
2304.000000	98.198880
2303.000000	98.193914
2302.000000	98.190749
2301.000000	98.188620
2300.000000	98.182885
2299.000000	98.173777
2298.000000	98.166718
2297.000000	98.166979
2296.000000	98.172655
2295.000000	98.177950
2294.000000	98.178766
2293.000000	98.176621
2292.000000	98.175482
2291.000000	98.177177
2290.000000	98.179589
2289.000000	98.179901
2288.000000	98.178314
2287.000000	98.177124
2286.000000	98.177582
2285.000000	98.179371
2284.000000	98.183413
2283.000000	98.191493
2282.000000	98.203316
2281.000000	98.215188
2280.000000	98.222350
2279.000000	98.220930
2278.000000	98.209973
2277.000000	98.195068
2276.000000	98.187567
2275.000000	98.195168
2274.000000	98.213821
2273.000000	98.234003
2272.000000	98.252882
2271.000000	98.274113
2270.000000	98.296725
2269.000000	98.313125
2268.000000	98.319333
2267.000000	98.319112
2266.000000	98.315280
2265.000000	98.305263
2264.000000	98.288885
2263.000000	98.273254
2262.000000	98.264997
2261.000000	98.262755
2260.000000	98.261279
2259.000000	98.258335
2258.000000	98.255227
2257.000000	98.254950
2256.000000	98.262230
2255.000000	98.279916
2254.000000	98.302560
2253.000000	98.318518
2252.000000	98.320728
2251.000000	98.311647
2250.000000	98.297764
2249.000000	98.285892
2248.000000	98.283763
2247.000000	98.295520
2246.000000	98.314556
2245.000000	98.329202
2244.000000	98.337356
2243.000000	98.347141
2242.000000	98.361142
2241.000000	98.370121
2240.000000	98.366188
2239.000000	98.353087
2238.000000	98.338634
2237.000000	98.325920
2236.000000	98.316702
2235.000000	98.315275
2234.000000	98.323443
2233.000000	98.337704
2232.000000	98.354189
2231.000000	98.369101
2230.000000	98.372825
2229.000000	98.355267
2228.000000	98.322260
2227.000000	98.295837
2226.000000	98.291797
2225.000000	98.305783
2224.000000	98.326395
2223.000000	98.350716
2222.000000	98.379141
2221.000000	98.405153
2220.000000	98.421128
2219.000000	98.428413
2218.000000	98.433198
2217.000000	98.438022
2216.000000	98.443760
2215.000000	98.453653
2214.000000	98.468168
2213.000000	98.481079
2212.000000	98.486453
2211.000000	98.484974
2210.000000	98.478904
2209.000000	98.467027
2208.000000	98.449572
2207.000000	98.432984
2206.000000	98.425032
2205.000000	98.427711
2204.000000	98.435903
2203.000000	98.439782
2202.000000	98.431276
2201.000000	98.415097
2200.000000	98.409989
2199.000000	98.428450
2198.000000	98.458606
2197.000000	98.478368
2196.000000	98.485305
2195.000000	98.496432
2194.000000	98.519675
2193.000000	98.544112
2192.000000	98.560848
2191.000000	98.573711
2190.000000	98.582958
2189.000000	98.579705
2188.000000	98.565975
2187.000000	98.560991
2186.000000	98.574083
2185.000000	98.587824
2184.000000	98.583256
2183.000000	98.569392
2182.000000	98.570132
2181.000000	98.589959
2180.000000	98.609240
2179.000000	98.610499
2178.000000	98.597219
2177.000000	98.587815
2176.000000	98.596747
2175.000000	98.619151
2174.000000	98.633332
2173.000000	98.622872
2172.000000	98.594135
2171.000000	98.565195
2170.000000	98.543843
2169.000000	98.526089
2168.000000	98.509787
2167.000000	98.496960
2166.000000	98.488181
2165.000000	98.488637
2164.000000	98.511395
2163.000000	98.554898
2162.000000	98.587641
2161.000000	98.585128
2160.000000	98.576973
2159.000000	98.616298
2158.000000	98.693107
2157.000000	98.734381
2156.000000	98.702007
2155.000000	98.630630
2154.000000	98.569310
2153.000000	98.536685
2152.000000	98.530310
2151.000000	98.541612
2150.000000	98.555978
2149.000000	98.561672
2148.000000	98.565942
2147.000000	98.583543
2146.000000	98.607824
2145.000000	98.614266
2144.000000	98.595332
2143.000000	98.568308
2142.000000	98.546141
2141.000000	98.524213
2140.000000	98.500516
2139.000000	98.487349
2138.000000	98.493598
2137.000000	98.511358
2136.000000	98.527340
2135.000000	98.535476
2134.000000	98.533115
2133.000000	98.518384
2132.000000	98.496482
2131.000000	98.477320
2130.000000	98.463889
2129.000000	98.452093
2128.000000	98.441636
2127.000000	98.436769
2126.000000	98.436209
2125.000000	98.432555
2124.000000	98.422519
2123.000000	98.408123
2122.000000	98.388955
2121.000000	98.364429
2120.000000	98.342830
2119.000000	98.334923
2118.000000	98.337603
2117.000000	98.336255
2116.000000	98.325169
2115.000000	98.313601
2114.000000	98.309644
2113.000000	98.311534
2112.000000	98.317657
2111.000000	98.330746
2110.000000	98.345937
2109.000000	98.348310
2108.000000	98.330588
2107.000000	98.303654
2106.000000	98.283075
2105.000000	98.275346
2104.000000	98.281722
2103.000000	98.302917
2102.000000	98.332169
2101.000000	98.353968
2100.000000	98.358979
2099.000000	98.353512
2098.000000	98.349633
2097.000000	98.352848
2096.000000	98.363029
2095.000000	98.377202
2094.000000	98.387647
2093.000000	98.387679
2092.000000	98.382771
2091.000000	98.384932
2090.000000	98.393370
2089.000000	98.392454
2088.000000	98.373368
2087.000000	98.346845
2086.000000	98.328777
2085.000000	98.324293
2084.000000	98.330444
2083.000000	98.343889
2082.000000	98.360310
2081.000000	98.375366
2080.000000	98.390878
2079.000000	98.409929
2078.000000	98.423025
2077.000000	98.412550
2076.000000	98.377837
2075.000000	98.342487
2074.000000	98.329625
2073.000000	98.341706
2072.000000	98.368467
2071.000000	98.400935
2070.000000	98.429002
2069.000000	98.439614
2068.000000	98.430404
2067.000000	98.416324
2066.000000	98.414392
2065.000000	98.428165
2064.000000	98.449548
2063.000000	98.465959
2062.000000	98.463461
2061.000000	98.436939
2060.000000	98.402296
2059.000000	98.384505
2058.000000	98.390515
2057.000000	98.408462
2056.000000	98.431859
2055.000000	98.463295
2054.000000	98.491130
2053.000000	98.490369
2052.000000	98.458494
2051.000000	98.427031
2050.000000	98.424488
2049.000000	98.445142
2048.000000	98.468413
2047.000000	98.492142
2046.000000	98.523287
2045.000000	98.552231
2044.000000	98.562851
2043.000000	98.556347
2042.000000	98.545509
2041.000000	98.537331
2040.000000	98.534834
2039.000000	98.542769
2038.000000	98.560488
2037.000000	98.582852
2036.000000	98.613629
2035.000000	98.657635
2034.000000	98.694686
2033.000000	98.693052
2032.000000	98.660648
2031.000000	98.644612
2030.000000	98.663959
2029.000000	98.681870
2028.000000	98.661769
2027.000000	98.619231
2026.000000	98.594981
2025.000000	98.606535
2024.000000	98.643162
2023.000000	98.685095
2022.000000	98.711477
2021.000000	98.711601
2020.000000	98.703291
2019.000000	98.717849
2018.000000	98.757881
2017.000000	98.791969
2016.000000	98.797684
2015.000000	98.781094
2014.000000	98.748724
2013.000000	98.700615
2012.000000	98.657709
2011.000000	98.655857
2010.000000	98.699563
2009.000000	98.753170
2008.000000	98.786401
2007.000000	98.798447
2006.000000	98.789558
2005.000000	98.754244
2004.000000	98.712172
2003.000000	98.700881
2002.000000	98.724052
2001.000000	98.738948
2000.000000	98.710913
1999.000000	98.649455
1998.000000	98.585194
1997.000000	98.541905
1996.000000	98.536710
1995.000000	98.574239
1994.000000	98.628139
1993.000000	98.655302
1992.000000	98.645979
1991.000000	98.634017
1990.000000	98.639729
1989.000000	98.641748
1988.000000	98.621034
1987.000000	98.592067
1986.000000	98.571126
1985.000000	98.549405
1984.000000	98.519378
1983.000000	98.494598
1982.000000	98.480257
1981.000000	98.455596
1980.000000	98.417424
1979.000000	98.409043
1978.000000	98.471746
1977.000000	98.581258
1976.000000	98.671223
1975.000000	98.708491
1974.000000	98.708093
1973.000000	98.699577
1972.000000	98.709161
1971.000000	98.748204
1970.000000	98.795816
1969.000000	98.812218
1968.000000	98.784762
1967.000000	98.742657
1966.000000	98.714595
1965.000000	98.698936
1964.000000	98.685928
1963.000000	98.676554
1962.000000	98.668555
1961.000000	98.655425
1960.000000	98.649313
1959.000000	98.673051
1958.000000	98.719747
1957.000000	98.751375
1956.000000	98.746917
1955.000000	98.722007
1954.000000	98.694039
1953.000000	98.663088
1952.000000	98.635714
1951.000000	98.637308
1950.000000	98.677580
1949.000000	98.729165
1948.000000	98.761074
1947.000000	98.769923
1946.000000	98.763026
1945.000000	98.736607
1944.000000	98.691123
1943.000000	98.648810
1942.000000	98.631642
1941.000000	98.635259
1940.000000	98.643847
1939.000000	98.652174
1938.000000	98.657869
1937.000000	98.652067
1936.000000	98.632918
1935.000000	98.614345
1934.000000	98.607655
1933.000000	98.607541
1932.000000	98.605080
1931.000000	98.605337
1930.000000	98.612708
1929.000000	98.615898
1928.000000	98.606700
1927.000000	98.593763
1926.000000	98.592802
1925.000000	98.603389
1924.000000	98.617594
1923.000000	98.635609
1922.000000	98.655874
1921.000000	98.664375
1920.000000	98.649480
1919.000000	98.620013
1918.000000	98.598527
1917.000000	98.593629
1916.000000	98.596475
1915.000000	98.599112
1914.000000	98.602083
1913.000000	98.608591
1912.000000	98.619077
1911.000000	98.631771
1910.000000	98.639654
1909.000000	98.633587
1908.000000	98.615782
1907.000000	98.597573
1906.000000	98.589394
1905.000000	98.589310
1904.000000	98.593293
1903.000000	98.603125
1902.000000	98.614870
1901.000000	98.617786
1900.000000	98.611992
1899.000000	98.610722
1898.000000	98.623288
1897.000000	98.639893
1896.000000	98.646351
1895.000000	98.645204
1894.000000	98.648233
1893.000000	98.656943
1892.000000	98.662389
1891.000000	98.659108
1890.000000	98.649619
1889.000000	98.638814
1888.000000	98.631569
1887.000000	98.630724
1886.000000	98.633712
1885.000000	98.636602
1884.000000	98.640121
1883.000000	98.647318
1882.000000	98.653471
1881.000000	98.650620
1880.000000	98.642738
1879.000000	98.641417
1878.000000	98.650135
1877.000000	98.659633
1876.000000	98.660710
1875.000000	98.658192
1874.000000	98.662657
1873.000000	98.674893
1872.000000	98.688095
1871.000000	98.698877
1870.000000	98.709822
1869.000000	98.723244
1868.000000	98.737402
1867.000000	98.748056
1866.000000	98.746602
1865.000000	98.726030
1864.000000	98.693146
1863.000000	98.664767
1862.000000	98.649217
1861.000000	98.640872
1860.000000	98.635086
1859.000000	98.635944
1858.000000	98.645890
1857.000000	98.658684
1856.000000	98.668146
1855.000000	98.674944
1854.000000	98.680636
1853.000000	98.682387
1852.000000	98.684663
1851.000000	98.690095
1850.000000	98.697685
1849.000000	98.708716
1848.000000	98.727882
1847.000000	98.753370
1846.000000	98.770522
1845.000000	98.768670
1844.000000	98.758004
1843.000000	98.756674
1842.000000	98.759875
1841.000000	98.748252
1840.000000	98.722002
1839.000000	98.700173
1838.000000	98.694549
1837.000000	98.692711
1836.000000	98.685594
1835.000000	98.685961
1834.000000	98.703112
1833.000000	98.723402
1832.000000	98.730140
1831.000000	98.724703
1830.000000	98.727169
1829.000000	98.742929
1828.000000	98.753596
1827.000000	98.744883
1826.000000	98.723329
1825.000000	98.708440
1824.000000	98.708692
1823.000000	98.715723
1822.000000	98.717483
1821.000000	98.711546
1820.000000	98.704419
1819.000000	98.701162
1818.000000	98.701698
1817.000000	98.700194
1816.000000	98.696958
1815.000000	98.699998
1814.000000	98.709041
1813.000000	98.716339
1812.000000	98.713419
1811.000000	98.702810
1810.000000	98.691118
1809.000000	98.674307
1808.000000	98.648339
1807.000000	98.619957
1806.000000	98.597644
1805.000000	98.580297
1804.000000	98.560880
1803.000000	98.537075
1802.000000	98.507700
1801.000000	98.478258
1800.000000	98.453846
1799.000000	98.438375
1798.000000	98.431452
1797.000000	98.430582
1796.000000	98.436173
1795.000000	98.447763
1794.000000	98.458727
1793.000000	98.470418
1792.000000	98.492576
1791.000000	98.531382
1790.000000	98.576944
1789.000000	98.611262
1788.000000	98.626342
1787.000000	98.630158
1786.000000	98.636173
1785.000000	98.650993
1784.000000	98.673640
1783.000000	98.698474
1782.000000	98.709064
1781.000000	98.704782
1780.000000	98.696371
1779.000000	98.695915
1778.000000	98.705258
1777.000000	98.721036
1776.000000	98.746728
1775.000000	98.776014
1774.000000	98.790569
1773.000000	98.785117
1772.000000	98.774530
1771.000000	98.763654
1770.000000	98.733362
1769.000000	98.663773
1768.000000	98.571204
1767.000000	98.502730
1766.000000	98.473501
1765.000000	98.448148
1764.000000	98.385541
1763.000000	98.282015
1762.000000	98.159682
1761.000000	98.036834
1760.000000	97.903078
1759.000000	97.734550
1758.000000	97.500337
1757.000000	97.193864
1756.000000	96.865137
1755.000000	96.567835
1754.000000	96.286015
1753.000000	95.955474
1752.000000	95.541351
1751.000000	95.079948
1750.000000	94.636889
1749.000000	94.218118
1748.000000	93.814971
1747.000000	93.454893
1746.000000	93.151967
1745.000000	92.891853
1744.000000	92.668210
1743.000000	92.501578
1742.000000	92.395016
1741.000000	92.319415
1740.000000	92.273989
1739.000000	92.307790
1738.000000	92.423027
1737.000000	92.558416
1736.000000	92.683345
1735.000000	92.863556
1734.000000	93.184946
1733.000000	93.568177
1732.000000	93.893377
1731.000000	94.166776
1730.000000	94.437759
1729.000000	94.725927
1728.000000	95.024263
1727.000000	95.319387
1726.000000	95.602270
1725.000000	95.875069
1724.000000	96.140002
1723.000000	96.401319
1722.000000	96.648865
1721.000000	96.859740
1720.000000	97.030813
1719.000000	97.195408
1718.000000	97.390992
1717.000000	97.580229
1716.000000	97.697752
1715.000000	97.747366
1714.000000	97.759956
1713.000000	97.751791
1712.000000	97.737144
1711.000000	97.731897
1710.000000	97.738586
1709.000000	97.747416
1708.000000	97.747837
1707.000000	97.728123
1706.000000	97.690876
1705.000000	97.657264
1704.000000	97.648751
1703.000000	97.642721
1702.000000	97.578733
1701.000000	97.434927
1700.000000	97.304315
1699.000000	97.276925
1698.000000	97.261029
1697.000000	97.124092
1696.000000	96.871770
1695.000000	96.647852
1694.000000	96.527773
1693.000000	96.442951
1692.000000	96.332936
1691.000000	96.207777
1690.000000	96.096331
1689.000000	96.011790
1688.000000	95.958813
1687.000000	95.918430
1686.000000	95.850658
1685.000000	95.712085
1684.000000	95.527120
1683.000000	95.379256
1682.000000	95.257608
1681.000000	95.103644
1680.000000	94.928857
1679.000000	94.785122
1678.000000	94.675278
1677.000000	94.547659
1676.000000	94.373909
1675.000000	94.205366
1674.000000	94.096589
1673.000000	94.021959
1672.000000	93.920060
1671.000000	93.772867
1670.000000	93.592078
1669.000000	93.395300
1668.000000	93.213270
1667.000000	93.068821
1666.000000	92.947695
1665.000000	92.812752
1664.000000	92.638223
1663.000000	92.443939
1662.000000	92.263559
1661.000000	92.104444
1660.000000	91.953626
1659.000000	91.812644
1658.000000	91.703095
1657.000000	91.636473
1656.000000	91.588883
1655.000000	91.507414
1654.000000	91.356199
1653.000000	91.165581
1652.000000	91.051428
1651.000000	91.037717
1650.000000	91.037443
1649.000000	90.998745
1648.000000	90.929418
1647.000000	90.863617
1646.000000	90.826369
1645.000000	90.805213
1644.000000	90.787939
1643.000000	90.778758
1642.000000	90.779462
1641.000000	90.796725
1640.000000	90.841150
1639.000000	90.910263
1638.000000	90.986028
1637.000000	91.042799
1636.000000	91.079224
1635.000000	91.106879
1634.000000	91.137656
1633.000000	91.163104
1632.000000	91.179215
1631.000000	91.204305
1630.000000	91.256262
1629.000000	91.338364
1628.000000	91.444928
1627.000000	91.567196
1626.000000	91.688730
1625.000000	91.801824
1624.000000	91.919094
1623.000000	92.061491
1622.000000	92.218378
1621.000000	92.363602
1620.000000	92.488616
1619.000000	92.599461
1618.000000	92.715413
1617.000000	92.860796
1616.000000	93.032824
1615.000000	93.191034
1614.000000	93.307888
1613.000000	93.390541
1612.000000	93.469674
1611.000000	93.571600
1610.000000	93.690614
1609.000000	93.806047
1608.000000	93.910522
1607.000000	94.008975
1606.000000	94.097453
1605.000000	94.175643
1604.000000	94.250416
1603.000000	94.322556
1602.000000	94.384896
1601.000000	94.432737
1600.000000	94.471926
1599.000000	94.509340
1598.000000	94.544884
1597.000000	94.577685
1596.000000	94.610329
1595.000000	94.642881
1594.000000	94.667350
1593.000000	94.678470
1592.000000	94.682285
1591.000000	94.686907
1590.000000	94.690573
1589.000000	94.687220
1588.000000	94.676327
1587.000000	94.660469
1586.000000	94.638894
1585.000000	94.609385
1584.000000	94.578353
1583.000000	94.542640
1582.000000	94.498132
1581.000000	94.457653
1580.000000	94.440312
1579.000000	94.438055
1578.000000	94.421523
1577.000000	94.371176
1576.000000	94.302723
1575.000000	94.250971
1574.000000	94.216570
1573.000000	94.177490
1572.000000	94.120989
1571.000000	94.048927
1570.000000	93.970368
1569.000000	93.895799
1568.000000	93.836336
1567.000000	93.776287
1566.000000	93.694534
1565.000000	93.596446
1564.000000	93.522433
1563.000000	93.492113
1562.000000	93.480843
1561.000000	93.443969
1560.000000	93.351752
1559.000000	93.192811
1558.000000	93.014033
1557.000000	92.862431
1556.000000	92.705314
1555.000000	92.521751
1554.000000	92.338481
1553.000000	92.191156
1552.000000	92.070973
1551.000000	91.945161
1550.000000	91.813059
1549.000000	91.694624
1548.000000	91.604182
1547.000000	91.529202
1546.000000	91.456452
1545.000000	91.393328
1544.000000	91.356192
1543.000000	91.342260
1542.000000	91.331379
1541.000000	91.292106
1540.000000	91.217031
1539.000000	91.140616
1538.000000	91.096432
1537.000000	91.074163
1536.000000	91.049559
1535.000000	91.023105
1534.000000	91.012202
1533.000000	91.026623
1532.000000	91.046417
1531.000000	91.058781
1530.000000	91.069119
1529.000000	91.082588
1528.000000	91.104520
1527.000000	91.141865
1526.000000	91.194126
1525.000000	91.252334
1524.000000	91.299785
1523.000000	91.321994
1522.000000	91.319985
1521.000000	91.307762
1520.000000	91.302273
1519.000000	91.298377
1518.000000	91.273953
1517.000000	91.229105
1516.000000	91.191062
1515.000000	91.179601
1514.000000	91.180660
1513.000000	91.185622
1512.000000	91.213589
1511.000000	91.290545
1510.000000	91.403010
1509.000000	91.509886
1508.000000	91.580873
1507.000000	91.616855
1506.000000	91.612690
1505.000000	91.585030
1504.000000	91.564726
1503.000000	91.550469
1502.000000	91.539085
1501.000000	91.533409
1500.000000	91.540210
1499.000000	91.559938
1498.000000	91.576052
1497.000000	91.562481
1496.000000	91.521509
1495.000000	91.492987
1494.000000	91.486089
1493.000000	91.475721
1492.000000	91.449494
1491.000000	91.424274
1490.000000	91.406982
1489.000000	91.367944
1488.000000	91.288670
1487.000000	91.192169
1486.000000	91.095185
1485.000000	90.990498
1484.000000	90.879553
1483.000000	90.762136
1482.000000	90.636145
1481.000000	90.500959
1480.000000	90.367170
1479.000000	90.239960
1478.000000	90.106706
1477.000000	89.955939
1476.000000	89.797152
1475.000000	89.642390
1474.000000	89.455852
1473.000000	89.191198
1472.000000	88.877848
1471.000000	88.600734
1470.000000	88.375041
1469.000000	88.166953
1468.000000	87.965050
1467.000000	87.780465
1466.000000	87.609416
1465.000000	87.443367
1464.000000	87.298878
1463.000000	87.193549
1462.000000	87.117496
1461.000000	87.047624
1460.000000	86.974508
1459.000000	86.882655
1458.000000	86.731038
1457.000000	86.497702
1456.000000	86.275999
1455.000000	86.140154
1454.000000	86.038464
1453.000000	85.925649
1452.000000	85.815214
1451.000000	85.733319
1450.000000	85.669025
1449.000000	85.592019
1448.000000	85.502231
1447.000000	85.428038
1446.000000	85.366412
1445.000000	85.300446
1444.000000	85.225616
1443.000000	85.148809
1442.000000	85.074373
1441.000000	85.001272
1440.000000	84.929888
1439.000000	84.849516
1438.000000	84.737977
1437.000000	84.585716
1436.000000	84.440446
1435.000000	84.352726
1434.000000	84.299642
1433.000000	84.238976
1432.000000	84.167104
1431.000000	84.095856
1430.000000	84.014104
1429.000000	83.900796
1428.000000	83.769085
1427.000000	83.650294
1426.000000	83.542635
1425.000000	83.441274
1424.000000	83.368993
1423.000000	83.344307
1422.000000	83.339184
1421.000000	83.310209
1420.000000	83.255498
1419.000000	83.211154
1418.000000	83.189970
1417.000000	83.169794
1416.000000	83.150443
1415.000000	83.152026
1414.000000	83.181274
1413.000000	83.232064
1412.000000	83.305142
1411.000000	83.405696
1410.000000	83.526142
1409.000000	83.651612
1408.000000	83.780266
1407.000000	83.920880
1406.000000	84.067924
1405.000000	84.211661
1404.000000	84.351595
1403.000000	84.484354
1402.000000	84.596032
1401.000000	84.680726
1400.000000	84.759358
1399.000000	84.856628
1398.000000	84.963621
1397.000000	85.054032
1396.000000	85.127498
1395.000000	85.204530
1394.000000	85.290341
1393.000000	85.380263
1392.000000	85.477429
1391.000000	85.585994
1390.000000	85.701629
1389.000000	85.820619
1388.000000	85.949753
1387.000000	86.093736
1386.000000	86.235696
1385.000000	86.359262
1384.000000	86.471350
1383.000000	86.587191
1382.000000	86.712327
1381.000000	86.842581
1380.000000	86.981652
1379.000000	87.139068
1378.000000	87.314119
1377.000000	87.497728
1376.000000	87.688227
1375.000000	87.887789
1374.000000	88.083264
1373.000000	88.254976
1372.000000	88.400647
1371.000000	88.531799
1370.000000	88.655068
1369.000000	88.776862
1368.000000	88.903563
1367.000000	89.033110
1366.000000	89.156284
1365.000000	89.269399
1364.000000	89.378322
1363.000000	89.485565
1362.000000	89.581627
1361.000000	89.659083
1360.000000	89.723510
1359.000000	89.782093
1358.000000	89.836251
1357.000000	89.888529
1356.000000	89.944752
1355.000000	90.007102
1354.000000	90.072036
1353.000000	90.137379
1352.000000	90.204198
1351.000000	90.273312
1350.000000	90.338686
1349.000000	90.395787
1348.000000	90.442239
1347.000000	90.474045
1346.000000	90.487557
1345.000000	90.487439
1344.000000	90.483982
1343.000000	90.479903
1342.000000	90.466729
1341.000000	90.435859
1340.000000	90.387397
1339.000000	90.327444
1338.000000	90.263451
1337.000000	90.205927
1336.000000	90.167911
1335.000000	90.157825
1334.000000	90.175197
1333.000000	90.215485
1332.000000	90.274529
1331.000000	90.346481
1330.000000	90.422865
1329.000000	90.498964
1328.000000	90.576701
1327.000000	90.658296
1326.000000	90.739927
1325.000000	90.816312
1324.000000	90.885046
1323.000000	90.945821
1322.000000	91.000121
1321.000000	91.052748
1320.000000	91.108993
1319.000000	91.168744
1318.000000	91.227814
1317.000000	91.285993
1316.000000	91.348520
1315.000000	91.418511
1314.000000	91.493281
1313.000000	91.568792
1312.000000	91.643272
1311.000000	91.715915
1310.000000	91.786039
1309.000000	91.854848
1308.000000	91.924316
1307.000000	91.995145
1306.000000	92.067077
1305.000000	92.141325
1304.000000	92.217586
1303.000000	92.291793
1302.000000	92.361116
1301.000000	92.429289
1300.000000	92.501833
1299.000000	92.577954
1298.000000	92.652469
1297.000000	92.722768
1296.000000	92.788244
1295.000000	92.844566
1294.000000	92.886619
1293.000000	92.916224
1292.000000	92.940543
1291.000000	92.963228
1290.000000	92.981737
1289.000000	92.993657
1288.000000	93.000648
1287.000000	93.006074
1286.000000	93.012708
1285.000000	93.022203
1284.000000	93.033683
1283.000000	93.043649
1282.000000	93.050178
1281.000000	93.055311
1280.000000	93.059801
1279.000000	93.057927
1278.000000	93.042251
1277.000000	93.010919
1276.000000	92.966655
1275.000000	92.909836
1274.000000	92.838299
1273.000000	92.752315
1272.000000	92.654233
1271.000000	92.544257
1270.000000	92.419873
1269.000000	92.280367
1268.000000	92.128614
1267.000000	91.967567
1266.000000	91.798637
1265.000000	91.623235
1264.000000	91.444271
1263.000000	91.265812
1262.000000	91.092568
1261.000000	90.929136
1260.000000	90.777570
1259.000000	90.635357
1258.000000	90.499268
1257.000000	90.373358
1256.000000	90.269211
1255.000000	90.196490
1254.000000	90.154438
1253.000000	90.132951
1252.000000	90.119874
1251.000000	90.104329
1250.000000	90.078600
1249.000000	90.041766
1248.000000	89.999512
1247.000000	89.957334
1246.000000	89.915529
1245.000000	89.872775
1244.000000	89.831660
1243.000000	89.797488
1242.000000	89.774024
1241.000000	89.763164
1240.000000	89.766439
1239.000000	89.784202
1238.000000	89.815291
1237.000000	89.861375
1236.000000	89.927379
1235.000000	90.014190
1234.000000	90.114998
1233.000000	90.222167
1232.000000	90.335902
1231.000000	90.461895
1230.000000	90.604269
1229.000000	90.765206
1228.000000	90.946396
1227.000000	91.146880
1226.000000	91.360756
1225.000000	91.579987
1224.000000	91.797467
1223.000000	92.005823
1222.000000	92.198043
1221.000000	92.371276
1220.000000	92.526772
1219.000000	92.664591
1218.000000	92.783475
1217.000000	92.885309
1216.000000	92.974553
1215.000000	93.052916
1214.000000	93.118070
1213.000000	93.169823
1212.000000	93.211558
1211.000000	93.244384
1210.000000	93.265126
1209.000000	93.271312
1208.000000	93.265410
1207.000000	93.252007
1206.000000	93.234079
1205.000000	93.213756
1204.000000	93.192996
1203.000000	93.172071
1202.000000	93.149638
1201.000000	93.125857
1200.000000	93.103238
1199.000000	93.082823
1198.000000	93.062215
1197.000000	93.038868
1196.000000	93.013046
1195.000000	92.986161
1194.000000	92.958227
1193.000000	92.928493
1192.000000	92.896520
1191.000000	92.861115
1190.000000	92.820459
1189.000000	92.774312
1188.000000	92.723976
1187.000000	92.668812
1186.000000	92.604877
1185.000000	92.529410
1184.000000	92.444027
1183.000000	92.351500
1182.000000	92.251455
1181.000000	92.141340
1180.000000	92.021219
1179.000000	91.894352
1178.000000	91.763864
1177.000000	91.631743
1176.000000	91.500327
1175.000000	91.372055
1174.000000	91.247449
1173.000000	91.126164
1172.000000	91.009615
1171.000000	90.900012
1170.000000	90.796951
1169.000000	90.698469
1168.000000	90.605500
1167.000000	90.521326
1166.000000	90.447797
1165.000000	90.385627
1164.000000	90.338817
1163.000000	90.314556
1162.000000	90.316208
1161.000000	90.341568
1160.000000	90.387786
1159.000000	90.454668
1158.000000	90.543924
1157.000000	90.657125
1156.000000	90.796111
1155.000000	90.960505
1154.000000	91.145080
1153.000000	91.343846
1152.000000	91.554743
1151.000000	91.778807
1150.000000	92.015140
1149.000000	92.259744
1148.000000	92.508511
1147.000000	92.758113
1146.000000	93.005588
1145.000000	93.248633
1144.000000	93.485445
1143.000000	93.713303
1142.000000	93.929698
1141.000000	94.134431
1140.000000	94.327699
1139.000000	94.506826
1138.000000	94.667095
1137.000000	94.807016
1136.000000	94.928594
1135.000000	95.032175
1134.000000	95.115664
1133.000000	95.178435
1132.000000	95.224481
1131.000000	95.259311
1130.000000	95.285026
1129.000000	95.300515
1128.000000	95.304756
1127.000000	95.299897
1126.000000	95.290038
1125.000000	95.276701
1124.000000	95.257237
1123.000000	95.227970
1122.000000	95.188397
1121.000000	95.139959
1120.000000	95.080544
1119.000000	95.004037
1118.000000	94.904897
1117.000000	94.781613
1116.000000	94.635246
1115.000000	94.467463
1114.000000	94.283293
1113.000000	94.093814
1112.000000	93.914330
1111.000000	93.758075
1110.000000	93.631459
1109.000000	93.535082
1108.000000	93.469010
1107.000000	93.434697
1106.000000	93.430178
1105.000000	93.447591
1104.000000	93.475622
1103.000000	93.503973
1102.000000	93.523866
1101.000000	93.526767
1100.000000	93.506842
1099.000000	93.464238
1098.000000	93.405375
1097.000000	93.338061
1096.000000	93.269090
1095.000000	93.206121
1094.000000	93.158096
1093.000000	93.130950
1092.000000	93.125728
1091.000000	93.142270
1090.000000	93.183601
1089.000000	93.252637
1088.000000	93.345576
1087.000000	93.452465
1086.000000	93.564520
1085.000000	93.680373
1084.000000	93.803076
1083.000000	93.933274
1082.000000	94.066722
1081.000000	94.196287
1080.000000	94.315567
1079.000000	94.422971
1078.000000	94.523820
1077.000000	94.625156
1076.000000	94.727149
1075.000000	94.821605
1074.000000	94.900141
1073.000000	94.960687
1072.000000	95.004755
1071.000000	95.034522
1070.000000	95.054176
1069.000000	95.068859
1068.000000	95.079008
1067.000000	95.079045
1066.000000	95.065670
1065.000000	95.043570
1064.000000	95.020553
1063.000000	95.001122
1062.000000	94.987218
1061.000000	94.980876
1060.000000	94.982067
1059.000000	94.987206
1058.000000	94.993600
1057.000000	95.003799
1056.000000	95.022346
1055.000000	95.050480
1054.000000	95.086552
1053.000000	95.128427
1052.000000	95.172682
1051.000000	95.214057
1050.000000	95.249638
1049.000000	95.281411
1048.000000	95.311911
1047.000000	95.340220
1046.000000	95.364406
1045.000000	95.383810
1044.000000	95.395758
1043.000000	95.395122
1042.000000	95.380398
1041.000000	95.356510
1040.000000	95.327533
1039.000000	95.289916
1038.000000	95.237710
1037.000000	95.170940
1036.000000	95.095300
1035.000000	95.016956
1034.000000	94.941995
1033.000000	94.877728
1032.000000	94.828892
1031.000000	94.793604
1030.000000	94.767011
1029.000000	94.748373
1028.000000	94.740370
1027.000000	94.742877
1026.000000	94.752131
1025.000000	94.765593
1024.000000	94.784180
1023.000000	94.809111
1022.000000	94.839973
1021.000000	94.875550
1020.000000	94.913359
1019.000000	94.949766
1018.000000	94.983958
1017.000000	95.021072
1016.000000	95.067826
1015.000000	95.125592
1014.000000	95.191057
1013.000000	95.261947
1012.000000	95.337967
1011.000000	95.417233
1010.000000	95.496140
1009.000000	95.572756
1008.000000	95.646798
1007.000000	95.717369
1006.000000	95.784317
1005.000000	95.850152
1004.000000	95.916223
1003.000000	95.978299
1002.000000	96.030985
1001.000000	96.075380
1000.000000	96.117829
999.000000	96.160988
998.000000	96.200513
997.000000	96.231113
996.000000	96.251815
995.000000	96.265562
994.000000	96.276701
993.000000	96.288993
992.000000	96.303391
991.000000	96.317173
990.000000	96.327034
989.000000	96.332003
988.000000	96.331920
987.000000	96.325812
986.000000	96.314504
985.000000	96.302403
984.000000	96.292564
983.000000	96.281796
982.000000	96.265038
981.000000	96.242860
980.000000	96.220429
979.000000	96.199815
978.000000	96.177972
977.000000	96.151854
976.000000	96.120769
975.000000	96.083962
974.000000	96.040946
973.000000	95.995529
972.000000	95.955410
971.000000	95.926307
970.000000	95.908995
969.000000	95.902500
968.000000	95.906540
967.000000	95.919526
966.000000	95.938647
965.000000	95.963656
964.000000	95.996762
963.000000	96.037398
962.000000	96.080722
961.000000	96.124104
960.000000	96.170932
959.000000	96.224415
958.000000	96.281675
957.000000	96.338152
956.000000	96.396115
955.000000	96.463637
954.000000	96.545072
953.000000	96.636154
952.000000	96.728222
951.000000	96.814476
950.000000	96.891577
949.000000	96.958666
948.000000	97.017753
947.000000	97.074373
946.000000	97.134703
945.000000	97.199378
944.000000	97.261135
943.000000	97.310711
942.000000	97.346344
941.000000	97.375458
940.000000	97.406254
939.000000	97.440255
938.000000	97.474056
937.000000	97.505981
936.000000	97.537851
935.000000	97.571460
934.000000	97.606721
933.000000	97.643612
932.000000	97.683434
931.000000	97.726618
930.000000	97.770031
929.000000	97.807673
928.000000	97.835175
927.000000	97.854820
926.000000	97.875344
925.000000	97.904712
924.000000	97.942690
923.000000	97.981940
922.000000	98.016425
921.000000	98.046083
920.000000	98.073310
919.000000	98.099005
918.000000	98.124681
917.000000	98.155513
916.000000	98.197159
915.000000	98.249701
914.000000	98.306273
913.000000	98.357686
912.000000	98.398209
911.000000	98.428601
910.000000	98.455105
909.000000	98.484261
908.000000	98.517723
907.000000	98.552744
906.000000	98.586766
905.000000	98.618555
904.000000	98.645167
903.000000	98.661973
902.000000	98.668094
901.000000	98.669559
900.000000	98.675559
899.000000	98.692258
898.000000	98.719808
897.000000	98.751682
896.000000	98.777236
895.000000	98.789009
894.000000	98.789390
893.000000	98.787131
892.000000	98.785645
891.000000	98.776299
890.000000	98.738727
889.000000	98.640025
888.000000	98.436322
887.000000	98.088229
886.000000	97.591821
885.000000	96.994033
884.000000	96.368706
883.000000	95.769957
882.000000	95.196421
881.000000	94.597637
880.000000	93.919229
879.000000	93.152841
878.000000	92.348870
877.000000	91.591207
876.000000	90.964534
875.000000	90.540246
874.000000	90.377057
873.000000	90.512348
872.000000	90.948338
871.000000	91.635842
870.000000	92.476627
869.000000	93.354426
868.000000	94.171330
867.000000	94.871207
866.000000	95.442114
865.000000	95.903670
864.000000	96.284574
863.000000	96.606256
862.000000	96.879299
861.000000	97.108450
860.000000	97.297325
859.000000	97.450960
858.000000	97.579060
857.000000	97.691797
856.000000	97.791500
855.000000	97.874562
854.000000	97.942191
853.000000	97.999799
852.000000	98.038644
851.000000	98.032078
850.000000	97.968080
849.000000	97.882497
848.000000	97.842652
847.000000	97.889502
846.000000	98.002495
845.000000	98.125433
844.000000	98.217370
843.000000	98.274449
842.000000	98.313610
841.000000	98.348315
840.000000	98.380481
839.000000	98.406098
838.000000	98.422222
837.000000	98.428392
836.000000	98.423995
835.000000	98.408139
834.000000	98.384287
833.000000	98.363384
832.000000	98.358248
831.000000	98.374235
830.000000	98.407512
829.000000	98.451860
828.000000	98.502846
827.000000	98.554077
826.000000	98.595371
825.000000	98.619780
824.000000	98.630515
823.000000	98.637638
822.000000	98.649394
821.000000	98.668505
820.000000	98.693492
819.000000	98.719479
818.000000	98.739929
817.000000	98.751621
816.000000	98.757353
815.000000	98.761438
814.000000	98.763839
813.000000	98.762024
812.000000	98.757741
811.000000	98.757067
810.000000	98.762410
809.000000	98.767985
808.000000	98.765908
807.000000	98.754456
806.000000	98.737682
805.000000	98.719105
804.000000	98.699423
803.000000	98.680121
802.000000	98.665164
801.000000	98.656562
800.000000	98.649772
799.000000	98.635628
798.000000	98.607968
797.000000	98.570164
796.000000	98.534347
795.000000	98.512407
794.000000	98.505537
793.000000	98.503145
792.000000	98.493799
791.000000	98.476129
790.000000	98.456748
789.000000	98.438688
788.000000	98.416580
787.000000	98.384905
786.000000	98.347433
785.000000	98.315287
784.000000	98.296841
783.000000	98.291415
782.000000	98.291242
781.000000	98.287257
780.000000	98.274229
779.000000	98.253535
778.000000	98.232200
777.000000	98.217099
776.000000	98.208313
775.000000	98.198241
774.000000	98.178438
773.000000	98.148259
772.000000	98.116712
771.000000	98.094848
770.000000	98.085626
769.000000	98.081962
768.000000	98.074922
767.000000	98.061827
766.000000	98.044782
765.000000	98.023908
764.000000	97.996472
763.000000	97.962654
762.000000	97.927549
761.000000	97.895331
760.000000	97.864446
759.000000	97.830777
758.000000	97.792918
757.000000	97.752144
756.000000	97.710130
755.000000	97.670321
754.000000	97.639773
753.000000	97.624902
752.000000	97.624356
751.000000	97.628692
750.000000	97.628185
749.000000	97.620122
748.000000	97.608430
747.000000	97.597898
746.000000	97.589859
745.000000	97.582525
744.000000	97.574080
743.000000	97.564421
742.000000	97.553749
741.000000	97.540738
740.000000	97.523778
739.000000	97.503369
738.000000	97.480663
737.000000	97.453083
736.000000	97.414350
735.000000	97.361128
734.000000	97.297883
733.000000	97.233079
732.000000	97.172404
731.000000	97.117567
730.000000	97.069225
729.000000	97.026921
728.000000	96.988666
727.000000	96.953688
726.000000	96.923018
725.000000	96.896076
724.000000	96.867874
723.000000	96.830768
722.000000	96.776807
721.000000	96.697385
720.000000	96.583543
719.000000	96.426513
718.000000	96.211498
717.000000	95.908172
716.000000	95.482012
715.000000	94.940441
714.000000	94.377350
713.000000	93.951972
712.000000	93.794686
711.000000	93.916324
710.000000	94.208355
709.000000	94.527687
708.000000	94.781116
707.000000	94.947987
706.000000	95.047575
705.000000	95.102347
704.000000	95.125411
703.000000	95.123292
702.000000	95.102579
701.000000	95.073809
700.000000	95.046713
699.000000	95.023983
698.000000	95.001780
697.000000	94.978901
696.000000	94.961255
695.000000	94.951622
694.000000	94.944099
693.000000	94.933399
692.000000	94.923412
691.000000	94.922612
690.000000	94.932020
689.000000	94.945049
688.000000	94.957352
687.000000	94.968506
686.000000	94.976961
685.000000	94.978543
684.000000	94.969913
683.000000	94.952686
682.000000	94.933167
681.000000	94.918920
680.000000	94.913611
679.000000	94.914851
678.000000	94.918499
677.000000	94.921387
676.000000	94.926256
675.000000	94.937807
674.000000	94.956653
673.000000	94.980226
672.000000	95.009941
671.000000	95.054168
670.000000	95.125656
669.000000	95.232836
668.000000	95.339075
667.000000	95.383783
666.000000	95.401977
665.000000	95.411847
664.000000	95.408013
663.000000	95.398068
662.000000	95.392203
661.000000	95.392630
660.000000	95.397015
659.000000	95.406382
658.000000	95.419794
657.000000	95.425257
656.000000	95.413337
655.000000	95.385165
654.000000	95.341249
653.000000	95.277115
652.000000	95.198265
651.000000	95.121393
650.000000	95.053285
649.000000	94.982544
648.000000	94.903251
647.000000	94.826883
646.000000	94.759192
645.000000	94.687623
644.000000	94.602975
643.000000	94.513418
642.000000	94.427052
641.000000	94.336521
640.000000	94.236963
639.000000	94.144506
638.000000	94.077065
637.000000	94.031631
636.000000	93.998870
635.000000	93.984837
634.000000	93.999844
633.000000	94.036402
632.000000	94.073986
631.000000	94.098480
630.000000	94.106892
629.000000	94.102160
628.000000	94.094328
627.000000	94.097582
626.000000	94.113763
625.000000	94.126882
624.000000	94.119482
623.000000	94.085641
622.000000	94.026613
621.000000	93.948282
620.000000	93.868061
619.000000	93.807893
618.000000	93.769886
617.000000	93.730806
616.000000	93.672785
615.000000	93.607308
614.000000	93.556814
613.000000	93.527592
612.000000	93.513108
611.000000	93.510046
610.000000	93.517883
609.000000	93.534088
608.000000	93.561541
607.000000	93.611827
606.000000	93.689693
605.000000	93.787006
604.000000	93.899090
603.000000	94.033345
602.000000	94.194434
601.000000	94.372161
600.000000	94.551591
599.000000	94.723723
598.000000	94.880544
597.000000	95.011960
596.000000	95.116681
595.000000	95.206763
594.000000	95.293522
593.000000	95.375660
592.000000	95.446475
591.000000	95.504422
590.000000	95.551063
589.000000	95.587742
588.000000	95.620181
587.000000	95.655219
586.000000	95.687455
585.000000	95.702363
584.000000	95.700040
583.000000	95.699950
582.000000	95.711307
581.000000	95.718119
580.000000	95.709272
579.000000	95.705936
578.000000	95.735207
577.000000	95.788705
576.000000	95.831548
575.000000	95.846214
574.000000	95.847459
573.000000	95.853398
572.000000	95.866692
571.000000	95.884904
570.000000	95.908304
569.000000	95.933399
568.000000	95.952138
567.000000	95.961303
566.000000	95.963869
565.000000	95.960618
564.000000	95.949944
563.000000	95.936545
562.000000	95.931660
561.000000	95.943452
560.000000	95.970339
559.000000	96.000157
558.000000	96.014053
557.000000	96.001556
556.000000	95.976210
555.000000	95.965089
554.000000	95.977135
553.000000	95.994915
552.000000	96.004138
551.000000	96.013373
550.000000	96.034896
549.000000	96.063911
548.000000	96.092581
547.000000	96.125379
546.000000	96.160887
545.000000	96.175565
544.000000	96.152427
543.000000	96.113577
542.000000	96.101897
541.000000	96.135981
540.000000	96.197825
539.000000	96.256284
538.000000	96.285121
537.000000	96.271248
536.000000	96.226468
535.000000	96.185226
534.000000	96.171527
533.000000	96.171841
532.000000	96.156531
531.000000	96.119092
530.000000	96.079412
529.000000	96.057799
528.000000	96.064645
527.000000	96.104410
526.000000	96.162583
525.000000	96.200281
524.000000	96.193632
523.000000	96.161688
522.000000	96.135196
521.000000	96.118825
520.000000	96.101700
519.000000	96.090649
518.000000	96.107062
517.000000	96.152474
516.000000	96.205780
515.000000	96.253092
514.000000	96.293437
513.000000	96.323785
512.000000	96.344788
511.000000	96.372650
510.000000	96.421315
509.000000	96.478462
508.000000	96.520269
507.000000	96.543084
506.000000	96.557321
505.000000	96.559921
504.000000	96.543572
503.000000	96.527698
502.000000	96.546494
501.000000	96.597789
500.000000	96.643107
499.000000	96.664475
498.000000	96.678844
497.000000	96.698371
496.000000	96.709230
495.000000	96.697944
494.000000	96.676683
493.000000	96.669185
492.000000	96.687232
491.000000	96.731083
490.000000	96.794973
489.000000	96.860551
488.000000	96.900263
487.000000	96.898926
486.000000	96.867382
485.000000	96.836279
484.000000	96.836714
483.000000	96.878832
482.000000	96.940991
481.000000	96.986263
480.000000	97.003485
479.000000	97.024001
478.000000	97.082901
477.000000	97.171142
476.000000	97.248404
475.000000	97.295408
474.000000	97.328921
473.000000	97.372390
472.000000	97.430252
471.000000	97.491178
470.000000	97.537761
469.000000	97.554045
468.000000	97.543160
467.000000	97.534779
466.000000	97.552122
465.000000	97.581784
464.000000	97.606783
463.000000	97.644885
462.000000	97.724983
461.000000	97.840245
460.000000	97.960503
459.000000	98.068197
458.000000	98.049854
457.000000	98.070011
456.000000	98.084261
455.000000	98.164900
454.000000	98.353879
453.000000	98.595169
452.000000	98.770331
451.000000	98.823297
450.000000	98.804045
