PE IR       SUBTECH     SPECTRUM    ASCII       PEDS        4.00        
   -1
3C-YYX-F001_1.ASC
23/09/07
10:53:40.00
23/09/07
11:30:09.00
uco
Sample 001 By uco Date Thursday, September 07 2023
450.000000
#HDR
-1
-1
#GR
cm-1
%T
1.0
0.0
4000.000000
-1.000000
3551
8
98.802461
85.732862
#DATA
4000.000000	98.733953
3999.000000	98.734523
3998.000000	98.735134
3997.000000	98.737447
3996.000000	98.740185
3995.000000	98.741737
3994.000000	98.740928
3993.000000	98.737409
3992.000000	98.731670
3991.000000	98.724710
3990.000000	98.717664
3989.000000	98.711592
3988.000000	98.707499
3987.000000	98.706137
3986.000000	98.707543
3985.000000	98.710890
3984.000000	98.715034
3983.000000	98.719221
3982.000000	98.723047
3981.000000	98.725918
3980.000000	98.726997
3979.000000	98.725837
3978.000000	98.722799
3977.000000	98.718776
3976.000000	98.714837
3975.000000	98.712296
3974.000000	98.712613
3973.000000	98.716472
3972.000000	98.722753
3971.000000	98.728761
3970.000000	98.731977
3969.000000	98.731573
3968.000000	98.728441
3967.000000	98.724077
3966.000000	98.719613
3965.000000	98.715827
3964.000000	98.713362
3963.000000	98.712434
3962.000000	98.712371
3961.000000	98.711921
3960.000000	98.710470
3959.000000	98.708728
3958.000000	98.707924
3957.000000	98.708313
3956.000000	98.708736
3955.000000	98.707843
3954.000000	98.705536
3953.000000	98.702977
3952.000000	98.701359
3951.000000	98.701104
3950.000000	98.702104
3949.000000	98.704185
3948.000000	98.706864
3947.000000	98.708872
3946.000000	98.708551
3945.000000	98.705038
3944.000000	98.699370
3943.000000	98.694571
3942.000000	98.693770
3941.000000	98.697814
3940.000000	98.704714
3939.000000	98.711013
3938.000000	98.713720
3937.000000	98.711717
3936.000000	98.706379
3935.000000	98.700929
3934.000000	98.698774
3933.000000	98.701668
3932.000000	98.708436
3931.000000	98.715527
3930.000000	98.719558
3929.000000	98.719470
3928.000000	98.716720
3927.000000	98.714065
3926.000000	98.713823
3925.000000	98.716351
3924.000000	98.719729
3923.000000	98.721460
3922.000000	98.720570
3921.000000	98.717429
3920.000000	98.712158
3919.000000	98.704474
3918.000000	98.695608
3917.000000	98.689389
3916.000000	98.689533
3915.000000	98.695669
3914.000000	98.703203
3913.000000	98.707056
3912.000000	98.705015
3911.000000	98.698478
3910.000000	98.690830
3909.000000	98.684947
3908.000000	98.682011
3907.000000	98.681793
3906.000000	98.683625
3905.000000	98.687180
3904.000000	98.692272
3903.000000	98.697963
3902.000000	98.702893
3901.000000	98.706626
3900.000000	98.709526
3899.000000	98.711202
3898.000000	98.710151
3897.000000	98.705733
3896.000000	98.699671
3895.000000	98.694958
3894.000000	98.693823
3893.000000	98.696607
3892.000000	98.701804
3891.000000	98.706936
3890.000000	98.710010
3889.000000	98.710794
3888.000000	98.709982
3887.000000	98.707882
3886.000000	98.705152
3885.000000	98.703076
3884.000000	98.702279
3883.000000	98.702620
3882.000000	98.703840
3881.000000	98.705238
3880.000000	98.705637
3879.000000	98.704062
3878.000000	98.701125
3877.000000	98.698928
3876.000000	98.698958
3875.000000	98.701188
3874.000000	98.704387
3873.000000	98.706444
3872.000000	98.706032
3871.000000	98.704765
3870.000000	98.706321
3869.000000	98.711557
3868.000000	98.716539
3867.000000	98.717272
3866.000000	98.713200
3865.000000	98.707780
3864.000000	98.706518
3863.000000	98.711170
3862.000000	98.717275
3861.000000	98.719382
3860.000000	98.716459
3859.000000	98.711624
3858.000000	98.708455
3857.000000	98.707483
3856.000000	98.705793
3855.000000	98.700140
3854.000000	98.692312
3853.000000	98.688816
3852.000000	98.689046
3851.000000	98.688156
3850.000000	98.687225
3849.000000	98.688133
3848.000000	98.690950
3847.000000	98.695011
3846.000000	98.699250
3845.000000	98.702403
3844.000000	98.703703
3843.000000	98.703431
3842.000000	98.702718
3841.000000	98.702628
3840.000000	98.703921
3839.000000	98.707261
3838.000000	98.712927
3837.000000	98.719921
3836.000000	98.725987
3835.000000	98.728836
3834.000000	98.727087
3833.000000	98.721216
3832.000000	98.713934
3831.000000	98.707985
3830.000000	98.703438
3829.000000	98.698423
3828.000000	98.692340
3827.000000	98.687311
3826.000000	98.686052
3825.000000	98.688143
3824.000000	98.689815
3823.000000	98.687718
3822.000000	98.683336
3821.000000	98.683269
3820.000000	98.689495
3819.000000	98.696029
3818.000000	98.698780
3817.000000	98.698023
3816.000000	98.695791
3815.000000	98.693056
3814.000000	98.689040
3813.000000	98.684135
3812.000000	98.680533
3811.000000	98.680222
3810.000000	98.683762
3809.000000	98.689858
3808.000000	98.696119
3807.000000	98.700823
3806.000000	98.703512
3805.000000	98.704820
3804.000000	98.706739
3803.000000	98.711558
3802.000000	98.720456
3801.000000	98.730417
3800.000000	98.733990
3799.000000	98.728291
3798.000000	98.717817
3797.000000	98.707791
3796.000000	98.700232
3795.000000	98.693865
3794.000000	98.686852
3793.000000	98.679752
3792.000000	98.675000
3791.000000	98.674424
3790.000000	98.677819
3789.000000	98.683139
3788.000000	98.687955
3787.000000	98.690811
3786.000000	98.691575
3785.000000	98.691031
3784.000000	98.690186
3783.000000	98.689743
3782.000000	98.690136
3781.000000	98.691648
3780.000000	98.694398
3779.000000	98.698019
3778.000000	98.701384
3777.000000	98.703603
3776.000000	98.704959
3775.000000	98.706036
3774.000000	98.706764
3773.000000	98.706651
3772.000000	98.705533
3771.000000	98.704471
3770.000000	98.705551
3769.000000	98.709590
3768.000000	98.714969
3767.000000	98.719654
3766.000000	98.722372
3765.000000	98.722145
3764.000000	98.718491
3763.000000	98.711966
3762.000000	98.704264
3761.000000	98.697626
3760.000000	98.694323
3759.000000	98.695566
3758.000000	98.700643
3757.000000	98.707874
3756.000000	98.715644
3755.000000	98.722145
3754.000000	98.725486
3753.000000	98.725007
3752.000000	98.721839
3751.000000	98.717493
3750.000000	98.712185
3749.000000	98.706723
3748.000000	98.705389
3747.000000	98.711742
3746.000000	98.723556
3745.000000	98.733941
3744.000000	98.737045
3743.000000	98.733761
3742.000000	98.730547
3741.000000	98.731464
3740.000000	98.734173
3739.000000	98.734502
3738.000000	98.730941
3737.000000	98.725953
3736.000000	98.724387
3735.000000	98.728868
3734.000000	98.736304
3733.000000	98.741755
3732.000000	98.743365
3731.000000	98.741968
3730.000000	98.739263
3729.000000	98.736724
3728.000000	98.734728
3727.000000	98.732523
3726.000000	98.729169
3725.000000	98.724968
3724.000000	98.721968
3723.000000	98.722223
3722.000000	98.725194
3721.000000	98.728131
3720.000000	98.729483
3719.000000	98.730227
3718.000000	98.731526
3717.000000	98.732804
3716.000000	98.732618
3715.000000	98.730274
3714.000000	98.725935
3713.000000	98.721063
3712.000000	98.719465
3711.000000	98.724785
3710.000000	98.734717
3709.000000	98.742337
3708.000000	98.743203
3707.000000	98.737956
3706.000000	98.730324
3705.000000	98.724059
3704.000000	98.721125
3703.000000	98.721533
3702.000000	98.724645
3701.000000	98.729528
3700.000000	98.734538
3699.000000	98.737841
3698.000000	98.738345
3697.000000	98.736099
3696.000000	98.732292
3695.000000	98.728455
3694.000000	98.725773
3693.000000	98.725654
3692.000000	98.729617
3691.000000	98.737398
3690.000000	98.744485
3689.000000	98.744072
3688.000000	98.733860
3687.000000	98.719513
3686.000000	98.709023
3685.000000	98.705413
3684.000000	98.706436
3683.000000	98.708133
3682.000000	98.707772
3681.000000	98.704615
3680.000000	98.699594
3679.000000	98.693985
3678.000000	98.688126
3677.000000	98.682412
3676.000000	98.680012
3675.000000	98.683593
3674.000000	98.688288
3673.000000	98.688908
3672.000000	98.685787
3671.000000	98.680607
3670.000000	98.675625
3669.000000	98.671550
3668.000000	98.665154
3667.000000	98.654498
3666.000000	98.641650
3665.000000	98.630215
3664.000000	98.623207
3663.000000	98.621031
3662.000000	98.621291
3661.000000	98.621491
3660.000000	98.621185
3659.000000	98.620637
3658.000000	98.618385
3657.000000	98.612146
3656.000000	98.602738
3655.000000	98.594478
3654.000000	98.590731
3653.000000	98.590730
3652.000000	98.590017
3651.000000	98.584310
3650.000000	98.575077
3649.000000	98.569464
3648.000000	98.569880
3647.000000	98.569608
3646.000000	98.562174
3645.000000	98.547510
3644.000000	98.530245
3643.000000	98.516010
3642.000000	98.507798
3641.000000	98.504367
3640.000000	98.502486
3639.000000	98.500695
3638.000000	98.499568
3637.000000	98.498777
3636.000000	98.495936
3635.000000	98.489204
3634.000000	98.480115
3633.000000	98.472478
3632.000000	98.468506
3631.000000	98.466906
3630.000000	98.464512
3629.000000	98.459087
3628.000000	98.449740
3627.000000	98.436157
3626.000000	98.421192
3625.000000	98.408927
3624.000000	98.401383
3623.000000	98.398378
3622.000000	98.397228
3621.000000	98.393409
3620.000000	98.383711
3619.000000	98.369393
3618.000000	98.354414
3617.000000	98.341254
3616.000000	98.330161
3615.000000	98.319887
3614.000000	98.308700
3613.000000	98.296020
3612.000000	98.283192
3611.000000	98.272055
3610.000000	98.262797
3609.000000	98.254175
3608.000000	98.245912
3607.000000	98.239299
3606.000000	98.235003
3605.000000	98.231872
3604.000000	98.228149
3603.000000	98.222774
3602.000000	98.215620
3601.000000	98.206913
3600.000000	98.197031
3599.000000	98.186634
3598.000000	98.176197
3597.000000	98.165260
3596.000000	98.152488
3595.000000	98.137401
3594.000000	98.121753
3593.000000	98.108360
3592.000000	98.098358
3591.000000	98.090170
3590.000000	98.080522
3589.000000	98.066885
3588.000000	98.050078
3587.000000	98.034243
3586.000000	98.022748
3585.000000	98.015655
3584.000000	98.010947
3583.000000	98.005557
3582.000000	97.996728
3581.000000	97.984255
3580.000000	97.971113
3579.000000	97.960650
3578.000000	97.952926
3577.000000	97.944945
3576.000000	97.934099
3575.000000	97.920415
3574.000000	97.905264
3573.000000	97.889509
3572.000000	97.873744
3571.000000	97.859386
3570.000000	97.847963
3569.000000	97.839511
3568.000000	97.832116
3567.000000	97.823645
3566.000000	97.813651
3565.000000	97.803108
3564.000000	97.792802
3563.000000	97.782404
3562.000000	97.770965
3561.000000	97.758017
3560.000000	97.743675
3559.000000	97.727868
3558.000000	97.710094
3557.000000	97.690299
3556.000000	97.669507
3555.000000	97.649156
3554.000000	97.630170
3553.000000	97.613176
3552.000000	97.599326
3551.000000	97.589807
3550.000000	97.584344
3549.000000	97.580956
3548.000000	97.577147
3547.000000	97.571236
3546.000000	97.562825
3545.000000	97.552347
3544.000000	97.540122
3543.000000	97.525777
3542.000000	97.508759
3541.000000	97.489789
3540.000000	97.471417
3539.000000	97.456199
3538.000000	97.443966
3537.000000	97.431984
3536.000000	97.418507
3535.000000	97.405180
3534.000000	97.394617
3533.000000	97.386633
3532.000000	97.378418
3531.000000	97.368075
3530.000000	97.356937
3529.000000	97.348033
3528.000000	97.342683
3527.000000	97.338938
3526.000000	97.333061
3525.000000	97.322264
3524.000000	97.306520
3523.000000	97.288475
3522.000000	97.271349
3521.000000	97.256537
3520.000000	97.243166
3519.000000	97.229531
3518.000000	97.214533
3517.000000	97.198289
3516.000000	97.182181
3515.000000	97.168257
3514.000000	97.157699
3513.000000	97.149283
3512.000000	97.139894
3511.000000	97.127248
3510.000000	97.112202
3509.000000	97.097882
3508.000000	97.086617
3507.000000	97.078321
3506.000000	97.071614
3505.000000	97.065300
3504.000000	97.058618
3503.000000	97.051026
3502.000000	97.042404
3501.000000	97.033066
3500.000000	97.022913
3499.000000	97.010874
3498.000000	96.995988
3497.000000	96.979113
3496.000000	96.962833
3495.000000	96.949181
3494.000000	96.937903
3493.000000	96.927233
3492.000000	96.915856
3491.000000	96.903745
3490.000000	96.891703
3489.000000	96.880703
3488.000000	96.871443
3487.000000	96.863878
3486.000000	96.856908
3485.000000	96.848746
3484.000000	96.837840
3483.000000	96.823909
3482.000000	96.808614
3481.000000	96.794914
3480.000000	96.784987
3479.000000	96.778513
3478.000000	96.773261
3477.000000	96.767225
3476.000000	96.759856
3475.000000	96.751566
3474.000000	96.742894
3473.000000	96.734424
3472.000000	96.726581
3471.000000	96.718801
3470.000000	96.709610
3469.000000	96.698335
3468.000000	96.686195
3467.000000	96.674950
3466.000000	96.665015
3465.000000	96.656001
3464.000000	96.648446
3463.000000	96.643306
3462.000000	96.639514
3461.000000	96.633566
3460.000000	96.622514
3459.000000	96.606769
3458.000000	96.589531
3457.000000	96.574179
3456.000000	96.562452
3455.000000	96.554089
3454.000000	96.547441
3453.000000	96.540975
3452.000000	96.534943
3451.000000	96.531365
3450.000000	96.531709
3449.000000	96.534593
3448.000000	96.536068
3447.000000	96.532267
3446.000000	96.521780
3445.000000	96.505766
3444.000000	96.486788
3443.000000	96.468173
3442.000000	96.453532
3441.000000	96.445158
3440.000000	96.442163
3439.000000	96.440622
3438.000000	96.436264
3437.000000	96.427555
3436.000000	96.416467
3435.000000	96.406445
3434.000000	96.399560
3433.000000	96.395147
3432.000000	96.390701
3431.000000	96.383956
3430.000000	96.374624
3429.000000	96.364452
3428.000000	96.355520
3427.000000	96.348374
3426.000000	96.341860
3425.000000	96.334523
3424.000000	96.325682
3423.000000	96.315205
3422.000000	96.303094
3421.000000	96.289933
3420.000000	96.277223
3419.000000	96.266421
3418.000000	96.257622
3417.000000	96.249672
3416.000000	96.241545
3415.000000	96.233399
3414.000000	96.226400
3413.000000	96.221543
3412.000000	96.218338
3411.000000	96.214444
3410.000000	96.207233
3409.000000	96.196439
3408.000000	96.184998
3407.000000	96.176365
3406.000000	96.170895
3405.000000	96.165537
3404.000000	96.157307
3403.000000	96.146497
3402.000000	96.135939
3401.000000	96.127486
3400.000000	96.119843
3399.000000	96.109887
3398.000000	96.095813
3397.000000	96.078844
3396.000000	96.062049
3395.000000	96.047898
3394.000000	96.037078
3393.000000	96.029134
3392.000000	96.023478
3391.000000	96.019539
3390.000000	96.016449
3389.000000	96.013120
3388.000000	96.008703
3387.000000	96.002900
3386.000000	95.995862
3385.000000	95.987635
3384.000000	95.977459
3383.000000	95.963927
3382.000000	95.946514
3381.000000	95.927164
3380.000000	95.909809
3379.000000	95.897674
3378.000000	95.890955
3377.000000	95.886906
3376.000000	95.881668
3375.000000	95.872210
3374.000000	95.857848
3373.000000	95.840942
3372.000000	95.825657
3371.000000	95.814951
3370.000000	95.808295
3369.000000	95.802363
3368.000000	95.793715
3367.000000	95.780858
3366.000000	95.764621
3365.000000	95.747430
3364.000000	95.731743
3363.000000	95.718097
3362.000000	95.704559
3361.000000	95.688701
3360.000000	95.670244
3359.000000	95.651230
3358.000000	95.633605
3357.000000	95.617220
3356.000000	95.600487
3355.000000	95.582574
3354.000000	95.564610
3353.000000	95.548674
3352.000000	95.535580
3351.000000	95.523692
3350.000000	95.510178
3349.000000	95.493573
3348.000000	95.475018
3347.000000	95.456971
3346.000000	95.440971
3345.000000	95.426507
3344.000000	95.411461
3343.000000	95.393629
3342.000000	95.372712
3341.000000	95.351250
3340.000000	95.332790
3339.000000	95.318455
3338.000000	95.305841
3337.000000	95.291819
3336.000000	95.275796
3335.000000	95.259467
3334.000000	95.244115
3333.000000	95.229421
3332.000000	95.214635
3331.000000	95.199399
3330.000000	95.183165
3329.000000	95.164974
3328.000000	95.144674
3327.000000	95.124101
3326.000000	95.106372
3325.000000	95.093508
3324.000000	95.084445
3323.000000	95.075562
3322.000000	95.063796
3321.000000	95.049393
3320.000000	95.034944
3319.000000	95.021626
3318.000000	95.007552
3317.000000	94.990732
3316.000000	94.972713
3315.000000	94.957683
3314.000000	94.947993
3313.000000	94.941695
3312.000000	94.934451
3311.000000	94.923000
3310.000000	94.907094
3309.000000	94.889509
3308.000000	94.874538
3307.000000	94.865152
3306.000000	94.860602
3305.000000	94.856964
3304.000000	94.850376
3303.000000	94.839798
3302.000000	94.827012
3301.000000	94.814583
3300.000000	94.803980
3299.000000	94.795073
3298.000000	94.786888
3297.000000	94.778698
3296.000000	94.770290
3295.000000	94.761368
3294.000000	94.751520
3293.000000	94.741385
3292.000000	94.733071
3291.000000	94.728245
3290.000000	94.725921
3289.000000	94.723139
3288.000000	94.718110
3287.000000	94.712033
3286.000000	94.707757
3285.000000	94.707305
3284.000000	94.710455
3283.000000	94.714864
3282.000000	94.717499
3281.000000	94.717001
3280.000000	94.715251
3279.000000	94.716051
3278.000000	94.721898
3277.000000	94.732218
3276.000000	94.744746
3275.000000	94.757994
3274.000000	94.771717
3273.000000	94.785443
3272.000000	94.797271
3271.000000	94.804400
3270.000000	94.805092
3269.000000	94.800475
3268.000000	94.794532
3267.000000	94.792035
3266.000000	94.795951
3265.000000	94.806340
3264.000000	94.821108
3263.000000	94.837455
3262.000000	94.853123
3261.000000	94.867192
3260.000000	94.880084
3259.000000	94.892637
3258.000000	94.905289
3257.000000	94.918311
3256.000000	94.932275
3255.000000	94.947624
3254.000000	94.963923
3253.000000	94.980141
3252.000000	94.995526
3251.000000	95.009610
3250.000000	95.021648
3249.000000	95.031047
3248.000000	95.038438
3247.000000	95.045385
3246.000000	95.052692
3245.000000	95.059615
3244.000000	95.065203
3243.000000	95.069875
3242.000000	95.075222
3241.000000	95.082693
3240.000000	95.092871
3239.000000	95.105678
3238.000000	95.120730
3237.000000	95.137397
3236.000000	95.154618
3235.000000	95.170829
3234.000000	95.184476
3233.000000	95.195016
3232.000000	95.203325
3231.000000	95.210605
3230.000000	95.216915
3229.000000	95.221402
3228.000000	95.224214
3227.000000	95.227596
3226.000000	95.234368
3225.000000	95.245261
3224.000000	95.257967
3223.000000	95.269006
3222.000000	95.276807
3221.000000	95.283037
3220.000000	95.290727
3219.000000	95.300741
3218.000000	95.310413
3217.000000	95.316237
3216.000000	95.317643
3215.000000	95.317736
3214.000000	95.320260
3213.000000	95.326430
3212.000000	95.334805
3211.000000	95.343453
3210.000000	95.351531
3209.000000	95.359021
3208.000000	95.365966
3207.000000	95.372705
3206.000000	95.380541
3205.000000	95.391095
3204.000000	95.404283
3203.000000	95.417484
3202.000000	95.427883
3201.000000	95.435575
3200.000000	95.443235
3199.000000	95.452426
3198.000000	95.461626
3197.000000	95.468800
3196.000000	95.474707
3195.000000	95.482130
3194.000000	95.492382
3193.000000	95.504151
3192.000000	95.515669
3191.000000	95.526749
3190.000000	95.538456
3189.000000	95.551871
3188.000000	95.567339
3187.000000	95.584085
3186.000000	95.600351
3185.000000	95.614740
3184.000000	95.627634
3183.000000	95.640541
3182.000000	95.653982
3181.000000	95.666891
3180.000000	95.678235
3179.000000	95.688225
3178.000000	95.697649
3177.000000	95.706887
3176.000000	95.716136
3175.000000	95.725894
3174.000000	95.736688
3173.000000	95.748772
3172.000000	95.762299
3171.000000	95.777100
3170.000000	95.792072
3169.000000	95.805698
3168.000000	95.817735
3167.000000	95.829602
3166.000000	95.842469
3165.000000	95.855674
3164.000000	95.867879
3163.000000	95.879196
3162.000000	95.891140
3161.000000	95.904681
3160.000000	95.919320
3159.000000	95.934159
3158.000000	95.949010
3157.000000	95.963988
3156.000000	95.978499
3155.000000	95.991383
3154.000000	96.002283
3153.000000	96.012600
3152.000000	96.024567
3151.000000	96.039055
3150.000000	96.054482
3149.000000	96.068286
3148.000000	96.079442
3147.000000	96.089169
3146.000000	96.099302
3145.000000	96.110612
3144.000000	96.122768
3143.000000	96.135177
3142.000000	96.147294
3141.000000	96.158450
3140.000000	96.167978
3139.000000	96.175514
3138.000000	96.181145
3137.000000	96.185569
3136.000000	96.190072
3135.000000	96.195806
3134.000000	96.202794
3133.000000	96.210082
3132.000000	96.217059
3131.000000	96.223992
3130.000000	96.231045
3129.000000	96.237670
3128.000000	96.243755
3127.000000	96.250735
3126.000000	96.260443
3125.000000	96.272799
3124.000000	96.285312
3123.000000	96.294940
3122.000000	96.300023
3121.000000	96.300707
3120.000000	96.298502
3119.000000	96.295791
3118.000000	96.294894
3117.000000	96.296784
3116.000000	96.300639
3115.000000	96.304874
3114.000000	96.308341
3113.000000	96.310293
3112.000000	96.309845
3111.000000	96.306417
3110.000000	96.300881
3109.000000	96.295565
3108.000000	96.292421
3107.000000	96.291168
3106.000000	96.289544
3105.000000	96.285584
3104.000000	96.279685
3103.000000	96.274391
3102.000000	96.271944
3101.000000	96.271886
3100.000000	96.271297
3099.000000	96.267828
3098.000000	96.262321
3097.000000	96.257860
3096.000000	96.256246
3095.000000	96.256050
3094.000000	96.254476
3093.000000	96.250410
3092.000000	96.244940
3091.000000	96.239556
3090.000000	96.234966
3089.000000	96.231434
3088.000000	96.228946
3087.000000	96.226564
3086.000000	96.222583
3085.000000	96.216146
3084.000000	96.208394
3083.000000	96.201462
3082.000000	96.196490
3081.000000	96.192992
3080.000000	96.189941
3079.000000	96.187007
3078.000000	96.184632
3077.000000	96.183123
3076.000000	96.181965
3075.000000	96.180366
3074.000000	96.178472
3073.000000	96.177500
3072.000000	96.178163
3071.000000	96.179435
3070.000000	96.179750
3069.000000	96.179211
3068.000000	96.179599
3067.000000	96.182132
3066.000000	96.186241
3065.000000	96.190844
3064.000000	96.195616
3063.000000	96.200509
3062.000000	96.205255
3061.000000	96.210160
3060.000000	96.216444
3059.000000	96.224789
3058.000000	96.234331
3057.000000	96.244047
3056.000000	96.254395
3055.000000	96.266419
3054.000000	96.279727
3053.000000	96.292537
3052.000000	96.303541
3051.000000	96.312834
3050.000000	96.321448
3049.000000	96.330909
3048.000000	96.342690
3047.000000	96.356780
3046.000000	96.370957
3045.000000	96.382773
3044.000000	96.392323
3043.000000	96.401948
3042.000000	96.413126
3041.000000	96.424857
3040.000000	96.435476
3039.000000	96.444872
3038.000000	96.454272
3037.000000	96.464711
3036.000000	96.476446
3035.000000	96.489153
3034.000000	96.501764
3033.000000	96.512460
3032.000000	96.519668
3031.000000	96.523431
3030.000000	96.525664
3029.000000	96.529178
3028.000000	96.536313
3027.000000	96.547716
3026.000000	96.561793
3025.000000	96.575597
3024.000000	96.586757
3023.000000	96.594762
3022.000000	96.600515
3021.000000	96.605110
3020.000000	96.609177
3019.000000	96.612815
3018.000000	96.615604
3017.000000	96.616776
3016.000000	96.616019
3015.000000	96.614341
3014.000000	96.613683
3013.000000	96.615062
3012.000000	96.616921
3011.000000	96.615851
3010.000000	96.609480
3009.000000	96.598545
3008.000000	96.585914
3007.000000	96.574083
3006.000000	96.564349
3005.000000	96.557621
3004.000000	96.554081
3003.000000	96.551375
3002.000000	96.544887
3001.000000	96.531646
3000.000000	96.513535
2999.000000	96.495339
2998.000000	96.479696
2997.000000	96.465060
2996.000000	96.448390
2995.000000	96.428456
2994.000000	96.405991
2993.000000	96.381803
2992.000000	96.355815
2991.000000	96.327631
2990.000000	96.297256
2989.000000	96.264827
2988.000000	96.229759
2987.000000	96.190575
2986.000000	96.146156
2985.000000	96.097443
2984.000000	96.047258
2983.000000	95.997837
2982.000000	95.948707
2981.000000	95.897277
2980.000000	95.841480
2979.000000	95.781428
2978.000000	95.718849
2977.000000	95.655235
2976.000000	95.590189
2975.000000	95.521400
2974.000000	95.446667
2973.000000	95.366303
2972.000000	95.282928
2971.000000	95.198485
2970.000000	95.112562
2969.000000	95.024374
2968.000000	94.935451
2967.000000	94.848923
2966.000000	94.766625
2965.000000	94.688327
2964.000000	94.613679
2963.000000	94.543903
2962.000000	94.481444
2961.000000	94.429034
2960.000000	94.388922
2959.000000	94.362051
2958.000000	94.348137
2957.000000	94.346872
2956.000000	94.358722
2955.000000	94.383189
2954.000000	94.416979
2953.000000	94.455407
2952.000000	94.495416
2951.000000	94.535721
2950.000000	94.573206
2949.000000	94.601108
2948.000000	94.612006
2947.000000	94.602564
2946.000000	94.574947
2945.000000	94.533994
2944.000000	94.483465
2943.000000	94.424096
2942.000000	94.354681
2941.000000	94.274594
2940.000000	94.185227
2939.000000	94.088874
2938.000000	93.987018
2937.000000	93.881022
2936.000000	93.774053
2935.000000	93.671119
2934.000000	93.576518
2933.000000	93.491905
2932.000000	93.416744
2931.000000	93.349455
2930.000000	93.288121
2929.000000	93.231515
2928.000000	93.180853
2927.000000	93.139831
2926.000000	93.111897
2925.000000	93.097620
2924.000000	93.095202
2923.000000	93.103343
2922.000000	93.122682
2921.000000	93.154608
2920.000000	93.199562
2919.000000	93.256709
2918.000000	93.325201
2917.000000	93.405349
2916.000000	93.498387
2915.000000	93.604461
2914.000000	93.720274
2913.000000	93.839187
2912.000000	93.954477
2911.000000	94.063123
2910.000000	94.166218
2909.000000	94.265841
2908.000000	94.362240
2907.000000	94.454174
2906.000000	94.541224
2905.000000	94.624650
2904.000000	94.705956
2903.000000	94.785498
2902.000000	94.863202
2901.000000	94.940187
2900.000000	95.018587
2899.000000	95.099279
2898.000000	95.180143
2897.000000	95.257066
2896.000000	95.326806
2895.000000	95.389010
2894.000000	95.446040
2893.000000	95.501052
2892.000000	95.555605
2891.000000	95.608370
2890.000000	95.656050
2889.000000	95.695874
2888.000000	95.727179
2887.000000	95.750594
2886.000000	95.766521
2885.000000	95.775114
2884.000000	95.777244
2883.000000	95.774273
2882.000000	95.766529
2881.000000	95.752632
2880.000000	95.730571
2879.000000	95.699304
2878.000000	95.659499
2877.000000	95.613567
2876.000000	95.565239
2875.000000	95.518811
2874.000000	95.478519
2873.000000	95.448049
2872.000000	95.429808
2871.000000	95.423773
2870.000000	95.426951
2869.000000	95.434290
2868.000000	95.440227
2867.000000	95.439807
2866.000000	95.429587
2865.000000	95.408631
2864.000000	95.378221
2863.000000	95.339927
2862.000000	95.294249
2861.000000	95.242033
2860.000000	95.186660
2859.000000	95.133421
2858.000000	95.086478
2857.000000	95.047395
2856.000000	95.016656
2855.000000	94.995386
2854.000000	94.985712
2853.000000	94.990575
2852.000000	95.013962
2851.000000	95.060667
2850.000000	95.134605
2849.000000	95.236715
2848.000000	95.363522
2847.000000	95.506757
2846.000000	95.654873
2845.000000	95.797067
2844.000000	95.927143
2843.000000	96.044053
2842.000000	96.148927
2841.000000	96.242144
2840.000000	96.323390
2839.000000	96.392933
2838.000000	96.451935
2837.000000	96.502087
2836.000000	96.545319
2835.000000	96.583253
2834.000000	96.616416
2833.000000	96.644553
2832.000000	96.668231
2831.000000	96.689546
2830.000000	96.710638
2829.000000	96.732067
2828.000000	96.753003
2827.000000	96.772442
2826.000000	96.789890
2825.000000	96.805493
2824.000000	96.820246
2823.000000	96.835576
2822.000000	96.852039
2821.000000	96.868560
2820.000000	96.883337
2819.000000	96.895326
2818.000000	96.904716
2817.000000	96.912572
2816.000000	96.920412
2815.000000	96.929655
2814.000000	96.940868
2813.000000	96.953619
2812.000000	96.967079
2811.000000	96.980468
2810.000000	96.993073
2809.000000	97.004727
2808.000000	97.016549
2807.000000	97.030164
2806.000000	97.045515
2805.000000	97.060224
2804.000000	97.071857
2803.000000	97.080279
2802.000000	97.087041
2801.000000	97.093207
2800.000000	97.098799
2799.000000	97.103877
2798.000000	97.108992
2797.000000	97.114594
2796.000000	97.120974
2795.000000	97.128714
2794.000000	97.138147
2793.000000	97.148105
2792.000000	97.156191
2791.000000	97.160998
2790.000000	97.163888
2789.000000	97.168223
2788.000000	97.176898
2787.000000	97.190381
2786.000000	97.206424
2785.000000	97.221351
2784.000000	97.232151
2783.000000	97.238091
2782.000000	97.240731
2781.000000	97.242527
2780.000000	97.245343
2779.000000	97.249881
2778.000000	97.255772
2777.000000	97.261842
2776.000000	97.266591
2775.000000	97.269084
2774.000000	97.269839
2773.000000	97.270969
2772.000000	97.275043
2771.000000	97.283168
2770.000000	97.293777
2769.000000	97.303441
2768.000000	97.309318
2767.000000	97.311186
2766.000000	97.311301
2765.000000	97.312341
2764.000000	97.315434
2763.000000	97.319946
2762.000000	97.324836
2761.000000	97.329968
2760.000000	97.336060
2759.000000	97.343624
2758.000000	97.352168
2757.000000	97.360385
2756.000000	97.366917
2755.000000	97.371096
2754.000000	97.373330
2753.000000	97.374871
2752.000000	97.376822
2751.000000	97.379239
2750.000000	97.381436
2749.000000	97.383141
2748.000000	97.384849
2747.000000	97.386935
2746.000000	97.389151
2745.000000	97.391462
2744.000000	97.394710
2743.000000	97.399672
2742.000000	97.405730
2741.000000	97.411247
2740.000000	97.415100
2739.000000	97.417166
2738.000000	97.417525
2737.000000	97.416300
2736.000000	97.414698
2735.000000	97.415356
2734.000000	97.420573
2733.000000	97.429951
2732.000000	97.440150
2731.000000	97.447417
2730.000000	97.450695
2729.000000	97.452412
2728.000000	97.456092
2727.000000	97.463128
2726.000000	97.471987
2725.000000	97.480336
2724.000000	97.487355
2723.000000	97.493641
2722.000000	97.499458
2721.000000	97.503968
2720.000000	97.506317
2719.000000	97.506921
2718.000000	97.507336
2717.000000	97.508905
2716.000000	97.511590
2715.000000	97.514225
2714.000000	97.515914
2713.000000	97.516982
2712.000000	97.518317
2711.000000	97.520179
2710.000000	97.522355
2709.000000	97.525207
2708.000000	97.529411
2707.000000	97.534506
2706.000000	97.538940
2705.000000	97.542077
2704.000000	97.544958
2703.000000	97.548258
2702.000000	97.550773
2701.000000	97.551272
2700.000000	97.550918
2699.000000	97.552145
2698.000000	97.555475
2697.000000	97.559030
2696.000000	97.561203
2695.000000	97.562357
2694.000000	97.563559
2693.000000	97.564916
2692.000000	97.565802
2691.000000	97.565934
2690.000000	97.565664
2689.000000	97.565569
2688.000000	97.566076
2687.000000	97.567217
2686.000000	97.568746
2685.000000	97.570630
2684.000000	97.573106
2683.000000	97.575854
2682.000000	97.577762
2681.000000	97.578362
2680.000000	97.579021
2679.000000	97.581549
2678.000000	97.585736
2677.000000	97.589342
2676.000000	97.590612
2675.000000	97.589783
2674.000000	97.588061
2673.000000	97.586279
2672.000000	97.585029
2671.000000	97.585074
2670.000000	97.586782
2669.000000	97.589467
2668.000000	97.591790
2667.000000	97.592692
2666.000000	97.591920
2665.000000	97.590095
2664.000000	97.588533
2663.000000	97.588588
2662.000000	97.590748
2661.000000	97.594143
2660.000000	97.596805
2659.000000	97.596572
2658.000000	97.592572
2657.000000	97.586412
2656.000000	97.581536
2655.000000	97.580746
2654.000000	97.584561
2653.000000	97.592184
2652.000000	97.602919
2651.000000	97.615633
2650.000000	97.627758
2649.000000	97.636740
2648.000000	97.642604
2647.000000	97.647657
2646.000000	97.653353
2645.000000	97.658680
2644.000000	97.661972
2643.000000	97.662985
2642.000000	97.662612
2641.000000	97.661575
2640.000000	97.660312
2639.000000	97.659824
2638.000000	97.661853
2637.000000	97.667877
2636.000000	97.677485
2635.000000	97.687575
2634.000000	97.694051
2633.000000	97.695440
2632.000000	97.694574
2631.000000	97.695815
2630.000000	97.701040
2629.000000	97.709304
2628.000000	97.719471
2627.000000	97.731094
2626.000000	97.742621
2625.000000	97.750803
2624.000000	97.753051
2623.000000	97.749746
2622.000000	97.744055
2621.000000	97.740306
2620.000000	97.742112
2619.000000	97.750317
2618.000000	97.762122
2617.000000	97.773207
2616.000000	97.780949
2615.000000	97.784921
2614.000000	97.785282
2613.000000	97.782933
2612.000000	97.781162
2611.000000	97.784070
2610.000000	97.791769
2609.000000	97.799037
2608.000000	97.800486
2607.000000	97.796290
2606.000000	97.791613
2605.000000	97.791424
2604.000000	97.797081
2603.000000	97.806837
2602.000000	97.817584
2601.000000	97.825807
2600.000000	97.828683
2599.000000	97.826066
2598.000000	97.821733
2597.000000	97.821500
2596.000000	97.828403
2595.000000	97.839243
2594.000000	97.846973
2593.000000	97.847366
2592.000000	97.842763
2591.000000	97.838878
2590.000000	97.839244
2589.000000	97.843461
2588.000000	97.849014
2587.000000	97.852978
2586.000000	97.853316
2585.000000	97.850830
2584.000000	97.849168
2583.000000	97.850821
2582.000000	97.853822
2581.000000	97.854458
2580.000000	97.852368
2579.000000	97.850428
2578.000000	97.850141
2577.000000	97.850251
2576.000000	97.849998
2575.000000	97.850852
2574.000000	97.854151
2573.000000	97.859269
2572.000000	97.864990
2571.000000	97.870892
2570.000000	97.876815
2569.000000	97.882606
2568.000000	97.888661
2567.000000	97.894970
2566.000000	97.899592
2565.000000	97.900311
2564.000000	97.898318
2563.000000	97.898035
2562.000000	97.902318
2561.000000	97.909398
2560.000000	97.915257
2559.000000	97.917685
2558.000000	97.917485
2557.000000	97.916965
2556.000000	97.917719
2555.000000	97.919057
2554.000000	97.918911
2553.000000	97.917230
2552.000000	97.917334
2551.000000	97.921941
2550.000000	97.928861
2549.000000	97.933311
2548.000000	97.933898
2547.000000	97.933301
2546.000000	97.933236
2545.000000	97.932182
2544.000000	97.928739
2543.000000	97.923993
2542.000000	97.919174
2541.000000	97.913638
2540.000000	97.906810
2539.000000	97.900271
2538.000000	97.896527
2537.000000	97.896944
2536.000000	97.901369
2535.000000	97.908027
2534.000000	97.913254
2533.000000	97.913310
2532.000000	97.907442
2531.000000	97.897937
2530.000000	97.886972
2529.000000	97.875357
2528.000000	97.864533
2527.000000	97.857206
2526.000000	97.854740
2525.000000	97.855503
2524.000000	97.856751
2523.000000	97.856908
2522.000000	97.855821
2521.000000	97.854546
2520.000000	97.855326
2519.000000	97.859961
2518.000000	97.867322
2517.000000	97.873831
2516.000000	97.876943
2515.000000	97.876844
2514.000000	97.874753
2513.000000	97.871487
2512.000000	97.868122
2511.000000	97.866296
2510.000000	97.867128
2509.000000	97.871004
2508.000000	97.878257
2507.000000	97.888413
2506.000000	97.899060
2505.000000	97.907683
2504.000000	97.914959
2503.000000	97.924153
2502.000000	97.936982
2501.000000	97.952051
2500.000000	97.967188
2499.000000	97.980714
2498.000000	97.990169
2497.000000	97.993047
2496.000000	97.990043
2495.000000	97.985032
2494.000000	97.980528
2493.000000	97.975870
2492.000000	97.971655
2491.000000	97.972924
2490.000000	97.984429
2489.000000	98.003427
2488.000000	98.020396
2487.000000	98.027851
2486.000000	98.027180
2485.000000	98.026345
2484.000000	98.031676
2483.000000	98.042677
2482.000000	98.054443
2481.000000	98.063514
2480.000000	98.070058
2479.000000	98.074741
2478.000000	98.076059
2477.000000	98.072610
2476.000000	98.066469
2475.000000	98.061957
2474.000000	98.061183
2473.000000	98.062437
2472.000000	98.062958
2471.000000	98.062078
2470.000000	98.061850
2469.000000	98.065431
2468.000000	98.074144
2467.000000	98.085096
2466.000000	98.092661
2465.000000	98.093671
2464.000000	98.090392
2463.000000	98.087353
2462.000000	98.086622
2461.000000	98.087525
2460.000000	98.089031
2459.000000	98.090067
2458.000000	98.088988
2457.000000	98.085448
2456.000000	98.081918
2455.000000	98.081004
2454.000000	98.082310
2453.000000	98.084320
2452.000000	98.087845
2451.000000	98.094522
2450.000000	98.102997
2449.000000	98.110029
2448.000000	98.114773
2447.000000	98.118698
2446.000000	98.121834
2445.000000	98.122632
2444.000000	98.121277
2443.000000	98.119684
2442.000000	98.118330
2441.000000	98.116435
2440.000000	98.115073
2439.000000	98.116356
2438.000000	98.119261
2437.000000	98.120043
2436.000000	98.117511
2435.000000	98.114380
2434.000000	98.112525
2433.000000	98.110401
2432.000000	98.106600
2431.000000	98.103051
2430.000000	98.102911
2429.000000	98.107185
2428.000000	98.114511
2427.000000	98.122520
2426.000000	98.128793
2425.000000	98.132262
2424.000000	98.134173
2423.000000	98.136220
2422.000000	98.137963
2421.000000	98.138113
2420.000000	98.137647
2419.000000	98.138700
2418.000000	98.140404
2417.000000	98.139007
2416.000000	98.132927
2415.000000	98.125143
2414.000000	98.119946
2413.000000	98.119558
2412.000000	98.124212
2411.000000	98.132809
2410.000000	98.142561
2409.000000	98.150156
2408.000000	98.154457
2407.000000	98.156707
2406.000000	98.157845
2405.000000	98.157282
2404.000000	98.154383
2403.000000	98.149435
2402.000000	98.143265
2401.000000	98.137665
2400.000000	98.135679
2399.000000	98.139083
2398.000000	98.145606
2397.000000	98.150703
2396.000000	98.152054
2395.000000	98.150706
2394.000000	98.148631
2393.000000	98.147546
2392.000000	98.149302
2391.000000	98.154380
2390.000000	98.160052
2389.000000	98.162866
2388.000000	98.163142
2387.000000	98.164117
2386.000000	98.166944
2385.000000	98.169275
2384.000000	98.169321
2383.000000	98.168652
2382.000000	98.169528
2381.000000	98.172022
2380.000000	98.174123
2379.000000	98.172970
2378.000000	98.166337
2377.000000	98.155521
2376.000000	98.147091
2375.000000	98.147941
2374.000000	98.157297
2373.000000	98.166406
2372.000000	98.167841
2371.000000	98.162483
2370.000000	98.156434
2369.000000	98.154092
2368.000000	98.154891
2367.000000	98.155251
2366.000000	98.152540
2365.000000	98.148031
2364.000000	98.145358
2363.000000	98.144748
2362.000000	98.141861
2361.000000	98.134404
2360.000000	98.126735
2359.000000	98.124782
2358.000000	98.129725
2357.000000	98.138660
2356.000000	98.146009
2355.000000	98.146382
2354.000000	98.140144
2353.000000	98.132665
2352.000000	98.127645
2351.000000	98.124875
2350.000000	98.123222
2349.000000	98.121145
2348.000000	98.118204
2347.000000	98.115917
2346.000000	98.113803
2345.000000	98.107694
2344.000000	98.097576
2343.000000	98.091143
2342.000000	98.093625
2341.000000	98.102501
2340.000000	98.111005
2339.000000	98.113325
2338.000000	98.108373
2337.000000	98.099655
2336.000000	98.092173
2335.000000	98.089262
2334.000000	98.091625
2333.000000	98.096899
2332.000000	98.099906
2331.000000	98.097058
2330.000000	98.090398
2329.000000	98.084013
2328.000000	98.077391
2327.000000	98.064754
2326.000000	98.043157
2325.000000	98.018987
2324.000000	98.004567
2323.000000	98.007602
2322.000000	98.023600
2321.000000	98.041715
2320.000000	98.055720
2319.000000	98.066406
2318.000000	98.075401
2317.000000	98.082205
2316.000000	98.086932
2315.000000	98.090960
2314.000000	98.094943
2313.000000	98.099509
2312.000000	98.107044
2311.000000	98.118653
2310.000000	98.130227
2309.000000	98.136345
2308.000000	98.138473
2307.000000	98.143615
2306.000000	98.153599
2305.000000	98.161109
2304.000000	98.158688
2303.000000	98.147502
2302.000000	98.134441
2301.000000	98.124133
2300.000000	98.117098
2299.000000	98.112945
2298.000000	98.111987
2297.000000	98.114273
2296.000000	98.118569
2295.000000	98.122421
2294.000000	98.123590
2293.000000	98.122633
2292.000000	98.123166
2291.000000	98.127504
2290.000000	98.132833
2289.000000	98.134166
2288.000000	98.129916
2287.000000	98.121687
2286.000000	98.110347
2285.000000	98.097348
2284.000000	98.089141
2283.000000	98.094023
2282.000000	98.112994
2281.000000	98.137816
2280.000000	98.159175
2279.000000	98.172786
2278.000000	98.177647
2277.000000	98.174508
2276.000000	98.167919
2275.000000	98.164614
2274.000000	98.167612
2273.000000	98.175045
2272.000000	98.185192
2271.000000	98.198315
2270.000000	98.212934
2269.000000	98.224810
2268.000000	98.230727
2267.000000	98.230229
2266.000000	98.224138
2265.000000	98.215179
2264.000000	98.208841
2263.000000	98.209059
2262.000000	98.214277
2261.000000	98.221137
2260.000000	98.228739
2259.000000	98.235257
2258.000000	98.235735
2257.000000	98.230364
2256.000000	98.229398
2255.000000	98.240247
2254.000000	98.254389
2253.000000	98.258630
2252.000000	98.255467
2251.000000	98.258675
2250.000000	98.270756
2249.000000	98.279001
2248.000000	98.274379
2247.000000	98.261700
2246.000000	98.250049
2245.000000	98.245439
2244.000000	98.253716
2243.000000	98.276868
2242.000000	98.303577
2241.000000	98.315912
2240.000000	98.309360
2239.000000	98.295551
2238.000000	98.283548
2237.000000	98.271831
2236.000000	98.261403
2235.000000	98.261917
2234.000000	98.277988
2233.000000	98.300611
2232.000000	98.318131
2231.000000	98.326157
2230.000000	98.323020
2229.000000	98.307755
2228.000000	98.288406
2227.000000	98.280881
2226.000000	98.292605
2225.000000	98.314895
2224.000000	98.334992
2223.000000	98.346944
2222.000000	98.348818
2221.000000	98.340608
2220.000000	98.328394
2219.000000	98.319847
2218.000000	98.313601
2217.000000	98.304574
2216.000000	98.299999
2215.000000	98.314833
2214.000000	98.347988
2213.000000	98.378595
2212.000000	98.391602
2211.000000	98.393228
2210.000000	98.394435
2209.000000	98.393898
2208.000000	98.386155
2207.000000	98.374439
2206.000000	98.365860
2205.000000	98.361124
2204.000000	98.355139
2203.000000	98.342163
2202.000000	98.319952
2201.000000	98.297352
2200.000000	98.294876
2199.000000	98.324292
2198.000000	98.369529
2197.000000	98.403561
2196.000000	98.423614
2195.000000	98.449925
2194.000000	98.488125
2193.000000	98.515743
2192.000000	98.514004
2191.000000	98.492526
2190.000000	98.472081
2189.000000	98.462356
2188.000000	98.465872
2187.000000	98.484432
2186.000000	98.509116
2185.000000	98.520274
2184.000000	98.512401
2183.000000	98.505488
2182.000000	98.517123
2181.000000	98.534977
2180.000000	98.531213
2179.000000	98.496086
2178.000000	98.447962
2177.000000	98.418712
2176.000000	98.431991
2175.000000	98.482549
2174.000000	98.532814
2173.000000	98.543129
2172.000000	98.510601
2171.000000	98.467682
2170.000000	98.444315
2169.000000	98.444267
2168.000000	98.454060
2167.000000	98.457936
2166.000000	98.444034
2165.000000	98.415080
2164.000000	98.395951
2163.000000	98.410021
2162.000000	98.447474
2161.000000	98.480071
2160.000000	98.508076
2159.000000	98.561059
2158.000000	98.638612
2157.000000	98.692961
2156.000000	98.691540
2155.000000	98.654213
2154.000000	98.619112
2153.000000	98.606166
2152.000000	98.614771
2151.000000	98.631726
2150.000000	98.638679
2149.000000	98.628638
2148.000000	98.616098
2147.000000	98.616546
2146.000000	98.620282
2145.000000	98.604088
2144.000000	98.563869
2143.000000	98.515109
2142.000000	98.466853
2141.000000	98.419063
2140.000000	98.382143
2139.000000	98.374091
2138.000000	98.395290
2137.000000	98.425404
2136.000000	98.448370
2135.000000	98.464345
2134.000000	98.475315
2133.000000	98.477747
2132.000000	98.473021
2131.000000	98.468233
2130.000000	98.463550
2129.000000	98.452482
2128.000000	98.436157
2127.000000	98.424465
2126.000000	98.421342
2125.000000	98.420011
2124.000000	98.413759
2123.000000	98.400271
2122.000000	98.376060
2121.000000	98.340352
2120.000000	98.305716
2119.000000	98.290176
2118.000000	98.295014
2117.000000	98.302483
2116.000000	98.299113
2115.000000	98.289698
2114.000000	98.284145
2113.000000	98.283530
2112.000000	98.285248
2111.000000	98.290188
2110.000000	98.296829
2109.000000	98.297528
2108.000000	98.288745
2107.000000	98.278047
2106.000000	98.274686
2105.000000	98.279554
2104.000000	98.288573
2103.000000	98.298705
2102.000000	98.306549
2101.000000	98.308201
2100.000000	98.305807
2099.000000	98.308843
2098.000000	98.325784
2097.000000	98.357781
2096.000000	98.398099
2095.000000	98.431752
2094.000000	98.439659
2093.000000	98.414732
2092.000000	98.372867
2091.000000	98.337113
2090.000000	98.313776
2089.000000	98.294599
2088.000000	98.278270
2087.000000	98.274548
2086.000000	98.286526
2085.000000	98.304466
2084.000000	98.320177
2083.000000	98.334146
2082.000000	98.345675
2081.000000	98.350231
2080.000000	98.350810
2079.000000	98.357457
2078.000000	98.370184
2077.000000	98.376359
2076.000000	98.370539
2075.000000	98.364060
2074.000000	98.368394
2073.000000	98.381280
2072.000000	98.394479
2071.000000	98.401848
2070.000000	98.396415
2069.000000	98.374292
2068.000000	98.347179
2067.000000	98.336912
2066.000000	98.352040
2065.000000	98.380734
2064.000000	98.408813
2063.000000	98.431292
2062.000000	98.443888
2061.000000	98.441119
2060.000000	98.427578
2059.000000	98.414919
2058.000000	98.405472
2057.000000	98.396693
2056.000000	98.400498
2055.000000	98.433233
2054.000000	98.481408
2053.000000	98.505559
2052.000000	98.490144
2051.000000	98.463819
2050.000000	98.458317
2049.000000	98.468719
2048.000000	98.471393
2047.000000	98.464330
2046.000000	98.464613
2045.000000	98.476821
2044.000000	98.486063
2043.000000	98.475449
2042.000000	98.440147
2041.000000	98.396673
2040.000000	98.381509
2039.000000	98.420544
2038.000000	98.497171
2037.000000	98.569246
2036.000000	98.619136
2035.000000	98.663188
2034.000000	98.708850
2033.000000	98.739607
2032.000000	98.751393
2031.000000	98.761035
2030.000000	98.765126
2029.000000	98.736613
2028.000000	98.679052
2027.000000	98.640709
2026.000000	98.653441
2025.000000	98.692809
2024.000000	98.717319
2023.000000	98.714216
2022.000000	98.692347
2021.000000	98.664083
2020.000000	98.650695
2019.000000	98.672652
2018.000000	98.715520
2017.000000	98.731849
2016.000000	98.696053
2015.000000	98.631100
2014.000000	98.569790
2013.000000	98.526606
2012.000000	98.513276
2011.000000	98.542450
2010.000000	98.602614
2009.000000	98.658480
2008.000000	98.689786
2007.000000	98.704369
2006.000000	98.705148
2005.000000	98.681378
2004.000000	98.642802
2003.000000	98.620370
2002.000000	98.624630
2001.000000	98.632772
2000.000000	98.624539
1999.000000	98.604255
1998.000000	98.578713
1997.000000	98.549465
1996.000000	98.533620
1995.000000	98.555402
1994.000000	98.604857
1993.000000	98.634645
1992.000000	98.617994
1991.000000	98.582904
1990.000000	98.564575
1989.000000	98.557778
1988.000000	98.540769
1987.000000	98.513954
1986.000000	98.491994
1985.000000	98.479525
1984.000000	98.474492
1983.000000	98.476392
1982.000000	98.477320
1981.000000	98.464160
1980.000000	98.444803
1979.000000	98.450623
1978.000000	98.496334
1977.000000	98.562773
1976.000000	98.630614
1975.000000	98.697648
1974.000000	98.750373
1973.000000	98.764083
1972.000000	98.747598
1971.000000	98.742750
1970.000000	98.764086
1969.000000	98.777744
1968.000000	98.754969
1967.000000	98.711754
1966.000000	98.676631
1965.000000	98.654547
1964.000000	98.643751
1963.000000	98.653831
1962.000000	98.686058
1961.000000	98.720434
1960.000000	98.739868
1959.000000	98.746751
1958.000000	98.744483
1957.000000	98.727592
1956.000000	98.698482
1955.000000	98.671118
1954.000000	98.650471
1953.000000	98.630781
1952.000000	98.617557
1951.000000	98.626814
1950.000000	98.657633
1949.000000	98.684426
1948.000000	98.688196
1947.000000	98.676946
1946.000000	98.664357
1945.000000	98.650197
1944.000000	98.632106
1943.000000	98.618643
1942.000000	98.616709
1941.000000	98.621802
1940.000000	98.630918
1939.000000	98.645023
1938.000000	98.655053
1937.000000	98.646055
1936.000000	98.619996
1935.000000	98.598110
1934.000000	98.593568
1933.000000	98.598501
1932.000000	98.600263
1931.000000	98.595009
1930.000000	98.583683
1929.000000	98.564586
1928.000000	98.545587
1927.000000	98.544021
1926.000000	98.564271
1925.000000	98.590040
1924.000000	98.601762
1923.000000	98.602350
1922.000000	98.609432
1921.000000	98.627694
1920.000000	98.644239
1919.000000	98.643417
1918.000000	98.622071
1917.000000	98.593689
1916.000000	98.576553
1915.000000	98.576196
1914.000000	98.582641
1913.000000	98.587172
1912.000000	98.592882
1911.000000	98.604203
1910.000000	98.614072
1909.000000	98.609480
1908.000000	98.593615
1907.000000	98.581475
1906.000000	98.577680
1905.000000	98.576650
1904.000000	98.574940
1903.000000	98.577166
1902.000000	98.583301
1901.000000	98.583638
1900.000000	98.578431
1899.000000	98.581231
1898.000000	98.598456
1897.000000	98.620897
1896.000000	98.636531
1895.000000	98.645564
1894.000000	98.654346
1893.000000	98.663392
1892.000000	98.669085
1891.000000	98.668056
1890.000000	98.657998
1889.000000	98.641432
1888.000000	98.629989
1887.000000	98.634069
1886.000000	98.647788
1885.000000	98.656568
1884.000000	98.656803
1883.000000	98.656398
1882.000000	98.657340
1881.000000	98.652291
1880.000000	98.643866
1879.000000	98.645721
1878.000000	98.659482
1877.000000	98.671193
1876.000000	98.670609
1875.000000	98.662741
1874.000000	98.659630
1873.000000	98.667116
1872.000000	98.683354
1871.000000	98.703057
1870.000000	98.719466
1869.000000	98.728923
1868.000000	98.734762
1867.000000	98.739680
1866.000000	98.736169
1865.000000	98.715890
1864.000000	98.686455
1863.000000	98.666167
1862.000000	98.661371
1861.000000	98.661589
1860.000000	98.660151
1859.000000	98.663502
1858.000000	98.675123
1857.000000	98.687002
1856.000000	98.693995
1855.000000	98.699285
1854.000000	98.703851
1853.000000	98.700485
1852.000000	98.690214
1851.000000	98.684474
1850.000000	98.682907
1849.000000	98.680902
1848.000000	98.688443
1847.000000	98.719636
1846.000000	98.763126
1845.000000	98.783237
1844.000000	98.764276
1843.000000	98.736012
1842.000000	98.728036
1841.000000	98.727185
1840.000000	98.712103
1839.000000	98.686589
1838.000000	98.668061
1837.000000	98.663062
1836.000000	98.663639
1835.000000	98.667891
1834.000000	98.681201
1833.000000	98.700471
1832.000000	98.716506
1831.000000	98.723829
1830.000000	98.724316
1829.000000	98.725864
1828.000000	98.733126
1827.000000	98.740069
1826.000000	98.733486
1825.000000	98.712358
1824.000000	98.694439
1823.000000	98.692229
1822.000000	98.695678
1821.000000	98.689498
1820.000000	98.678370
1819.000000	98.676888
1818.000000	98.686558
1817.000000	98.696056
1816.000000	98.697810
1815.000000	98.698400
1814.000000	98.700697
1813.000000	98.697570
1812.000000	98.688203
1811.000000	98.680368
1810.000000	98.679316
1809.000000	98.676227
1808.000000	98.660324
1807.000000	98.636025
1806.000000	98.613124
1805.000000	98.594325
1804.000000	98.576022
1803.000000	98.558058
1802.000000	98.539163
1801.000000	98.516351
1800.000000	98.494411
1799.000000	98.479519
1798.000000	98.472894
1797.000000	98.471929
1796.000000	98.478586
1795.000000	98.498225
1794.000000	98.523087
1793.000000	98.538346
1792.000000	98.546351
1791.000000	98.563025
1790.000000	98.591665
1789.000000	98.618081
1788.000000	98.632480
1787.000000	98.640044
1786.000000	98.647653
1785.000000	98.654252
1784.000000	98.658442
1783.000000	98.669715
1782.000000	98.685210
1781.000000	98.689305
1780.000000	98.684251
1779.000000	98.683406
1778.000000	98.692644
1777.000000	98.703889
1776.000000	98.718550
1775.000000	98.748023
1774.000000	98.780465
1773.000000	98.786263
1772.000000	98.765221
1771.000000	98.748138
1770.000000	98.739353
1769.000000	98.709030
1768.000000	98.641060
1767.000000	98.566226
1766.000000	98.523617
1765.000000	98.507147
1764.000000	98.478819
1763.000000	98.415473
1762.000000	98.321886
1761.000000	98.218016
1760.000000	98.117056
1759.000000	98.006474
1758.000000	97.851502
1757.000000	97.622883
1756.000000	97.356047
1755.000000	97.122476
1754.000000	96.928369
1753.000000	96.709223
1752.000000	96.412952
1751.000000	96.062866
1750.000000	95.727280
1749.000000	95.426563
1748.000000	95.142832
1747.000000	94.891307
1746.000000	94.684844
1745.000000	94.505963
1744.000000	94.345189
1743.000000	94.220165
1742.000000	94.145264
1741.000000	94.101520
1740.000000	94.071336
1739.000000	94.082667
1738.000000	94.166415
1737.000000	94.303927
1736.000000	94.456150
1735.000000	94.623640
1734.000000	94.831291
1733.000000	95.060961
1732.000000	95.284022
1731.000000	95.497062
1730.000000	95.703147
1729.000000	95.906581
1728.000000	96.113152
1727.000000	96.329078
1726.000000	96.544190
1725.000000	96.746316
1724.000000	96.935548
1723.000000	97.114907
1722.000000	97.286212
1721.000000	97.443484
1720.000000	97.583691
1719.000000	97.715822
1718.000000	97.850480
1717.000000	97.969136
1716.000000	98.040660
1715.000000	98.065645
1714.000000	98.057834
1713.000000	98.029546
1712.000000	97.997937
1711.000000	97.976494
1710.000000	97.962994
1709.000000	97.944982
1708.000000	97.920282
1707.000000	97.884758
1706.000000	97.825647
1705.000000	97.753392
1704.000000	97.713721
1703.000000	97.718792
1702.000000	97.702458
1701.000000	97.562760
1700.000000	97.335606
1699.000000	97.214514
1698.000000	97.216019
1697.000000	97.161096
1696.000000	96.956022
1695.000000	96.695492
1694.000000	96.519092
1693.000000	96.420293
1692.000000	96.319372
1691.000000	96.190777
1690.000000	96.055707
1689.000000	95.938466
1688.000000	95.864021
1687.000000	95.831727
1686.000000	95.790981
1685.000000	95.651742
1684.000000	95.408084
1683.000000	95.198001
1682.000000	95.069524
1681.000000	94.941755
1680.000000	94.778818
1679.000000	94.621030
1678.000000	94.497983
1677.000000	94.370384
1676.000000	94.181852
1675.000000	93.958934
1674.000000	93.788060
1673.000000	93.684651
1672.000000	93.584301
1671.000000	93.433201
1670.000000	93.227158
1669.000000	92.994638
1668.000000	92.780245
1667.000000	92.614371
1666.000000	92.482824
1665.000000	92.344295
1664.000000	92.161611
1663.000000	91.943241
1662.000000	91.737320
1661.000000	91.564482
1660.000000	91.410652
1659.000000	91.266869
1658.000000	91.143557
1657.000000	91.062235
1656.000000	91.024599
1655.000000	90.989972
1654.000000	90.870168
1653.000000	90.641776
1652.000000	90.447518
1651.000000	90.388524
1650.000000	90.391424
1649.000000	90.364254
1648.000000	90.288237
1647.000000	90.194992
1646.000000	90.123175
1645.000000	90.076890
1644.000000	90.045107
1643.000000	90.025877
1642.000000	90.014901
1641.000000	90.005555
1640.000000	90.006009
1639.000000	90.028741
1638.000000	90.069869
1637.000000	90.099031
1636.000000	90.095471
1635.000000	90.074341
1634.000000	90.063328
1633.000000	90.072592
1632.000000	90.086220
1631.000000	90.102023
1630.000000	90.133047
1629.000000	90.184177
1628.000000	90.255717
1627.000000	90.350903
1626.000000	90.465749
1625.000000	90.586835
1624.000000	90.708998
1623.000000	90.841308
1622.000000	90.986180
1621.000000	91.133587
1620.000000	91.280422
1619.000000	91.427752
1618.000000	91.580096
1617.000000	91.745100
1616.000000	91.916699
1615.000000	92.075861
1614.000000	92.211396
1613.000000	92.326440
1612.000000	92.435745
1611.000000	92.559393
1610.000000	92.701301
1609.000000	92.847742
1608.000000	92.986023
1607.000000	93.114141
1606.000000	93.231294
1605.000000	93.336361
1604.000000	93.435374
1603.000000	93.528780
1602.000000	93.609896
1601.000000	93.678071
1600.000000	93.740155
1599.000000	93.800298
1598.000000	93.855288
1597.000000	93.904894
1596.000000	93.954225
1595.000000	94.003583
1594.000000	94.045687
1593.000000	94.075973
1592.000000	94.097844
1591.000000	94.113846
1590.000000	94.121254
1589.000000	94.119497
1588.000000	94.113447
1587.000000	94.103348
1586.000000	94.084813
1585.000000	94.055072
1584.000000	94.020576
1583.000000	93.984387
1582.000000	93.938602
1581.000000	93.889207
1580.000000	93.860059
1579.000000	93.858020
1578.000000	93.853606
1577.000000	93.809628
1576.000000	93.723691
1575.000000	93.634534
1574.000000	93.569858
1573.000000	93.520306
1572.000000	93.464506
1571.000000	93.380962
1570.000000	93.264461
1569.000000	93.141883
1568.000000	93.048102
1567.000000	92.974820
1566.000000	92.882832
1565.000000	92.761313
1564.000000	92.648666
1563.000000	92.593166
1562.000000	92.582752
1561.000000	92.563404
1560.000000	92.448360
1559.000000	92.225103
1558.000000	92.013655
1557.000000	91.874054
1556.000000	91.760135
1555.000000	91.620583
1554.000000	91.453150
1553.000000	91.299915
1552.000000	91.183247
1551.000000	91.073657
1550.000000	90.948582
1549.000000	90.826823
1548.000000	90.735484
1547.000000	90.672017
1546.000000	90.612044
1545.000000	90.552089
1544.000000	90.518448
1543.000000	90.520238
1542.000000	90.530606
1541.000000	90.512260
1540.000000	90.456786
1539.000000	90.384752
1538.000000	90.328457
1537.000000	90.308855
1536.000000	90.305830
1535.000000	90.299893
1534.000000	90.290651
1533.000000	90.292164
1532.000000	90.316417
1531.000000	90.352722
1530.000000	90.388746
1529.000000	90.421394
1528.000000	90.456829
1527.000000	90.504407
1526.000000	90.560771
1525.000000	90.619794
1524.000000	90.683509
1523.000000	90.743840
1522.000000	90.782031
1521.000000	90.790605
1520.000000	90.794079
1519.000000	90.815387
1518.000000	90.834578
1517.000000	90.832610
1516.000000	90.826796
1515.000000	90.845013
1514.000000	90.884332
1513.000000	90.925038
1512.000000	90.971569
1511.000000	91.052850
1510.000000	91.178497
1509.000000	91.321590
1508.000000	91.443459
1507.000000	91.534525
1506.000000	91.574987
1505.000000	91.566900
1504.000000	91.570194
1503.000000	91.595125
1502.000000	91.622930
1501.000000	91.651225
1500.000000	91.685550
1499.000000	91.735771
1498.000000	91.791505
1497.000000	91.826238
1496.000000	91.830483
1495.000000	91.834827
1494.000000	91.863189
1493.000000	91.900224
1492.000000	91.925256
1491.000000	91.939127
1490.000000	91.950492
1489.000000	91.947920
1488.000000	91.915810
1487.000000	91.861956
1486.000000	91.802151
1485.000000	91.735292
1484.000000	91.663472
1483.000000	91.590109
1482.000000	91.505303
1481.000000	91.404106
1480.000000	91.298560
1479.000000	91.200093
1478.000000	91.095417
1477.000000	90.970615
1476.000000	90.840198
1475.000000	90.725273
1474.000000	90.592982
1473.000000	90.377829
1472.000000	90.095407
1471.000000	89.835430
1470.000000	89.632241
1469.000000	89.457469
1468.000000	89.292407
1467.000000	89.139622
1466.000000	88.991570
1465.000000	88.830208
1464.000000	88.674566
1463.000000	88.560320
1462.000000	88.487150
1461.000000	88.430122
1460.000000	88.372050
1459.000000	88.296924
1458.000000	88.156204
1457.000000	87.921376
1456.000000	87.685385
1455.000000	87.545942
1454.000000	87.465522
1453.000000	87.378545
1452.000000	87.284860
1451.000000	87.214441
1450.000000	87.169598
1449.000000	87.121902
1448.000000	87.058162
1447.000000	87.001469
1446.000000	86.963373
1445.000000	86.929218
1444.000000	86.891549
1443.000000	86.849689
1442.000000	86.804680
1441.000000	86.761379
1440.000000	86.730408
1439.000000	86.706810
1438.000000	86.659586
1437.000000	86.563241
1436.000000	86.455264
1435.000000	86.400176
1434.000000	86.393422
1433.000000	86.389442
1432.000000	86.368555
1431.000000	86.335159
1430.000000	86.286830
1429.000000	86.214438
1428.000000	86.128482
1427.000000	86.056253
1426.000000	85.999482
1425.000000	85.940982
1424.000000	85.891598
1423.000000	85.877316
1422.000000	85.892963
1421.000000	85.900397
1420.000000	85.870988
1419.000000	85.817524
1418.000000	85.772943
1417.000000	85.746695
1416.000000	85.732865
1415.000000	85.732862
1414.000000	85.748319
1413.000000	85.778262
1412.000000	85.824896
1411.000000	85.889771
1410.000000	85.966813
1409.000000	86.049665
1408.000000	86.137464
1407.000000	86.232703
1406.000000	86.329572
1405.000000	86.417925
1404.000000	86.501633
1403.000000	86.588847
1402.000000	86.675641
1401.000000	86.749828
1400.000000	86.811015
1399.000000	86.875136
1398.000000	86.950827
1397.000000	87.028026
1396.000000	87.094194
1395.000000	87.150625
1394.000000	87.206026
1393.000000	87.272087
1392.000000	87.358479
1391.000000	87.461552
1390.000000	87.568871
1389.000000	87.672339
1388.000000	87.773779
1387.000000	87.878109
1386.000000	87.982704
1385.000000	88.082628
1384.000000	88.180186
1383.000000	88.278308
1382.000000	88.378070
1381.000000	88.481849
1380.000000	88.594639
1379.000000	88.721080
1378.000000	88.860421
1377.000000	89.010415
1376.000000	89.171678
1375.000000	89.342714
1374.000000	89.509178
1373.000000	89.654882
1372.000000	89.780984
1371.000000	89.898691
1370.000000	90.011705
1369.000000	90.120471
1368.000000	90.230604
1367.000000	90.345239
1366.000000	90.461295
1365.000000	90.575379
1364.000000	90.686492
1363.000000	90.789824
1362.000000	90.874818
1361.000000	90.938767
1360.000000	90.991956
1359.000000	91.043289
1358.000000	91.092864
1357.000000	91.139828
1356.000000	91.186306
1355.000000	91.232594
1354.000000	91.275342
1353.000000	91.314255
1352.000000	91.351605
1351.000000	91.388316
1350.000000	91.420551
1349.000000	91.444250
1348.000000	91.459544
1347.000000	91.465015
1346.000000	91.456661
1345.000000	91.434561
1344.000000	91.406227
1343.000000	91.378787
1342.000000	91.351089
1341.000000	91.316505
1340.000000	91.271258
1339.000000	91.217951
1338.000000	91.163561
1337.000000	91.117228
1336.000000	91.087666
1335.000000	91.079852
1334.000000	91.094023
1333.000000	91.128131
1332.000000	91.179265
1331.000000	91.242894
1330.000000	91.312948
1329.000000	91.385493
1328.000000	91.460342
1327.000000	91.537675
1326.000000	91.614263
1325.000000	91.685235
1324.000000	91.748001
1323.000000	91.802750
1322.000000	91.852112
1321.000000	91.899880
1320.000000	91.947978
1319.000000	91.994944
1318.000000	92.039817
1317.000000	92.086352
1316.000000	92.139955
1315.000000	92.201339
1314.000000	92.266137
1313.000000	92.330013
1312.000000	92.391085
1311.000000	92.449125
1310.000000	92.505626
1309.000000	92.564358
1308.000000	92.627972
1307.000000	92.694906
1306.000000	92.761258
1305.000000	92.825113
1304.000000	92.886492
1303.000000	92.944590
1302.000000	92.999658
1301.000000	93.055616
1300.000000	93.116796
1299.000000	93.182482
1298.000000	93.247796
1297.000000	93.308237
1296.000000	93.360342
1295.000000	93.400178
1294.000000	93.426179
1293.000000	93.442423
1292.000000	93.454801
1291.000000	93.464483
1290.000000	93.467765
1289.000000	93.461998
1288.000000	93.448810
1287.000000	93.432465
1286.000000	93.417742
1285.000000	93.408219
1284.000000	93.404435
1283.000000	93.404071
1282.000000	93.405449
1281.000000	93.408889
1280.000000	93.412673
1279.000000	93.410348
1278.000000	93.395691
1277.000000	93.368823
1276.000000	93.334147
1275.000000	93.293163
1274.000000	93.242976
1273.000000	93.180857
1272.000000	93.106404
1271.000000	93.019809
1270.000000	92.920587
1269.000000	92.809269
1268.000000	92.688457
1267.000000	92.560839
1266.000000	92.427946
1265.000000	92.290942
1264.000000	92.151603
1263.000000	92.011724
1262.000000	91.872558
1261.000000	91.735776
1260.000000	91.604276
1259.000000	91.480367
1258.000000	91.364336
1257.000000	91.257684
1256.000000	91.166139
1255.000000	91.096407
1254.000000	91.049052
1253.000000	91.016294
1252.000000	90.987540
1251.000000	90.954710
1250.000000	90.913800
1249.000000	90.865070
1248.000000	90.812289
1247.000000	90.759362
1246.000000	90.706576
1245.000000	90.651723
1244.000000	90.594999
1243.000000	90.541118
1242.000000	90.496518
1241.000000	90.465756
1240.000000	90.450602
1239.000000	90.450799
1238.000000	90.465317
1237.000000	90.495325
1236.000000	90.544235
1235.000000	90.612813
1234.000000	90.696050
1233.000000	90.786798
1232.000000	90.882763
1231.000000	90.987406
1230.000000	91.106085
1229.000000	91.244056
1228.000000	91.404636
1227.000000	91.586542
1226.000000	91.782966
1225.000000	91.985004
1224.000000	92.185368
1223.000000	92.378189
1222.000000	92.558746
1221.000000	92.724847
1220.000000	92.876320
1219.000000	93.012233
1218.000000	93.131593
1217.000000	93.235763
1216.000000	93.326782
1215.000000	93.403763
1214.000000	93.463256
1213.000000	93.504688
1212.000000	93.531566
1211.000000	93.546983
1210.000000	93.551389
1209.000000	93.544470
1208.000000	93.527777
1207.000000	93.504405
1206.000000	93.477900
1205.000000	93.452052
1204.000000	93.429600
1203.000000	93.410943
1202.000000	93.395385
1201.000000	93.383856
1200.000000	93.378656
1199.000000	93.380250
1198.000000	93.386074
1197.000000	93.393082
1196.000000	93.399621
1195.000000	93.404445
1194.000000	93.406391
1193.000000	93.405929
1192.000000	93.405071
1191.000000	93.404528
1190.000000	93.402586
1189.000000	93.397195
1188.000000	93.387208
1187.000000	93.370798
1186.000000	93.344764
1185.000000	93.307504
1184.000000	93.260744
1183.000000	93.206934
1182.000000	93.146227
1181.000000	93.077087
1180.000000	92.999691
1179.000000	92.916731
1178.000000	92.831214
1177.000000	92.744963
1176.000000	92.658705
1175.000000	92.572535
1174.000000	92.486395
1173.000000	92.401319
1172.000000	92.319555
1171.000000	92.242285
1170.000000	92.168365
1169.000000	92.097408
1168.000000	92.032868
1167.000000	91.978815
1166.000000	91.935146
1165.000000	91.899252
1164.000000	91.872195
1163.000000	91.859405
1162.000000	91.864177
1161.000000	91.885627
1160.000000	91.923282
1159.000000	91.979784
1158.000000	92.058007
1157.000000	92.157557
1156.000000	92.276682
1155.000000	92.414019
1154.000000	92.567334
1153.000000	92.733491
1152.000000	92.909683
1151.000000	93.094212
1150.000000	93.285367
1149.000000	93.480719
1148.000000	93.677633
1147.000000	93.873210
1146.000000	94.064428
1145.000000	94.248955
1144.000000	94.425746
1143.000000	94.594599
1142.000000	94.755955
1141.000000	94.909949
1140.000000	95.054693
1139.000000	95.187041
1138.000000	95.305509
1137.000000	95.411789
1136.000000	95.507221
1135.000000	95.589246
1134.000000	95.654019
1133.000000	95.700649
1132.000000	95.732276
1131.000000	95.753562
1130.000000	95.768034
1129.000000	95.777052
1128.000000	95.779421
1127.000000	95.773739
1126.000000	95.761364
1125.000000	95.745508
1124.000000	95.727699
1123.000000	95.706511
1122.000000	95.680203
1121.000000	95.647813
1120.000000	95.606516
1119.000000	95.551382
1118.000000	95.479147
1117.000000	95.390856
1116.000000	95.289125
1115.000000	95.174165
1114.000000	95.045391
1113.000000	94.906755
1112.000000	94.769475
1111.000000	94.648193
1110.000000	94.553497
1109.000000	94.487642
1108.000000	94.447310
1107.000000	94.428200
1106.000000	94.425397
1105.000000	94.432265
1104.000000	94.441738
1103.000000	94.449525
1102.000000	94.453689
1101.000000	94.450111
1100.000000	94.431688
1099.000000	94.393623
1098.000000	94.339180
1097.000000	94.277794
1096.000000	94.218335
1095.000000	94.165875
1094.000000	94.122853
1093.000000	94.090558
1092.000000	94.070052
1091.000000	94.063455
1090.000000	94.074300
1089.000000	94.103788
1088.000000	94.147043
1087.000000	94.196382
1086.000000	94.248930
1085.000000	94.309559
1084.000000	94.383761
1083.000000	94.469253
1082.000000	94.556950
1081.000000	94.639080
1080.000000	94.715239
1079.000000	94.791262
1078.000000	94.873679
1077.000000	94.964167
1076.000000	95.057592
1075.000000	95.145553
1074.000000	95.222455
1073.000000	95.287296
1072.000000	95.339952
1071.000000	95.379534
1070.000000	95.406730
1069.000000	95.424087
1068.000000	95.432768
1067.000000	95.432147
1066.000000	95.424625
1065.000000	95.416764
1064.000000	95.413544
1063.000000	95.414734
1062.000000	95.418393
1061.000000	95.424499
1060.000000	95.432982
1059.000000	95.442257
1058.000000	95.452971
1057.000000	95.470224
1056.000000	95.497998
1055.000000	95.533229
1054.000000	95.568615
1053.000000	95.599601
1052.000000	95.626000
1051.000000	95.649046
1050.000000	95.670453
1049.000000	95.692518
1048.000000	95.715700
1047.000000	95.737074
1046.000000	95.753471
1045.000000	95.764079
1044.000000	95.767966
1043.000000	95.762728
1042.000000	95.748163
1041.000000	95.728131
1040.000000	95.704793
1039.000000	95.673205
1038.000000	95.626231
1037.000000	95.563380
1036.000000	95.492099
1035.000000	95.422299
1034.000000	95.362591
1033.000000	95.318653
1032.000000	95.289874
1031.000000	95.268506
1030.000000	95.247336
1029.000000	95.229434
1028.000000	95.225744
1027.000000	95.242243
1026.000000	95.273377
1025.000000	95.308955
1024.000000	95.343400
1023.000000	95.376279
1022.000000	95.408541
1021.000000	95.441622
1020.000000	95.477243
1019.000000	95.515153
1018.000000	95.552507
1017.000000	95.587874
1016.000000	95.624482
1015.000000	95.667614
1014.000000	95.720233
1013.000000	95.782112
1012.000000	95.851496
1011.000000	95.925629
1010.000000	96.000549
1009.000000	96.072608
1008.000000	96.140533
1007.000000	96.205950
1006.000000	96.271972
1005.000000	96.340233
1004.000000	96.407815
1003.000000	96.468038
1002.000000	96.516580
1001.000000	96.556371
1000.000000	96.594593
999.000000	96.634628
998.000000	96.672897
997.000000	96.703930
996.000000	96.726293
995.000000	96.743363
994.000000	96.759816
993.000000	96.778232
992.000000	96.798288
991.000000	96.817878
990.000000	96.834886
989.000000	96.848009
988.000000	96.856593
987.000000	96.860859
986.000000	96.862058
985.000000	96.860963
984.000000	96.855614
983.000000	96.842267
982.000000	96.819938
981.000000	96.792567
980.000000	96.765536
979.000000	96.740641
978.000000	96.715180
977.000000	96.685002
976.000000	96.647505
975.000000	96.603353
974.000000	96.556944
973.000000	96.514902
972.000000	96.482771
971.000000	96.462933
970.000000	96.455115
969.000000	96.457422
968.000000	96.466509
967.000000	96.478455
966.000000	96.492053
965.000000	96.510308
964.000000	96.536566
963.000000	96.570124
962.000000	96.607480
961.000000	96.647581
960.000000	96.692668
959.000000	96.743546
958.000000	96.797524
957.000000	96.852338
956.000000	96.909811
955.000000	96.973038
954.000000	97.041263
953.000000	97.109960
952.000000	97.175419
951.000000	97.237296
950.000000	97.296445
949.000000	97.352242
948.000000	97.403290
947.000000	97.450075
946.000000	97.494887
945.000000	97.538386
944.000000	97.577968
943.000000	97.610865
942.000000	97.638026
941.000000	97.662566
940.000000	97.684834
939.000000	97.702096
938.000000	97.713989
937.000000	97.726426
936.000000	97.748189
935.000000	97.783811
934.000000	97.829604
933.000000	97.875720
932.000000	97.912994
931.000000	97.939457
930.000000	97.960247
929.000000	97.980223
928.000000	97.998162
927.000000	98.011237
926.000000	98.023417
925.000000	98.043791
924.000000	98.075460
923.000000	98.110603
922.000000	98.139576
921.000000	98.161485
920.000000	98.183030
919.000000	98.209962
918.000000	98.242962
917.000000	98.279774
916.000000	98.317410
915.000000	98.352938
914.000000	98.385229
913.000000	98.415871
912.000000	98.446732
911.000000	98.477542
910.000000	98.507188
909.000000	98.535980
908.000000	98.564612
907.000000	98.592060
906.000000	98.616409
905.000000	98.636458
904.000000	98.651039
903.000000	98.658538
902.000000	98.659848
901.000000	98.661109
900.000000	98.670853
899.000000	98.692996
898.000000	98.723043
897.000000	98.750911
896.000000	98.767989
895.000000	98.773155
894.000000	98.772507
893.000000	98.772311
892.000000	98.771489
891.000000	98.760906
890.000000	98.725658
889.000000	98.643314
888.000000	98.483151
887.000000	98.217172
886.000000	97.843413
885.000000	97.397329
884.000000	96.933439
883.000000	96.490004
882.000000	96.063532
881.000000	95.615603
880.000000	95.107336
879.000000	94.534164
878.000000	93.933461
877.000000	93.367800
876.000000	92.903481
875.000000	92.597929
874.000000	92.494120
873.000000	92.614125
872.000000	92.955711
871.000000	93.484953
870.000000	94.132651
869.000000	94.809609
868.000000	95.435453
867.000000	95.964520
866.000000	96.390870
865.000000	96.732261
864.000000	97.008150
863.000000	97.231441
862.000000	97.413068
861.000000	97.565147
860.000000	97.696491
859.000000	97.809714
858.000000	97.906912
857.000000	97.992427
856.000000	98.067744
855.000000	98.129734
854.000000	98.177390
853.000000	98.213834
852.000000	98.234960
851.000000	98.225134
850.000000	98.177932
849.000000	98.119338
848.000000	98.096683
847.000000	98.137539
846.000000	98.225463
845.000000	98.320396
844.000000	98.395179
843.000000	98.447647
842.000000	98.486154
841.000000	98.515253
840.000000	98.535722
839.000000	98.549367
838.000000	98.558860
837.000000	98.564910
836.000000	98.566381
835.000000	98.563224
834.000000	98.558605
833.000000	98.558002
832.000000	98.565180
831.000000	98.578559
830.000000	98.592908
829.000000	98.606011
828.000000	98.622164
827.000000	98.646617
826.000000	98.677799
825.000000	98.707949
824.000000	98.730779
823.000000	98.745500
822.000000	98.753533
821.000000	98.755036
820.000000	98.750164
819.000000	98.741376
818.000000	98.732973
817.000000	98.728894
816.000000	98.730650
815.000000	98.735959
814.000000	98.739895
813.000000	98.739929
812.000000	98.739779
811.000000	98.745320
810.000000	98.755949
809.000000	98.763280
808.000000	98.760506
807.000000	98.749986
806.000000	98.738604
805.000000	98.728216
804.000000	98.714928
803.000000	98.697184
802.000000	98.679643
801.000000	98.667049
800.000000	98.657468
799.000000	98.644439
798.000000	98.624981
797.000000	98.603129
796.000000	98.584719
795.000000	98.569833
794.000000	98.552493
793.000000	98.528998
792.000000	98.504687
791.000000	98.488891
790.000000	98.482617
789.000000	98.475055
788.000000	98.454719
787.000000	98.421911
786.000000	98.387977
785.000000	98.364128
784.000000	98.353994
783.000000	98.355066
782.000000	98.362233
781.000000	98.368887
780.000000	98.368422
779.000000	98.357828
778.000000	98.339985
777.000000	98.321494
776.000000	98.307882
775.000000	98.299626
774.000000	98.291656
773.000000	98.277522
772.000000	98.255714
771.000000	98.231953
770.000000	98.214385
769.000000	98.206740
768.000000	98.206563
767.000000	98.208162
766.000000	98.205218
765.000000	98.192240
764.000000	98.167329
763.000000	98.134692
762.000000	98.102044
761.000000	98.073428
760.000000	98.045338
759.000000	98.011356
758.000000	97.970252
757.000000	97.927964
756.000000	97.891205
755.000000	97.861184
754.000000	97.836024
753.000000	97.817923
752.000000	97.812378
751.000000	97.818026
750.000000	97.822502
749.000000	97.814645
748.000000	97.798535
747.000000	97.788443
746.000000	97.790765
745.000000	97.797998
744.000000	97.800786
743.000000	97.797470
742.000000	97.789183
741.000000	97.773791
740.000000	97.749609
739.000000	97.718628
738.000000	97.681130
737.000000	97.633743
736.000000	97.578361
735.000000	97.526145
734.000000	97.484573
733.000000	97.446459
732.000000	97.401210
731.000000	97.352104
730.000000	97.310964
729.000000	97.277815
728.000000	97.240462
727.000000	97.195407
726.000000	97.155139
725.000000	97.130043
724.000000	97.113103
723.000000	97.087875
722.000000	97.043475
721.000000	96.976230
720.000000	96.883024
719.000000	96.758351
718.000000	96.591932
717.000000	96.363598
716.000000	96.050178
715.000000	95.656213
714.000000	95.245396
713.000000	94.929369
712.000000	94.805410
711.000000	94.889441
710.000000	95.105803
709.000000	95.342924
708.000000	95.523343
707.000000	95.632129
706.000000	95.691569
705.000000	95.722520
704.000000	95.731416
703.000000	95.719894
702.000000	95.695109
701.000000	95.669021
700.000000	95.650684
699.000000	95.641399
698.000000	95.634277
697.000000	95.620227
696.000000	95.597501
695.000000	95.573165
694.000000	95.556516
693.000000	95.551478
692.000000	95.554537
691.000000	95.559857
690.000000	95.562668
689.000000	95.560075
688.000000	95.552376
687.000000	95.543213
686.000000	95.538109
685.000000	95.539200
684.000000	95.539012
683.000000	95.523471
682.000000	95.485464
681.000000	95.436517
680.000000	95.400821
679.000000	95.394629
678.000000	95.412269
677.000000	95.432901
676.000000	95.443494
675.000000	95.447650
674.000000	95.455734
673.000000	95.472791
672.000000	95.497959
671.000000	95.531811
670.000000	95.580199
669.000000	95.647344
668.000000	95.700524
667.000000	95.713102
666.000000	95.726023
665.000000	95.741248
664.000000	95.743712
663.000000	95.740601
662.000000	95.743878
661.000000	95.755960
660.000000	95.770267
659.000000	95.781155
658.000000	95.782488
657.000000	95.765167
656.000000	95.729180
655.000000	95.685506
654.000000	95.640292
653.000000	95.589593
652.000000	95.536209
651.000000	95.493825
650.000000	95.464768
649.000000	95.429134
648.000000	95.371099
647.000000	95.299781
646.000000	95.229904
645.000000	95.158827
644.000000	95.077848
643.000000	94.992936
642.000000	94.918442
641.000000	94.856686
640.000000	94.799180
639.000000	94.743204
638.000000	94.692889
637.000000	94.651141
636.000000	94.622300
635.000000	94.614652
634.000000	94.630588
633.000000	94.660714
632.000000	94.692654
631.000000	94.716715
630.000000	94.720955
629.000000	94.697008
628.000000	94.658505
627.000000	94.638439
626.000000	94.654332
625.000000	94.686796
624.000000	94.703682
623.000000	94.692548
622.000000	94.660008
621.000000	94.614125
620.000000	94.561753
619.000000	94.512440
618.000000	94.469967
617.000000	94.426798
616.000000	94.380178
615.000000	94.344928
614.000000	94.334496
613.000000	94.338360
612.000000	94.334198
611.000000	94.318124
610.000000	94.309235
609.000000	94.325778
608.000000	94.367874
607.000000	94.422148
606.000000	94.474630
605.000000	94.522879
604.000000	94.580391
603.000000	94.666151
602.000000	94.786281
601.000000	94.927464
600.000000	95.068802
599.000000	95.194885
598.000000	95.299045
597.000000	95.382315
596.000000	95.452034
595.000000	95.516469
594.000000	95.578120
593.000000	95.635853
592.000000	95.691612
591.000000	95.747386
590.000000	95.797734
589.000000	95.835821
588.000000	95.865492
587.000000	95.895242
586.000000	95.922521
585.000000	95.938475
584.000000	95.948350
583.000000	95.967898
582.000000	95.993669
581.000000	95.998570
580.000000	95.970351
579.000000	95.937769
578.000000	95.939863
577.000000	95.981333
576.000000	96.032160
575.000000	96.060743
574.000000	96.058274
573.000000	96.037046
572.000000	96.018410
571.000000	96.019608
570.000000	96.038409
569.000000	96.053855
568.000000	96.052270
567.000000	96.043012
566.000000	96.040496
565.000000	96.042850
564.000000	96.039787
563.000000	96.030925
562.000000	96.024569
561.000000	96.025357
560.000000	96.031173
559.000000	96.034871
558.000000	96.024220
557.000000	95.993517
556.000000	95.961061
555.000000	95.958554
554.000000	95.992394
553.000000	96.033083
552.000000	96.055008
551.000000	96.067529
550.000000	96.093536
549.000000	96.134150
548.000000	96.172243
547.000000	96.195226
546.000000	96.196936
545.000000	96.172220
544.000000	96.129078
543.000000	96.094774
542.000000	96.091240
541.000000	96.111427
540.000000	96.133398
539.000000	96.147706
538.000000	96.156822
537.000000	96.159363
536.000000	96.152513
535.000000	96.142098
534.000000	96.135983
533.000000	96.133361
532.000000	96.130213
531.000000	96.126233
530.000000	96.119195
529.000000	96.104098
528.000000	96.085087
527.000000	96.076080
526.000000	96.080055
525.000000	96.083833
524.000000	96.085697
523.000000	96.101857
522.000000	96.135070
521.000000	96.164842
520.000000	96.180099
519.000000	96.198386
518.000000	96.235530
517.000000	96.279867
516.000000	96.320285
515.000000	96.367800
514.000000	96.425223
513.000000	96.467638
512.000000	96.477675
511.000000	96.473651
510.000000	96.480029
509.000000	96.492425
508.000000	96.499912
507.000000	96.518941
506.000000	96.567829
505.000000	96.628584
504.000000	96.671332
503.000000	96.696498
502.000000	96.722290
501.000000	96.745605
500.000000	96.752564
499.000000	96.754780
498.000000	96.777353
497.000000	96.820004
496.000000	96.857497
495.000000	96.873048
494.000000	96.870264
493.000000	96.858098
492.000000	96.847803
491.000000	96.861561
490.000000	96.916321
489.000000	96.999509
488.000000	97.078608
487.000000	97.126245
486.000000	97.129491
485.000000	97.096371
484.000000	97.066817
483.000000	97.091359
482.000000	97.173100
481.000000	97.256419
480.000000	97.293108
479.000000	97.292376
478.000000	97.291178
477.000000	97.302577
476.000000	97.319599
475.000000	97.347835
474.000000	97.400590
473.000000	97.472671
472.000000	97.542889
471.000000	97.595958
470.000000	97.618927
469.000000	97.599550
468.000000	97.560209
467.000000	97.559545
466.000000	97.618271
465.000000	97.684961
464.000000	97.719426
463.000000	97.757639
462.000000	97.851331
461.000000	97.990844
460.000000	98.125821
459.000000	98.261729
458.000000	98.325430
457.000000	98.407972
456.000000	98.465532
455.000000	98.538529
454.000000	98.666757
453.000000	98.784201
452.000000	98.802461
451.000000	98.741496
450.000000	98.700046
