PE IR       SUBTECH     SPECTRUM    ASCII       PEDS        4.00        
   -1
3C-YYX-C015_1.ASC
23/09/07
11:23:22.00
23/09/07
11:30:09.00
uco
Sample 015 By uco Date Thursday, September 07 2023
450.000000
#HDR
-1
-1
#GR
cm-1
%T
1.0
0.0
4000.000000
-1.000000
3551
8
98.660270
77.400321
#DATA
4000.000000	98.594398
3999.000000	98.595825
3998.000000	98.595340
3997.000000	98.593516
3996.000000	98.591401
3995.000000	98.590101
3994.000000	98.590211
3993.000000	98.591206
3992.000000	98.591580
3991.000000	98.589851
3990.000000	98.585685
3989.000000	98.580208
3988.000000	98.575410
3987.000000	98.572958
3986.000000	98.573190
3985.000000	98.575003
3984.000000	98.576804
3983.000000	98.577756
3982.000000	98.578101
3981.000000	98.578350
3980.000000	98.578236
3979.000000	98.576455
3978.000000	98.571668
3977.000000	98.564105
3976.000000	98.556291
3975.000000	98.551766
3974.000000	98.552292
3973.000000	98.556295
3972.000000	98.560363
3971.000000	98.562324
3970.000000	98.562704
3969.000000	98.563253
3968.000000	98.564619
3967.000000	98.565771
3966.000000	98.565485
3965.000000	98.563894
3964.000000	98.562365
3963.000000	98.561903
3962.000000	98.561887
3961.000000	98.560698
3960.000000	98.557519
3959.000000	98.553232
3958.000000	98.549399
3957.000000	98.546579
3956.000000	98.544115
3955.000000	98.541422
3954.000000	98.539092
3953.000000	98.538606
3952.000000	98.541028
3951.000000	98.546147
3950.000000	98.552411
3949.000000	98.557685
3948.000000	98.560418
3947.000000	98.560213
3946.000000	98.557816
3945.000000	98.554840
3944.000000	98.553339
3943.000000	98.554916
3942.000000	98.559367
3941.000000	98.564875
3940.000000	98.569304
3939.000000	98.570922
3938.000000	98.568545
3937.000000	98.561743
3936.000000	98.551798
3935.000000	98.542118
3934.000000	98.537011
3933.000000	98.539533
3932.000000	98.549056
3931.000000	98.560958
3930.000000	98.569247
3929.000000	98.570429
3928.000000	98.565740
3927.000000	98.559539
3926.000000	98.555909
3925.000000	98.555957
3924.000000	98.557762
3923.000000	98.558873
3922.000000	98.558228
3921.000000	98.555678
3920.000000	98.551261
3919.000000	98.545465
3918.000000	98.540095
3917.000000	98.537927
3916.000000	98.540613
3915.000000	98.547162
3914.000000	98.554336
3913.000000	98.558687
3912.000000	98.558253
3911.000000	98.553556
3910.000000	98.547179
3909.000000	98.541772
3908.000000	98.538382
3907.000000	98.535832
3906.000000	98.531615
3905.000000	98.524119
3904.000000	98.515024
3903.000000	98.508931
3902.000000	98.509362
3901.000000	98.515637
3900.000000	98.524784
3899.000000	98.534074
3898.000000	98.541734
3897.000000	98.546862
3896.000000	98.548986
3895.000000	98.548187
3894.000000	98.545575
3893.000000	98.543292
3892.000000	98.543594
3891.000000	98.546871
3890.000000	98.550857
3889.000000	98.552930
3888.000000	98.552575
3887.000000	98.551533
3886.000000	98.551392
3885.000000	98.551246
3884.000000	98.549807
3883.000000	98.547906
3882.000000	98.547363
3881.000000	98.548031
3880.000000	98.547340
3879.000000	98.543815
3878.000000	98.539032
3877.000000	98.535396
3876.000000	98.534635
3875.000000	98.536753
3874.000000	98.539010
3873.000000	98.538231
3872.000000	98.534539
3871.000000	98.531715
3870.000000	98.532901
3869.000000	98.536507
3868.000000	98.538710
3867.000000	98.538008
3866.000000	98.536018
3865.000000	98.535494
3864.000000	98.537414
3863.000000	98.540013
3862.000000	98.540645
3861.000000	98.538230
3860.000000	98.534548
3859.000000	98.532137
3858.000000	98.531664
3857.000000	98.531020
3856.000000	98.527443
3855.000000	98.521068
3854.000000	98.515107
3853.000000	98.513802
3852.000000	98.518875
3851.000000	98.527055
3850.000000	98.534178
3849.000000	98.538739
3848.000000	98.540689
3847.000000	98.540435
3846.000000	98.538714
3845.000000	98.536488
3844.000000	98.534358
3843.000000	98.532287
3842.000000	98.529892
3841.000000	98.527551
3840.000000	98.526890
3839.000000	98.528976
3838.000000	98.532463
3837.000000	98.535122
3836.000000	98.536928
3835.000000	98.539678
3834.000000	98.543790
3833.000000	98.547350
3832.000000	98.548179
3831.000000	98.545490
3830.000000	98.539982
3829.000000	98.533041
3828.000000	98.526429
3827.000000	98.521427
3826.000000	98.517377
3825.000000	98.512374
3824.000000	98.506264
3823.000000	98.502931
3822.000000	98.506488
3821.000000	98.514331
3820.000000	98.518985
3819.000000	98.518177
3818.000000	98.516137
3817.000000	98.517344
3816.000000	98.522476
3815.000000	98.527400
3814.000000	98.528493
3813.000000	98.526618
3812.000000	98.525172
3811.000000	98.526805
3810.000000	98.531373
3809.000000	98.536515
3808.000000	98.539584
3807.000000	98.539437
3806.000000	98.536790
3805.000000	98.533437
3804.000000	98.531771
3803.000000	98.534976
3802.000000	98.544096
3801.000000	98.554201
3800.000000	98.558495
3799.000000	98.556562
3798.000000	98.552143
3797.000000	98.548396
3796.000000	98.546260
3795.000000	98.545105
3794.000000	98.543886
3793.000000	98.542152
3792.000000	98.540822
3791.000000	98.541639
3790.000000	98.545187
3789.000000	98.549762
3788.000000	98.553046
3787.000000	98.553922
3786.000000	98.552459
3785.000000	98.549059
3784.000000	98.544580
3783.000000	98.540773
3782.000000	98.539754
3781.000000	98.542611
3780.000000	98.548134
3779.000000	98.552801
3778.000000	98.553257
3777.000000	98.549331
3776.000000	98.543848
3775.000000	98.540047
3774.000000	98.538832
3773.000000	98.538643
3772.000000	98.537873
3771.000000	98.536928
3770.000000	98.537279
3769.000000	98.538981
3768.000000	98.541065
3767.000000	98.542705
3766.000000	98.543242
3765.000000	98.542172
3764.000000	98.539848
3763.000000	98.537511
3762.000000	98.536101
3761.000000	98.535274
3760.000000	98.533900
3759.000000	98.531445
3758.000000	98.528866
3757.000000	98.527685
3756.000000	98.528904
3755.000000	98.532859
3754.000000	98.538460
3753.000000	98.542719
3752.000000	98.542558
3751.000000	98.538469
3750.000000	98.535060
3749.000000	98.535693
3748.000000	98.540158
3747.000000	98.547349
3746.000000	98.556186
3745.000000	98.564044
3744.000000	98.567662
3743.000000	98.568208
3742.000000	98.567897
3741.000000	98.565223
3740.000000	98.558910
3739.000000	98.550541
3738.000000	98.544411
3737.000000	98.546548
3736.000000	98.561787
3735.000000	98.587507
3734.000000	98.611163
3733.000000	98.621088
3732.000000	98.617136
3731.000000	98.606775
3730.000000	98.595539
3729.000000	98.584261
3728.000000	98.573223
3727.000000	98.564489
3726.000000	98.559787
3725.000000	98.558525
3724.000000	98.559592
3723.000000	98.563401
3722.000000	98.570261
3721.000000	98.579258
3720.000000	98.589074
3719.000000	98.597640
3718.000000	98.601644
3717.000000	98.598538
3716.000000	98.590016
3715.000000	98.581545
3714.000000	98.576980
3713.000000	98.574774
3712.000000	98.570760
3711.000000	98.564756
3710.000000	98.561167
3709.000000	98.562472
3708.000000	98.567383
3707.000000	98.573114
3706.000000	98.577343
3705.000000	98.580341
3704.000000	98.584612
3703.000000	98.591683
3702.000000	98.598852
3701.000000	98.601473
3700.000000	98.598819
3699.000000	98.594077
3698.000000	98.589175
3697.000000	98.583171
3696.000000	98.574639
3695.000000	98.563804
3694.000000	98.552715
3693.000000	98.544929
3692.000000	98.545081
3691.000000	98.556314
3690.000000	98.574499
3689.000000	98.586991
3688.000000	98.584093
3687.000000	98.568888
3686.000000	98.550432
3685.000000	98.534536
3684.000000	98.522821
3683.000000	98.514833
3682.000000	98.509124
3681.000000	98.503710
3680.000000	98.496738
3679.000000	98.487282
3678.000000	98.475541
3677.000000	98.464099
3676.000000	98.457875
3675.000000	98.458280
3674.000000	98.460230
3673.000000	98.460014
3672.000000	98.458837
3671.000000	98.460400
3670.000000	98.464695
3669.000000	98.465786
3668.000000	98.460809
3667.000000	98.453133
3666.000000	98.445359
3665.000000	98.437175
3664.000000	98.427978
3663.000000	98.418918
3662.000000	98.411824
3661.000000	98.407374
3660.000000	98.405245
3659.000000	98.404684
3658.000000	98.403949
3657.000000	98.400600
3656.000000	98.394411
3655.000000	98.388635
3654.000000	98.385373
3653.000000	98.382802
3652.000000	98.377563
3651.000000	98.367097
3650.000000	98.351231
3649.000000	98.334710
3648.000000	98.324219
3647.000000	98.320250
3646.000000	98.317702
3645.000000	98.312362
3644.000000	98.304085
3643.000000	98.296092
3642.000000	98.291824
3641.000000	98.291714
3640.000000	98.293335
3639.000000	98.293876
3638.000000	98.290959
3637.000000	98.283003
3636.000000	98.270429
3635.000000	98.256383
3634.000000	98.244839
3633.000000	98.237310
3632.000000	98.232027
3631.000000	98.225959
3630.000000	98.216693
3629.000000	98.204166
3628.000000	98.192178
3627.000000	98.183926
3626.000000	98.177665
3625.000000	98.170409
3624.000000	98.163298
3623.000000	98.160140
3622.000000	98.162210
3621.000000	98.165425
3620.000000	98.162537
3619.000000	98.149145
3618.000000	98.127804
3617.000000	98.104715
3616.000000	98.084511
3615.000000	98.068814
3614.000000	98.056231
3613.000000	98.043640
3612.000000	98.029724
3611.000000	98.015381
3610.000000	97.999890
3609.000000	97.982144
3608.000000	97.965932
3607.000000	97.958622
3606.000000	97.962532
3605.000000	97.971791
3604.000000	97.978854
3603.000000	97.980109
3602.000000	97.976190
3601.000000	97.969589
3600.000000	97.962350
3599.000000	97.954471
3598.000000	97.943438
3597.000000	97.926379
3596.000000	97.903641
3595.000000	97.879983
3594.000000	97.860484
3593.000000	97.846202
3592.000000	97.834808
3591.000000	97.824179
3590.000000	97.813246
3589.000000	97.801218
3588.000000	97.787499
3587.000000	97.773259
3586.000000	97.760789
3585.000000	97.751252
3584.000000	97.744565
3583.000000	97.739942
3582.000000	97.735650
3581.000000	97.729685
3580.000000	97.721349
3579.000000	97.711833
3578.000000	97.702144
3577.000000	97.691668
3576.000000	97.679093
3575.000000	97.663565
3574.000000	97.644482
3573.000000	97.621594
3572.000000	97.596749
3571.000000	97.573900
3570.000000	97.556548
3569.000000	97.545159
3568.000000	97.537111
3567.000000	97.528758
3566.000000	97.517835
3565.000000	97.504130
3564.000000	97.489329
3563.000000	97.475580
3562.000000	97.463695
3561.000000	97.452684
3560.000000	97.440817
3559.000000	97.426394
3558.000000	97.408164
3557.000000	97.386400
3556.000000	97.363975
3555.000000	97.344697
3554.000000	97.329989
3553.000000	97.317903
3552.000000	97.306173
3551.000000	97.294622
3550.000000	97.283795
3549.000000	97.273427
3548.000000	97.263367
3547.000000	97.254398
3546.000000	97.246983
3545.000000	97.240214
3544.000000	97.232704
3543.000000	97.223208
3542.000000	97.210009
3541.000000	97.192127
3540.000000	97.171785
3539.000000	97.153386
3538.000000	97.138876
3537.000000	97.125606
3536.000000	97.110037
3535.000000	97.092062
3534.000000	97.073948
3533.000000	97.057491
3532.000000	97.043876
3531.000000	97.034270
3530.000000	97.028170
3529.000000	97.022377
3528.000000	97.013848
3527.000000	97.002927
3526.000000	96.991937
3525.000000	96.981750
3524.000000	96.971466
3523.000000	96.960233
3522.000000	96.947904
3521.000000	96.934731
3520.000000	96.921576
3519.000000	96.909541
3518.000000	96.898334
3517.000000	96.885930
3516.000000	96.870755
3515.000000	96.853493
3514.000000	96.835813
3513.000000	96.818653
3512.000000	96.802621
3511.000000	96.788818
3510.000000	96.777800
3509.000000	96.768566
3508.000000	96.759862
3507.000000	96.751618
3506.000000	96.743927
3505.000000	96.735420
3504.000000	96.724154
3503.000000	96.710087
3502.000000	96.695766
3501.000000	96.684253
3500.000000	96.676446
3499.000000	96.670102
3498.000000	96.661343
3497.000000	96.648118
3496.000000	96.632211
3495.000000	96.616636
3494.000000	96.601587
3493.000000	96.585010
3492.000000	96.566934
3491.000000	96.550498
3490.000000	96.538178
3489.000000	96.529121
3488.000000	96.521005
3487.000000	96.512359
3486.000000	96.502088
3485.000000	96.488927
3484.000000	96.473149
3483.000000	96.457609
3482.000000	96.445399
3481.000000	96.436761
3480.000000	96.429362
3479.000000	96.420718
3478.000000	96.409729
3477.000000	96.397001
3476.000000	96.384784
3475.000000	96.375568
3474.000000	96.369697
3473.000000	96.364905
3472.000000	96.358353
3471.000000	96.348449
3470.000000	96.335127
3469.000000	96.319950
3468.000000	96.305842
3467.000000	96.294860
3466.000000	96.286029
3465.000000	96.276918
3464.000000	96.267186
3463.000000	96.258682
3462.000000	96.251877
3461.000000	96.244533
3460.000000	96.234532
3459.000000	96.222033
3458.000000	96.208256
3457.000000	96.194086
3456.000000	96.180624
3455.000000	96.169199
3454.000000	96.159736
3453.000000	96.150901
3452.000000	96.142442
3451.000000	96.135973
3450.000000	96.132574
3449.000000	96.130981
3448.000000	96.128637
3447.000000	96.123238
3446.000000	96.113088
3445.000000	96.097978
3444.000000	96.080535
3443.000000	96.065159
3442.000000	96.054578
3441.000000	96.048157
3440.000000	96.043796
3439.000000	96.039867
3438.000000	96.034945
3437.000000	96.027853
3436.000000	96.019153
3435.000000	96.011100
3434.000000	96.005030
3433.000000	95.999961
3432.000000	95.994118
3431.000000	95.986546
3430.000000	95.976871
3429.000000	95.965181
3428.000000	95.952672
3427.000000	95.940604
3426.000000	95.928372
3425.000000	95.914443
3424.000000	95.899505
3423.000000	95.886345
3422.000000	95.875722
3421.000000	95.864848
3420.000000	95.851348
3419.000000	95.836662
3418.000000	95.823798
3417.000000	95.813720
3416.000000	95.805434
3415.000000	95.797938
3414.000000	95.790665
3413.000000	95.783180
3412.000000	95.775519
3411.000000	95.767700
3410.000000	95.758646
3409.000000	95.747343
3408.000000	95.735560
3407.000000	95.726893
3406.000000	95.722031
3405.000000	95.717112
3404.000000	95.708252
3403.000000	95.695970
3402.000000	95.683486
3401.000000	95.672479
3400.000000	95.661996
3399.000000	95.650173
3398.000000	95.635584
3397.000000	95.618125
3396.000000	95.599896
3395.000000	95.584177
3394.000000	95.572492
3393.000000	95.563589
3392.000000	95.555775
3391.000000	95.548690
3390.000000	95.542122
3389.000000	95.534961
3388.000000	95.526545
3387.000000	95.517530
3386.000000	95.508151
3385.000000	95.496860
3384.000000	95.482159
3383.000000	95.464931
3382.000000	95.447976
3381.000000	95.434036
3380.000000	95.424556
3379.000000	95.418915
3378.000000	95.414111
3377.000000	95.406497
3376.000000	95.394644
3375.000000	95.379777
3374.000000	95.363532
3373.000000	95.346778
3372.000000	95.330608
3371.000000	95.316401
3370.000000	95.304065
3369.000000	95.291748
3368.000000	95.277837
3367.000000	95.261834
3366.000000	95.243217
3365.000000	95.221849
3364.000000	95.200156
3363.000000	95.182406
3362.000000	95.170326
3361.000000	95.160907
3360.000000	95.149515
3359.000000	95.133812
3358.000000	95.114151
3357.000000	95.092040
3356.000000	95.069387
3355.000000	95.047719
3354.000000	95.027002
3353.000000	95.006250
3352.000000	94.985726
3351.000000	94.966912
3350.000000	94.949948
3349.000000	94.933039
3348.000000	94.914947
3347.000000	94.896192
3346.000000	94.877058
3345.000000	94.856449
3344.000000	94.833958
3343.000000	94.811516
3342.000000	94.791684
3341.000000	94.775411
3340.000000	94.762050
3339.000000	94.750076
3338.000000	94.737170
3337.000000	94.721303
3336.000000	94.702602
3335.000000	94.682961
3334.000000	94.663462
3333.000000	94.643710
3332.000000	94.623960
3331.000000	94.605689
3330.000000	94.589428
3329.000000	94.573946
3328.000000	94.558266
3327.000000	94.542703
3326.000000	94.527291
3325.000000	94.511059
3324.000000	94.493579
3323.000000	94.475517
3322.000000	94.457085
3321.000000	94.438100
3320.000000	94.419905
3319.000000	94.404687
3318.000000	94.391943
3317.000000	94.378037
3316.000000	94.360705
3315.000000	94.341986
3314.000000	94.325196
3313.000000	94.310919
3312.000000	94.297447
3311.000000	94.283414
3310.000000	94.268536
3309.000000	94.253113
3308.000000	94.238145
3307.000000	94.224669
3306.000000	94.211869
3305.000000	94.197162
3304.000000	94.179060
3303.000000	94.158855
3302.000000	94.139067
3301.000000	94.121750
3300.000000	94.108731
3299.000000	94.101164
3298.000000	94.097498
3297.000000	94.093703
3296.000000	94.086760
3295.000000	94.076837
3294.000000	94.065450
3293.000000	94.053469
3292.000000	94.041814
3291.000000	94.032028
3290.000000	94.024852
3289.000000	94.019597
3288.000000	94.015830
3287.000000	94.014159
3286.000000	94.014597
3285.000000	94.015908
3284.000000	94.016998
3283.000000	94.017222
3282.000000	94.015223
3281.000000	94.010230
3280.000000	94.005521
3279.000000	94.007197
3278.000000	94.017658
3277.000000	94.032449
3276.000000	94.045608
3275.000000	94.056316
3274.000000	94.067743
3273.000000	94.081534
3272.000000	94.096013
3271.000000	94.108807
3270.000000	94.119027
3269.000000	94.127432
3268.000000	94.136206
3267.000000	94.147750
3266.000000	94.162101
3265.000000	94.176243
3264.000000	94.187489
3263.000000	94.196783
3262.000000	94.207505
3261.000000	94.221768
3260.000000	94.238962
3259.000000	94.257177
3258.000000	94.275027
3257.000000	94.292793
3256.000000	94.312550
3255.000000	94.336238
3254.000000	94.362763
3253.000000	94.388032
3252.000000	94.408524
3251.000000	94.424104
3250.000000	94.437144
3249.000000	94.450348
3248.000000	94.465774
3247.000000	94.483812
3246.000000	94.501955
3245.000000	94.516260
3244.000000	94.525571
3243.000000	94.533147
3242.000000	94.543029
3241.000000	94.556015
3240.000000	94.570269
3239.000000	94.584527
3238.000000	94.599301
3237.000000	94.615651
3236.000000	94.633800
3235.000000	94.652592
3234.000000	94.669856
3233.000000	94.684001
3232.000000	94.695372
3231.000000	94.705246
3230.000000	94.713627
3229.000000	94.719581
3228.000000	94.723811
3227.000000	94.728987
3226.000000	94.736879
3225.000000	94.746855
3224.000000	94.757649
3223.000000	94.768995
3222.000000	94.781038
3221.000000	94.793844
3220.000000	94.808071
3219.000000	94.824090
3218.000000	94.839724
3217.000000	94.851060
3216.000000	94.856656
3215.000000	94.859459
3214.000000	94.863341
3213.000000	94.869269
3212.000000	94.875868
3211.000000	94.882064
3210.000000	94.887904
3209.000000	94.893931
3208.000000	94.901148
3207.000000	94.910500
3206.000000	94.921528
3205.000000	94.932516
3204.000000	94.942644
3203.000000	94.952848
3202.000000	94.964004
3201.000000	94.975613
3200.000000	94.986921
3199.000000	94.997947
3198.000000	95.008747
3197.000000	95.019118
3196.000000	95.029678
3195.000000	95.041711
3194.000000	95.055298
3193.000000	95.069146
3192.000000	95.082878
3191.000000	95.097863
3190.000000	95.114897
3189.000000	95.132770
3188.000000	95.149964
3187.000000	95.166221
3186.000000	95.181660
3185.000000	95.196013
3184.000000	95.209832
3183.000000	95.224791
3182.000000	95.241602
3181.000000	95.258728
3180.000000	95.274078
3179.000000	95.286788
3178.000000	95.297116
3177.000000	95.306260
3176.000000	95.316825
3175.000000	95.331279
3174.000000	95.348789
3173.000000	95.365471
3172.000000	95.378913
3171.000000	95.390850
3170.000000	95.404110
3169.000000	95.419002
3168.000000	95.434180
3167.000000	95.449244
3166.000000	95.464368
3165.000000	95.478666
3164.000000	95.491134
3163.000000	95.502639
3162.000000	95.515423
3161.000000	95.531016
3160.000000	95.549544
3159.000000	95.570041
3158.000000	95.590171
3157.000000	95.606646
3156.000000	95.617617
3155.000000	95.624647
3154.000000	95.631557
3153.000000	95.641675
3152.000000	95.656190
3151.000000	95.673863
3150.000000	95.691552
3149.000000	95.706404
3148.000000	95.718523
3147.000000	95.730593
3146.000000	95.744146
3145.000000	95.757621
3144.000000	95.769040
3143.000000	95.779169
3142.000000	95.790532
3141.000000	95.804166
3140.000000	95.818603
3139.000000	95.831505
3138.000000	95.841343
3137.000000	95.848257
3136.000000	95.853733
3135.000000	95.858901
3134.000000	95.863026
3133.000000	95.865120
3132.000000	95.867124
3131.000000	95.873196
3130.000000	95.884801
3129.000000	95.898417
3128.000000	95.909421
3127.000000	95.916672
3126.000000	95.922039
3125.000000	95.927091
3124.000000	95.932380
3123.000000	95.938699
3122.000000	95.946682
3121.000000	95.955291
3120.000000	95.962406
3119.000000	95.966856
3118.000000	95.968778
3117.000000	95.968541
3116.000000	95.966633
3115.000000	95.964217
3114.000000	95.962592
3113.000000	95.962139
3112.000000	95.962659
3111.000000	95.964413
3110.000000	95.967872
3109.000000	95.972409
3108.000000	95.975667
3107.000000	95.974455
3106.000000	95.966688
3105.000000	95.953647
3104.000000	95.940475
3103.000000	95.932763
3102.000000	95.931378
3101.000000	95.931527
3100.000000	95.928329
3099.000000	95.922542
3098.000000	95.919366
3097.000000	95.921942
3096.000000	95.927508
3095.000000	95.930026
3094.000000	95.925724
3093.000000	95.915762
3092.000000	95.904224
3091.000000	95.894366
3090.000000	95.886778
3089.000000	95.880609
3088.000000	95.875400
3087.000000	95.871151
3086.000000	95.867309
3085.000000	95.863006
3084.000000	95.858351
3083.000000	95.854375
3082.000000	95.851580
3081.000000	95.849448
3080.000000	95.847428
3079.000000	95.845306
3078.000000	95.842485
3077.000000	95.838113
3076.000000	95.832354
3075.000000	95.826701
3074.000000	95.822625
3073.000000	95.820575
3072.000000	95.820284
3071.000000	95.821265
3070.000000	95.823050
3069.000000	95.825731
3068.000000	95.830064
3067.000000	95.836066
3066.000000	95.841920
3065.000000	95.845664
3064.000000	95.847628
3063.000000	95.849716
3062.000000	95.852797
3061.000000	95.856668
3060.000000	95.862120
3059.000000	95.870448
3058.000000	95.880635
3057.000000	95.889665
3056.000000	95.896550
3055.000000	95.903911
3054.000000	95.914244
3053.000000	95.926483
3052.000000	95.937487
3051.000000	95.945412
3050.000000	95.950636
3049.000000	95.954962
3048.000000	95.960949
3047.000000	95.970501
3046.000000	95.982925
3045.000000	95.995532
3044.000000	96.007039
3043.000000	96.018777
3042.000000	96.031635
3041.000000	96.043585
3040.000000	96.052108
3039.000000	96.057903
3038.000000	96.064392
3037.000000	96.074050
3036.000000	96.086614
3035.000000	96.100290
3034.000000	96.113257
3033.000000	96.124249
3032.000000	96.132821
3031.000000	96.139266
3030.000000	96.143975
3029.000000	96.147449
3028.000000	96.151180
3027.000000	96.157412
3026.000000	96.166985
3025.000000	96.177857
3024.000000	96.186481
3023.000000	96.190665
3022.000000	96.191141
3021.000000	96.191120
3020.000000	96.194316
3019.000000	96.201999
3018.000000	96.211301
3017.000000	96.217111
3016.000000	96.216253
3015.000000	96.209334
3014.000000	96.198730
3013.000000	96.186213
3012.000000	96.172793
3011.000000	96.159024
3010.000000	96.144440
3009.000000	96.127738
3008.000000	96.108640
3007.000000	96.088937
3006.000000	96.071078
3005.000000	96.056137
3004.000000	96.043146
3003.000000	96.029600
3002.000000	96.012596
3001.000000	95.990707
3000.000000	95.965035
2999.000000	95.937432
2998.000000	95.907648
2997.000000	95.873623
2996.000000	95.834610
2995.000000	95.792252
2994.000000	95.747829
2993.000000	95.700396
2992.000000	95.648661
2991.000000	95.592974
2990.000000	95.534193
2989.000000	95.471731
2988.000000	95.404389
2987.000000	95.332378
2986.000000	95.257171
2985.000000	95.179803
2984.000000	95.099938
2983.000000	95.016157
2982.000000	94.926528
2981.000000	94.829356
2980.000000	94.724312
2979.000000	94.612467
2978.000000	94.495104
2977.000000	94.372980
2976.000000	94.246426
2975.000000	94.115205
2974.000000	93.977774
2973.000000	93.831967
2972.000000	93.677143
2971.000000	93.514962
2970.000000	93.348016
2969.000000	93.178335
2968.000000	93.007586
2967.000000	92.837702
2966.000000	92.671001
2965.000000	92.510565
2964.000000	92.360455
2963.000000	92.225112
2962.000000	92.108003
2961.000000	92.011784
2960.000000	91.939164
2959.000000	91.892282
2958.000000	91.871620
2957.000000	91.876194
2956.000000	91.905207
2955.000000	91.957155
2954.000000	92.027133
2953.000000	92.106473
2952.000000	92.185800
2951.000000	92.258260
2950.000000	92.318622
2949.000000	92.361247
2948.000000	92.379751
2947.000000	92.369189
2946.000000	92.328344
2945.000000	92.260043
2944.000000	92.169288
2943.000000	92.059352
2942.000000	91.930068
2941.000000	91.780018
2940.000000	91.610658
2939.000000	91.427079
2938.000000	91.234973
2937.000000	91.038756
2936.000000	90.842250
2935.000000	90.649934
2934.000000	90.466390
2933.000000	90.295726
2932.000000	90.141662
2931.000000	90.006629
2930.000000	89.890278
2929.000000	89.789957
2928.000000	89.704397
2927.000000	89.636481
2926.000000	89.591563
2925.000000	89.573129
2924.000000	89.580002
2923.000000	89.607926
2922.000000	89.653329
2921.000000	89.715982
2920.000000	89.798327
2919.000000	89.902319
2918.000000	90.027854
2917.000000	90.174078
2916.000000	90.341012
2915.000000	90.528004
2914.000000	90.730288
2913.000000	90.938638
2912.000000	91.143116
2911.000000	91.337486
2910.000000	91.520344
2909.000000	91.693277
2908.000000	91.858355
2907.000000	92.016292
2906.000000	92.166669
2905.000000	92.310088
2904.000000	92.449943
2903.000000	92.590770
2902.000000	92.734736
2901.000000	92.880819
2900.000000	93.026887
2899.000000	93.171772
2898.000000	93.314307
2897.000000	93.452101
2896.000000	93.582600
2895.000000	93.704781
2894.000000	93.819149
2893.000000	93.926496
2892.000000	94.027044
2891.000000	94.120275
2890.000000	94.204907
2889.000000	94.279305
2888.000000	94.342130
2887.000000	94.392220
2886.000000	94.428164
2885.000000	94.448613
2884.000000	94.453081
2883.000000	94.441768
2882.000000	94.414694
2881.000000	94.371888
2880.000000	94.314078
2879.000000	94.242468
2878.000000	94.158276
2877.000000	94.064176
2876.000000	93.966203
2875.000000	93.872924
2874.000000	93.792655
2873.000000	93.731531
2872.000000	93.693102
2871.000000	93.676877
2870.000000	93.676339
2869.000000	93.679993
2868.000000	93.675935
2867.000000	93.656011
2866.000000	93.617043
2865.000000	93.560338
2864.000000	93.489862
2863.000000	93.409072
2862.000000	93.318555
2861.000000	93.218229
2860.000000	93.111850
2859.000000	93.007587
2858.000000	92.913542
2857.000000	92.834671
2856.000000	92.774644
2855.000000	92.737919
2854.000000	92.729008
2853.000000	92.751292
2852.000000	92.808741
2851.000000	92.907958
2850.000000	93.055804
2849.000000	93.253846
2848.000000	93.494535
2847.000000	93.761911
2846.000000	94.036025
2845.000000	94.299434
2844.000000	94.541463
2843.000000	94.758175
2842.000000	94.948985
2841.000000	95.114317
2840.000000	95.256650
2839.000000	95.380823
2838.000000	95.491418
2837.000000	95.590234
2836.000000	95.676903
2835.000000	95.751074
2834.000000	95.813472
2833.000000	95.865917
2832.000000	95.911436
2831.000000	95.953462
2830.000000	95.993938
2829.000000	96.032733
2828.000000	96.068972
2827.000000	96.101946
2826.000000	96.130784
2825.000000	96.154891
2824.000000	96.175586
2823.000000	96.195735
2822.000000	96.216938
2821.000000	96.238339
2820.000000	96.258902
2819.000000	96.279301
2818.000000	96.300438
2817.000000	96.321565
2816.000000	96.341253
2815.000000	96.359253
2814.000000	96.376363
2813.000000	96.393402
2812.000000	96.411255
2811.000000	96.430825
2810.000000	96.451964
2809.000000	96.473552
2808.000000	96.495531
2807.000000	96.519320
2806.000000	96.544885
2805.000000	96.568893
2804.000000	96.587621
2803.000000	96.600875
2802.000000	96.611392
2801.000000	96.621353
2800.000000	96.631293
2799.000000	96.641711
2798.000000	96.653477
2797.000000	96.666446
2796.000000	96.679287
2795.000000	96.691108
2794.000000	96.702221
2793.000000	96.713187
2792.000000	96.724107
2791.000000	96.735136
2790.000000	96.746976
2789.000000	96.760434
2788.000000	96.775505
2787.000000	96.790765
2786.000000	96.803877
2785.000000	96.813496
2784.000000	96.820910
2783.000000	96.828858
2782.000000	96.838335
2781.000000	96.847517
2780.000000	96.854463
2779.000000	96.859741
2778.000000	96.865467
2777.000000	96.872656
2776.000000	96.880617
2775.000000	96.888275
2774.000000	96.895015
2773.000000	96.900751
2772.000000	96.906168
2771.000000	96.912514
2770.000000	96.920245
2769.000000	96.928192
2768.000000	96.934808
2767.000000	96.939923
2766.000000	96.944778
2765.000000	96.950687
2764.000000	96.958022
2763.000000	96.965895
2762.000000	96.972435
2761.000000	96.976285
2760.000000	96.978424
2759.000000	96.981610
2758.000000	96.987231
2757.000000	96.993585
2756.000000	96.998150
2755.000000	97.000713
2754.000000	97.003129
2753.000000	97.006718
2752.000000	97.011174
2751.000000	97.015676
2750.000000	97.019668
2749.000000	97.022557
2748.000000	97.023738
2747.000000	97.023353
2746.000000	97.022598
2745.000000	97.023293
2744.000000	97.027256
2743.000000	97.035408
2742.000000	97.046662
2741.000000	97.057908
2740.000000	97.065846
2739.000000	97.069005
2738.000000	97.068010
2737.000000	97.064621
2736.000000	97.061109
2735.000000	97.059980
2734.000000	97.063183
2733.000000	97.071156
2732.000000	97.082682
2731.000000	97.095386
2730.000000	97.106416
2729.000000	97.113728
2728.000000	97.117624
2727.000000	97.120637
2726.000000	97.125085
2725.000000	97.130923
2724.000000	97.136559
2723.000000	97.141281
2722.000000	97.145847
2721.000000	97.150813
2720.000000	97.155476
2719.000000	97.158971
2718.000000	97.161823
2717.000000	97.165701
2716.000000	97.171524
2715.000000	97.178064
2714.000000	97.182749
2713.000000	97.184033
2712.000000	97.183070
2711.000000	97.183024
2710.000000	97.186718
2709.000000	97.194624
2708.000000	97.204537
2707.000000	97.213046
2706.000000	97.217943
2705.000000	97.219748
2704.000000	97.220545
2703.000000	97.221244
2702.000000	97.220908
2701.000000	97.219212
2700.000000	97.218151
2699.000000	97.219813
2698.000000	97.223391
2697.000000	97.226305
2696.000000	97.227949
2695.000000	97.230267
2694.000000	97.234401
2693.000000	97.238754
2692.000000	97.241109
2691.000000	97.241134
2690.000000	97.239962
2689.000000	97.238679
2688.000000	97.238276
2687.000000	97.239969
2686.000000	97.244206
2685.000000	97.249636
2684.000000	97.253812
2683.000000	97.254897
2682.000000	97.252755
2681.000000	97.249184
2680.000000	97.247257
2679.000000	97.249380
2678.000000	97.255263
2677.000000	97.262180
2676.000000	97.267369
2675.000000	97.269697
2674.000000	97.269372
2673.000000	97.267499
2672.000000	97.266134
2671.000000	97.267123
2670.000000	97.270000
2669.000000	97.272041
2668.000000	97.271253
2667.000000	97.268464
2666.000000	97.265821
2665.000000	97.264282
2664.000000	97.263525
2663.000000	97.263451
2662.000000	97.264510
2661.000000	97.266798
2660.000000	97.269671
2659.000000	97.272237
2658.000000	97.273948
2657.000000	97.275063
2656.000000	97.276913
2655.000000	97.281229
2654.000000	97.288688
2653.000000	97.298333
2652.000000	97.308344
2651.000000	97.316926
2650.000000	97.322775
2649.000000	97.326029
2648.000000	97.329226
2647.000000	97.335930
2646.000000	97.347232
2645.000000	97.360020
2644.000000	97.369495
2643.000000	97.373235
2642.000000	97.372768
2641.000000	97.372022
2640.000000	97.374694
2639.000000	97.382124
2638.000000	97.392618
2637.000000	97.402801
2636.000000	97.410163
2635.000000	97.414555
2634.000000	97.417753
2633.000000	97.422009
2632.000000	97.428439
2631.000000	97.435709
2630.000000	97.440685
2629.000000	97.441786
2628.000000	97.441654
2627.000000	97.445076
2626.000000	97.453894
2625.000000	97.465051
2624.000000	97.473669
2623.000000	97.476738
2622.000000	97.473987
2621.000000	97.467285
2620.000000	97.460156
2619.000000	97.456505
2618.000000	97.458683
2617.000000	97.466836
2616.000000	97.479566
2615.000000	97.493974
2614.000000	97.505982
2613.000000	97.513091
2612.000000	97.517037
2611.000000	97.521265
2610.000000	97.525458
2609.000000	97.525428
2608.000000	97.519398
2607.000000	97.511682
2606.000000	97.508125
2605.000000	97.509885
2604.000000	97.513663
2603.000000	97.516357
2602.000000	97.517496
2601.000000	97.518174
2600.000000	97.519764
2599.000000	97.523167
2598.000000	97.527932
2597.000000	97.532581
2596.000000	97.536854
2595.000000	97.542769
2594.000000	97.552090
2593.000000	97.563283
2592.000000	97.572416
2591.000000	97.577134
2590.000000	97.578847
2589.000000	97.580931
2588.000000	97.585117
2587.000000	97.589726
2586.000000	97.591637
2585.000000	97.589845
2584.000000	97.586393
2583.000000	97.583219
2582.000000	97.579447
2581.000000	97.573542
2580.000000	97.567223
2579.000000	97.564976
2578.000000	97.569316
2577.000000	97.578098
2576.000000	97.586405
2575.000000	97.589872
2574.000000	97.586882
2573.000000	97.579747
2572.000000	97.573847
2571.000000	97.573652
2570.000000	97.579474
2569.000000	97.589094
2568.000000	97.600987
2567.000000	97.613361
2566.000000	97.621724
2565.000000	97.621954
2564.000000	97.616517
2563.000000	97.613714
2562.000000	97.619260
2561.000000	97.631031
2560.000000	97.642737
2559.000000	97.649892
2558.000000	97.651139
2557.000000	97.647047
2556.000000	97.639989
2555.000000	97.633569
2554.000000	97.630503
2553.000000	97.631730
2552.000000	97.637274
2551.000000	97.645849
2550.000000	97.653696
2549.000000	97.656520
2548.000000	97.653273
2547.000000	97.646113
2546.000000	97.637112
2545.000000	97.628012
2544.000000	97.622461
2543.000000	97.623825
2542.000000	97.629682
2541.000000	97.632705
2540.000000	97.629002
2539.000000	97.622156
2538.000000	97.617441
2537.000000	97.615486
2536.000000	97.613660
2535.000000	97.610211
2534.000000	97.604358
2533.000000	97.595302
2532.000000	97.583876
2531.000000	97.572973
2530.000000	97.563768
2529.000000	97.553602
2528.000000	97.540066
2527.000000	97.525354
2526.000000	97.514120
2525.000000	97.508156
2524.000000	97.505113
2523.000000	97.501180
2522.000000	97.493973
2521.000000	97.484529
2520.000000	97.477756
2519.000000	97.478773
2518.000000	97.486973
2517.000000	97.495244
2516.000000	97.496989
2515.000000	97.492349
2514.000000	97.486357
2513.000000	97.482985
2512.000000	97.482858
2511.000000	97.485138
2510.000000	97.489153
2509.000000	97.494834
2508.000000	97.502825
2507.000000	97.513561
2506.000000	97.525802
2505.000000	97.537508
2504.000000	97.549051
2503.000000	97.563733
2502.000000	97.583791
2501.000000	97.607266
2500.000000	97.629820
2499.000000	97.648490
2498.000000	97.662976
2497.000000	97.674986
2496.000000	97.686940
2495.000000	97.699797
2494.000000	97.711314
2493.000000	97.718391
2492.000000	97.721927
2491.000000	97.727001
2490.000000	97.737203
2489.000000	97.750731
2488.000000	97.763596
2487.000000	97.774588
2486.000000	97.785235
2485.000000	97.796530
2484.000000	97.807601
2483.000000	97.816818
2482.000000	97.822875
2481.000000	97.825472
2480.000000	97.825946
2479.000000	97.826285
2478.000000	97.826756
2477.000000	97.825688
2476.000000	97.822331
2475.000000	97.819014
2474.000000	97.819574
2473.000000	97.826057
2472.000000	97.837062
2471.000000	97.848550
2470.000000	97.856442
2469.000000	97.859435
2468.000000	97.859202
2467.000000	97.857484
2466.000000	97.854343
2465.000000	97.850566
2464.000000	97.849735
2463.000000	97.854685
2462.000000	97.862967
2461.000000	97.869148
2460.000000	97.871521
2459.000000	97.873045
2458.000000	97.875542
2457.000000	97.876870
2456.000000	97.874951
2455.000000	97.871324
2454.000000	97.868915
2453.000000	97.868886
2452.000000	97.871231
2451.000000	97.876235
2450.000000	97.883613
2449.000000	97.891664
2448.000000	97.898561
2447.000000	97.903310
2446.000000	97.905169
2445.000000	97.903980
2444.000000	97.901482
2443.000000	97.900093
2442.000000	97.899717
2441.000000	97.897716
2440.000000	97.892840
2439.000000	97.887352
2438.000000	97.884754
2437.000000	97.886961
2436.000000	97.893693
2435.000000	97.902397
2434.000000	97.908511
2433.000000	97.908351
2432.000000	97.902855
2431.000000	97.896980
2430.000000	97.894838
2429.000000	97.896533
2428.000000	97.899282
2427.000000	97.900119
2426.000000	97.898154
2425.000000	97.896065
2424.000000	97.898330
2423.000000	97.905652
2422.000000	97.912235
2421.000000	97.911708
2420.000000	97.904833
2419.000000	97.898142
2418.000000	97.896003
2417.000000	97.897748
2416.000000	97.901685
2415.000000	97.906823
2414.000000	97.910351
2413.000000	97.908679
2412.000000	97.903149
2411.000000	97.900572
2410.000000	97.905656
2409.000000	97.915598
2408.000000	97.924088
2407.000000	97.928054
2406.000000	97.928536
2405.000000	97.927297
2404.000000	97.925262
2403.000000	97.923425
2402.000000	97.923548
2401.000000	97.927506
2400.000000	97.935389
2399.000000	97.943600
2398.000000	97.946380
2397.000000	97.941346
2396.000000	97.932701
2395.000000	97.926965
2394.000000	97.926543
2393.000000	97.929762
2392.000000	97.934904
2391.000000	97.940790
2390.000000	97.944649
2389.000000	97.944141
2388.000000	97.942159
2387.000000	97.944844
2386.000000	97.955304
2385.000000	97.971486
2384.000000	97.989988
2383.000000	98.009588
2382.000000	98.029286
2381.000000	98.048235
2380.000000	98.065685
2379.000000	98.077909
2378.000000	98.077393
2377.000000	98.060320
2376.000000	98.035103
2375.000000	98.016115
2374.000000	98.009421
2373.000000	98.010266
2372.000000	98.015303
2371.000000	98.027624
2370.000000	98.047822
2369.000000	98.069079
2368.000000	98.081191
2367.000000	98.078037
2366.000000	98.060309
2365.000000	98.036983
2364.000000	98.022037
2363.000000	98.019081
2362.000000	98.017170
2361.000000	98.007605
2360.000000	97.993595
2359.000000	97.987856
2358.000000	97.999841
2357.000000	98.024036
2356.000000	98.045345
2355.000000	98.043913
2354.000000	98.025858
2353.000000	98.013375
2352.000000	98.019250
2351.000000	98.033618
2350.000000	98.038942
2349.000000	98.026995
2348.000000	98.001926
2347.000000	97.980708
2346.000000	97.977191
2345.000000	97.984164
2344.000000	97.988967
2343.000000	97.988351
2342.000000	97.991451
2341.000000	98.000311
2340.000000	98.005040
2339.000000	97.996655
2338.000000	97.977929
2337.000000	97.960579
2336.000000	97.950287
2335.000000	97.949985
2334.000000	97.960501
2333.000000	97.982043
2332.000000	97.999762
2331.000000	98.004551
2330.000000	97.994009
2329.000000	97.981645
2328.000000	97.967037
2327.000000	97.948364
2326.000000	97.924056
2325.000000	97.901323
2324.000000	97.886671
2323.000000	97.882017
2322.000000	97.882261
2321.000000	97.880401
2320.000000	97.871249
2319.000000	97.861769
2318.000000	97.857923
2317.000000	97.864392
2316.000000	97.875004
2315.000000	97.889059
2314.000000	97.903977
2313.000000	97.921892
2312.000000	97.940105
2311.000000	97.960451
2310.000000	97.980117
2309.000000	97.996161
2308.000000	98.004098
2307.000000	98.007659
2306.000000	98.010998
2305.000000	98.014614
2304.000000	98.013569
2303.000000	98.007511
2302.000000	97.998938
2301.000000	97.991371
2300.000000	97.983674
2299.000000	97.977733
2298.000000	97.974418
2297.000000	97.974771
2296.000000	97.974418
2295.000000	97.971438
2294.000000	97.965749
2293.000000	97.960502
2292.000000	97.958201
2291.000000	97.961153
2290.000000	97.968722
2289.000000	97.975440
2288.000000	97.974127
2287.000000	97.962668
2286.000000	97.948350
2285.000000	97.942125
2284.000000	97.950690
2283.000000	97.970382
2282.000000	97.991311
2281.000000	98.005159
2280.000000	98.011307
2279.000000	98.013006
2278.000000	98.010776
2277.000000	98.002750
2276.000000	97.990339
2275.000000	97.979756
2274.000000	97.975857
2273.000000	97.979583
2272.000000	97.990741
2271.000000	98.010235
2270.000000	98.036453
2269.000000	98.063782
2268.000000	98.086266
2267.000000	98.100396
2266.000000	98.103200
2265.000000	98.093008
2264.000000	98.073854
2263.000000	98.054860
2262.000000	98.042523
2261.000000	98.036490
2260.000000	98.034348
2259.000000	98.035010
2258.000000	98.037360
2257.000000	98.040341
2256.000000	98.047353
2255.000000	98.064022
2254.000000	98.088254
2253.000000	98.108884
2252.000000	98.117466
2251.000000	98.116907
2250.000000	98.114071
2249.000000	98.111303
2248.000000	98.108216
2247.000000	98.106905
2246.000000	98.108952
2245.000000	98.112715
2244.000000	98.117512
2243.000000	98.125925
2242.000000	98.137449
2241.000000	98.144881
2240.000000	98.142150
2239.000000	98.132077
2238.000000	98.122604
2237.000000	98.119626
2236.000000	98.126598
2235.000000	98.145297
2234.000000	98.172023
2233.000000	98.196709
2232.000000	98.209638
2231.000000	98.206157
2230.000000	98.184777
2229.000000	98.149171
2228.000000	98.115061
2227.000000	98.105131
2226.000000	98.129306
2225.000000	98.174043
2224.000000	98.215859
2223.000000	98.240920
2222.000000	98.248495
2221.000000	98.243429
2220.000000	98.232727
2219.000000	98.224694
2218.000000	98.225225
2217.000000	98.236346
2216.000000	98.258562
2215.000000	98.288228
2214.000000	98.312220
2213.000000	98.315123
2212.000000	98.297107
2211.000000	98.276952
2210.000000	98.272194
2209.000000	98.282869
2208.000000	98.297629
2207.000000	98.307360
2206.000000	98.308300
2205.000000	98.299599
2204.000000	98.284246
2203.000000	98.267363
2202.000000	98.251319
2201.000000	98.238091
2200.000000	98.235595
2199.000000	98.250786
2198.000000	98.275354
2197.000000	98.290041
2196.000000	98.287794
2195.000000	98.281865
2194.000000	98.287024
2193.000000	98.302992
2192.000000	98.318941
2191.000000	98.323686
2190.000000	98.309674
2189.000000	98.282416
2188.000000	98.268388
2187.000000	98.294453
2186.000000	98.352193
2185.000000	98.401099
2184.000000	98.417689
2183.000000	98.423064
2182.000000	98.445314
2181.000000	98.473838
2180.000000	98.473589
2179.000000	98.432545
2178.000000	98.374075
2177.000000	98.330963
2176.000000	98.323910
2175.000000	98.355542
2174.000000	98.406873
2173.000000	98.442584
2172.000000	98.436974
2171.000000	98.398479
2170.000000	98.361082
2169.000000	98.352137
2168.000000	98.370227
2167.000000	98.391658
2166.000000	98.395277
2165.000000	98.382993
2164.000000	98.376727
2163.000000	98.389975
2162.000000	98.408292
2161.000000	98.411039
2160.000000	98.408474
2159.000000	98.434077
2158.000000	98.492195
2157.000000	98.545488
2156.000000	98.567352
2155.000000	98.571950
2154.000000	98.582714
2153.000000	98.599671
2152.000000	98.606855
2151.000000	98.593409
2150.000000	98.559300
2149.000000	98.512790
2148.000000	98.469944
2147.000000	98.445893
2146.000000	98.440132
2145.000000	98.437317
2144.000000	98.425431
2143.000000	98.405241
2142.000000	98.381705
2141.000000	98.357619
2140.000000	98.337706
2139.000000	98.328136
2138.000000	98.328875
2137.000000	98.335178
2136.000000	98.347026
2135.000000	98.366920
2134.000000	98.387402
2133.000000	98.393630
2132.000000	98.381159
2131.000000	98.359886
2130.000000	98.338113
2129.000000	98.314522
2128.000000	98.288367
2127.000000	98.266394
2126.000000	98.254258
2125.000000	98.248114
2124.000000	98.239268
2123.000000	98.222117
2122.000000	98.195998
2121.000000	98.166032
2120.000000	98.143520
2119.000000	98.137455
2118.000000	98.143009
2117.000000	98.145378
2116.000000	98.137095
2115.000000	98.123896
2114.000000	98.111672
2113.000000	98.098262
2112.000000	98.082695
2111.000000	98.072566
2110.000000	98.074102
2109.000000	98.081692
2108.000000	98.084373
2107.000000	98.078497
2106.000000	98.068904
2105.000000	98.062851
2104.000000	98.067098
2103.000000	98.084849
2102.000000	98.110211
2101.000000	98.130735
2100.000000	98.139484
2099.000000	98.140557
2098.000000	98.141677
2097.000000	98.147463
2096.000000	98.161156
2095.000000	98.181878
2094.000000	98.198053
2093.000000	98.195061
2092.000000	98.174224
2091.000000	98.153517
2090.000000	98.145692
2089.000000	98.145810
2088.000000	98.144657
2087.000000	98.143552
2086.000000	98.147702
2085.000000	98.155075
2084.000000	98.160984
2083.000000	98.166693
2082.000000	98.174611
2081.000000	98.180694
2080.000000	98.178961
2079.000000	98.168457
2078.000000	98.151121
2077.000000	98.129469
2076.000000	98.111869
2075.000000	98.110254
2074.000000	98.126524
2073.000000	98.149385
2072.000000	98.169607
2071.000000	98.189436
2070.000000	98.209772
2069.000000	98.221610
2068.000000	98.221345
2067.000000	98.222724
2066.000000	98.240110
2065.000000	98.267368
2064.000000	98.285519
2063.000000	98.285795
2062.000000	98.273347
2061.000000	98.256272
2060.000000	98.242635
2059.000000	98.240160
2058.000000	98.248110
2057.000000	98.255724
2056.000000	98.257068
2055.000000	98.258734
2054.000000	98.263581
2053.000000	98.259332
2052.000000	98.237731
2051.000000	98.215586
2050.000000	98.219762
2049.000000	98.253585
2048.000000	98.293025
2047.000000	98.319184
2046.000000	98.335565
2045.000000	98.348960
2044.000000	98.353482
2043.000000	98.341891
2042.000000	98.320784
2041.000000	98.308452
2040.000000	98.319539
2039.000000	98.351388
2038.000000	98.386216
2037.000000	98.411057
2036.000000	98.436330
2035.000000	98.483554
2034.000000	98.550426
2033.000000	98.605623
2032.000000	98.627800
2031.000000	98.629192
2030.000000	98.627787
2029.000000	98.619932
2028.000000	98.597162
2027.000000	98.571111
2026.000000	98.559259
2025.000000	98.558637
2024.000000	98.548193
2023.000000	98.514804
2022.000000	98.466220
2021.000000	98.426106
2020.000000	98.421055
2019.000000	98.460194
2018.000000	98.519792
2017.000000	98.557011
2016.000000	98.550650
2015.000000	98.518852
2014.000000	98.491923
2013.000000	98.486750
2012.000000	98.507107
2011.000000	98.546642
2010.000000	98.586374
2009.000000	98.607888
2008.000000	98.616224
2007.000000	98.630858
2006.000000	98.647686
2005.000000	98.638315
2004.000000	98.592363
2003.000000	98.534751
2002.000000	98.490833
2001.000000	98.460208
2000.000000	98.433666
1999.000000	98.410303
1998.000000	98.392914
1997.000000	98.380409
1996.000000	98.377149
1995.000000	98.394189
1994.000000	98.430758
1993.000000	98.465168
1992.000000	98.477031
1991.000000	98.470158
1990.000000	98.458679
1989.000000	98.444275
1988.000000	98.422736
1987.000000	98.398807
1986.000000	98.379437
1985.000000	98.363183
1984.000000	98.347590
1983.000000	98.337905
1982.000000	98.338465
1981.000000	98.345948
1980.000000	98.361011
1979.000000	98.391437
1978.000000	98.439390
1977.000000	98.492594
1976.000000	98.539453
1975.000000	98.577881
1974.000000	98.603473
1973.000000	98.609530
1972.000000	98.604534
1971.000000	98.605374
1970.000000	98.608582
1969.000000	98.593910
1968.000000	98.563652
1967.000000	98.551330
1966.000000	98.575233
1965.000000	98.609991
1964.000000	98.623187
1963.000000	98.614533
1962.000000	98.602227
1961.000000	98.594167
1960.000000	98.587307
1959.000000	98.580211
1958.000000	98.572281
1957.000000	98.561985
1956.000000	98.555258
1955.000000	98.560678
1954.000000	98.570682
1953.000000	98.564826
1952.000000	98.539330
1951.000000	98.519380
1950.000000	98.524205
1949.000000	98.540697
1948.000000	98.544205
1947.000000	98.529607
1946.000000	98.509762
1945.000000	98.496301
1944.000000	98.494227
1943.000000	98.503963
1942.000000	98.516849
1941.000000	98.520287
1940.000000	98.513449
1939.000000	98.506375
1938.000000	98.501703
1937.000000	98.490289
1936.000000	98.470442
1935.000000	98.457051
1934.000000	98.461744
1933.000000	98.475107
1932.000000	98.479874
1931.000000	98.475153
1930.000000	98.467475
1929.000000	98.459688
1928.000000	98.456154
1927.000000	98.464636
1926.000000	98.487175
1925.000000	98.507668
1924.000000	98.516492
1923.000000	98.524119
1922.000000	98.540507
1921.000000	98.553110
1920.000000	98.544042
1919.000000	98.518175
1918.000000	98.497953
1917.000000	98.492031
1916.000000	98.491086
1915.000000	98.487761
1914.000000	98.486534
1913.000000	98.491774
1912.000000	98.500447
1911.000000	98.508967
1910.000000	98.513078
1909.000000	98.506357
1908.000000	98.484582
1907.000000	98.453220
1906.000000	98.428981
1905.000000	98.421419
1904.000000	98.432353
1903.000000	98.455068
1902.000000	98.473273
1901.000000	98.473596
1900.000000	98.461431
1899.000000	98.455836
1898.000000	98.468812
1897.000000	98.489033
1896.000000	98.501038
1895.000000	98.506534
1894.000000	98.515804
1893.000000	98.526852
1892.000000	98.527814
1891.000000	98.515468
1890.000000	98.499416
1889.000000	98.489648
1888.000000	98.487634
1887.000000	98.489200
1886.000000	98.490752
1885.000000	98.491277
1884.000000	98.492639
1883.000000	98.497840
1882.000000	98.503545
1881.000000	98.503621
1880.000000	98.499193
1879.000000	98.498831
1878.000000	98.509226
1877.000000	98.522865
1876.000000	98.526108
1875.000000	98.521083
1874.000000	98.522264
1873.000000	98.535659
1872.000000	98.555092
1871.000000	98.576681
1870.000000	98.604378
1869.000000	98.634696
1868.000000	98.649443
1867.000000	98.635484
1866.000000	98.598003
1865.000000	98.553332
1864.000000	98.518731
1863.000000	98.503652
1862.000000	98.504983
1861.000000	98.512111
1860.000000	98.518044
1859.000000	98.523370
1858.000000	98.530655
1857.000000	98.538295
1856.000000	98.542088
1855.000000	98.541345
1854.000000	98.537640
1853.000000	98.533900
1852.000000	98.535342
1851.000000	98.537256
1850.000000	98.539933
1849.000000	98.550870
1848.000000	98.574217
1847.000000	98.598345
1846.000000	98.606063
1845.000000	98.597127
1844.000000	98.589032
1843.000000	98.591421
1842.000000	98.588205
1841.000000	98.564234
1840.000000	98.531871
1839.000000	98.516958
1838.000000	98.526319
1837.000000	98.537013
1836.000000	98.537166
1835.000000	98.542374
1834.000000	98.565083
1833.000000	98.593082
1832.000000	98.607025
1831.000000	98.604919
1830.000000	98.607838
1829.000000	98.621837
1828.000000	98.625781
1827.000000	98.605175
1826.000000	98.576893
1825.000000	98.566490
1824.000000	98.571439
1823.000000	98.570073
1822.000000	98.553756
1821.000000	98.534566
1820.000000	98.524594
1819.000000	98.524133
1818.000000	98.528195
1817.000000	98.530714
1816.000000	98.534421
1815.000000	98.543636
1814.000000	98.554868
1813.000000	98.561035
1812.000000	98.555262
1811.000000	98.543853
1810.000000	98.533535
1809.000000	98.518475
1808.000000	98.493608
1807.000000	98.464987
1806.000000	98.440939
1805.000000	98.418939
1804.000000	98.390876
1803.000000	98.352836
1802.000000	98.306347
1801.000000	98.261046
1800.000000	98.219211
1799.000000	98.183799
1798.000000	98.159084
1797.000000	98.149846
1796.000000	98.155049
1795.000000	98.166064
1794.000000	98.177868
1793.000000	98.203290
1792.000000	98.252552
1791.000000	98.316970
1790.000000	98.373337
1789.000000	98.405929
1788.000000	98.415754
1787.000000	98.417814
1786.000000	98.429771
1785.000000	98.459051
1784.000000	98.500199
1783.000000	98.536034
1782.000000	98.550373
1781.000000	98.553262
1780.000000	98.552992
1779.000000	98.555155
1778.000000	98.561107
1777.000000	98.577284
1776.000000	98.606386
1775.000000	98.630079
1774.000000	98.632013
1773.000000	98.622955
1772.000000	98.618195
1771.000000	98.604160
1770.000000	98.550083
1769.000000	98.443309
1768.000000	98.319474
1767.000000	98.232061
1766.000000	98.185755
1765.000000	98.134194
1764.000000	98.034691
1763.000000	97.886683
1762.000000	97.714602
1761.000000	97.535704
1760.000000	97.332562
1759.000000	97.073790
1758.000000	96.723684
1757.000000	96.282143
1756.000000	95.804828
1755.000000	95.347404
1754.000000	94.893505
1753.000000	94.381291
1752.000000	93.779422
1751.000000	93.127715
1750.000000	92.493395
1749.000000	91.883978
1748.000000	91.302510
1747.000000	90.785217
1746.000000	90.348956
1745.000000	89.977532
1744.000000	89.665994
1743.000000	89.437284
1742.000000	89.287928
1741.000000	89.187202
1740.000000	89.150851
1739.000000	89.229437
1738.000000	89.386208
1737.000000	89.534459
1736.000000	89.672784
1735.000000	89.937845
1734.000000	90.441940
1733.000000	91.017970
1732.000000	91.476579
1731.000000	91.854179
1730.000000	92.242507
1729.000000	92.668063
1728.000000	93.105634
1727.000000	93.528280
1726.000000	93.933853
1725.000000	94.331656
1724.000000	94.722628
1723.000000	95.106133
1722.000000	95.456965
1721.000000	95.742608
1720.000000	95.968036
1719.000000	96.190613
1718.000000	96.458757
1717.000000	96.718409
1716.000000	96.888340
1715.000000	96.974210
1714.000000	97.013299
1713.000000	97.022946
1712.000000	97.019167
1711.000000	97.023099
1710.000000	97.042520
1709.000000	97.068717
1708.000000	97.082576
1707.000000	97.067347
1706.000000	97.033735
1705.000000	97.008905
1704.000000	97.002224
1703.000000	96.972047
1702.000000	96.870643
1701.000000	96.723152
1700.000000	96.628336
1699.000000	96.611409
1698.000000	96.543247
1697.000000	96.325601
1696.000000	96.028634
1695.000000	95.811610
1694.000000	95.696798
1693.000000	95.586785
1692.000000	95.439314
1691.000000	95.287152
1690.000000	95.162509
1689.000000	95.073074
1688.000000	95.013035
1687.000000	94.955464
1686.000000	94.866083
1685.000000	94.707403
1684.000000	94.504015
1683.000000	94.339380
1682.000000	94.188494
1681.000000	93.993475
1680.000000	93.786580
1679.000000	93.622631
1678.000000	93.492064
1677.000000	93.339337
1676.000000	93.147653
1675.000000	92.970375
1674.000000	92.849331
1673.000000	92.750306
1672.000000	92.616725
1671.000000	92.441442
1670.000000	92.231088
1669.000000	91.998317
1668.000000	91.778619
1667.000000	91.599077
1666.000000	91.445316
1665.000000	91.278514
1664.000000	91.074567
1663.000000	90.851724
1662.000000	90.640401
1661.000000	90.451080
1660.000000	90.269177
1659.000000	90.099555
1658.000000	89.970250
1657.000000	89.891033
1656.000000	89.823671
1655.000000	89.710336
1654.000000	89.509195
1653.000000	89.253321
1652.000000	89.117533
1651.000000	89.113426
1650.000000	89.113801
1649.000000	89.068550
1648.000000	88.989479
1647.000000	88.913600
1646.000000	88.873773
1645.000000	88.858811
1644.000000	88.849561
1643.000000	88.847200
1642.000000	88.857732
1641.000000	88.898336
1640.000000	88.976863
1639.000000	89.077808
1638.000000	89.171811
1637.000000	89.235505
1636.000000	89.275830
1635.000000	89.315077
1634.000000	89.363478
1633.000000	89.398619
1632.000000	89.422744
1631.000000	89.462196
1630.000000	89.535251
1629.000000	89.641041
1628.000000	89.772379
1627.000000	89.919135
1626.000000	90.062883
1625.000000	90.196402
1624.000000	90.332927
1623.000000	90.493580
1622.000000	90.670057
1621.000000	90.838673
1620.000000	90.985013
1619.000000	91.111008
1618.000000	91.238530
1617.000000	91.399188
1616.000000	91.594870
1615.000000	91.776694
1614.000000	91.908031
1613.000000	92.002434
1612.000000	92.103786
1611.000000	92.236712
1610.000000	92.382941
1609.000000	92.517715
1608.000000	92.640129
1607.000000	92.756973
1606.000000	92.860728
1605.000000	92.952038
1604.000000	93.036939
1603.000000	93.115154
1602.000000	93.181082
1601.000000	93.234946
1600.000000	93.285496
1599.000000	93.336163
1598.000000	93.382012
1597.000000	93.420915
1596.000000	93.457358
1595.000000	93.492609
1594.000000	93.519096
1593.000000	93.533287
1592.000000	93.541355
1591.000000	93.547957
1590.000000	93.548689
1589.000000	93.540664
1588.000000	93.527408
1587.000000	93.510681
1586.000000	93.484532
1585.000000	93.447981
1584.000000	93.410945
1583.000000	93.369274
1582.000000	93.322640
1581.000000	93.287469
1580.000000	93.275976
1579.000000	93.266268
1578.000000	93.227404
1577.000000	93.151434
1576.000000	93.072375
1575.000000	93.028376
1574.000000	93.001787
1573.000000	92.960299
1572.000000	92.897839
1571.000000	92.824953
1570.000000	92.743291
1569.000000	92.656689
1568.000000	92.578141
1567.000000	92.491738
1566.000000	92.381338
1565.000000	92.262941
1564.000000	92.180602
1563.000000	92.142998
1562.000000	92.121254
1561.000000	92.082831
1560.000000	91.999411
1559.000000	91.796359
1558.000000	91.556231
1557.000000	91.366546
1556.000000	91.163722
1555.000000	90.929448
1554.000000	90.704459
1553.000000	90.528718
1552.000000	90.380143
1551.000000	90.219640
1550.000000	90.046223
1549.000000	89.884338
1548.000000	89.756792
1547.000000	89.654561
1546.000000	89.568195
1545.000000	89.502075
1544.000000	89.462468
1543.000000	89.439789
1542.000000	89.407687
1541.000000	89.319309
1540.000000	89.175043
1539.000000	89.057775
1538.000000	89.009574
1537.000000	88.989074
1536.000000	88.964185
1535.000000	88.938712
1534.000000	88.931486
1533.000000	88.946482
1532.000000	88.961143
1531.000000	88.967120
1530.000000	88.972619
1529.000000	88.982358
1528.000000	88.999580
1527.000000	89.031767
1526.000000	89.082784
1525.000000	89.141704
1524.000000	89.180056
1523.000000	89.179344
1522.000000	89.150825
1521.000000	89.128938
1520.000000	89.132516
1519.000000	89.132450
1518.000000	89.096173
1517.000000	89.030003
1516.000000	88.971949
1515.000000	88.944037
1514.000000	88.930995
1513.000000	88.931370
1512.000000	88.969278
1511.000000	89.063094
1510.000000	89.185618
1509.000000	89.292565
1508.000000	89.357882
1507.000000	89.382894
1506.000000	89.372030
1505.000000	89.338587
1504.000000	89.300124
1503.000000	89.261413
1502.000000	89.229544
1501.000000	89.212729
1500.000000	89.213562
1499.000000	89.220382
1498.000000	89.209120
1497.000000	89.158145
1496.000000	89.089203
1495.000000	89.049893
1494.000000	89.035668
1493.000000	89.013268
1492.000000	88.974047
1491.000000	88.936737
1490.000000	88.896884
1489.000000	88.818002
1488.000000	88.689976
1487.000000	88.545983
1486.000000	88.402681
1485.000000	88.254151
1484.000000	88.102057
1483.000000	87.942932
1482.000000	87.773362
1481.000000	87.589799
1480.000000	87.403488
1479.000000	87.220412
1478.000000	87.030441
1477.000000	86.822199
1476.000000	86.605698
1475.000000	86.389224
1474.000000	86.129023
1473.000000	85.773635
1472.000000	85.358396
1471.000000	84.980041
1470.000000	84.654608
1469.000000	84.351694
1468.000000	84.069575
1467.000000	83.822914
1466.000000	83.601561
1465.000000	83.392168
1464.000000	83.208294
1463.000000	83.064996
1462.000000	82.949842
1461.000000	82.841411
1460.000000	82.731839
1459.000000	82.600686
1458.000000	82.397858
1457.000000	82.106081
1456.000000	81.841794
1455.000000	81.670030
1454.000000	81.523529
1453.000000	81.365220
1452.000000	81.219424
1451.000000	81.112885
1450.000000	81.026366
1449.000000	80.926263
1448.000000	80.816049
1447.000000	80.719943
1446.000000	80.628196
1445.000000	80.527716
1444.000000	80.416894
1443.000000	80.304199
1442.000000	80.192211
1441.000000	80.080049
1440.000000	79.967687
1439.000000	79.843232
1438.000000	79.683044
1437.000000	79.478027
1436.000000	79.284000
1435.000000	79.153870
1434.000000	79.058582
1433.000000	78.958214
1432.000000	78.857311
1431.000000	78.764467
1430.000000	78.654233
1429.000000	78.497051
1428.000000	78.313313
1427.000000	78.139943
1426.000000	77.978105
1425.000000	77.832831
1424.000000	77.732720
1423.000000	77.689418
1422.000000	77.661749
1421.000000	77.609712
1420.000000	77.546432
1419.000000	77.505496
1418.000000	77.477712
1417.000000	77.436313
1416.000000	77.400321
1415.000000	77.403136
1414.000000	77.448700
1413.000000	77.524280
1412.000000	77.630625
1411.000000	77.773694
1410.000000	77.940191
1409.000000	78.110536
1408.000000	78.287911
1407.000000	78.484002
1406.000000	78.688670
1405.000000	78.890970
1404.000000	79.090826
1403.000000	79.279783
1402.000000	79.437932
1401.000000	79.564288
1400.000000	79.687288
1399.000000	79.825689
1398.000000	79.959012
1397.000000	80.065047
1396.000000	80.160340
1395.000000	80.270707
1394.000000	80.391031
1393.000000	80.509215
1392.000000	80.630466
1391.000000	80.762296
1390.000000	80.902011
1389.000000	81.051715
1388.000000	81.225305
1387.000000	81.423099
1386.000000	81.613706
1385.000000	81.776705
1384.000000	81.925915
1383.000000	82.080649
1382.000000	82.243858
1381.000000	82.411519
1380.000000	82.593187
1379.000000	82.799890
1378.000000	83.028459
1377.000000	83.272817
1376.000000	83.539005
1375.000000	83.827434
1374.000000	84.111565
1373.000000	84.360339
1372.000000	84.569357
1371.000000	84.750806
1370.000000	84.913751
1369.000000	85.071941
1368.000000	85.236745
1367.000000	85.404211
1366.000000	85.563428
1365.000000	85.717031
1364.000000	85.874967
1363.000000	86.029065
1362.000000	86.155524
1361.000000	86.249741
1360.000000	86.329824
1359.000000	86.406847
1358.000000	86.479927
1357.000000	86.552913
1356.000000	86.633778
1355.000000	86.721052
1354.000000	86.807790
1353.000000	86.895819
1352.000000	86.991276
1351.000000	87.090366
1350.000000	87.179625
1349.000000	87.256660
1348.000000	87.324046
1347.000000	87.375780
1346.000000	87.402589
1345.000000	87.409874
1344.000000	87.411520
1343.000000	87.409384
1342.000000	87.393221
1341.000000	87.357732
1340.000000	87.305886
1339.000000	87.239750
1338.000000	87.163128
1337.000000	87.091648
1336.000000	87.044481
1335.000000	87.029185
1334.000000	87.044224
1333.000000	87.091120
1332.000000	87.171248
1331.000000	87.274484
1330.000000	87.384444
1329.000000	87.494240
1328.000000	87.605307
1327.000000	87.714618
1326.000000	87.815642
1325.000000	87.910285
1324.000000	88.003585
1323.000000	88.092345
1322.000000	88.170819
1321.000000	88.242993
1320.000000	88.317169
1319.000000	88.393799
1318.000000	88.470500
1317.000000	88.552733
1316.000000	88.646160
1315.000000	88.744920
1314.000000	88.840199
1313.000000	88.933714
1312.000000	89.030853
1311.000000	89.128199
1310.000000	89.220568
1309.000000	89.312447
1308.000000	89.409280
1307.000000	89.506398
1306.000000	89.597822
1305.000000	89.689375
1304.000000	89.787869
1303.000000	89.887749
1302.000000	89.980971
1301.000000	90.072078
1300.000000	90.169464
1299.000000	90.269992
1298.000000	90.365459
1297.000000	90.455295
1296.000000	90.540502
1295.000000	90.613500
1294.000000	90.668639
1293.000000	90.713168
1292.000000	90.755326
1291.000000	90.791153
1290.000000	90.814461
1289.000000	90.830240
1288.000000	90.845488
1287.000000	90.857672
1286.000000	90.865080
1285.000000	90.876897
1284.000000	90.899282
1283.000000	90.922743
1282.000000	90.936181
1281.000000	90.943007
1280.000000	90.949117
1279.000000	90.945930
1278.000000	90.920881
1277.000000	90.874376
1276.000000	90.813064
1275.000000	90.734026
1274.000000	90.630852
1273.000000	90.506388
1272.000000	90.365874
1271.000000	90.206206
1270.000000	90.023092
1269.000000	89.821906
1268.000000	89.610080
1267.000000	89.386053
1266.000000	89.147520
1265.000000	88.901530
1264.000000	88.656838
1263.000000	88.414412
1262.000000	88.175265
1261.000000	87.948923
1260.000000	87.742566
1259.000000	87.549430
1258.000000	87.360719
1257.000000	87.184500
1256.000000	87.040283
1255.000000	86.940287
1254.000000	86.883535
1253.000000	86.860716
1252.000000	86.856080
1251.000000	86.848360
1250.000000	86.823009
1249.000000	86.782126
1248.000000	86.734868
1247.000000	86.683731
1246.000000	86.628094
1245.000000	86.573756
1244.000000	86.528494
1243.000000	86.493237
1242.000000	86.467520
1241.000000	86.457716
1240.000000	86.470194
1239.000000	86.502548
1238.000000	86.550628
1237.000000	86.619773
1236.000000	86.716955
1235.000000	86.837411
1234.000000	86.970827
1233.000000	87.114740
1232.000000	87.272564
1231.000000	87.443927
1230.000000	87.629296
1229.000000	87.838992
1228.000000	88.082661
1227.000000	88.355106
1226.000000	88.642283
1225.000000	88.934921
1224.000000	89.225420
1223.000000	89.499697
1222.000000	89.747202
1221.000000	89.971684
1220.000000	90.179452
1219.000000	90.364476
1218.000000	90.519847
1217.000000	90.653198
1216.000000	90.775974
1215.000000	90.886801
1214.000000	90.978195
1213.000000	91.052631
1212.000000	91.116230
1211.000000	91.165222
1210.000000	91.193809
1209.000000	91.206677
1208.000000	91.211461
1207.000000	91.206061
1206.000000	91.185767
1205.000000	91.155703
1204.000000	91.123438
1203.000000	91.088198
1202.000000	91.048142
1201.000000	91.009274
1200.000000	90.976027
1199.000000	90.941464
1198.000000	90.898524
1197.000000	90.852061
1196.000000	90.808729
1195.000000	90.764382
1194.000000	90.712391
1193.000000	90.655104
1192.000000	90.595733
1191.000000	90.528338
1190.000000	90.448090
1189.000000	90.361884
1188.000000	90.276952
1187.000000	90.187659
1186.000000	90.084454
1185.000000	89.967958
1184.000000	89.842010
1183.000000	89.701896
1182.000000	89.541837
1181.000000	89.366492
1180.000000	89.184761
1179.000000	88.998430
1178.000000	88.807344
1177.000000	88.617822
1176.000000	88.435360
1175.000000	88.256922
1174.000000	88.079380
1173.000000	87.908269
1172.000000	87.748796
1171.000000	87.596618
1170.000000	87.446442
1169.000000	87.302336
1168.000000	87.170476
1167.000000	87.049050
1166.000000	86.936604
1165.000000	86.842188
1164.000000	86.776938
1163.000000	86.742483
1162.000000	86.735531
1161.000000	86.759073
1160.000000	86.817656
1159.000000	86.908643
1158.000000	87.029720
1157.000000	87.185530
1156.000000	87.378846
1155.000000	87.600909
1154.000000	87.841991
1153.000000	88.105424
1152.000000	88.397631
1151.000000	88.714303
1150.000000	89.046810
1149.000000	89.393149
1148.000000	89.750684
1147.000000	90.107450
1146.000000	90.454711
1145.000000	90.797191
1144.000000	91.138350
1143.000000	91.467511
1142.000000	91.775327
1141.000000	92.067885
1140.000000	92.350574
1139.000000	92.613146
1138.000000	92.844469
1137.000000	93.049377
1136.000000	93.234564
1135.000000	93.392536
1134.000000	93.516861
1133.000000	93.616918
1132.000000	93.703880
1131.000000	93.774753
1130.000000	93.823990
1129.000000	93.857106
1128.000000	93.877848
1127.000000	93.879287
1126.000000	93.860422
1125.000000	93.834300
1124.000000	93.807357
1123.000000	93.767129
1122.000000	93.704663
1121.000000	93.630204
1120.000000	93.550820
1119.000000	93.452641
1118.000000	93.319036
1117.000000	93.149937
1116.000000	92.948825
1115.000000	92.710071
1114.000000	92.437417
1113.000000	92.156626
1112.000000	91.894812
1111.000000	91.662411
1110.000000	91.468460
1109.000000	91.332577
1108.000000	91.264804
1107.000000	91.248501
1106.000000	91.258823
1105.000000	91.286349
1104.000000	91.325938
1103.000000	91.361037
1102.000000	91.376727
1101.000000	91.373767
1100.000000	91.354103
1099.000000	91.306088
1098.000000	91.222836
1097.000000	91.118853
1096.000000	91.014433
1095.000000	90.918345
1094.000000	90.838745
1093.000000	90.792629
1092.000000	90.789103
1091.000000	90.818829
1090.000000	90.875981
1089.000000	90.972067
1088.000000	91.112404
1087.000000	91.278538
1086.000000	91.450354
1085.000000	91.630315
1084.000000	91.826166
1083.000000	92.027940
1082.000000	92.221996
1081.000000	92.409870
1080.000000	92.594395
1079.000000	92.764287
1078.000000	92.912752
1077.000000	93.052246
1076.000000	93.192537
1075.000000	93.321951
1074.000000	93.428744
1073.000000	93.520675
1072.000000	93.603738
1071.000000	93.664896
1070.000000	93.695190
1069.000000	93.709665
1068.000000	93.723753
1067.000000	93.730218
1066.000000	93.720049
1065.000000	93.705162
1064.000000	93.699219
1063.000000	93.696276
1062.000000	93.688292
1061.000000	93.684685
1060.000000	93.694363
1059.000000	93.708315
1058.000000	93.719615
1057.000000	93.740587
1056.000000	93.780042
1055.000000	93.823452
1054.000000	93.857301
1053.000000	93.892891
1052.000000	93.945056
1051.000000	94.005447
1050.000000	94.060037
1049.000000	94.113249
1048.000000	94.171851
1047.000000	94.225104
1046.000000	94.262284
1045.000000	94.289735
1044.000000	94.311086
1043.000000	94.313205
1042.000000	94.288914
1041.000000	94.252414
1040.000000	94.212983
1039.000000	94.155813
1038.000000	94.069382
1037.000000	93.969678
1036.000000	93.876716
1035.000000	93.788435
1034.000000	93.697712
1033.000000	93.613892
1032.000000	93.546586
1031.000000	93.488354
1030.000000	93.434043
1029.000000	93.397599
1028.000000	93.389288
1027.000000	93.395801
1026.000000	93.403079
1025.000000	93.417599
1024.000000	93.446462
1023.000000	93.477511
1022.000000	93.501569
1021.000000	93.532911
1020.000000	93.584461
1019.000000	93.643945
1018.000000	93.696404
1017.000000	93.750823
1016.000000	93.820786
1015.000000	93.899059
1014.000000	93.974504
1013.000000	94.055503
1012.000000	94.152949
1011.000000	94.258000
1010.000000	94.357959
1009.000000	94.457459
1008.000000	94.563666
1007.000000	94.668649
1006.000000	94.766082
1005.000000	94.865539
1004.000000	94.970652
1003.000000	95.062528
1002.000000	95.126367
1001.000000	95.174434
1000.000000	95.223793
999.000000	95.270476
998.000000	95.306112
997.000000	95.339136
996.000000	95.377065
995.000000	95.407826
994.000000	95.420318
993.000000	95.426236
992.000000	95.440297
991.000000	95.456746
990.000000	95.464376
989.000000	95.467041
988.000000	95.469783
987.000000	95.464245
986.000000	95.446359
985.000000	95.429736
984.000000	95.422084
983.000000	95.408509
982.000000	95.377865
981.000000	95.344548
980.000000	95.323588
979.000000	95.303378
978.000000	95.265197
977.000000	95.210934
976.000000	95.151194
975.000000	95.084194
974.000000	95.008239
973.000000	94.937735
972.000000	94.886162
971.000000	94.848377
970.000000	94.817214
969.000000	94.800241
968.000000	94.802835
967.000000	94.813106
966.000000	94.822325
965.000000	94.842522
964.000000	94.884490
963.000000	94.937616
962.000000	94.988607
961.000000	95.042819
960.000000	95.108153
959.000000	95.177227
958.000000	95.244617
957.000000	95.322220
956.000000	95.418784
955.000000	95.522642
954.000000	95.623261
953.000000	95.729621
952.000000	95.848767
951.000000	95.966156
950.000000	96.067626
949.000000	96.160349
948.000000	96.253506
947.000000	96.338883
946.000000	96.410185
945.000000	96.479334
944.000000	96.553859
943.000000	96.619614
942.000000	96.666179
941.000000	96.707761
940.000000	96.757591
939.000000	96.804940
938.000000	96.837892
937.000000	96.868225
936.000000	96.911045
935.000000	96.960940
934.000000	97.008529
933.000000	97.059672
932.000000	97.117534
931.000000	97.167361
930.000000	97.200556
929.000000	97.232574
928.000000	97.277296
927.000000	97.324867
926.000000	97.365437
925.000000	97.410503
924.000000	97.469927
923.000000	97.529975
922.000000	97.577203
921.000000	97.621873
920.000000	97.676035
919.000000	97.730245
918.000000	97.774024
917.000000	97.817718
916.000000	97.871486
915.000000	97.924833
914.000000	97.967935
913.000000	98.012270
912.000000	98.068092
911.000000	98.124138
910.000000	98.169690
909.000000	98.214558
908.000000	98.266038
907.000000	98.310898
906.000000	98.341675
905.000000	98.375048
904.000000	98.421274
903.000000	98.460497
902.000000	98.474726
901.000000	98.478708
900.000000	98.495684
899.000000	98.524619
898.000000	98.555362
897.000000	98.590670
896.000000	98.630318
895.000000	98.656705
894.000000	98.660270
893.000000	98.656506
892.000000	98.654840
891.000000	98.633803
890.000000	98.561448
889.000000	98.409211
888.000000	98.127045
887.000000	97.644498
886.000000	96.941077
885.000000	96.094424
884.000000	95.223566
883.000000	94.395918
882.000000	93.595256
881.000000	92.755131
880.000000	91.805846
879.000000	90.725540
878.000000	89.579571
877.000000	88.503076
876.000000	87.627800
875.000000	87.038368
874.000000	86.800525
873.000000	86.976663
872.000000	87.584001
871.000000	88.544880
870.000000	89.710086
869.000000	90.926305
868.000000	92.067562
867.000000	93.046799
866.000000	93.838607
865.000000	94.479929
864.000000	95.016024
863.000000	95.460911
862.000000	95.820329
861.000000	96.121104
860.000000	96.388555
859.000000	96.621238
858.000000	96.816332
857.000000	96.990464
856.000000	97.151636
855.000000	97.281881
854.000000	97.372583
853.000000	97.443223
852.000000	97.494408
851.000000	97.482041
850.000000	97.382798
849.000000	97.257508
848.000000	97.206960
847.000000	97.276153
846.000000	97.430355
845.000000	97.605543
844.000000	97.750714
843.000000	97.841789
842.000000	97.889791
841.000000	97.927696
840.000000	97.970433
839.000000	98.001805
838.000000	98.010582
837.000000	98.011705
836.000000	98.015590
835.000000	98.010011
834.000000	97.992491
833.000000	97.987986
832.000000	98.010279
831.000000	98.039253
830.000000	98.061021
829.000000	98.096485
828.000000	98.161131
827.000000	98.230333
826.000000	98.277753
825.000000	98.314548
824.000000	98.357598
823.000000	98.393700
822.000000	98.411069
821.000000	98.429437
820.000000	98.465143
819.000000	98.501197
818.000000	98.522263
817.000000	98.544423
816.000000	98.580647
815.000000	98.611176
814.000000	98.618364
813.000000	98.618999
812.000000	98.631191
811.000000	98.640694
810.000000	98.630042
809.000000	98.610802
808.000000	98.597408
807.000000	98.580114
806.000000	98.552142
805.000000	98.531460
804.000000	98.526311
803.000000	98.511749
802.000000	98.470179
801.000000	98.422642
800.000000	98.391033
799.000000	98.362575
798.000000	98.321843
797.000000	98.283808
796.000000	98.264110
795.000000	98.248937
794.000000	98.224197
793.000000	98.202263
792.000000	98.191412
791.000000	98.171777
790.000000	98.130028
789.000000	98.085579
788.000000	98.055040
787.000000	98.024070
786.000000	97.981661
785.000000	97.948059
784.000000	97.939571
783.000000	97.937875
782.000000	97.922688
781.000000	97.903512
780.000000	97.891249
779.000000	97.870703
778.000000	97.830482
777.000000	97.789556
776.000000	97.765136
775.000000	97.743343
774.000000	97.708973
773.000000	97.674912
772.000000	97.654952
771.000000	97.637220
770.000000	97.610835
769.000000	97.589600
768.000000	97.583436
767.000000	97.575483
766.000000	97.551892
765.000000	97.523768
764.000000	97.496647
763.000000	97.451153
762.000000	97.379223
761.000000	97.306039
760.000000	97.251505
759.000000	97.202824
758.000000	97.148721
757.000000	97.104276
756.000000	97.076904
755.000000	97.045543
754.000000	97.001153
753.000000	96.970760
752.000000	96.971866
751.000000	96.980173
750.000000	96.971044
749.000000	96.956957
748.000000	96.953332
747.000000	96.945086
746.000000	96.919131
745.000000	96.894802
744.000000	96.888770
743.000000	96.883807
742.000000	96.863788
741.000000	96.844656
740.000000	96.839471
739.000000	96.826878
738.000000	96.786750
737.000000	96.732866
736.000000	96.680870
735.000000	96.617985
734.000000	96.535262
733.000000	96.453396
732.000000	96.386636
731.000000	96.317093
730.000000	96.234959
729.000000	96.164795
728.000000	96.123606
727.000000	96.090278
726.000000	96.042987
725.000000	95.993855
724.000000	95.955242
723.000000	95.907632
722.000000	95.829711
721.000000	95.725873
720.000000	95.592757
719.000000	95.391192
718.000000	95.079129
717.000000	94.635405
716.000000	94.037617
715.000000	93.284239
714.000000	92.485286
713.000000	91.871547
712.000000	91.642850
711.000000	91.811594
710.000000	92.223404
709.000000	92.692234
708.000000	93.086356
707.000000	93.344825
706.000000	93.476394
705.000000	93.537321
704.000000	93.572908
703.000000	93.584226
702.000000	93.566881
701.000000	93.544286
700.000000	93.529799
699.000000	93.502856
698.000000	93.451358
697.000000	93.403045
696.000000	93.380723
695.000000	93.361442
694.000000	93.324822
693.000000	93.297736
692.000000	93.305871
691.000000	93.328403
690.000000	93.338535
689.000000	93.350977
688.000000	93.385604
687.000000	93.418011
686.000000	93.423451
685.000000	93.422071
684.000000	93.433052
683.000000	93.434023
682.000000	93.408710
681.000000	93.385757
680.000000	93.386287
679.000000	93.385293
678.000000	93.367646
677.000000	93.361556
676.000000	93.391914
675.000000	93.436191
674.000000	93.477266
673.000000	93.545030
672.000000	93.662528
671.000000	93.806684
670.000000	93.959307
669.000000	94.130970
668.000000	94.244830
667.000000	94.204386
666.000000	94.142272
665.000000	94.114839
664.000000	94.116549
663.000000	94.138026
662.000000	94.166665
661.000000	94.203979
660.000000	94.250179
659.000000	94.281806
658.000000	94.277267
657.000000	94.239006
656.000000	94.184694
655.000000	94.116839
654.000000	94.031438
653.000000	93.941203
652.000000	93.862950
651.000000	93.790046
650.000000	93.706381
649.000000	93.613343
648.000000	93.520134
647.000000	93.419602
646.000000	93.296430
645.000000	93.155693
644.000000	93.013905
643.000000	92.874485
642.000000	92.738785
641.000000	92.616184
640.000000	92.505101
639.000000	92.389363
638.000000	92.270201
637.000000	92.178403
636.000000	92.136384
635.000000	92.127644
634.000000	92.130771
633.000000	92.154034
632.000000	92.205382
631.000000	92.259763
630.000000	92.290425
629.000000	92.305044
628.000000	92.319814
627.000000	92.325604
626.000000	92.307708
625.000000	92.277627
624.000000	92.245552
623.000000	92.194087
622.000000	92.116329
621.000000	92.045345
620.000000	92.004866
619.000000	91.965759
618.000000	91.891788
617.000000	91.798277
616.000000	91.721327
615.000000	91.661026
614.000000	91.601876
613.000000	91.554178
612.000000	91.532731
611.000000	91.525062
610.000000	91.522681
609.000000	91.549601
608.000000	91.621064
607.000000	91.709515
606.000000	91.792713
605.000000	91.903102
604.000000	92.078209
603.000000	92.299683
602.000000	92.531546
601.000000	92.775044
600.000000	93.032448
599.000000	93.265279
598.000000	93.445598
597.000000	93.606463
596.000000	93.784291
595.000000	93.957702
594.000000	94.092846
593.000000	94.204914
592.000000	94.318357
591.000000	94.411961
590.000000	94.465789
589.000000	94.513724
588.000000	94.588788
587.000000	94.663693
586.000000	94.701826
585.000000	94.722206
584.000000	94.758874
583.000000	94.796590
582.000000	94.805827
581.000000	94.799607
580.000000	94.802552
579.000000	94.806437
578.000000	94.806244
577.000000	94.831298
576.000000	94.891730
575.000000	94.944886
574.000000	94.966443
573.000000	94.995941
572.000000	95.058695
571.000000	95.111944
570.000000	95.118456
569.000000	95.114406
568.000000	95.139988
567.000000	95.166871
566.000000	95.160494
565.000000	95.148384
564.000000	95.160608
563.000000	95.168210
562.000000	95.146076
561.000000	95.132691
560.000000	95.161678
559.000000	95.195553
558.000000	95.195415
557.000000	95.193375
556.000000	95.228267
555.000000	95.268430
554.000000	95.269160
553.000000	95.249271
552.000000	95.243709
551.000000	95.242196
550.000000	95.236670
549.000000	95.264029
548.000000	95.334795
547.000000	95.388287
546.000000	95.383210
545.000000	95.366955
544.000000	95.384944
543.000000	95.402518
542.000000	95.383519
541.000000	95.363649
540.000000	95.374616
539.000000	95.374907
538.000000	95.331110
537.000000	95.290694
536.000000	95.297121
535.000000	95.308854
534.000000	95.285342
533.000000	95.270797
532.000000	95.305409
531.000000	95.332198
530.000000	95.289312
529.000000	95.221875
528.000000	95.207464
527.000000	95.236560
526.000000	95.249970
525.000000	95.247179
524.000000	95.261536
523.000000	95.280995
522.000000	95.286159
521.000000	95.306941
520.000000	95.366600
519.000000	95.422104
518.000000	95.433801
517.000000	95.442065
516.000000	95.488164
515.000000	95.532981
514.000000	95.537051
513.000000	95.534632
512.000000	95.563927
511.000000	95.597733
510.000000	95.609407
509.000000	95.633942
508.000000	95.694055
507.000000	95.741443
506.000000	95.747755
505.000000	95.771976
504.000000	95.859689
503.000000	95.961366
502.000000	96.016892
501.000000	96.043501
500.000000	96.062272
499.000000	96.040014
498.000000	95.983655
497.000000	95.982095
496.000000	96.073328
495.000000	96.164645
494.000000	96.169630
493.000000	96.129337
492.000000	96.111495
491.000000	96.096137
490.000000	96.060506
489.000000	96.066033
488.000000	96.152529
487.000000	96.251086
486.000000	96.297379
485.000000	96.339251
484.000000	96.430774
483.000000	96.513509
482.000000	96.527765
481.000000	96.529145
480.000000	96.580893
479.000000	96.640258
478.000000	96.653930
477.000000	96.666404
476.000000	96.727049
475.000000	96.788725
474.000000	96.808961
473.000000	96.858742
472.000000	96.997251
471.000000	97.130151
470.000000	97.165143
469.000000	97.163803
468.000000	97.207771
467.000000	97.264152
466.000000	97.281944
465.000000	97.309579
464.000000	97.394875
463.000000	97.484853
462.000000	97.538892
461.000000	97.627453
460.000000	97.799662
459.000000	97.963588
458.000000	98.016766
457.000000	98.028560
456.000000	98.105765
455.000000	98.206479
454.000000	98.281199
453.000000	98.381766
452.000000	98.531383
451.000000	98.636070
450.000000	98.650710
