PE IR       SUBTECH     SPECTRUM    ASCII       PEDS        4.00        
   -1
3C-YYX-F019_1.ASC
23/09/07
11:08:02.00
23/09/07
11:30:09.00
uco
Sample 019 By uco Date Thursday, September 07 2023
450.000000
#HDR
-1
-1
#GR
cm-1
%T
1.0
0.0
4000.000000
-1.000000
3551
8
98.717067
81.718847
#DATA
4000.000000	98.644870
3999.000000	98.641488
3998.000000	98.637812
3997.000000	98.635714
3996.000000	98.635801
3995.000000	98.642283
3994.000000	98.643372
3993.000000	98.642193
3992.000000	98.638773
3991.000000	98.634030
3990.000000	98.629038
3989.000000	98.624496
3988.000000	98.620595
3987.000000	98.617094
3986.000000	98.613729
3985.000000	98.610969
3984.000000	98.610370
3983.000000	98.613615
3982.000000	98.620745
3981.000000	98.629473
3980.000000	98.636486
3979.000000	98.639488
3978.000000	98.638032
3977.000000	98.633020
3976.000000	98.626045
3975.000000	98.619221
3974.000000	98.614819
3973.000000	98.614302
3972.000000	98.617434
3971.000000	98.622386
3970.000000	98.626833
3969.000000	98.628987
3968.000000	98.628258
3967.000000	98.625355
3966.000000	98.621726
3965.000000	98.618709
3964.000000	98.616806
3963.000000	98.615572
3962.000000	98.614025
3961.000000	98.611211
3960.000000	98.606750
3959.000000	98.601368
3958.000000	98.596804
3957.000000	98.594607
3956.000000	98.594658
3955.000000	98.595102
3954.000000	98.594004
3953.000000	98.591042
3952.000000	98.587639
3951.000000	98.585782
3950.000000	98.586653
3949.000000	98.590086
3948.000000	98.594935
3947.000000	98.599644
3946.000000	98.602858
3945.000000	98.604000
3944.000000	98.603701
3943.000000	98.603342
3942.000000	98.603820
3941.000000	98.605237
3940.000000	98.607028
3939.000000	98.608034
3938.000000	98.606945
3937.000000	98.602963
3936.000000	98.596638
3935.000000	98.590359
3934.000000	98.587737
3933.000000	98.591636
3932.000000	98.601536
3931.000000	98.613062
3930.000000	98.620856
3929.000000	98.622089
3928.000000	98.617605
3927.000000	98.610515
3926.000000	98.604064
3925.000000	98.599871
3924.000000	98.597604
3923.000000	98.596447
3922.000000	98.596053
3921.000000	98.595671
3920.000000	98.593396
3919.000000	98.587414
3918.000000	98.578679
3917.000000	98.571623
3916.000000	98.570524
3915.000000	98.575291
3914.000000	98.581647
3913.000000	98.585137
3912.000000	98.584163
3911.000000	98.580799
3910.000000	98.578961
3909.000000	98.581376
3908.000000	98.587446
3907.000000	98.593396
3906.000000	98.594847
3905.000000	98.590279
3904.000000	98.583058
3903.000000	98.579342
3902.000000	98.582543
3901.000000	98.589901
3900.000000	98.595779
3899.000000	98.597036
3898.000000	98.595125
3897.000000	98.593477
3896.000000	98.593807
3895.000000	98.595763
3894.000000	98.598289
3893.000000	98.600416
3892.000000	98.601102
3891.000000	98.600047
3890.000000	98.598359
3889.000000	98.596331
3888.000000	98.592198
3887.000000	98.586086
3886.000000	98.582524
3885.000000	98.585757
3884.000000	98.594497
3883.000000	98.602860
3882.000000	98.605108
3881.000000	98.599050
3880.000000	98.587238
3879.000000	98.576357
3878.000000	98.572110
3877.000000	98.574775
3876.000000	98.582074
3875.000000	98.592549
3874.000000	98.603901
3873.000000	98.611784
3872.000000	98.612815
3871.000000	98.607878
3870.000000	98.601834
3869.000000	98.599437
3868.000000	98.601511
3867.000000	98.604893
3866.000000	98.606523
3865.000000	98.606443
3864.000000	98.605648
3863.000000	98.604096
3862.000000	98.601603
3861.000000	98.599113
3860.000000	98.598139
3859.000000	98.599620
3858.000000	98.602672
3857.000000	98.603693
3856.000000	98.597863
3855.000000	98.583677
3854.000000	98.566643
3853.000000	98.554310
3852.000000	98.551527
3851.000000	98.558027
3850.000000	98.568288
3849.000000	98.577770
3848.000000	98.585536
3847.000000	98.591975
3846.000000	98.597185
3845.000000	98.600939
3844.000000	98.603693
3843.000000	98.607481
3842.000000	98.614658
3841.000000	98.625988
3840.000000	98.639389
3839.000000	98.650158
3838.000000	98.653771
3837.000000	98.650027
3836.000000	98.642753
3835.000000	98.634778
3834.000000	98.625403
3833.000000	98.613262
3832.000000	98.600063
3831.000000	98.590318
3830.000000	98.587440
3829.000000	98.590739
3828.000000	98.596694
3827.000000	98.602356
3826.000000	98.606816
3825.000000	98.610192
3824.000000	98.612171
3823.000000	98.613109
3822.000000	98.614489
3821.000000	98.615185
3820.000000	98.612092
3819.000000	98.605829
3818.000000	98.598545
3817.000000	98.591522
3816.000000	98.586502
3815.000000	98.583336
3814.000000	98.580233
3813.000000	98.576455
3812.000000	98.573159
3811.000000	98.572533
3810.000000	98.575481
3809.000000	98.580782
3808.000000	98.586765
3807.000000	98.592629
3806.000000	98.598373
3805.000000	98.604399
3804.000000	98.610204
3803.000000	98.615357
3802.000000	98.619902
3801.000000	98.622006
3800.000000	98.620382
3799.000000	98.617147
3798.000000	98.613444
3797.000000	98.607831
3796.000000	98.598462
3795.000000	98.585543
3794.000000	98.572306
3793.000000	98.562836
3792.000000	98.559740
3791.000000	98.562879
3790.000000	98.569275
3789.000000	98.575113
3788.000000	98.578842
3787.000000	98.581767
3786.000000	98.585675
3785.000000	98.590243
3784.000000	98.593229
3783.000000	98.593214
3782.000000	98.591145
3781.000000	98.589269
3780.000000	98.588724
3779.000000	98.588336
3778.000000	98.586552
3777.000000	98.584052
3776.000000	98.582757
3775.000000	98.584044
3774.000000	98.587617
3773.000000	98.591309
3772.000000	98.592757
3771.000000	98.592183
3770.000000	98.592331
3769.000000	98.595112
3768.000000	98.599661
3767.000000	98.603451
3766.000000	98.604865
3765.000000	98.604334
3764.000000	98.602958
3763.000000	98.600761
3762.000000	98.597583
3761.000000	98.595036
3760.000000	98.595017
3759.000000	98.596886
3758.000000	98.598942
3757.000000	98.601914
3756.000000	98.607489
3755.000000	98.615403
3754.000000	98.624015
3753.000000	98.631826
3752.000000	98.636211
3751.000000	98.632078
3750.000000	98.618375
3749.000000	98.604174
3748.000000	98.598075
3747.000000	98.599020
3746.000000	98.602430
3745.000000	98.606279
3744.000000	98.609767
3743.000000	98.613785
3742.000000	98.618494
3741.000000	98.620525
3740.000000	98.618072
3739.000000	98.613260
3738.000000	98.610658
3737.000000	98.615739
3736.000000	98.630530
3735.000000	98.648130
3734.000000	98.658185
3733.000000	98.658211
3732.000000	98.653432
3731.000000	98.648744
3730.000000	98.644152
3729.000000	98.636881
3728.000000	98.626742
3727.000000	98.618113
3726.000000	98.615993
3725.000000	98.620662
3724.000000	98.627737
3723.000000	98.632128
3722.000000	98.630954
3721.000000	98.625266
3720.000000	98.619076
3719.000000	98.615903
3718.000000	98.616320
3717.000000	98.618339
3716.000000	98.619464
3715.000000	98.618339
3714.000000	98.615157
3713.000000	98.611503
3712.000000	98.609393
3711.000000	98.609530
3710.000000	98.611287
3709.000000	98.613680
3708.000000	98.616027
3707.000000	98.618062
3706.000000	98.619721
3705.000000	98.621113
3704.000000	98.622062
3703.000000	98.621885
3702.000000	98.620049
3701.000000	98.617700
3700.000000	98.617483
3699.000000	98.620057
3698.000000	98.622720
3697.000000	98.622322
3696.000000	98.617735
3695.000000	98.609972
3694.000000	98.602109
3693.000000	98.599420
3692.000000	98.607195
3691.000000	98.625190
3690.000000	98.643188
3689.000000	98.646945
3688.000000	98.634223
3687.000000	98.617064
3686.000000	98.605241
3685.000000	98.599213
3684.000000	98.595854
3683.000000	98.592844
3682.000000	98.589480
3681.000000	98.586235
3680.000000	98.584285
3679.000000	98.583767
3678.000000	98.583240
3677.000000	98.581971
3676.000000	98.579985
3675.000000	98.574121
3674.000000	98.563961
3673.000000	98.554477
3672.000000	98.547930
3671.000000	98.544859
3670.000000	98.544200
3669.000000	98.540166
3668.000000	98.530254
3667.000000	98.518061
3666.000000	98.506156
3665.000000	98.495294
3664.000000	98.486237
3663.000000	98.479440
3662.000000	98.474442
3661.000000	98.470347
3660.000000	98.466972
3659.000000	98.464657
3658.000000	98.463703
3657.000000	98.463921
3656.000000	98.464636
3655.000000	98.465397
3654.000000	98.465223
3653.000000	98.461642
3652.000000	98.453508
3651.000000	98.443395
3650.000000	98.434948
3649.000000	98.428723
3648.000000	98.423611
3647.000000	98.419588
3646.000000	98.416689
3645.000000	98.413605
3644.000000	98.408607
3643.000000	98.401572
3642.000000	98.394324
3641.000000	98.388692
3640.000000	98.384934
3639.000000	98.381948
3638.000000	98.377836
3637.000000	98.370580
3636.000000	98.359584
3635.000000	98.347003
3634.000000	98.336470
3633.000000	98.329027
3632.000000	98.321444
3631.000000	98.310280
3630.000000	98.297025
3629.000000	98.286124
3628.000000	98.278574
3627.000000	98.273844
3626.000000	98.270658
3625.000000	98.266244
3624.000000	98.260289
3623.000000	98.254699
3622.000000	98.250391
3621.000000	98.246487
3620.000000	98.240985
3619.000000	98.231648
3618.000000	98.218784
3617.000000	98.205925
3616.000000	98.195348
3615.000000	98.185883
3614.000000	98.174746
3613.000000	98.159671
3612.000000	98.140931
3611.000000	98.121176
3610.000000	98.102661
3609.000000	98.086792
3608.000000	98.075059
3607.000000	98.068590
3606.000000	98.067235
3605.000000	98.069324
3604.000000	98.072888
3603.000000	98.076345
3602.000000	98.077847
3601.000000	98.074917
3600.000000	98.065792
3599.000000	98.051082
3598.000000	98.033654
3597.000000	98.016494
3596.000000	98.001131
3595.000000	97.987568
3594.000000	97.975078
3593.000000	97.963249
3592.000000	97.951948
3591.000000	97.940856
3590.000000	97.930073
3589.000000	97.920940
3588.000000	97.914113
3587.000000	97.907525
3586.000000	97.899274
3585.000000	97.889900
3584.000000	97.879742
3583.000000	97.867718
3582.000000	97.853040
3581.000000	97.836573
3580.000000	97.820589
3579.000000	97.807450
3578.000000	97.798049
3577.000000	97.791356
3576.000000	97.785004
3575.000000	97.776326
3574.000000	97.763358
3573.000000	97.745983
3572.000000	97.726566
3571.000000	97.708772
3570.000000	97.695517
3569.000000	97.687578
3568.000000	97.682665
3567.000000	97.675918
3566.000000	97.664236
3565.000000	97.649027
3564.000000	97.632622
3563.000000	97.615608
3562.000000	97.598406
3561.000000	97.582463
3560.000000	97.569270
3559.000000	97.558876
3558.000000	97.549954
3557.000000	97.541049
3556.000000	97.531318
3555.000000	97.520068
3554.000000	97.506216
3553.000000	97.488981
3552.000000	97.469529
3551.000000	97.450865
3550.000000	97.435095
3549.000000	97.421749
3548.000000	97.409356
3547.000000	97.397999
3546.000000	97.389326
3545.000000	97.384040
3544.000000	97.379850
3543.000000	97.372691
3542.000000	97.359691
3541.000000	97.341292
3540.000000	97.321151
3539.000000	97.303892
3538.000000	97.291897
3537.000000	97.283293
3536.000000	97.273166
3535.000000	97.257777
3534.000000	97.237810
3533.000000	97.217653
3532.000000	97.201951
3531.000000	97.192495
3530.000000	97.187263
3529.000000	97.182278
3528.000000	97.175030
3527.000000	97.166246
3526.000000	97.158013
3525.000000	97.150488
3524.000000	97.141086
3523.000000	97.127272
3522.000000	97.109864
3521.000000	97.092778
3520.000000	97.079391
3519.000000	97.069549
3518.000000	97.060081
3517.000000	97.047981
3516.000000	97.033182
3515.000000	97.018407
3514.000000	97.006320
3513.000000	96.996743
3512.000000	96.986631
3511.000000	96.972889
3510.000000	96.955476
3509.000000	96.937918
3508.000000	96.924520
3507.000000	96.916938
3506.000000	96.913355
3505.000000	96.910162
3504.000000	96.904099
3503.000000	96.893892
3502.000000	96.880799
3501.000000	96.867223
3500.000000	96.854290
3499.000000	96.841205
3498.000000	96.827146
3497.000000	96.813115
3496.000000	96.800962
3495.000000	96.790665
3494.000000	96.779763
3493.000000	96.766061
3492.000000	96.750201
3491.000000	96.734989
3490.000000	96.722728
3489.000000	96.713674
3488.000000	96.706631
3487.000000	96.700037
3486.000000	96.692400
3485.000000	96.682478
3484.000000	96.669789
3483.000000	96.655234
3482.000000	96.640928
3481.000000	96.628807
3480.000000	96.619132
3479.000000	96.610506
3478.000000	96.601681
3477.000000	96.592951
3476.000000	96.585309
3475.000000	96.578404
3474.000000	96.570282
3473.000000	96.559448
3472.000000	96.546265
3471.000000	96.532089
3470.000000	96.518086
3469.000000	96.505532
3468.000000	96.496151
3467.000000	96.490766
3466.000000	96.487940
3465.000000	96.485211
3464.000000	96.481482
3463.000000	96.477167
3462.000000	96.471975
3461.000000	96.463841
3460.000000	96.450829
3459.000000	96.433666
3458.000000	96.415837
3457.000000	96.401121
3456.000000	96.390996
3455.000000	96.384010
3454.000000	96.377477
3453.000000	96.370031
3452.000000	96.362635
3451.000000	96.357394
3450.000000	96.355447
3449.000000	96.355687
3448.000000	96.354850
3447.000000	96.349165
3446.000000	96.337180
3445.000000	96.321267
3444.000000	96.305670
3443.000000	96.293195
3442.000000	96.284131
3441.000000	96.277746
3440.000000	96.273557
3439.000000	96.270589
3438.000000	96.266568
3437.000000	96.259270
3436.000000	96.248606
3435.000000	96.236597
3434.000000	96.225359
3433.000000	96.215681
3432.000000	96.206954
3431.000000	96.197698
3430.000000	96.186508
3429.000000	96.173444
3428.000000	96.160405
3427.000000	96.149320
3426.000000	96.140269
3425.000000	96.132087
3424.000000	96.124273
3423.000000	96.116998
3422.000000	96.109320
3421.000000	96.099087
3420.000000	96.085416
3419.000000	96.070418
3418.000000	96.057539
3417.000000	96.048676
3416.000000	96.043061
3415.000000	96.038082
3414.000000	96.030949
3413.000000	96.020436
3412.000000	96.007576
3411.000000	95.994377
3410.000000	95.981940
3409.000000	95.970484
3408.000000	95.961051
3407.000000	95.955677
3406.000000	95.954935
3405.000000	95.955936
3404.000000	95.953790
3403.000000	95.945346
3402.000000	95.931431
3401.000000	95.915787
3400.000000	95.901916
3399.000000	95.890391
3398.000000	95.878710
3397.000000	95.864063
3396.000000	95.846582
3395.000000	95.829602
3394.000000	95.816514
3393.000000	95.807744
3392.000000	95.801006
3391.000000	95.794014
3390.000000	95.786365
3389.000000	95.779052
3388.000000	95.772978
3387.000000	95.768208
3386.000000	95.764067
3385.000000	95.759315
3384.000000	95.752157
3383.000000	95.740759
3382.000000	95.724674
3381.000000	95.706167
3380.000000	95.689549
3379.000000	95.678161
3378.000000	95.671607
3377.000000	95.666032
3376.000000	95.657164
3375.000000	95.643150
3374.000000	95.625240
3373.000000	95.606708
3372.000000	95.591107
3371.000000	95.580401
3370.000000	95.573749
3369.000000	95.568172
3368.000000	95.560865
3367.000000	95.551118
3366.000000	95.539996
3365.000000	95.528395
3364.000000	95.515628
3363.000000	95.499962
3362.000000	95.480509
3361.000000	95.458598
3360.000000	95.437159
3359.000000	95.418507
3358.000000	95.402641
3357.000000	95.387656
3356.000000	95.371602
3355.000000	95.354027
3354.000000	95.336161
3353.000000	95.319894
3352.000000	95.306260
3351.000000	95.294393
3350.000000	95.282002
3349.000000	95.267248
3348.000000	95.250285
3347.000000	95.232833
3346.000000	95.216255
3345.000000	95.200173
3344.000000	95.182879
3343.000000	95.163119
3342.000000	95.141581
3341.000000	95.120533
3340.000000	95.101798
3339.000000	95.085270
3338.000000	95.069763
3337.000000	95.054885
3336.000000	95.041066
3335.000000	95.027637
3334.000000	95.012199
3333.000000	94.992888
3332.000000	94.970808
3331.000000	94.949563
3330.000000	94.932611
3329.000000	94.921113
3328.000000	94.913400
3327.000000	94.905915
3326.000000	94.895537
3325.000000	94.881937
3324.000000	94.867439
3323.000000	94.854080
3322.000000	94.841539
3321.000000	94.828456
3320.000000	94.814561
3319.000000	94.800354
3318.000000	94.785459
3317.000000	94.768934
3316.000000	94.751104
3315.000000	94.733812
3314.000000	94.718671
3313.000000	94.705941
3312.000000	94.694901
3311.000000	94.684245
3310.000000	94.672322
3309.000000	94.658297
3308.000000	94.643392
3307.000000	94.629835
3306.000000	94.618142
3305.000000	94.606283
3304.000000	94.591935
3303.000000	94.575119
3302.000000	94.558456
3301.000000	94.545208
3300.000000	94.536927
3299.000000	94.532329
3298.000000	94.528377
3297.000000	94.522884
3296.000000	94.515953
3295.000000	94.508548
3294.000000	94.500372
3293.000000	94.490472
3292.000000	94.479584
3291.000000	94.470296
3290.000000	94.464415
3289.000000	94.461076
3288.000000	94.457950
3287.000000	94.453604
3286.000000	94.448366
3285.000000	94.443566
3284.000000	94.440128
3283.000000	94.437468
3282.000000	94.433999
3281.000000	94.429566
3280.000000	94.427223
3279.000000	94.431087
3278.000000	94.442049
3277.000000	94.456448
3276.000000	94.469573
3275.000000	94.479877
3274.000000	94.489164
3273.000000	94.499647
3272.000000	94.511488
3271.000000	94.522619
3270.000000	94.530371
3269.000000	94.533737
3268.000000	94.534627
3267.000000	94.536639
3266.000000	94.542193
3265.000000	94.551078
3264.000000	94.561886
3263.000000	94.574045
3262.000000	94.587929
3261.000000	94.603534
3260.000000	94.619883
3259.000000	94.635778
3258.000000	94.651047
3257.000000	94.667270
3256.000000	94.686998
3255.000000	94.711421
3254.000000	94.738344
3253.000000	94.763254
3252.000000	94.782987
3251.000000	94.798090
3250.000000	94.811483
3249.000000	94.825424
3248.000000	94.840180
3247.000000	94.854672
3246.000000	94.867398
3245.000000	94.877059
3244.000000	94.883403
3243.000000	94.887822
3242.000000	94.892555
3241.000000	94.899072
3240.000000	94.907587
3239.000000	94.918288
3238.000000	94.932450
3237.000000	94.951524
3236.000000	94.974835
3235.000000	94.998713
3234.000000	95.018575
3233.000000	95.031943
3232.000000	95.039215
3231.000000	95.041974
3230.000000	95.041623
3229.000000	95.039933
3228.000000	95.039669
3227.000000	95.043272
3226.000000	95.051127
3225.000000	95.061997
3224.000000	95.074832
3223.000000	95.089226
3222.000000	95.104384
3221.000000	95.118902
3220.000000	95.131880
3219.000000	95.143231
3218.000000	95.152543
3217.000000	95.158801
3216.000000	95.162081
3215.000000	95.164819
3214.000000	95.170169
3213.000000	95.178975
3212.000000	95.189053
3211.000000	95.197616
3210.000000	95.204080
3209.000000	95.210112
3208.000000	95.217384
3207.000000	95.225961
3206.000000	95.235265
3205.000000	95.245817
3204.000000	95.258720
3203.000000	95.273214
3202.000000	95.286127
3201.000000	95.294805
3200.000000	95.300059
3199.000000	95.305329
3198.000000	95.313262
3197.000000	95.324057
3196.000000	95.336396
3195.000000	95.348654
3194.000000	95.359370
3193.000000	95.368207
3192.000000	95.377079
3191.000000	95.389142
3190.000000	95.405909
3189.000000	95.425839
3188.000000	95.445853
3187.000000	95.463518
3186.000000	95.477862
3185.000000	95.489494
3184.000000	95.500511
3183.000000	95.513148
3182.000000	95.527545
3181.000000	95.541502
3180.000000	95.553143
3179.000000	95.563108
3178.000000	95.573562
3177.000000	95.585677
3176.000000	95.599137
3175.000000	95.613437
3174.000000	95.628466
3173.000000	95.643847
3172.000000	95.658697
3171.000000	95.672259
3170.000000	95.684308
3169.000000	95.695099
3168.000000	95.705494
3167.000000	95.716955
3166.000000	95.730560
3165.000000	95.745679
3164.000000	95.760234
3163.000000	95.772710
3162.000000	95.783821
3161.000000	95.795964
3160.000000	95.811014
3159.000000	95.828568
3158.000000	95.846087
3157.000000	95.860675
3156.000000	95.871008
3155.000000	95.878086
3154.000000	95.884521
3153.000000	95.893091
3152.000000	95.905271
3151.000000	95.920488
3150.000000	95.936617
3149.000000	95.951636
3148.000000	95.964930
3147.000000	95.976908
3146.000000	95.987678
3145.000000	95.996882
3144.000000	96.005088
3143.000000	96.014595
3142.000000	96.027977
3141.000000	96.045634
3140.000000	96.064874
3139.000000	96.081492
3138.000000	96.092427
3137.000000	96.097580
3136.000000	96.099362
3135.000000	96.100507
3134.000000	96.102207
3133.000000	96.104487
3132.000000	96.107740
3131.000000	96.112784
3130.000000	96.119300
3129.000000	96.125543
3128.000000	96.130563
3127.000000	96.135990
3126.000000	96.144345
3125.000000	96.155681
3124.000000	96.167016
3123.000000	96.175267
3122.000000	96.179924
3121.000000	96.182706
3120.000000	96.185476
3119.000000	96.189104
3118.000000	96.193466
3117.000000	96.197682
3116.000000	96.200691
3115.000000	96.202420
3114.000000	96.204105
3113.000000	96.206564
3112.000000	96.208295
3111.000000	96.206418
3110.000000	96.200076
3109.000000	96.192138
3108.000000	96.186680
3107.000000	96.185040
3106.000000	96.185035
3105.000000	96.183864
3104.000000	96.181116
3103.000000	96.178570
3102.000000	96.177444
3101.000000	96.176353
3100.000000	96.172523
3099.000000	96.165204
3098.000000	96.157421
3097.000000	96.153556
3096.000000	96.155122
3095.000000	96.159404
3094.000000	96.162397
3093.000000	96.162247
3092.000000	96.159475
3091.000000	96.155116
3090.000000	96.149931
3089.000000	96.144745
3088.000000	96.139968
3087.000000	96.134734
3086.000000	96.127730
3085.000000	96.119061
3084.000000	96.110464
3083.000000	96.103530
3082.000000	96.098792
3081.000000	96.096535
3080.000000	96.097066
3079.000000	96.099427
3078.000000	96.100992
3077.000000	96.099350
3076.000000	96.094221
3075.000000	96.087252
3074.000000	96.080736
3073.000000	96.076928
3072.000000	96.077435
3071.000000	96.082111
3070.000000	96.088887
3069.000000	96.095317
3068.000000	96.100082
3067.000000	96.102946
3066.000000	96.104183
3065.000000	96.104673
3064.000000	96.105581
3063.000000	96.107240
3062.000000	96.109179
3061.000000	96.111827
3060.000000	96.116895
3059.000000	96.124949
3058.000000	96.133763
3057.000000	96.140739
3056.000000	96.146366
3055.000000	96.153736
3054.000000	96.164801
3053.000000	96.178439
3052.000000	96.191856
3051.000000	96.202601
3050.000000	96.209836
3049.000000	96.215415
3048.000000	96.223493
3047.000000	96.237043
3046.000000	96.254281
3045.000000	96.269972
3044.000000	96.280762
3043.000000	96.287952
3042.000000	96.294711
3041.000000	96.302201
3040.000000	96.309665
3039.000000	96.317016
3038.000000	96.325504
3037.000000	96.335806
3036.000000	96.346900
3035.000000	96.357450
3034.000000	96.367624
3033.000000	96.378575
3032.000000	96.390071
3031.000000	96.399535
3030.000000	96.404609
3029.000000	96.406605
3028.000000	96.410140
3027.000000	96.418607
3026.000000	96.430719
3025.000000	96.442235
3024.000000	96.450362
3023.000000	96.455531
3022.000000	96.459530
3021.000000	96.463580
3020.000000	96.468234
3019.000000	96.473594
3018.000000	96.479043
3017.000000	96.483464
3016.000000	96.486136
3015.000000	96.486959
3014.000000	96.485843
3013.000000	96.482588
3012.000000	96.477257
3011.000000	96.469877
3010.000000	96.459938
3009.000000	96.447179
3008.000000	96.433058
3007.000000	96.420417
3006.000000	96.411183
3005.000000	96.404574
3004.000000	96.397317
3003.000000	96.385433
3002.000000	96.366550
3001.000000	96.341904
3000.000000	96.315986
2999.000000	96.293062
2998.000000	96.273493
2997.000000	96.254037
2996.000000	96.231469
2995.000000	96.204925
2994.000000	96.174799
2993.000000	96.141027
2992.000000	96.103303
2991.000000	96.061927
2990.000000	96.017526
2989.000000	95.970059
2988.000000	95.918651
2987.000000	95.862342
2986.000000	95.801134
2985.000000	95.736785
2984.000000	95.672152
2983.000000	95.608814
2982.000000	95.545183
2981.000000	95.477430
2980.000000	95.402587
2979.000000	95.320241
2978.000000	95.231804
2977.000000	95.139140
2976.000000	95.043700
2975.000000	94.945853
2974.000000	94.844484
2973.000000	94.738044
2972.000000	94.626213
2971.000000	94.509943
2970.000000	94.390236
2969.000000	94.267863
2968.000000	94.144524
2967.000000	94.023082
2966.000000	93.906097
2965.000000	93.794836
2964.000000	93.689947
2963.000000	93.592857
2962.000000	93.506101
2961.000000	93.433074
2960.000000	93.377453
2959.000000	93.342108
2958.000000	93.328317
2957.000000	93.335491
2956.000000	93.361638
2955.000000	93.403212
2954.000000	93.455305
2953.000000	93.512810
2952.000000	93.571197
2951.000000	93.626093
2950.000000	93.672115
2949.000000	93.703719
2948.000000	93.716847
2947.000000	93.709653
2946.000000	93.682068
2945.000000	93.635565
2944.000000	93.572957
2943.000000	93.496408
2942.000000	93.405972
2941.000000	93.300980
2940.000000	93.183260
2939.000000	93.057363
2938.000000	92.927258
2937.000000	92.794535
2936.000000	92.660192
2935.000000	92.527230
2934.000000	92.400183
2933.000000	92.283026
2932.000000	92.178150
2931.000000	92.086539
2930.000000	92.008108
2929.000000	91.942025
2928.000000	91.887849
2927.000000	91.846363
2926.000000	91.819021
2925.000000	91.806708
2924.000000	91.808974
2923.000000	91.824573
2922.000000	91.852485
2921.000000	91.892821
2920.000000	91.946851
2919.000000	92.015762
2918.000000	92.099742
2917.000000	92.198442
2916.000000	92.312026
2915.000000	92.440502
2914.000000	92.581228
2913.000000	92.727813
2912.000000	92.872356
2911.000000	93.009493
2910.000000	93.138354
2909.000000	93.261046
2908.000000	93.379700
2907.000000	93.494776
2906.000000	93.605902
2905.000000	93.713583
2904.000000	93.819540
2903.000000	93.925180
2902.000000	94.030539
2901.000000	94.135441
2900.000000	94.240790
2899.000000	94.347841
2898.000000	94.455753
2897.000000	94.560811
2896.000000	94.658526
2895.000000	94.746273
2894.000000	94.824518
2893.000000	94.896363
2892.000000	94.965593
2891.000000	95.033758
2890.000000	95.098282
2889.000000	95.154022
2888.000000	95.197067
2887.000000	95.226919
2886.000000	95.245569
2885.000000	95.255522
2884.000000	95.258495
2883.000000	95.254547
2882.000000	95.241515
2881.000000	95.216110
2880.000000	95.176286
2879.000000	95.122695
2878.000000	95.058273
2877.000000	94.987647
2876.000000	94.916785
2875.000000	94.851865
2874.000000	94.797696
2873.000000	94.757132
2872.000000	94.731705
2871.000000	94.721322
2870.000000	94.722723
2869.000000	94.729106
2868.000000	94.732362
2867.000000	94.726110
2866.000000	94.707265
2865.000000	94.675921
2864.000000	94.633871
2863.000000	94.582770
2862.000000	94.523504
2861.000000	94.457926
2860.000000	94.390498
2859.000000	94.326766
2858.000000	94.270095
2857.000000	94.221368
2856.000000	94.182099
2855.000000	94.155935
2854.000000	94.147153
2853.000000	94.159259
2852.000000	94.196143
2851.000000	94.263046
2850.000000	94.364234
2849.000000	94.499584
2848.000000	94.663423
2847.000000	94.845706
2846.000000	95.033996
2845.000000	95.216654
2844.000000	95.386024
2843.000000	95.539408
2842.000000	95.676605
2841.000000	95.797164
2840.000000	95.900920
2839.000000	95.989667
2838.000000	96.066792
2837.000000	96.135270
2836.000000	96.196383
2835.000000	96.249800
2834.000000	96.294503
2833.000000	96.330552
2832.000000	96.360859
2831.000000	96.390198
2830.000000	96.421265
2829.000000	96.452348
2828.000000	96.479670
2827.000000	96.501292
2826.000000	96.518101
2825.000000	96.532127
2824.000000	96.545531
2823.000000	96.560480
2822.000000	96.578114
2821.000000	96.597274
2820.000000	96.615229
2819.000000	96.629974
2818.000000	96.641523
2817.000000	96.651464
2816.000000	96.662003
2815.000000	96.674876
2814.000000	96.690125
2813.000000	96.706060
2812.000000	96.721090
2811.000000	96.735354
2810.000000	96.750002
2809.000000	96.765508
2808.000000	96.781592
2807.000000	96.798149
2806.000000	96.814894
2805.000000	96.830420
2804.000000	96.843063
2803.000000	96.853026
2802.000000	96.862534
2801.000000	96.873536
2800.000000	96.885898
2799.000000	96.898026
2798.000000	96.908539
2797.000000	96.917159
2796.000000	96.924698
2795.000000	96.932465
2794.000000	96.941211
2793.000000	96.950303
2792.000000	96.958252
2791.000000	96.964258
2790.000000	96.969228
2789.000000	96.975376
2788.000000	96.984969
2787.000000	96.998894
2786.000000	97.015680
2785.000000	97.031945
2784.000000	97.044528
2783.000000	97.052678
2782.000000	97.058166
2781.000000	97.063422
2780.000000	97.069651
2779.000000	97.076522
2778.000000	97.083031
2777.000000	97.088417
2776.000000	97.092415
2775.000000	97.095033
2774.000000	97.096584
2773.000000	97.098260
2772.000000	97.102084
2771.000000	97.109270
2770.000000	97.118481
2769.000000	97.126613
2768.000000	97.131779
2767.000000	97.134876
2766.000000	97.137864
2765.000000	97.141332
2764.000000	97.144579
2763.000000	97.147512
2762.000000	97.151373
2761.000000	97.157434
2760.000000	97.165516
2759.000000	97.173934
2758.000000	97.180641
2757.000000	97.184533
2756.000000	97.186068
2755.000000	97.186749
2754.000000	97.187976
2753.000000	97.190391
2752.000000	97.194029
2751.000000	97.198560
2750.000000	97.203261
2749.000000	97.207247
2748.000000	97.210021
2747.000000	97.211575
2746.000000	97.212087
2745.000000	97.212262
2744.000000	97.214032
2743.000000	97.219743
2742.000000	97.229613
2741.000000	97.240347
2740.000000	97.247204
2739.000000	97.247857
2738.000000	97.244250
2737.000000	97.240915
2736.000000	97.241540
2735.000000	97.246748
2734.000000	97.254608
2733.000000	97.262904
2732.000000	97.270605
2731.000000	97.277125
2730.000000	97.281170
2729.000000	97.281654
2728.000000	97.279820
2727.000000	97.279137
2726.000000	97.282424
2725.000000	97.289650
2724.000000	97.298777
2723.000000	97.307730
2722.000000	97.314941
2721.000000	97.319196
2720.000000	97.320506
2719.000000	97.320820
2718.000000	97.322685
2717.000000	97.326956
2716.000000	97.332421
2715.000000	97.337543
2714.000000	97.341860
2713.000000	97.345694
2712.000000	97.349280
2711.000000	97.352583
2710.000000	97.355588
2709.000000	97.358397
2708.000000	97.361082
2707.000000	97.363693
2706.000000	97.366444
2705.000000	97.369699
2704.000000	97.373380
2703.000000	97.376372
2702.000000	97.377187
2701.000000	97.375863
2700.000000	97.374818
2699.000000	97.376759
2698.000000	97.381655
2697.000000	97.386626
2696.000000	97.389111
2695.000000	97.389349
2694.000000	97.389347
2693.000000	97.390357
2692.000000	97.392189
2691.000000	97.394334
2690.000000	97.396591
2689.000000	97.398580
2688.000000	97.399581
2687.000000	97.399414
2686.000000	97.399121
2685.000000	97.400300
2684.000000	97.403517
2683.000000	97.407467
2682.000000	97.409991
2681.000000	97.410141
2680.000000	97.409154
2679.000000	97.409171
2678.000000	97.411119
2677.000000	97.414078
2676.000000	97.416498
2675.000000	97.417616
2674.000000	97.417898
2673.000000	97.418618
2672.000000	97.420903
2671.000000	97.424466
2670.000000	97.427278
2669.000000	97.427240
2668.000000	97.424478
2667.000000	97.421457
2666.000000	97.420449
2665.000000	97.421247
2664.000000	97.421706
2663.000000	97.420255
2662.000000	97.417570
2661.000000	97.415804
2660.000000	97.416283
2659.000000	97.418030
2658.000000	97.418810
2657.000000	97.417835
2656.000000	97.417138
2655.000000	97.419909
2654.000000	97.427662
2653.000000	97.439264
2652.000000	97.451988
2651.000000	97.462890
2650.000000	97.469970
2649.000000	97.473540
2648.000000	97.476523
2647.000000	97.482098
2646.000000	97.490474
2645.000000	97.498697
2644.000000	97.503845
2643.000000	97.505543
2642.000000	97.505356
2641.000000	97.504976
2640.000000	97.505697
2639.000000	97.508697
2638.000000	97.514605
2637.000000	97.522701
2636.000000	97.530992
2635.000000	97.537315
2634.000000	97.540784
2633.000000	97.542572
2632.000000	97.545005
2631.000000	97.549402
2630.000000	97.555198
2629.000000	97.561783
2628.000000	97.570322
2627.000000	97.582222
2626.000000	97.596003
2625.000000	97.607377
2624.000000	97.612975
2623.000000	97.612957
2622.000000	97.609882
2621.000000	97.606428
2620.000000	97.604563
2619.000000	97.605411
2618.000000	97.608705
2617.000000	97.612866
2616.000000	97.616297
2615.000000	97.618493
2614.000000	97.620224
2613.000000	97.623435
2612.000000	97.630457
2611.000000	97.641693
2610.000000	97.653826
2609.000000	97.661786
2608.000000	97.663147
2607.000000	97.659940
2606.000000	97.656157
2605.000000	97.654628
2604.000000	97.656170
2603.000000	97.659862
2602.000000	97.663394
2601.000000	97.664462
2600.000000	97.662799
2599.000000	97.660412
2598.000000	97.659794
2597.000000	97.662655
2596.000000	97.669810
2595.000000	97.680381
2594.000000	97.690776
2593.000000	97.696392
2592.000000	97.695722
2591.000000	97.692061
2590.000000	97.690468
2589.000000	97.693525
2588.000000	97.699972
2587.000000	97.706525
2586.000000	97.710838
2585.000000	97.713503
2584.000000	97.717114
2583.000000	97.722496
2582.000000	97.726504
2581.000000	97.725195
2580.000000	97.718927
2579.000000	97.712528
2578.000000	97.709958
2577.000000	97.710406
2576.000000	97.710150
2575.000000	97.707230
2574.000000	97.703876
2573.000000	97.704849
2572.000000	97.713171
2571.000000	97.726617
2570.000000	97.739139
2569.000000	97.746734
2568.000000	97.750924
2567.000000	97.755041
2566.000000	97.758755
2565.000000	97.758911
2564.000000	97.755105
2563.000000	97.751354
2562.000000	97.751581
2561.000000	97.755516
2560.000000	97.759251
2559.000000	97.758615
2558.000000	97.752535
2557.000000	97.744780
2556.000000	97.741526
2555.000000	97.745157
2554.000000	97.751492
2553.000000	97.755388
2552.000000	97.757346
2551.000000	97.761261
2550.000000	97.767041
2549.000000	97.770093
2548.000000	97.768040
2547.000000	97.763563
2546.000000	97.760033
2545.000000	97.758581
2544.000000	97.760386
2543.000000	97.767184
2542.000000	97.777209
2541.000000	97.784104
2540.000000	97.782656
2539.000000	97.773628
2538.000000	97.761750
2537.000000	97.751579
2536.000000	97.746543
2535.000000	97.748486
2534.000000	97.755227
2533.000000	97.760569
2532.000000	97.759066
2531.000000	97.750120
2530.000000	97.736510
2529.000000	97.721171
2528.000000	97.706745
2527.000000	97.695942
2526.000000	97.689818
2525.000000	97.686330
2524.000000	97.681781
2523.000000	97.673423
2522.000000	97.661153
2521.000000	97.648599
2520.000000	97.642287
2519.000000	97.646719
2518.000000	97.658952
2517.000000	97.670030
2516.000000	97.673324
2515.000000	97.669958
2514.000000	97.666038
2513.000000	97.666834
2512.000000	97.674114
2511.000000	97.686156
2510.000000	97.698589
2509.000000	97.707400
2508.000000	97.712758
2507.000000	97.718411
2506.000000	97.726439
2505.000000	97.734821
2504.000000	97.741322
2503.000000	97.747664
2502.000000	97.757906
2501.000000	97.773828
2500.000000	97.793077
2499.000000	97.810776
2498.000000	97.822665
2497.000000	97.828369
2496.000000	97.831985
2495.000000	97.837795
2494.000000	97.845095
2493.000000	97.849524
2492.000000	97.849721
2491.000000	97.849575
2490.000000	97.853099
2489.000000	97.860083
2488.000000	97.868651
2487.000000	97.879143
2486.000000	97.892820
2485.000000	97.908344
2484.000000	97.921841
2483.000000	97.929942
2482.000000	97.931798
2481.000000	97.929401
2480.000000	97.926840
2479.000000	97.927405
2478.000000	97.930081
2477.000000	97.930665
2476.000000	97.927463
2475.000000	97.924300
2474.000000	97.926159
2473.000000	97.933161
2472.000000	97.940673
2471.000000	97.944646
2470.000000	97.945407
2469.000000	97.946572
2468.000000	97.951257
2467.000000	97.959255
2466.000000	97.967535
2465.000000	97.973517
2464.000000	97.977496
2463.000000	97.981122
2462.000000	97.984313
2461.000000	97.985263
2460.000000	97.983246
2459.000000	97.979692
2458.000000	97.976351
2457.000000	97.974005
2456.000000	97.972886
2455.000000	97.972916
2454.000000	97.973592
2453.000000	97.974992
2452.000000	97.978298
2451.000000	97.983526
2450.000000	97.987560
2449.000000	97.987113
2448.000000	97.983430
2447.000000	97.981406
2446.000000	97.983763
2445.000000	97.988579
2444.000000	97.992741
2443.000000	97.995112
2442.000000	97.995920
2441.000000	97.995636
2440.000000	97.995122
2439.000000	97.994626
2438.000000	97.992190
2437.000000	97.985662
2436.000000	97.976871
2435.000000	97.970928
2434.000000	97.970330
2433.000000	97.972314
2432.000000	97.973456
2431.000000	97.974739
2430.000000	97.980085
2429.000000	97.990971
2428.000000	98.004004
2427.000000	98.013352
2426.000000	98.015259
2425.000000	98.011072
2424.000000	98.006234
2423.000000	98.005631
2422.000000	98.009600
2421.000000	98.014811
2420.000000	98.017865
2419.000000	98.017113
2418.000000	98.012459
2417.000000	98.005651
2416.000000	98.000006
2415.000000	97.997763
2414.000000	97.998093
2413.000000	97.999396
2412.000000	98.002469
2411.000000	98.009065
2410.000000	98.018265
2409.000000	98.026800
2408.000000	98.032551
2407.000000	98.035429
2406.000000	98.035446
2405.000000	98.032465
2404.000000	98.027574
2403.000000	98.022537
2402.000000	98.018300
2401.000000	98.015769
2400.000000	98.016653
2399.000000	98.020997
2398.000000	98.025115
2397.000000	98.024966
2396.000000	98.020805
2395.000000	98.016007
2394.000000	98.012603
2393.000000	98.011039
2392.000000	98.012689
2391.000000	98.018497
2390.000000	98.025750
2389.000000	98.030329
2388.000000	98.032388
2387.000000	98.035626
2386.000000	98.041121
2385.000000	98.045549
2384.000000	98.046474
2383.000000	98.046460
2382.000000	98.049740
2381.000000	98.057854
2380.000000	98.068472
2379.000000	98.076510
2378.000000	98.076908
2377.000000	98.069099
2376.000000	98.059034
2375.000000	98.053055
2374.000000	98.050427
2373.000000	98.045873
2372.000000	98.039289
2371.000000	98.037008
2370.000000	98.042716
2369.000000	98.053141
2368.000000	98.062589
2367.000000	98.067698
2366.000000	98.066624
2365.000000	98.059246
2364.000000	98.049277
2363.000000	98.040597
2362.000000	98.033534
2361.000000	98.027997
2360.000000	98.025499
2359.000000	98.027809
2358.000000	98.034894
2357.000000	98.043960
2356.000000	98.051131
2355.000000	98.049534
2354.000000	98.040677
2353.000000	98.034176
2352.000000	98.035889
2351.000000	98.039833
2350.000000	98.036301
2349.000000	98.021679
2348.000000	98.000207
2347.000000	97.982389
2346.000000	97.976371
2345.000000	97.979078
2344.000000	97.985739
2343.000000	97.996618
2342.000000	98.012755
2341.000000	98.027817
2340.000000	98.032335
2339.000000	98.024426
2338.000000	98.011003
2337.000000	98.000464
2336.000000	97.994300
2335.000000	97.991181
2334.000000	97.990227
2333.000000	97.993077
2332.000000	97.996131
2331.000000	97.996470
2330.000000	97.992312
2329.000000	97.987874
2328.000000	97.981314
2327.000000	97.967501
2326.000000	97.942997
2325.000000	97.915456
2324.000000	97.899700
2323.000000	97.905078
2322.000000	97.924684
2321.000000	97.942708
2320.000000	97.949589
2319.000000	97.950906
2318.000000	97.954629
2317.000000	97.964834
2316.000000	97.978416
2315.000000	97.992464
2314.000000	98.001930
2313.000000	98.005766
2312.000000	98.007329
2311.000000	98.013961
2310.000000	98.025589
2309.000000	98.035821
2308.000000	98.039261
2307.000000	98.038953
2306.000000	98.039079
2305.000000	98.039716
2304.000000	98.038522
2303.000000	98.036689
2302.000000	98.035586
2301.000000	98.034240
2300.000000	98.030237
2299.000000	98.025825
2298.000000	98.024503
2297.000000	98.027747
2296.000000	98.032106
2295.000000	98.033741
2294.000000	98.030399
2293.000000	98.023785
2292.000000	98.018259
2291.000000	98.017817
2290.000000	98.022623
2289.000000	98.029936
2288.000000	98.037061
2287.000000	98.040726
2286.000000	98.036491
2285.000000	98.023566
2284.000000	98.010876
2283.000000	98.011058
2282.000000	98.027631
2281.000000	98.051370
2280.000000	98.070624
2279.000000	98.079707
2278.000000	98.078030
2277.000000	98.068892
2276.000000	98.061171
2275.000000	98.064917
2274.000000	98.080998
2273.000000	98.100201
2272.000000	98.114184
2271.000000	98.122789
2270.000000	98.129693
2269.000000	98.137716
2268.000000	98.149386
2267.000000	98.164584
2266.000000	98.175354
2265.000000	98.171086
2264.000000	98.151953
2263.000000	98.130823
2262.000000	98.119351
2261.000000	98.118200
2260.000000	98.121715
2259.000000	98.124543
2258.000000	98.122918
2257.000000	98.117288
2256.000000	98.115668
2255.000000	98.126563
2254.000000	98.147036
2253.000000	98.166026
2252.000000	98.179151
2251.000000	98.190584
2250.000000	98.200077
2249.000000	98.200894
2248.000000	98.192363
2247.000000	98.183010
2246.000000	98.178067
2245.000000	98.175774
2244.000000	98.177791
2243.000000	98.189481
2242.000000	98.206077
2241.000000	98.213218
2240.000000	98.207482
2239.000000	98.202708
2238.000000	98.208505
2237.000000	98.216303
2236.000000	98.215410
2235.000000	98.210333
2234.000000	98.211664
2233.000000	98.220142
2232.000000	98.229358
2231.000000	98.235078
2230.000000	98.233813
2229.000000	98.222205
2228.000000	98.206608
2227.000000	98.203233
2226.000000	98.219660
2225.000000	98.244598
2224.000000	98.263906
2223.000000	98.277171
2222.000000	98.290467
2221.000000	98.303062
2220.000000	98.310849
2219.000000	98.313848
2218.000000	98.311245
2217.000000	98.298630
2216.000000	98.279101
2215.000000	98.267336
2214.000000	98.272422
2213.000000	98.285075
2212.000000	98.291731
2211.000000	98.294286
2210.000000	98.304898
2209.000000	98.326342
2208.000000	98.347409
2207.000000	98.355067
2206.000000	98.345059
2205.000000	98.323437
2204.000000	98.301752
2203.000000	98.287362
2202.000000	98.277953
2201.000000	98.270116
2200.000000	98.269671
2199.000000	98.283080
2198.000000	98.301630
2197.000000	98.308585
2196.000000	98.303151
2195.000000	98.301776
2194.000000	98.313690
2193.000000	98.331277
2192.000000	98.347451
2191.000000	98.364232
2190.000000	98.377968
2189.000000	98.376831
2188.000000	98.363247
2187.000000	98.360923
2186.000000	98.385515
2185.000000	98.422328
2184.000000	98.446408
2183.000000	98.454157
2182.000000	98.460505
2181.000000	98.472531
2180.000000	98.479427
2179.000000	98.466080
2178.000000	98.430804
2177.000000	98.393094
2176.000000	98.381275
2175.000000	98.401733
2174.000000	98.423692
2173.000000	98.409792
2172.000000	98.360599
2171.000000	98.312037
2170.000000	98.292051
2169.000000	98.296363
2168.000000	98.304677
2167.000000	98.304709
2166.000000	98.299828
2165.000000	98.308309
2164.000000	98.351825
2163.000000	98.426320
2162.000000	98.491708
2161.000000	98.516844
2160.000000	98.529820
2159.000000	98.584019
2158.000000	98.669161
2157.000000	98.717067
2156.000000	98.701275
2155.000000	98.662548
2154.000000	98.639082
2153.000000	98.628632
2152.000000	98.617272
2151.000000	98.603119
2150.000000	98.586066
2149.000000	98.563920
2148.000000	98.546646
2147.000000	98.547986
2146.000000	98.556332
2145.000000	98.538410
2144.000000	98.480693
2143.000000	98.406001
2142.000000	98.344731
2141.000000	98.310673
2140.000000	98.305712
2139.000000	98.325350
2138.000000	98.353446
2137.000000	98.370710
2136.000000	98.375570
2135.000000	98.381545
2134.000000	98.391114
2133.000000	98.391822
2132.000000	98.380411
2131.000000	98.369942
2130.000000	98.367785
2129.000000	98.364919
2128.000000	98.352970
2127.000000	98.336925
2126.000000	98.324534
2125.000000	98.314946
2124.000000	98.304253
2123.000000	98.292070
2122.000000	98.277754
2121.000000	98.259264
2120.000000	98.239807
2119.000000	98.226460
2118.000000	98.219052
2117.000000	98.209679
2116.000000	98.195917
2115.000000	98.184676
2114.000000	98.179721
2113.000000	98.175616
2112.000000	98.167902
2111.000000	98.160026
2110.000000	98.155969
2109.000000	98.154822
2108.000000	98.155607
2107.000000	98.159008
2106.000000	98.162553
2105.000000	98.163677
2104.000000	98.168108
2103.000000	98.183775
2102.000000	98.205011
2101.000000	98.216017
2100.000000	98.212999
2099.000000	98.210350
2098.000000	98.222820
2097.000000	98.252418
2096.000000	98.293310
2095.000000	98.333691
2094.000000	98.352174
2093.000000	98.331468
2092.000000	98.281632
2091.000000	98.233645
2090.000000	98.206266
2089.000000	98.193284
2088.000000	98.184927
2087.000000	98.184001
2086.000000	98.192960
2085.000000	98.202750
2084.000000	98.205506
2083.000000	98.206270
2082.000000	98.212354
2081.000000	98.222421
2080.000000	98.233788
2079.000000	98.248036
2078.000000	98.261445
2077.000000	98.262293
2076.000000	98.247682
2075.000000	98.231402
2074.000000	98.227340
2073.000000	98.236619
2072.000000	98.255202
2071.000000	98.279875
2070.000000	98.299595
2069.000000	98.298240
2068.000000	98.277226
2067.000000	98.260246
2066.000000	98.265315
2065.000000	98.284335
2064.000000	98.298267
2063.000000	98.299425
2062.000000	98.290229
2061.000000	98.276555
2060.000000	98.271146
2059.000000	98.286490
2058.000000	98.316067
2057.000000	98.339148
2056.000000	98.350154
2055.000000	98.363195
2054.000000	98.379746
2053.000000	98.378501
2052.000000	98.351985
2051.000000	98.328418
2050.000000	98.337773
2049.000000	98.372223
2048.000000	98.401491
2047.000000	98.416865
2046.000000	98.432082
2045.000000	98.450354
2044.000000	98.458082
2043.000000	98.444843
2042.000000	98.411888
2041.000000	98.371246
2040.000000	98.346988
2039.000000	98.360384
2038.000000	98.404437
2037.000000	98.450752
2036.000000	98.489582
2035.000000	98.539350
2034.000000	98.603442
2033.000000	98.651341
2032.000000	98.664187
2031.000000	98.663434
2030.000000	98.668404
2029.000000	98.662161
2028.000000	98.625721
2027.000000	98.576743
2026.000000	98.545502
2025.000000	98.538185
2024.000000	98.543302
2023.000000	98.552580
2022.000000	98.556371
2021.000000	98.541939
2020.000000	98.515953
2019.000000	98.506401
2018.000000	98.525737
2017.000000	98.551005
2016.000000	98.554906
2015.000000	98.536634
2014.000000	98.508656
2013.000000	98.480844
2012.000000	98.468896
2011.000000	98.491026
2010.000000	98.543423
2009.000000	98.599380
2008.000000	98.639631
2007.000000	98.663071
2006.000000	98.664257
2005.000000	98.634833
2004.000000	98.590532
2003.000000	98.562173
2002.000000	98.555141
2001.000000	98.545501
2000.000000	98.519991
1999.000000	98.488196
1998.000000	98.457222
1997.000000	98.425178
1996.000000	98.402865
1995.000000	98.408453
1994.000000	98.434145
1993.000000	98.447205
1992.000000	98.435758
1991.000000	98.424684
1990.000000	98.429643
1989.000000	98.433139
1988.000000	98.422965
1987.000000	98.418213
1986.000000	98.438147
1985.000000	98.472973
1984.000000	98.500764
1983.000000	98.508194
1982.000000	98.483936
1981.000000	98.423813
1980.000000	98.361985
1979.000000	98.358782
1978.000000	98.433383
1977.000000	98.531917
1976.000000	98.592930
1975.000000	98.613569
1974.000000	98.622136
1973.000000	98.631308
1972.000000	98.644617
1971.000000	98.667792
1970.000000	98.690170
1969.000000	98.685980
1968.000000	98.651866
1967.000000	98.616421
1966.000000	98.598390
1965.000000	98.587271
1964.000000	98.576233
1963.000000	98.577720
1962.000000	98.595073
1961.000000	98.611789
1960.000000	98.620278
1959.000000	98.631112
1958.000000	98.644056
1957.000000	98.641860
1956.000000	98.621223
1955.000000	98.598572
1954.000000	98.579023
1953.000000	98.552447
1952.000000	98.525525
1951.000000	98.527416
1950.000000	98.566263
1949.000000	98.610352
1948.000000	98.628792
1947.000000	98.623994
1946.000000	98.610304
1945.000000	98.587872
1944.000000	98.555480
1943.000000	98.527567
1942.000000	98.517665
1941.000000	98.521233
1940.000000	98.529618
1939.000000	98.541622
1938.000000	98.551271
1937.000000	98.544440
1936.000000	98.519049
1935.000000	98.492464
1934.000000	98.478988
1933.000000	98.475739
1932.000000	98.475721
1931.000000	98.481016
1930.000000	98.488046
1929.000000	98.482852
1928.000000	98.464742
1927.000000	98.451974
1926.000000	98.460349
1925.000000	98.481707
1924.000000	98.503621
1923.000000	98.527777
1922.000000	98.555355
1921.000000	98.572188
1920.000000	98.564456
1919.000000	98.537514
1918.000000	98.510172
1917.000000	98.492882
1916.000000	98.484899
1915.000000	98.482779
1914.000000	98.483514
1913.000000	98.485005
1912.000000	98.489182
1911.000000	98.500888
1910.000000	98.515859
1909.000000	98.520876
1908.000000	98.511465
1907.000000	98.494711
1906.000000	98.478661
1905.000000	98.462120
1904.000000	98.448263
1903.000000	98.447720
1902.000000	98.461523
1901.000000	98.479717
1900.000000	98.500291
1899.000000	98.529927
1898.000000	98.565718
1897.000000	98.587601
1896.000000	98.584649
1895.000000	98.572775
1894.000000	98.571148
1893.000000	98.576270
1892.000000	98.572920
1891.000000	98.557375
1890.000000	98.538001
1889.000000	98.522748
1888.000000	98.516771
1887.000000	98.523417
1886.000000	98.538801
1885.000000	98.552429
1884.000000	98.557682
1883.000000	98.557416
1882.000000	98.553742
1881.000000	98.545260
1880.000000	98.536978
1879.000000	98.537852
1878.000000	98.548364
1877.000000	98.557323
1876.000000	98.556942
1875.000000	98.556094
1874.000000	98.567153
1873.000000	98.588324
1872.000000	98.609427
1871.000000	98.626785
1870.000000	98.643823
1869.000000	98.659947
1868.000000	98.667650
1867.000000	98.660862
1866.000000	98.635865
1865.000000	98.594772
1864.000000	98.554053
1863.000000	98.535544
1862.000000	98.543795
1861.000000	98.562295
1860.000000	98.576015
1859.000000	98.585510
1858.000000	98.594982
1857.000000	98.600366
1856.000000	98.597424
1855.000000	98.590448
1854.000000	98.584981
1853.000000	98.580505
1852.000000	98.579909
1851.000000	98.583181
1850.000000	98.589210
1849.000000	98.599835
1848.000000	98.620284
1847.000000	98.648442
1846.000000	98.668159
1845.000000	98.665680
1844.000000	98.650493
1843.000000	98.645309
1842.000000	98.648867
1841.000000	98.641078
1840.000000	98.620011
1839.000000	98.604393
1838.000000	98.605904
1837.000000	98.609609
1836.000000	98.602908
1835.000000	98.597904
1834.000000	98.608878
1833.000000	98.629031
1832.000000	98.643611
1831.000000	98.648977
1830.000000	98.655836
1829.000000	98.665149
1828.000000	98.665214
1827.000000	98.649903
1826.000000	98.627675
1825.000000	98.613915
1824.000000	98.612619
1823.000000	98.614789
1822.000000	98.610229
1821.000000	98.599200
1820.000000	98.591753
1819.000000	98.596316
1818.000000	98.611261
1817.000000	98.623725
1816.000000	98.627117
1815.000000	98.626759
1814.000000	98.625112
1813.000000	98.619811
1812.000000	98.609015
1811.000000	98.599942
1810.000000	98.596436
1809.000000	98.587886
1808.000000	98.566644
1807.000000	98.539946
1806.000000	98.517691
1805.000000	98.499231
1804.000000	98.478634
1803.000000	98.454515
1802.000000	98.424927
1801.000000	98.391154
1800.000000	98.355191
1799.000000	98.324233
1798.000000	98.303121
1797.000000	98.292617
1796.000000	98.294041
1795.000000	98.307618
1794.000000	98.327999
1793.000000	98.354333
1792.000000	98.388672
1791.000000	98.431226
1790.000000	98.473761
1789.000000	98.504102
1788.000000	98.518757
1787.000000	98.526924
1786.000000	98.539068
1785.000000	98.556070
1784.000000	98.574443
1783.000000	98.592120
1782.000000	98.600386
1781.000000	98.600638
1780.000000	98.597531
1779.000000	98.598500
1778.000000	98.605987
1777.000000	98.620245
1776.000000	98.645302
1775.000000	98.673959
1774.000000	98.688138
1773.000000	98.681082
1772.000000	98.665481
1771.000000	98.649948
1770.000000	98.620417
1769.000000	98.556546
1768.000000	98.470818
1767.000000	98.405821
1766.000000	98.375730
1765.000000	98.347509
1764.000000	98.282361
1763.000000	98.176034
1762.000000	98.048379
1761.000000	97.916144
1760.000000	97.770528
1759.000000	97.590619
1758.000000	97.346362
1757.000000	97.028875
1756.000000	96.682726
1755.000000	96.361381
1754.000000	96.054515
1753.000000	95.703176
1752.000000	95.273065
1751.000000	94.797185
1750.000000	94.335816
1749.000000	93.893669
1748.000000	93.466379
1747.000000	93.083762
1746.000000	92.759491
1745.000000	92.477602
1744.000000	92.234225
1743.000000	92.055352
1742.000000	91.945649
1741.000000	91.873574
1740.000000	91.834971
1739.000000	91.873018
1738.000000	91.984979
1737.000000	92.114191
1736.000000	92.241443
1735.000000	92.440254
1734.000000	92.785526
1733.000000	93.175183
1732.000000	93.493109
1731.000000	93.767441
1730.000000	94.056822
1729.000000	94.373266
1728.000000	94.697772
1727.000000	95.013122
1726.000000	95.313537
1725.000000	95.602126
1724.000000	95.881528
1723.000000	96.157291
1722.000000	96.417471
1721.000000	96.637785
1720.000000	96.817651
1719.000000	96.994409
1718.000000	97.200714
1717.000000	97.388285
1716.000000	97.495098
1715.000000	97.539449
1714.000000	97.557025
1713.000000	97.556934
1712.000000	97.545573
1711.000000	97.537571
1710.000000	97.538787
1709.000000	97.542208
1708.000000	97.537954
1707.000000	97.516002
1706.000000	97.477413
1705.000000	97.436087
1704.000000	97.410646
1703.000000	97.384629
1702.000000	97.303856
1701.000000	97.143083
1700.000000	96.986412
1699.000000	96.929040
1698.000000	96.893353
1697.000000	96.752724
1696.000000	96.505524
1695.000000	96.280976
1694.000000	96.147790
1693.000000	96.044833
1692.000000	95.920832
1691.000000	95.786098
1690.000000	95.664061
1689.000000	95.564923
1688.000000	95.494709
1687.000000	95.439673
1686.000000	95.360765
1685.000000	95.204154
1684.000000	94.983229
1683.000000	94.797740
1682.000000	94.656811
1681.000000	94.499214
1680.000000	94.326345
1679.000000	94.180942
1678.000000	94.064206
1677.000000	93.927050
1676.000000	93.741258
1675.000000	93.555583
1674.000000	93.427553
1673.000000	93.336397
1672.000000	93.222119
1671.000000	93.062588
1670.000000	92.861798
1669.000000	92.638327
1668.000000	92.432494
1667.000000	92.272974
1666.000000	92.144753
1665.000000	92.007225
1664.000000	91.829928
1663.000000	91.625543
1662.000000	91.426152
1661.000000	91.246839
1660.000000	91.080299
1659.000000	90.928408
1658.000000	90.809909
1657.000000	90.734899
1656.000000	90.682172
1655.000000	90.601639
1654.000000	90.439384
1653.000000	90.196008
1652.000000	90.022531
1651.000000	89.975861
1650.000000	89.959534
1649.000000	89.915544
1648.000000	89.843257
1647.000000	89.772940
1646.000000	89.734146
1645.000000	89.716985
1644.000000	89.705059
1643.000000	89.699955
1642.000000	89.703497
1641.000000	89.721548
1640.000000	89.763107
1639.000000	89.827637
1638.000000	89.898723
1637.000000	89.948727
1636.000000	89.972948
1635.000000	89.992316
1634.000000	90.027532
1633.000000	90.063903
1632.000000	90.092843
1631.000000	90.130315
1630.000000	90.192347
1629.000000	90.280940
1628.000000	90.391178
1627.000000	90.517412
1626.000000	90.646986
1625.000000	90.772168
1624.000000	90.901077
1623.000000	91.050153
1622.000000	91.210997
1621.000000	91.363514
1620.000000	91.501532
1619.000000	91.631053
1618.000000	91.767509
1617.000000	91.927435
1616.000000	92.103874
1615.000000	92.263157
1614.000000	92.387376
1613.000000	92.488138
1612.000000	92.593970
1611.000000	92.723503
1610.000000	92.864801
1609.000000	92.997300
1608.000000	93.117999
1607.000000	93.234231
1606.000000	93.341017
1605.000000	93.434922
1604.000000	93.519742
1603.000000	93.596625
1602.000000	93.661400
1601.000000	93.713372
1600.000000	93.761378
1599.000000	93.812603
1598.000000	93.863872
1597.000000	93.908979
1596.000000	93.946881
1595.000000	93.978766
1594.000000	94.002052
1593.000000	94.016450
1592.000000	94.027944
1591.000000	94.040534
1590.000000	94.048849
1589.000000	94.046503
1588.000000	94.034110
1587.000000	94.014585
1586.000000	93.987434
1585.000000	93.953669
1584.000000	93.922727
1583.000000	93.891820
1582.000000	93.854032
1581.000000	93.817254
1580.000000	93.798362
1579.000000	93.792336
1578.000000	93.773522
1577.000000	93.719277
1576.000000	93.639300
1575.000000	93.570966
1574.000000	93.524176
1573.000000	93.481780
1572.000000	93.430014
1571.000000	93.363470
1570.000000	93.279906
1569.000000	93.188303
1568.000000	93.110458
1567.000000	93.038116
1566.000000	92.949131
1565.000000	92.845190
1564.000000	92.763959
1563.000000	92.726517
1562.000000	92.712295
1561.000000	92.676248
1560.000000	92.574490
1559.000000	92.367453
1558.000000	92.134538
1557.000000	91.968870
1556.000000	91.820551
1555.000000	91.650610
1554.000000	91.473587
1553.000000	91.321052
1552.000000	91.188997
1551.000000	91.050291
1550.000000	90.901588
1549.000000	90.762038
1548.000000	90.652739
1547.000000	90.567136
1546.000000	90.491906
1545.000000	90.429300
1544.000000	90.392361
1543.000000	90.380363
1542.000000	90.371304
1541.000000	90.321841
1540.000000	90.218034
1539.000000	90.116342
1538.000000	90.065268
1537.000000	90.044396
1536.000000	90.024704
1535.000000	90.002880
1534.000000	89.989632
1533.000000	89.993412
1532.000000	90.005933
1531.000000	90.021306
1530.000000	90.038022
1529.000000	90.052116
1528.000000	90.065580
1527.000000	90.089129
1526.000000	90.128769
1525.000000	90.178063
1524.000000	90.220312
1523.000000	90.242114
1522.000000	90.242280
1521.000000	90.230332
1520.000000	90.223452
1519.000000	90.220360
1518.000000	90.200976
1517.000000	90.161631
1516.000000	90.126639
1515.000000	90.119598
1514.000000	90.131030
1513.000000	90.151060
1512.000000	90.192849
1511.000000	90.277412
1510.000000	90.393266
1509.000000	90.506027
1508.000000	90.588542
1507.000000	90.634506
1506.000000	90.635262
1505.000000	90.614434
1504.000000	90.602041
1503.000000	90.597752
1502.000000	90.598391
1501.000000	90.603065
1500.000000	90.615784
1499.000000	90.638511
1498.000000	90.657168
1497.000000	90.645585
1496.000000	90.608002
1495.000000	90.586094
1494.000000	90.588014
1493.000000	90.588005
1492.000000	90.573393
1491.000000	90.558060
1490.000000	90.542872
1489.000000	90.497177
1488.000000	90.410977
1487.000000	90.313532
1486.000000	90.219094
1485.000000	90.116747
1484.000000	90.006080
1483.000000	89.888180
1482.000000	89.760828
1481.000000	89.619512
1480.000000	89.473413
1479.000000	89.330816
1478.000000	89.182527
1477.000000	89.017355
1476.000000	88.845902
1475.000000	88.682537
1474.000000	88.491107
1473.000000	88.216741
1472.000000	87.881397
1471.000000	87.576641
1470.000000	87.326577
1469.000000	87.100008
1468.000000	86.885598
1467.000000	86.692965
1466.000000	86.514728
1465.000000	86.337267
1464.000000	86.175700
1463.000000	86.053452
1462.000000	85.964689
1461.000000	85.886743
1460.000000	85.809224
1459.000000	85.713309
1458.000000	85.547546
1457.000000	85.282429
1456.000000	85.029828
1455.000000	84.879840
1454.000000	84.775242
1453.000000	84.662206
1452.000000	84.548635
1451.000000	84.460934
1450.000000	84.391546
1449.000000	84.311629
1448.000000	84.219476
1447.000000	84.141254
1446.000000	84.075475
1445.000000	84.006392
1444.000000	83.927940
1443.000000	83.845979
1442.000000	83.764304
1441.000000	83.683325
1440.000000	83.605999
1439.000000	83.523357
1438.000000	83.409742
1437.000000	83.249015
1436.000000	83.089441
1435.000000	82.990257
1434.000000	82.931961
1433.000000	82.869601
1432.000000	82.796544
1431.000000	82.723469
1430.000000	82.639309
1429.000000	82.522586
1428.000000	82.386252
1427.000000	82.261183
1426.000000	82.146716
1425.000000	82.039072
1424.000000	81.961082
1423.000000	81.932122
1422.000000	81.923981
1421.000000	81.892306
1420.000000	81.834146
1419.000000	81.785731
1418.000000	81.760897
1417.000000	81.738358
1416.000000	81.718847
1415.000000	81.722389
1414.000000	81.754555
1413.000000	81.808782
1412.000000	81.887339
1411.000000	81.996305
1410.000000	82.125639
1409.000000	82.257867
1408.000000	82.392417
1407.000000	82.539480
1406.000000	82.692570
1405.000000	82.840804
1404.000000	82.986079
1403.000000	83.129450
1402.000000	83.257424
1401.000000	83.361162
1400.000000	83.457006
1399.000000	83.565020
1398.000000	83.675664
1397.000000	83.767427
1396.000000	83.845475
1395.000000	83.931478
1394.000000	84.027914
1393.000000	84.127259
1392.000000	84.232922
1391.000000	84.350770
1390.000000	84.476834
1389.000000	84.607549
1388.000000	84.751352
1387.000000	84.913324
1386.000000	85.072958
1385.000000	85.210557
1384.000000	85.334179
1383.000000	85.462328
1382.000000	85.601286
1381.000000	85.745362
1380.000000	85.897227
1379.000000	86.066692
1378.000000	86.254138
1377.000000	86.452175
1376.000000	86.661115
1375.000000	86.883273
1374.000000	87.102350
1373.000000	87.294220
1372.000000	87.455031
1371.000000	87.597277
1370.000000	87.729268
1369.000000	87.858940
1368.000000	87.994387
1367.000000	88.135309
1366.000000	88.272641
1365.000000	88.401369
1364.000000	88.525210
1363.000000	88.644227
1362.000000	88.748017
1361.000000	88.831003
1360.000000	88.901276
1359.000000	88.966948
1358.000000	89.028911
1357.000000	89.088560
1356.000000	89.150749
1355.000000	89.217302
1354.000000	89.285056
1353.000000	89.352489
1352.000000	89.421169
1351.000000	89.491309
1350.000000	89.556620
1349.000000	89.613627
1348.000000	89.661399
1347.000000	89.695884
1346.000000	89.710854
1345.000000	89.708212
1344.000000	89.698451
1343.000000	89.687768
1342.000000	89.671129
1341.000000	89.640332
1340.000000	89.593356
1339.000000	89.534812
1338.000000	89.472274
1337.000000	89.415360
1336.000000	89.374604
1335.000000	89.357439
1334.000000	89.366170
1333.000000	89.400750
1332.000000	89.459323
1331.000000	89.535216
1330.000000	89.618376
1329.000000	89.703211
1328.000000	89.790559
1327.000000	89.880667
1326.000000	89.968607
1325.000000	90.049960
1324.000000	90.123648
1323.000000	90.189514
1322.000000	90.248639
1321.000000	90.306573
1320.000000	90.370158
1319.000000	90.439628
1318.000000	90.509242
1317.000000	90.576865
1316.000000	90.646493
1315.000000	90.720432
1314.000000	90.796126
1313.000000	90.871798
1312.000000	90.948990
1311.000000	91.027856
1310.000000	91.105300
1309.000000	91.179929
1308.000000	91.253938
1307.000000	91.329608
1306.000000	91.406604
1305.000000	91.484568
1304.000000	91.563240
1303.000000	91.641059
1302.000000	91.717220
1301.000000	91.794916
1300.000000	91.877994
1299.000000	91.964647
1298.000000	92.048334
1297.000000	92.123876
1296.000000	92.189409
1295.000000	92.243528
1294.000000	92.285935
1293.000000	92.319544
1292.000000	92.347858
1291.000000	92.371333
1290.000000	92.388753
1289.000000	92.400703
1288.000000	92.408432
1287.000000	92.412020
1286.000000	92.413372
1285.000000	92.417675
1284.000000	92.427855
1283.000000	92.440410
1282.000000	92.450479
1281.000000	92.457844
1280.000000	92.462875
1279.000000	92.459790
1278.000000	92.440624
1277.000000	92.403723
1276.000000	92.353408
1275.000000	92.291678
1274.000000	92.216495
1273.000000	92.126967
1272.000000	92.024056
1271.000000	91.906641
1270.000000	91.770860
1269.000000	91.615723
1268.000000	91.446106
1267.000000	91.268122
1266.000000	91.084469
1265.000000	90.894771
1264.000000	90.699592
1263.000000	90.502910
1262.000000	90.311295
1261.000000	90.131059
1260.000000	89.965054
1259.000000	89.811025
1258.000000	89.665208
1257.000000	89.530384
1256.000000	89.417631
1255.000000	89.337958
1254.000000	89.292442
1253.000000	89.271087
1252.000000	89.260078
1251.000000	89.246605
1250.000000	89.221412
1249.000000	89.182255
1248.000000	89.134228
1247.000000	89.083898
1246.000000	89.033880
1245.000000	88.984949
1244.000000	88.940599
1243.000000	88.905616
1242.000000	88.882139
1241.000000	88.870869
1240.000000	88.874586
1239.000000	88.896732
1238.000000	88.937062
1237.000000	88.993769
1236.000000	89.067426
1235.000000	89.158787
1234.000000	89.264913
1233.000000	89.380709
1232.000000	89.504543
1231.000000	89.638626
1230.000000	89.786195
1229.000000	89.952147
1228.000000	90.142262
1227.000000	90.358210
1226.000000	90.593173
1225.000000	90.834736
1224.000000	91.071297
1223.000000	91.294809
1222.000000	91.501322
1221.000000	91.690519
1220.000000	91.862645
1219.000000	92.014806
1218.000000	92.144138
1217.000000	92.253044
1216.000000	92.347443
1215.000000	92.430748
1214.000000	92.501943
1213.000000	92.560506
1212.000000	92.607987
1211.000000	92.644521
1210.000000	92.668105
1209.000000	92.677183
1208.000000	92.672635
1207.000000	92.656937
1206.000000	92.633805
1205.000000	92.608353
1204.000000	92.584060
1203.000000	92.560192
1202.000000	92.534303
1201.000000	92.506915
1200.000000	92.481344
1199.000000	92.459061
1198.000000	92.438303
1197.000000	92.417223
1196.000000	92.395460
1195.000000	92.372365
1194.000000	92.346421
1193.000000	92.317128
1192.000000	92.284991
1191.000000	92.249036
1190.000000	92.207101
1189.000000	92.158799
1188.000000	92.105631
1187.000000	92.047417
1186.000000	91.980779
1185.000000	91.902977
1184.000000	91.814655
1183.000000	91.717651
1182.000000	91.612182
1181.000000	91.497218
1180.000000	91.373010
1179.000000	91.241168
1178.000000	91.103611
1177.000000	90.963279
1176.000000	90.824474
1175.000000	90.690559
1174.000000	90.561549
1173.000000	90.436204
1172.000000	90.315629
1171.000000	90.202475
1170.000000	90.096723
1169.000000	89.995420
1168.000000	89.897268
1167.000000	89.804770
1166.000000	89.722933
1165.000000	89.657491
1164.000000	89.613973
1163.000000	89.595581
1162.000000	89.600446
1161.000000	89.625083
1160.000000	89.669288
1159.000000	89.735783
1158.000000	89.827819
1157.000000	89.947915
1156.000000	90.098241
1155.000000	90.276824
1154.000000	90.475769
1153.000000	90.688632
1152.000000	90.915920
1151.000000	91.160869
1150.000000	91.421167
1149.000000	91.689043
1148.000000	91.957721
1147.000000	92.223370
1146.000000	92.483504
1145.000000	92.737094
1144.000000	92.985242
1143.000000	93.228229
1142.000000	93.462837
1141.000000	93.683477
1140.000000	93.885442
1139.000000	94.067748
1138.000000	94.232726
1137.000000	94.383203
1136.000000	94.517919
1135.000000	94.631127
1134.000000	94.719547
1133.000000	94.786465
1132.000000	94.838523
1131.000000	94.879798
1130.000000	94.910737
1129.000000	94.931187
1128.000000	94.940453
1127.000000	94.937397
1126.000000	94.922700
1125.000000	94.899424
1124.000000	94.870136
1123.000000	94.834364
1122.000000	94.791051
1121.000000	94.740859
1120.000000	94.682641
1119.000000	94.610406
1118.000000	94.515785
1117.000000	94.393720
1116.000000	94.243972
1115.000000	94.068149
1114.000000	93.870022
1113.000000	93.659172
1112.000000	93.453337
1111.000000	93.273828
1110.000000	93.136624
1109.000000	93.046336
1108.000000	92.998169
1107.000000	92.983075
1106.000000	92.989939
1105.000000	93.007918
1104.000000	93.027957
1103.000000	93.043174
1102.000000	93.046994
1101.000000	93.032577
1100.000000	92.996056
1099.000000	92.939123
1098.000000	92.868580
1097.000000	92.792397
1096.000000	92.718173
1095.000000	92.653819
1094.000000	92.606234
1093.000000	92.578190
1092.000000	92.570071
1091.000000	92.584641
1090.000000	92.628092
1089.000000	92.702760
1088.000000	92.801082
1087.000000	92.910713
1086.000000	93.024543
1085.000000	93.144259
1084.000000	93.272716
1083.000000	93.407058
1082.000000	93.541463
1081.000000	93.672534
1080.000000	93.799029
1079.000000	93.918851
1078.000000	94.030293
1077.000000	94.134117
1076.000000	94.231760
1075.000000	94.322749
1074.000000	94.405986
1073.000000	94.481193
1072.000000	94.546506
1071.000000	94.598485
1070.000000	94.635818
1069.000000	94.659865
1068.000000	94.670440
1067.000000	94.665641
1066.000000	94.649298
1065.000000	94.632623
1064.000000	94.623908
1063.000000	94.620733
1062.000000	94.616236
1061.000000	94.609925
1060.000000	94.607642
1059.000000	94.613880
1058.000000	94.628764
1057.000000	94.650564
1056.000000	94.676317
1055.000000	94.701702
1054.000000	94.725309
1053.000000	94.751800
1052.000000	94.786846
1051.000000	94.829344
1050.000000	94.873037
1049.000000	94.914686
1048.000000	94.955682
1047.000000	94.996020
1046.000000	95.030959
1045.000000	95.054025
1044.000000	95.060387
1043.000000	95.049330
1042.000000	95.025889
1041.000000	94.998142
1040.000000	94.969315
1039.000000	94.933234
1038.000000	94.881356
1037.000000	94.812859
1036.000000	94.735594
1035.000000	94.658631
1034.000000	94.587022
1033.000000	94.522560
1032.000000	94.465750
1031.000000	94.416842
1030.000000	94.377484
1029.000000	94.352211
1028.000000	94.344878
1027.000000	94.352917
1026.000000	94.367816
1025.000000	94.382623
1024.000000	94.398199
1023.000000	94.420806
1022.000000	94.455104
1021.000000	94.499745
1020.000000	94.548087
1019.000000	94.593218
1018.000000	94.633956
1017.000000	94.676303
1016.000000	94.727543
1015.000000	94.788872
1014.000000	94.855551
1013.000000	94.923686
1012.000000	94.994499
1011.000000	95.071636
1010.000000	95.156134
1009.000000	95.244756
1008.000000	95.331864
1007.000000	95.412983
1006.000000	95.487695
1005.000000	95.558872
1004.000000	95.628108
1003.000000	95.692784
1002.000000	95.749025
1001.000000	95.795993
1000.000000	95.836233
999.000000	95.872416
998.000000	95.904955
997.000000	95.932063
996.000000	95.951401
995.000000	95.963621
994.000000	95.974396
993.000000	95.990123
992.000000	96.010667
991.000000	96.028702
990.000000	96.037699
989.000000	96.037990
988.000000	96.033500
987.000000	96.026274
986.000000	96.016852
985.000000	96.007087
984.000000	95.998491
983.000000	95.988610
982.000000	95.972504
981.000000	95.947569
980.000000	95.915444
979.000000	95.879683
978.000000	95.842915
977.000000	95.805634
976.000000	95.766062
975.000000	95.722065
974.000000	95.674233
973.000000	95.626512
972.000000	95.583527
971.000000	95.548765
970.000000	95.525258
969.000000	95.515171
968.000000	95.517212
967.000000	95.526219
966.000000	95.538448
965.000000	95.556360
964.000000	95.585493
963.000000	95.627727
962.000000	95.679342
961.000000	95.735727
960.000000	95.795445
959.000000	95.859358
958.000000	95.928604
957.000000	96.003826
956.000000	96.085108
955.000000	96.171752
954.000000	96.262616
953.000000	96.356566
952.000000	96.451543
951.000000	96.543680
950.000000	96.628626
949.000000	96.704131
948.000000	96.771377
947.000000	96.834643
946.000000	96.898857
945.000000	96.964987
944.000000	97.027952
943.000000	97.081250
942.000000	97.124533
941.000000	97.163731
940.000000	97.203155
939.000000	97.241194
938.000000	97.274507
937.000000	97.303451
936.000000	97.331713
935.000000	97.363708
934.000000	97.403369
933.000000	97.451468
932.000000	97.502218
931.000000	97.546440
930.000000	97.580435
929.000000	97.608659
928.000000	97.636099
927.000000	97.662542
926.000000	97.687373
925.000000	97.714809
924.000000	97.749723
923.000000	97.791107
922.000000	97.834276
921.000000	97.877197
920.000000	97.920275
919.000000	97.961972
918.000000	97.999744
917.000000	98.034867
916.000000	98.071958
915.000000	98.113471
914.000000	98.157282
913.000000	98.199921
912.000000	98.240062
911.000000	98.278582
910.000000	98.316577
909.000000	98.353539
908.000000	98.387731
907.000000	98.419277
906.000000	98.451628
905.000000	98.486612
904.000000	98.518417
903.000000	98.537401
902.000000	98.541925
901.000000	98.542769
900.000000	98.553684
899.000000	98.579518
898.000000	98.614898
897.000000	98.649965
896.000000	98.675770
895.000000	98.688174
894.000000	98.690293
893.000000	98.689163
892.000000	98.686664
891.000000	98.673946
890.000000	98.630604
889.000000	98.522412
888.000000	98.302663
887.000000	97.928964
886.000000	97.397090
885.000000	96.758310
884.000000	96.092996
883.000000	95.457985
882.000000	94.846984
881.000000	94.200785
880.000000	93.460814
879.000000	92.623500
878.000000	91.749805
877.000000	90.934239
876.000000	90.268601
875.000000	89.826425
874.000000	89.663675
873.000000	89.813250
872.000000	90.276780
871.000000	91.009080
870.000000	91.913937
869.000000	92.869087
868.000000	93.764614
867.000000	94.534064
866.000000	95.161375
865.000000	95.666230
864.000000	96.077678
863.000000	96.417749
862.000000	96.700940
861.000000	96.939643
860.000000	97.143613
859.000000	97.316188
858.000000	97.458468
857.000000	97.574326
856.000000	97.669827
855.000000	97.750993
854.000000	97.823397
853.000000	97.887969
852.000000	97.930712
851.000000	97.926183
850.000000	97.865980
849.000000	97.784644
848.000000	97.744948
847.000000	97.787475
846.000000	97.896432
845.000000	98.019098
844.000000	98.113247
843.000000	98.171922
842.000000	98.209964
841.000000	98.239935
840.000000	98.265362
839.000000	98.287158
838.000000	98.305554
837.000000	98.315676
836.000000	98.309838
835.000000	98.288832
834.000000	98.266768
833.000000	98.259860
832.000000	98.272141
831.000000	98.296416
830.000000	98.326508
829.000000	98.362456
828.000000	98.403541
827.000000	98.443298
826.000000	98.476016
825.000000	98.503779
824.000000	98.532236
823.000000	98.561709
822.000000	98.587576
821.000000	98.607700
820.000000	98.624546
819.000000	98.640010
818.000000	98.652220
817.000000	98.658557
816.000000	98.659053
815.000000	98.655815
814.000000	98.651248
813.000000	98.648506
812.000000	98.651783
811.000000	98.662499
810.000000	98.674467
809.000000	98.675931
808.000000	98.659952
807.000000	98.632270
806.000000	98.606114
805.000000	98.588995
804.000000	98.577061
803.000000	98.562716
802.000000	98.543897
801.000000	98.523726
800.000000	98.504540
799.000000	98.485835
798.000000	98.466633
797.000000	98.446698
796.000000	98.425800
795.000000	98.403760
794.000000	98.380687
793.000000	98.356347
792.000000	98.330902
791.000000	98.307081
790.000000	98.288526
789.000000	98.273664
788.000000	98.253842
787.000000	98.221484
786.000000	98.179617
785.000000	98.140461
784.000000	98.114703
783.000000	98.103834
782.000000	98.101662
781.000000	98.100586
780.000000	98.096650
779.000000	98.090858
778.000000	98.085983
777.000000	98.080763
776.000000	98.067987
775.000000	98.040679
774.000000	98.000792
773.000000	97.960233
772.000000	97.932036
771.000000	97.920237
770.000000	97.917921
769.000000	97.914867
768.000000	97.906644
767.000000	97.895259
766.000000	97.881211
765.000000	97.858907
764.000000	97.823792
763.000000	97.781355
762.000000	97.742661
761.000000	97.710647
760.000000	97.677465
759.000000	97.637536
758.000000	97.596201
757.000000	97.560474
756.000000	97.527493
755.000000	97.489992
754.000000	97.450508
753.000000	97.421781
752.000000	97.411897
751.000000	97.414772
750.000000	97.416899
749.000000	97.410006
748.000000	97.395944
747.000000	97.382593
746.000000	97.376956
745.000000	97.379737
744.000000	97.384133
743.000000	97.380343
742.000000	97.362468
741.000000	97.331952
740.000000	97.295442
739.000000	97.259548
738.000000	97.226133
737.000000	97.191413
736.000000	97.150588
735.000000	97.103283
734.000000	97.052215
733.000000	96.997338
732.000000	96.936422
731.000000	96.872761
730.000000	96.816338
729.000000	96.772187
728.000000	96.734526
727.000000	96.697468
726.000000	96.664202
725.000000	96.639264
724.000000	96.616068
723.000000	96.579939
722.000000	96.520929
721.000000	96.436716
720.000000	96.323283
719.000000	96.167370
718.000000	95.945387
717.000000	95.622929
716.000000	95.165934
715.000000	94.581864
714.000000	93.966907
713.000000	93.493066
712.000000	93.312941
711.000000	93.452910
710.000000	93.797109
709.000000	94.174857
708.000000	94.465439
707.000000	94.639463
706.000000	94.726448
705.000000	94.763973
704.000000	94.773898
703.000000	94.764247
702.000000	94.739638
701.000000	94.707810
700.000000	94.677172
699.000000	94.652746
698.000000	94.634137
697.000000	94.618254
696.000000	94.603700
695.000000	94.589717
694.000000	94.576449
693.000000	94.566757
692.000000	94.563644
691.000000	94.567274
690.000000	94.573510
689.000000	94.577224
688.000000	94.576315
687.000000	94.570811
686.000000	94.562984
685.000000	94.556496
684.000000	94.551514
683.000000	94.544170
682.000000	94.533180
681.000000	94.524231
680.000000	94.523263
679.000000	94.528802
678.000000	94.535662
677.000000	94.540229
676.000000	94.546577
675.000000	94.561140
674.000000	94.587384
673.000000	94.625429
672.000000	94.674040
671.000000	94.733519
670.000000	94.810861
669.000000	94.917393
668.000000	95.022582
667.000000	95.067897
666.000000	95.093091
665.000000	95.111837
664.000000	95.111716
663.000000	95.100901
662.000000	95.094491
661.000000	95.098509
660.000000	95.110571
659.000000	95.128691
658.000000	95.147696
657.000000	95.151404
656.000000	95.129355
655.000000	95.086837
654.000000	95.032432
653.000000	94.966768
652.000000	94.892163
651.000000	94.817549
650.000000	94.745831
649.000000	94.667736
648.000000	94.579243
647.000000	94.489694
646.000000	94.402766
645.000000	94.308196
644.000000	94.201360
643.000000	94.094649
642.000000	94.000891
641.000000	93.916417
640.000000	93.832658
639.000000	93.752793
638.000000	93.683449
637.000000	93.624351
636.000000	93.579158
635.000000	93.560838
634.000000	93.574258
633.000000	93.606840
632.000000	93.644752
631.000000	93.683860
630.000000	93.716655
629.000000	93.727114
628.000000	93.712094
627.000000	93.692598
626.000000	93.687755
625.000000	93.689035
624.000000	93.673447
623.000000	93.632580
622.000000	93.576944
621.000000	93.520216
620.000000	93.470529
619.000000	93.429839
618.000000	93.391059
617.000000	93.342280
616.000000	93.283168
615.000000	93.229551
614.000000	93.193205
613.000000	93.167858
612.000000	93.144517
611.000000	93.130080
610.000000	93.138823
609.000000	93.172966
608.000000	93.222531
607.000000	93.279104
606.000000	93.340837
605.000000	93.412616
604.000000	93.507074
603.000000	93.638666
602.000000	93.810504
601.000000	94.008921
600.000000	94.212813
599.000000	94.404593
598.000000	94.575022
597.000000	94.724714
596.000000	94.860553
595.000000	94.985276
594.000000	95.091342
593.000000	95.171175
592.000000	95.231244
591.000000	95.287573
590.000000	95.348479
589.000000	95.410520
588.000000	95.469622
587.000000	95.522408
586.000000	95.558378
585.000000	95.566711
584.000000	95.554161
583.000000	95.542032
582.000000	95.540933
581.000000	95.543909
580.000000	95.549212
579.000000	95.571967
578.000000	95.620449
577.000000	95.675730
576.000000	95.709685
575.000000	95.716364
574.000000	95.714169
573.000000	95.720414
572.000000	95.738195
571.000000	95.760955
570.000000	95.778146
569.000000	95.782385
568.000000	95.779326
567.000000	95.783850
566.000000	95.800760
565.000000	95.817610
564.000000	95.823288
563.000000	95.823162
562.000000	95.827525
561.000000	95.835498
560.000000	95.839842
559.000000	95.839532
558.000000	95.838051
557.000000	95.837912
556.000000	95.845290
555.000000	95.869333
554.000000	95.908066
553.000000	95.945393
552.000000	95.970884
551.000000	95.991343
550.000000	96.015451
549.000000	96.039879
548.000000	96.059594
547.000000	96.077330
546.000000	96.091579
545.000000	96.089309
544.000000	96.066720
543.000000	96.044384
542.000000	96.046056
541.000000	96.069439
540.000000	96.090017
539.000000	96.087761
538.000000	96.061312
537.000000	96.025474
536.000000	96.003151
535.000000	96.007816
534.000000	96.024246
533.000000	96.019431
532.000000	95.981510
531.000000	95.935686
530.000000	95.915194
529.000000	95.932102
528.000000	95.984289
527.000000	96.065785
526.000000	96.149389
525.000000	96.187630
524.000000	96.163423
523.000000	96.111145
522.000000	96.071495
521.000000	96.054802
520.000000	96.057309
519.000000	96.085404
518.000000	96.138544
517.000000	96.186716
516.000000	96.202844
515.000000	96.201182
514.000000	96.210793
513.000000	96.231882
512.000000	96.246462
511.000000	96.256993
510.000000	96.286485
509.000000	96.343857
508.000000	96.412933
507.000000	96.474102
506.000000	96.517000
505.000000	96.539164
504.000000	96.551726
503.000000	96.580939
502.000000	96.641045
501.000000	96.707219
500.000000	96.746771
499.000000	96.765866
498.000000	96.795166
497.000000	96.841602
496.000000	96.877155
495.000000	96.872637
494.000000	96.825720
493.000000	96.759068
492.000000	96.708853
491.000000	96.711671
490.000000	96.778149
489.000000	96.878524
488.000000	96.968037
487.000000	97.019215
486.000000	97.023764
485.000000	96.987045
484.000000	96.941224
483.000000	96.944112
482.000000	97.022495
481.000000	97.126019
480.000000	97.174936
479.000000	97.147693
478.000000	97.102111
477.000000	97.111827
476.000000	97.198986
475.000000	97.329212
474.000000	97.443773
473.000000	97.496789
472.000000	97.496842
471.000000	97.505380
470.000000	97.555853
469.000000	97.612136
468.000000	97.632392
467.000000	97.636245
466.000000	97.678027
465.000000	97.763539
464.000000	97.847714
463.000000	97.907576
462.000000	97.970555
461.000000	98.059958
460.000000	98.155138
459.000000	98.222221
458.000000	98.250834
457.000000	98.170935
456.000000	98.226667
455.000000	98.325042
454.000000	98.449923
453.000000	98.562634
452.000000	98.622392
451.000000	98.638207
450.000000	98.668174
