PE IR       SUBTECH     SPECTRUM    ASCII       PEDS        4.00        
   -1
3C-XXX-C013_1.ASC
23/09/07
10:29:25.00
23/09/07
11:30:09.00
uco
Sample 013 By uco Date Thursday, September 07 2023
450.000000
#HDR
-1
-1
#GR
cm-1
%T
1.0
0.0
4000.000000
-1.000000
3551
8
98.827056
88.210147
#DATA
4000.000000	98.759030
3999.000000	98.760820
3998.000000	98.759934
3997.000000	98.756659
3996.000000	98.751547
3995.000000	98.745138
3994.000000	98.738267
3993.000000	98.732500
3992.000000	98.729756
3991.000000	98.730878
3990.000000	98.734486
3989.000000	98.737646
3988.000000	98.737932
3987.000000	98.735051
3986.000000	98.730633
3985.000000	98.726695
3984.000000	98.724428
3983.000000	98.723860
3982.000000	98.724213
3981.000000	98.724500
3980.000000	98.723999
3979.000000	98.722389
3978.000000	98.719536
3977.000000	98.715406
3976.000000	98.710513
3975.000000	98.706350
3974.000000	98.704747
3973.000000	98.706410
3972.000000	98.710131
3971.000000	98.713661
3970.000000	98.715434
3969.000000	98.715379
3968.000000	98.714523
3967.000000	98.714212
3966.000000	98.715506
3965.000000	98.718741
3964.000000	98.723124
3963.000000	98.726908
3962.000000	98.728521
3961.000000	98.727747
3960.000000	98.725667
3959.000000	98.723489
3958.000000	98.721593
3957.000000	98.719665
3956.000000	98.717401
3955.000000	98.714758
3954.000000	98.711723
3953.000000	98.708212
3952.000000	98.704473
3951.000000	98.701439
3950.000000	98.700234
3949.000000	98.700997
3948.000000	98.702369
3947.000000	98.702509
3946.000000	98.700750
3945.000000	98.698182
3944.000000	98.696749
3943.000000	98.697898
3942.000000	98.701793
3941.000000	98.707448
3940.000000	98.713135
3939.000000	98.716695
3938.000000	98.716094
3937.000000	98.710439
3936.000000	98.701104
3935.000000	98.691786
3934.000000	98.687027
3933.000000	98.689736
3932.000000	98.698920
3931.000000	98.709815
3930.000000	98.717079
3929.000000	98.718321
3928.000000	98.715041
3927.000000	98.710924
3926.000000	98.709206
3925.000000	98.710821
3924.000000	98.714350
3923.000000	98.717658
3922.000000	98.719433
3921.000000	98.719240
3920.000000	98.716725
3919.000000	98.711610
3918.000000	98.704878
3917.000000	98.699522
3916.000000	98.698765
3915.000000	98.702995
3914.000000	98.709184
3913.000000	98.713454
3912.000000	98.713663
3911.000000	98.710167
3910.000000	98.704682
3909.000000	98.698436
3908.000000	98.691669
3907.000000	98.684443
3906.000000	98.677798
3905.000000	98.674198
3904.000000	98.676332
3903.000000	98.684526
3902.000000	98.695511
3901.000000	98.704567
3900.000000	98.709243
3899.000000	98.710794
3898.000000	98.711906
3897.000000	98.713572
3896.000000	98.714609
3895.000000	98.713597
3894.000000	98.710769
3893.000000	98.708377
3892.000000	98.709072
3891.000000	98.712894
3890.000000	98.716516
3889.000000	98.716676
3888.000000	98.713419
3887.000000	98.709492
3886.000000	98.707430
3885.000000	98.707287
3884.000000	98.706964
3883.000000	98.704684
3882.000000	98.700835
3881.000000	98.697587
3880.000000	98.697090
3879.000000	98.699336
3878.000000	98.701896
3877.000000	98.702353
3876.000000	98.700264
3875.000000	98.696955
3874.000000	98.694042
3873.000000	98.691808
3872.000000	98.689573
3871.000000	98.687919
3870.000000	98.689322
3869.000000	98.695094
3868.000000	98.702502
3867.000000	98.707163
3866.000000	98.707090
3865.000000	98.704009
3864.000000	98.701866
3863.000000	98.703213
3862.000000	98.706795
3861.000000	98.709538
3860.000000	98.709624
3859.000000	98.706954
3858.000000	98.702305
3857.000000	98.696633
3856.000000	98.690394
3855.000000	98.682765
3854.000000	98.674049
3853.000000	98.668835
3852.000000	98.670548
3851.000000	98.676620
3850.000000	98.683627
3849.000000	98.690526
3848.000000	98.697192
3847.000000	98.702776
3846.000000	98.705703
3845.000000	98.704957
3844.000000	98.701488
3843.000000	98.698299
3842.000000	98.698315
3841.000000	98.701781
3840.000000	98.706110
3839.000000	98.708256
3838.000000	98.708048
3837.000000	98.708264
3836.000000	98.710655
3835.000000	98.713879
3834.000000	98.715717
3833.000000	98.715835
3832.000000	98.715970
3831.000000	98.717753
3830.000000	98.720641
3829.000000	98.722427
3828.000000	98.721336
3827.000000	98.717290
3826.000000	98.711584
3825.000000	98.705562
3824.000000	98.699860
3823.000000	98.694533
3822.000000	98.689911
3821.000000	98.686854
3820.000000	98.685157
3819.000000	98.683823
3818.000000	98.683476
3817.000000	98.686014
3816.000000	98.691777
3815.000000	98.697985
3814.000000	98.701300
3813.000000	98.701248
3812.000000	98.699942
3811.000000	98.699864
3810.000000	98.702250
3809.000000	98.706615
3808.000000	98.711250
3807.000000	98.714490
3806.000000	98.715623
3805.000000	98.714760
3804.000000	98.712750
3803.000000	98.711446
3802.000000	98.713440
3801.000000	98.719160
3800.000000	98.724605
3799.000000	98.725345
3798.000000	98.720755
3797.000000	98.713590
3796.000000	98.707281
3795.000000	98.703401
3794.000000	98.701429
3793.000000	98.700622
3792.000000	98.701083
3791.000000	98.703112
3790.000000	98.706365
3789.000000	98.709823
3788.000000	98.712515
3787.000000	98.714169
3786.000000	98.715182
3785.000000	98.716119
3784.000000	98.717357
3783.000000	98.719133
3782.000000	98.721421
3781.000000	98.723406
3780.000000	98.723387
3779.000000	98.720159
3778.000000	98.714943
3777.000000	98.711068
3776.000000	98.711416
3775.000000	98.716291
3774.000000	98.723241
3773.000000	98.728444
3772.000000	98.728609
3771.000000	98.722956
3770.000000	98.714636
3769.000000	98.709152
3768.000000	98.710000
3767.000000	98.716517
3766.000000	98.725014
3765.000000	98.730883
3764.000000	98.731325
3763.000000	98.727023
3762.000000	98.721327
3761.000000	98.718155
3760.000000	98.719725
3759.000000	98.725016
3758.000000	98.730961
3757.000000	98.735555
3756.000000	98.739076
3755.000000	98.743003
3754.000000	98.748427
3753.000000	98.754592
3752.000000	98.757978
3751.000000	98.754027
3750.000000	98.741890
3749.000000	98.726463
3748.000000	98.714486
3747.000000	98.711603
3746.000000	98.721449
3745.000000	98.741202
3744.000000	98.759909
3743.000000	98.769202
3742.000000	98.770243
3741.000000	98.767337
3740.000000	98.763003
3739.000000	98.758345
3738.000000	98.754491
3737.000000	98.752404
3736.000000	98.751264
3735.000000	98.748904
3734.000000	98.745149
3733.000000	98.743036
3732.000000	98.745365
3731.000000	98.751035
3730.000000	98.756149
3729.000000	98.758025
3728.000000	98.756901
3727.000000	98.754361
3726.000000	98.751575
3725.000000	98.749391
3724.000000	98.748810
3723.000000	98.750390
3722.000000	98.753155
3721.000000	98.755342
3720.000000	98.756413
3719.000000	98.757432
3718.000000	98.759338
3717.000000	98.761596
3716.000000	98.762921
3715.000000	98.762511
3714.000000	98.759955
3713.000000	98.755267
3712.000000	98.750035
3711.000000	98.746765
3710.000000	98.745528
3709.000000	98.744147
3708.000000	98.741725
3707.000000	98.739404
3706.000000	98.738615
3705.000000	98.739542
3704.000000	98.741191
3703.000000	98.742630
3702.000000	98.744617
3701.000000	98.749220
3700.000000	98.756983
3699.000000	98.765247
3698.000000	98.770006
3697.000000	98.769017
3696.000000	98.763349
3695.000000	98.756222
3694.000000	98.750231
3693.000000	98.746231
3692.000000	98.744246
3691.000000	98.744603
3690.000000	98.747363
3689.000000	98.750877
3688.000000	98.752200
3687.000000	98.749814
3686.000000	98.744871
3685.000000	98.740103
3684.000000	98.738182
3683.000000	98.739694
3682.000000	98.742425
3681.000000	98.742806
3680.000000	98.738598
3679.000000	98.730065
3678.000000	98.718662
3677.000000	98.705787
3676.000000	98.694509
3675.000000	98.689265
3674.000000	98.689962
3673.000000	98.692401
3672.000000	98.694554
3671.000000	98.697182
3670.000000	98.700483
3669.000000	98.702268
3668.000000	98.699998
3667.000000	98.693557
3666.000000	98.684680
3665.000000	98.675225
3664.000000	98.666459
3663.000000	98.658978
3662.000000	98.652789
3661.000000	98.647375
3660.000000	98.642001
3659.000000	98.636206
3658.000000	98.630338
3657.000000	98.626031
3656.000000	98.625645
3655.000000	98.629814
3654.000000	98.636185
3653.000000	98.641524
3652.000000	98.643032
3651.000000	98.637417
3650.000000	98.622024
3649.000000	98.599864
3648.000000	98.580151
3647.000000	98.569433
3646.000000	98.566329
3645.000000	98.565934
3644.000000	98.565037
3643.000000	98.563260
3642.000000	98.561488
3641.000000	98.560150
3640.000000	98.558846
3639.000000	98.556900
3638.000000	98.553495
3637.000000	98.547558
3636.000000	98.538448
3635.000000	98.527147
3634.000000	98.516148
3633.000000	98.507410
3632.000000	98.500756
3631.000000	98.494515
3630.000000	98.486940
3629.000000	98.478399
3628.000000	98.471738
3627.000000	98.467167
3626.000000	98.461479
3625.000000	98.453023
3624.000000	98.443108
3623.000000	98.433755
3622.000000	98.425383
3621.000000	98.416483
3620.000000	98.405478
3619.000000	98.393148
3618.000000	98.382159
3617.000000	98.373949
3616.000000	98.367945
3615.000000	98.362805
3614.000000	98.356696
3613.000000	98.347472
3612.000000	98.333963
3611.000000	98.316786
3610.000000	98.297919
3609.000000	98.280702
3608.000000	98.269527
3607.000000	98.266810
3606.000000	98.270419
3605.000000	98.275674
3604.000000	98.278987
3603.000000	98.278639
3602.000000	98.273786
3601.000000	98.264291
3600.000000	98.251662
3599.000000	98.238524
3598.000000	98.226216
3597.000000	98.213661
3596.000000	98.199158
3595.000000	98.183049
3594.000000	98.167727
3593.000000	98.154937
3592.000000	98.143982
3591.000000	98.133076
3590.000000	98.121146
3589.000000	98.107954
3588.000000	98.093699
3587.000000	98.079579
3586.000000	98.067260
3585.000000	98.056978
3584.000000	98.047736
3583.000000	98.038467
3582.000000	98.028276
3581.000000	98.016558
3580.000000	98.003768
3579.000000	97.991645
3578.000000	97.981836
3577.000000	97.974332
3576.000000	97.967181
3575.000000	97.957588
3574.000000	97.943450
3573.000000	97.924769
3572.000000	97.903940
3571.000000	97.884394
3570.000000	97.868126
3569.000000	97.853951
3568.000000	97.838208
3567.000000	97.819512
3566.000000	97.801924
3565.000000	97.789820
3564.000000	97.782388
3563.000000	97.775567
3562.000000	97.766098
3561.000000	97.753260
3560.000000	97.738335
3559.000000	97.722978
3558.000000	97.708011
3557.000000	97.693576
3556.000000	97.679744
3555.000000	97.666329
3554.000000	97.652484
3553.000000	97.637322
3552.000000	97.621138
3551.000000	97.605180
3550.000000	97.589903
3549.000000	97.574439
3548.000000	97.558036
3547.000000	97.541610
3546.000000	97.527692
3545.000000	97.518420
3544.000000	97.512992
3543.000000	97.507311
3542.000000	97.496561
3541.000000	97.478881
3540.000000	97.457126
3539.000000	97.436754
3538.000000	97.421160
3537.000000	97.408923
3536.000000	97.396018
3535.000000	97.380319
3534.000000	97.362928
3533.000000	97.345915
3532.000000	97.330362
3531.000000	97.316455
3530.000000	97.304065
3529.000000	97.292742
3528.000000	97.281916
3527.000000	97.271604
3526.000000	97.262256
3525.000000	97.253362
3524.000000	97.242847
3523.000000	97.228826
3522.000000	97.211840
3521.000000	97.194532
3520.000000	97.179140
3519.000000	97.165799
3518.000000	97.153148
3517.000000	97.140052
3516.000000	97.126519
3515.000000	97.113164
3514.000000	97.100258
3513.000000	97.087441
3512.000000	97.074218
3511.000000	97.060610
3510.000000	97.047456
3509.000000	97.036099
3508.000000	97.027530
3507.000000	97.021564
3506.000000	97.016823
3505.000000	97.011434
3504.000000	97.003915
3503.000000	96.993955
3502.000000	96.982501
3501.000000	96.970720
3500.000000	96.958736
3499.000000	96.945594
3498.000000	96.930554
3497.000000	96.914337
3496.000000	96.898775
3495.000000	96.885037
3494.000000	96.872654
3493.000000	96.860737
3492.000000	96.849599
3491.000000	96.840377
3490.000000	96.833113
3489.000000	96.826058
3488.000000	96.817380
3487.000000	96.807052
3486.000000	96.796243
3485.000000	96.785043
3484.000000	96.771937
3483.000000	96.756190
3482.000000	96.740327
3481.000000	96.728986
3480.000000	96.724544
3479.000000	96.724390
3478.000000	96.722961
3477.000000	96.716087
3476.000000	96.703439
3475.000000	96.687907
3474.000000	96.673284
3473.000000	96.661997
3472.000000	96.653937
3471.000000	96.647005
3470.000000	96.639301
3469.000000	96.630934
3468.000000	96.623223
3467.000000	96.616178
3466.000000	96.607940
3465.000000	96.597351
3464.000000	96.586021
3463.000000	96.576638
3462.000000	96.569522
3461.000000	96.562002
3460.000000	96.551417
3459.000000	96.537936
3458.000000	96.524140
3457.000000	96.512439
3456.000000	96.503242
3455.000000	96.495193
3454.000000	96.486847
3453.000000	96.478088
3452.000000	96.470021
3451.000000	96.463682
3450.000000	96.459227
3449.000000	96.456357
3448.000000	96.454833
3447.000000	96.453910
3446.000000	96.451499
3445.000000	96.444762
3444.000000	96.432049
3443.000000	96.414525
3442.000000	96.396212
3441.000000	96.381896
3440.000000	96.373799
3439.000000	96.369687
3438.000000	96.364594
3437.000000	96.355068
3436.000000	96.341917
3435.000000	96.328811
3434.000000	96.318707
3433.000000	96.311940
3432.000000	96.307036
3431.000000	96.302180
3430.000000	96.295993
3429.000000	96.287950
3428.000000	96.278567
3427.000000	96.268798
3426.000000	96.259106
3425.000000	96.249520
3424.000000	96.240448
3423.000000	96.232528
3422.000000	96.225228
3421.000000	96.216399
3420.000000	96.204157
3419.000000	96.189055
3418.000000	96.173659
3417.000000	96.160063
3416.000000	96.148492
3415.000000	96.138290
3414.000000	96.129431
3413.000000	96.122274
3412.000000	96.115917
3411.000000	96.107787
3410.000000	96.095825
3409.000000	96.081198
3408.000000	96.068083
3407.000000	96.059967
3406.000000	96.055971
3405.000000	96.051112
3404.000000	96.040622
3403.000000	96.024423
3402.000000	96.007416
3401.000000	95.995122
3400.000000	95.988753
3399.000000	95.984398
3398.000000	95.977045
3397.000000	95.965305
3396.000000	95.952050
3395.000000	95.940743
3394.000000	95.931826
3393.000000	95.922788
3392.000000	95.911193
3391.000000	95.897230
3390.000000	95.883550
3389.000000	95.873056
3388.000000	95.866825
3387.000000	95.863503
3386.000000	95.860304
3385.000000	95.854649
3384.000000	95.845234
3383.000000	95.832179
3382.000000	95.816672
3381.000000	95.800545
3380.000000	95.785802
3379.000000	95.774029
3378.000000	95.765766
3377.000000	95.759834
3376.000000	95.753192
3375.000000	95.742364
3374.000000	95.726108
3373.000000	95.706816
3372.000000	95.688676
3371.000000	95.674302
3370.000000	95.663313
3369.000000	95.653648
3368.000000	95.643236
3367.000000	95.630492
3366.000000	95.614605
3365.000000	95.596310
3364.000000	95.577737
3363.000000	95.560636
3362.000000	95.544819
3361.000000	95.528674
3360.000000	95.511026
3359.000000	95.492188
3358.000000	95.473317
3357.000000	95.455034
3356.000000	95.436719
3355.000000	95.417267
3354.000000	95.396572
3353.000000	95.375920
3352.000000	95.356578
3351.000000	95.338413
3350.000000	95.320455
3349.000000	95.302318
3348.000000	95.284264
3347.000000	95.266266
3346.000000	95.248013
3345.000000	95.229559
3344.000000	95.210816
3343.000000	95.190666
3342.000000	95.168146
3341.000000	95.144617
3340.000000	95.122994
3339.000000	95.104343
3338.000000	95.086849
3337.000000	95.068891
3336.000000	95.051452
3335.000000	95.036072
3334.000000	95.021650
3333.000000	95.005154
3332.000000	94.985188
3331.000000	94.963510
3330.000000	94.943116
3329.000000	94.925498
3328.000000	94.909447
3327.000000	94.892141
3326.000000	94.871897
3325.000000	94.850220
3324.000000	94.830440
3323.000000	94.814060
3322.000000	94.799628
3321.000000	94.785560
3320.000000	94.772224
3319.000000	94.760060
3318.000000	94.747322
3317.000000	94.731825
3316.000000	94.714506
3315.000000	94.699340
3314.000000	94.689511
3313.000000	94.684738
3312.000000	94.681957
3311.000000	94.677373
3310.000000	94.668300
3309.000000	94.654712
3308.000000	94.639552
3307.000000	94.626487
3306.000000	94.616939
3305.000000	94.609520
3304.000000	94.601809
3303.000000	94.592034
3302.000000	94.579805
3301.000000	94.566466
3300.000000	94.554451
3299.000000	94.545186
3298.000000	94.537837
3297.000000	94.530864
3296.000000	94.524183
3295.000000	94.518497
3294.000000	94.513067
3293.000000	94.506186
3292.000000	94.498048
3291.000000	94.491392
3290.000000	94.488582
3289.000000	94.488998
3288.000000	94.489795
3287.000000	94.488288
3286.000000	94.483342
3285.000000	94.475719
3284.000000	94.467840
3283.000000	94.462441
3282.000000	94.460700
3281.000000	94.461955
3280.000000	94.465408
3279.000000	94.471107
3278.000000	94.478973
3277.000000	94.487843
3276.000000	94.496367
3275.000000	94.504418
3274.000000	94.512567
3273.000000	94.520399
3272.000000	94.526217
3271.000000	94.528651
3270.000000	94.528158
3269.000000	94.526681
3268.000000	94.526116
3267.000000	94.527340
3266.000000	94.530507
3265.000000	94.535723
3264.000000	94.543059
3263.000000	94.552177
3262.000000	94.562475
3261.000000	94.573546
3260.000000	94.585076
3259.000000	94.596448
3258.000000	94.607319
3257.000000	94.618649
3256.000000	94.631976
3255.000000	94.647054
3254.000000	94.661139
3253.000000	94.671598
3252.000000	94.678664
3251.000000	94.684806
3250.000000	94.692034
3249.000000	94.700770
3248.000000	94.710791
3247.000000	94.721681
3246.000000	94.732174
3245.000000	94.740137
3244.000000	94.744029
3243.000000	94.744287
3242.000000	94.743348
3241.000000	94.744672
3240.000000	94.751342
3239.000000	94.764534
3238.000000	94.782741
3237.000000	94.802564
3236.000000	94.820425
3235.000000	94.834070
3234.000000	94.843375
3233.000000	94.850140
3232.000000	94.856334
3231.000000	94.861801
3230.000000	94.864369
3229.000000	94.863048
3228.000000	94.860593
3227.000000	94.861866
3226.000000	94.869738
3225.000000	94.883266
3224.000000	94.899178
3223.000000	94.914062
3222.000000	94.925756
3221.000000	94.934302
3220.000000	94.941974
3219.000000	94.951130
3218.000000	94.961499
3217.000000	94.970551
3216.000000	94.976699
3215.000000	94.981173
3214.000000	94.986208
3213.000000	94.992285
3212.000000	94.998017
3211.000000	95.002281
3210.000000	95.005572
3209.000000	95.009201
3208.000000	95.013915
3207.000000	95.019841
3206.000000	95.027540
3205.000000	95.038214
3204.000000	95.052127
3203.000000	95.067119
3202.000000	95.079930
3201.000000	95.089333
3200.000000	95.097196
3199.000000	95.106021
3198.000000	95.116325
3197.000000	95.127098
3196.000000	95.137673
3195.000000	95.147989
3194.000000	95.157797
3193.000000	95.167073
3192.000000	95.176853
3191.000000	95.188311
3190.000000	95.201166
3189.000000	95.214142
3188.000000	95.226700
3187.000000	95.239149
3186.000000	95.251436
3185.000000	95.263487
3184.000000	95.276723
3183.000000	95.293383
3182.000000	95.313656
3181.000000	95.334686
3180.000000	95.352974
3179.000000	95.366891
3178.000000	95.376972
3177.000000	95.385325
3176.000000	95.395367
3175.000000	95.410370
3174.000000	95.430647
3173.000000	95.452660
3172.000000	95.471766
3171.000000	95.485664
3170.000000	95.494945
3169.000000	95.501670
3168.000000	95.508587
3167.000000	95.518700
3166.000000	95.533695
3165.000000	95.552290
3164.000000	95.570963
3163.000000	95.586630
3162.000000	95.598615
3161.000000	95.608629
3160.000000	95.619553
3159.000000	95.633756
3158.000000	95.651294
3157.000000	95.669410
3156.000000	95.684582
3155.000000	95.695751
3154.000000	95.705437
3153.000000	95.717370
3152.000000	95.732956
3151.000000	95.750172
3150.000000	95.765963
3149.000000	95.779487
3148.000000	95.792607
3147.000000	95.807144
3146.000000	95.822393
3145.000000	95.836062
3144.000000	95.847261
3143.000000	95.857546
3142.000000	95.868958
3141.000000	95.882004
3140.000000	95.895898
3139.000000	95.909670
3138.000000	95.922289
3137.000000	95.932492
3136.000000	95.939406
3135.000000	95.943278
3134.000000	95.945210
3133.000000	95.946581
3132.000000	95.948965
3131.000000	95.953616
3130.000000	95.960250
3129.000000	95.966938
3128.000000	95.972252
3127.000000	95.977273
3126.000000	95.984504
3125.000000	95.994838
3124.000000	96.006422
3123.000000	96.016514
3122.000000	96.023659
3121.000000	96.028029
3120.000000	96.030564
3119.000000	96.032216
3118.000000	96.033355
3117.000000	96.033605
3116.000000	96.032699
3115.000000	96.031590
3114.000000	96.031808
3113.000000	96.033146
3112.000000	96.032947
3111.000000	96.028739
3110.000000	96.021429
3109.000000	96.014788
3108.000000	96.011381
3107.000000	96.009681
3106.000000	96.005733
3105.000000	95.997532
3104.000000	95.987416
3103.000000	95.980065
3102.000000	95.977920
3101.000000	95.978436
3100.000000	95.976177
3099.000000	95.968198
3098.000000	95.957212
3097.000000	95.949023
3096.000000	95.947011
3095.000000	95.949446
3094.000000	95.951789
3093.000000	95.950475
3092.000000	95.944390
3091.000000	95.934394
3090.000000	95.922747
3089.000000	95.912223
3088.000000	95.904260
3087.000000	95.897930
3086.000000	95.891471
3085.000000	95.884588
3084.000000	95.878534
3083.000000	95.874344
3082.000000	95.871955
3081.000000	95.870754
3080.000000	95.869816
3079.000000	95.867710
3078.000000	95.863427
3077.000000	95.857702
3076.000000	95.852322
3075.000000	95.847961
3074.000000	95.843854
3073.000000	95.839912
3072.000000	95.837795
3071.000000	95.839086
3070.000000	95.843334
3069.000000	95.848608
3068.000000	95.853303
3067.000000	95.856892
3066.000000	95.859826
3065.000000	95.863451
3064.000000	95.869126
3063.000000	95.876701
3062.000000	95.884634
3061.000000	95.892132
3060.000000	95.900128
3059.000000	95.909308
3058.000000	95.918458
3057.000000	95.926226
3056.000000	95.933760
3055.000000	95.943932
3054.000000	95.958032
3053.000000	95.974428
3052.000000	95.990326
3051.000000	96.003841
3050.000000	96.014796
3049.000000	96.024835
3048.000000	96.036583
3047.000000	96.051414
3046.000000	96.067921
3045.000000	96.083494
3044.000000	96.097423
3043.000000	96.111419
3042.000000	96.127100
3041.000000	96.144064
3040.000000	96.160765
3039.000000	96.176276
3038.000000	96.190676
3037.000000	96.204353
3036.000000	96.217478
3035.000000	96.229859
3034.000000	96.241090
3033.000000	96.251284
3032.000000	96.261662
3031.000000	96.273741
3030.000000	96.287662
3029.000000	96.301882
3028.000000	96.314731
3027.000000	96.325755
3026.000000	96.335448
3025.000000	96.344294
3024.000000	96.352438
3023.000000	96.360038
3022.000000	96.367697
3021.000000	96.376525
3020.000000	96.387355
3019.000000	96.399444
3018.000000	96.410367
3017.000000	96.418030
3016.000000	96.422839
3015.000000	96.427245
3014.000000	96.433045
3013.000000	96.439607
3012.000000	96.444587
3011.000000	96.445650
3010.000000	96.441671
3009.000000	96.433304
3008.000000	96.423072
3007.000000	96.414426
3006.000000	96.410011
3005.000000	96.410192
3004.000000	96.412608
3003.000000	96.413076
3002.000000	96.408022
3001.000000	96.397215
3000.000000	96.383943
2999.000000	96.371658
2998.000000	96.360641
2997.000000	96.348801
2996.000000	96.335273
2995.000000	96.321590
2994.000000	96.308931
2993.000000	96.295794
2992.000000	96.279494
2991.000000	96.259070
2990.000000	96.235717
2989.000000	96.210734
2988.000000	96.184118
2987.000000	96.155254
2986.000000	96.124352
2985.000000	96.093022
2984.000000	96.063322
2983.000000	96.036026
2982.000000	96.009530
2981.000000	95.980515
2980.000000	95.946138
2979.000000	95.906044
2978.000000	95.862819
2977.000000	95.820339
2976.000000	95.780669
2975.000000	95.741825
2974.000000	95.699008
2973.000000	95.648968
2972.000000	95.592998
2971.000000	95.535025
2970.000000	95.477412
2969.000000	95.419815
2968.000000	95.361784
2967.000000	95.304485
2966.000000	95.249112
2965.000000	95.195182
2964.000000	95.141919
2963.000000	95.091001
2962.000000	95.046440
2961.000000	95.011597
2960.000000	94.986970
2959.000000	94.971105
2958.000000	94.963076
2957.000000	94.963307
2956.000000	94.972327
2955.000000	94.989322
2954.000000	95.012366
2953.000000	95.039470
2952.000000	95.068493
2951.000000	95.096288
2950.000000	95.118944
2949.000000	95.133747
2948.000000	95.140088
2947.000000	95.137899
2946.000000	95.125969
2945.000000	95.103108
2944.000000	95.070761
2943.000000	95.032819
2942.000000	94.992356
2941.000000	94.949042
2940.000000	94.900338
2939.000000	94.844664
2938.000000	94.783347
2937.000000	94.720292
2936.000000	94.660037
2935.000000	94.605750
2934.000000	94.558469
2933.000000	94.518193
2932.000000	94.485280
2931.000000	94.460037
2930.000000	94.441171
2929.000000	94.425703
2928.000000	94.411518
2927.000000	94.399991
2926.000000	94.395697
2925.000000	94.403283
2924.000000	94.424167
2923.000000	94.455967
2922.000000	94.494885
2921.000000	94.538849
2920.000000	94.588280
2919.000000	94.643864
2918.000000	94.704493
2917.000000	94.768151
2916.000000	94.834383
2915.000000	94.904376
2914.000000	94.978087
2913.000000	95.052257
2912.000000	95.122078
2911.000000	95.184608
2910.000000	95.240170
2909.000000	95.291131
2908.000000	95.340176
2907.000000	95.389256
2906.000000	95.438942
2905.000000	95.488114
2904.000000	95.534875
2903.000000	95.578374
2902.000000	95.619812
2901.000000	95.661352
2900.000000	95.703890
2899.000000	95.746135
2898.000000	95.785893
2897.000000	95.822082
2896.000000	95.855300
2895.000000	95.886723
2894.000000	95.917045
2893.000000	95.946478
2892.000000	95.974854
2891.000000	96.001102
2890.000000	96.023098
2889.000000	96.038977
2888.000000	96.048749
2887.000000	96.054118
2886.000000	96.056656
2885.000000	96.056467
2884.000000	96.052650
2883.000000	96.044767
2882.000000	96.033670
2881.000000	96.020780
2880.000000	96.006344
2879.000000	95.988632
2878.000000	95.965605
2877.000000	95.937675
2876.000000	95.908194
2875.000000	95.881045
2874.000000	95.858805
2873.000000	95.843531
2872.000000	95.837674
2871.000000	95.842321
2870.000000	95.854794
2869.000000	95.869476
2868.000000	95.881250
2867.000000	95.887567
2866.000000	95.887975
2865.000000	95.883213
2864.000000	95.874630
2863.000000	95.862968
2862.000000	95.847515
2861.000000	95.827842
2860.000000	95.806404
2859.000000	95.787754
2858.000000	95.774784
2857.000000	95.767326
2856.000000	95.765063
2855.000000	95.769955
2854.000000	95.784872
2853.000000	95.811129
2852.000000	95.848499
2851.000000	95.896539
2850.000000	95.954456
2849.000000	96.020294
2848.000000	96.091471
2847.000000	96.165581
2846.000000	96.239904
2845.000000	96.311090
2844.000000	96.376592
2843.000000	96.436175
2842.000000	96.490845
2841.000000	96.540502
2840.000000	96.583910
2839.000000	96.620783
2838.000000	96.652649
2837.000000	96.681348
2836.000000	96.707414
2835.000000	96.730341
2834.000000	96.749984
2833.000000	96.767269
2832.000000	96.783594
2831.000000	96.799514
2830.000000	96.814144
2829.000000	96.826299
2828.000000	96.836241
2827.000000	96.845772
2826.000000	96.856402
2825.000000	96.868053
2824.000000	96.879856
2823.000000	96.891366
2822.000000	96.902403
2821.000000	96.912452
2820.000000	96.921141
2819.000000	96.929010
2818.000000	96.937071
2817.000000	96.945844
2816.000000	96.955312
2815.000000	96.965294
2814.000000	96.975155
2813.000000	96.983616
2812.000000	96.989790
2811.000000	96.994276
2810.000000	96.998605
2809.000000	97.003914
2808.000000	97.010823
2807.000000	97.019922
2806.000000	97.031089
2805.000000	97.042461
2804.000000	97.051447
2803.000000	97.057245
2802.000000	97.061526
2801.000000	97.066359
2800.000000	97.072182
2799.000000	97.078045
2798.000000	97.083038
2797.000000	97.087026
2796.000000	97.090634
2795.000000	97.094984
2794.000000	97.100934
2793.000000	97.108083
2792.000000	97.114910
2791.000000	97.120322
2790.000000	97.124828
2789.000000	97.129835
2788.000000	97.136190
2787.000000	97.143842
2786.000000	97.152528
2785.000000	97.162009
2784.000000	97.171507
2783.000000	97.179489
2782.000000	97.184546
2781.000000	97.186696
2780.000000	97.187722
2779.000000	97.190016
2778.000000	97.194743
2777.000000	97.200954
2776.000000	97.206568
2775.000000	97.210391
2774.000000	97.213191
2773.000000	97.216877
2772.000000	97.222686
2771.000000	97.230149
2770.000000	97.237609
2769.000000	97.243617
2768.000000	97.247914
2767.000000	97.251307
2766.000000	97.254852
2765.000000	97.259202
2764.000000	97.264572
2763.000000	97.270953
2762.000000	97.278090
2761.000000	97.285278
2760.000000	97.291437
2759.000000	97.295700
2758.000000	97.298115
2757.000000	97.299776
2756.000000	97.302080
2755.000000	97.305691
2754.000000	97.310218
2753.000000	97.314872
2752.000000	97.319173
2751.000000	97.322854
2750.000000	97.325459
2749.000000	97.326663
2748.000000	97.327092
2747.000000	97.328310
2746.000000	97.331643
2745.000000	97.337314
2744.000000	97.344912
2743.000000	97.354225
2742.000000	97.365021
2741.000000	97.376084
2740.000000	97.385091
2739.000000	97.389881
2738.000000	97.389976
2737.000000	97.387131
2736.000000	97.384578
2735.000000	97.385409
2734.000000	97.390849
2733.000000	97.399561
2732.000000	97.408714
2731.000000	97.416041
2730.000000	97.421069
2729.000000	97.424676
2728.000000	97.427909
2727.000000	97.431417
2726.000000	97.435557
2725.000000	97.440427
2724.000000	97.445682
2723.000000	97.450656
2722.000000	97.454808
2721.000000	97.457992
2720.000000	97.460414
2719.000000	97.462598
2718.000000	97.465319
2717.000000	97.469082
2716.000000	97.473436
2715.000000	97.477175
2714.000000	97.479551
2713.000000	97.481051
2712.000000	97.482727
2711.000000	97.485111
2710.000000	97.488196
2709.000000	97.491997
2708.000000	97.496381
2707.000000	97.500632
2706.000000	97.504158
2705.000000	97.507600
2704.000000	97.512120
2703.000000	97.517270
2702.000000	97.520748
2701.000000	97.521064
2700.000000	97.519636
2699.000000	97.519226
2698.000000	97.520926
2697.000000	97.523772
2696.000000	97.526821
2695.000000	97.530140
2694.000000	97.533649
2693.000000	97.536392
2692.000000	97.537697
2691.000000	97.538153
2690.000000	97.538659
2689.000000	97.539083
2688.000000	97.538730
2687.000000	97.537946
2686.000000	97.538406
2685.000000	97.541474
2684.000000	97.546555
2683.000000	97.551319
2682.000000	97.553630
2681.000000	97.553390
2680.000000	97.552569
2679.000000	97.553288
2678.000000	97.555787
2677.000000	97.558357
2676.000000	97.559291
2675.000000	97.558665
2674.000000	97.558080
2673.000000	97.558975
2672.000000	97.561492
2671.000000	97.564744
2670.000000	97.567677
2669.000000	97.569589
2668.000000	97.570256
2667.000000	97.569893
2666.000000	97.568812
2665.000000	97.566955
2664.000000	97.564028
2663.000000	97.560416
2662.000000	97.557580
2661.000000	97.556724
2660.000000	97.556979
2659.000000	97.555778
2658.000000	97.551751
2657.000000	97.546838
2656.000000	97.544952
2655.000000	97.548690
2654.000000	97.557744
2653.000000	97.569865
2652.000000	97.582122
2651.000000	97.591542
2650.000000	97.596317
2649.000000	97.597557
2648.000000	97.599050
2647.000000	97.604007
2646.000000	97.611860
2645.000000	97.618833
2644.000000	97.621688
2643.000000	97.620600
2642.000000	97.618705
2641.000000	97.619503
2640.000000	97.624734
2639.000000	97.634038
2638.000000	97.645717
2637.000000	97.657389
2636.000000	97.666427
2635.000000	97.671087
2634.000000	97.672089
2633.000000	97.672457
2632.000000	97.674737
2631.000000	97.678557
2630.000000	97.681960
2629.000000	97.684800
2628.000000	97.689309
2627.000000	97.697111
2626.000000	97.707195
2625.000000	97.717370
2624.000000	97.726242
2623.000000	97.732968
2622.000000	97.736606
2621.000000	97.737266
2620.000000	97.737125
2619.000000	97.739006
2618.000000	97.744220
2617.000000	97.752360
2616.000000	97.762277
2615.000000	97.772344
2614.000000	97.780884
2613.000000	97.787685
2612.000000	97.794282
2611.000000	97.801340
2610.000000	97.806574
2609.000000	97.807099
2608.000000	97.803515
2607.000000	97.799947
2606.000000	97.799914
2605.000000	97.803602
2604.000000	97.809234
2603.000000	97.815415
2602.000000	97.821389
2601.000000	97.826166
2600.000000	97.828683
2599.000000	97.828876
2598.000000	97.828329
2597.000000	97.829693
2596.000000	97.834982
2595.000000	97.843799
2594.000000	97.853120
2593.000000	97.859197
2592.000000	97.860207
2591.000000	97.857669
2590.000000	97.855504
2589.000000	97.856883
2588.000000	97.860893
2587.000000	97.863081
2586.000000	97.860931
2585.000000	97.858108
2584.000000	97.860718
2583.000000	97.868914
2582.000000	97.875308
2581.000000	97.873345
2580.000000	97.865036
2579.000000	97.858492
2578.000000	97.859502
2577.000000	97.867710
2576.000000	97.879087
2575.000000	97.889323
2574.000000	97.895547
2573.000000	97.897596
2572.000000	97.898026
2571.000000	97.899386
2570.000000	97.901771
2569.000000	97.904234
2568.000000	97.907580
2567.000000	97.913641
2566.000000	97.922139
2565.000000	97.930298
2564.000000	97.935913
2563.000000	97.939526
2562.000000	97.943165
2561.000000	97.947603
2560.000000	97.950905
2559.000000	97.949893
2558.000000	97.944035
2557.000000	97.937749
2556.000000	97.936909
2555.000000	97.942396
2554.000000	97.949286
2553.000000	97.953319
2552.000000	97.955315
2551.000000	97.957494
2550.000000	97.958414
2549.000000	97.954829
2548.000000	97.946743
2547.000000	97.937534
2546.000000	97.930435
2545.000000	97.927675
2544.000000	97.931372
2543.000000	97.941452
2542.000000	97.953220
2541.000000	97.960246
2540.000000	97.960009
2539.000000	97.954806
2538.000000	97.948388
2537.000000	97.944223
2536.000000	97.945509
2535.000000	97.952871
2534.000000	97.962207
2533.000000	97.968118
2532.000000	97.969368
2531.000000	97.968243
2530.000000	97.965278
2529.000000	97.958740
2528.000000	97.949486
2527.000000	97.942112
2526.000000	97.939814
2525.000000	97.941056
2524.000000	97.942714
2523.000000	97.943979
2522.000000	97.946012
2521.000000	97.949842
2520.000000	97.955712
2519.000000	97.962697
2518.000000	97.968155
2517.000000	97.969466
2516.000000	97.967149
2515.000000	97.964668
2514.000000	97.964742
2513.000000	97.967439
2512.000000	97.971826
2511.000000	97.977176
2510.000000	97.981986
2509.000000	97.984106
2508.000000	97.982972
2507.000000	97.980375
2506.000000	97.978592
2505.000000	97.979172
2504.000000	97.983490
2503.000000	97.992321
2502.000000	98.004197
2501.000000	98.015734
2500.000000	98.024005
2499.000000	98.027528
2498.000000	98.025673
2497.000000	98.019540
2496.000000	98.013224
2495.000000	98.011269
2494.000000	98.013942
2493.000000	98.017347
2492.000000	98.018896
2491.000000	98.020209
2490.000000	98.023607
2489.000000	98.028340
2488.000000	98.032469
2487.000000	98.036873
2486.000000	98.045043
2485.000000	98.058907
2484.000000	98.075860
2483.000000	98.090056
2482.000000	98.096635
2481.000000	98.095183
2480.000000	98.089331
2479.000000	98.082604
2478.000000	98.075459
2477.000000	98.067500
2476.000000	98.061282
2475.000000	98.061358
2474.000000	98.068976
2473.000000	98.079468
2472.000000	98.085849
2471.000000	98.084508
2470.000000	98.077580
2469.000000	98.070956
2468.000000	98.069905
2467.000000	98.075184
2466.000000	98.082926
2465.000000	98.088768
2464.000000	98.091872
2463.000000	98.094272
2462.000000	98.097303
2461.000000	98.100162
2460.000000	98.101457
2459.000000	98.100656
2458.000000	98.098163
2457.000000	98.095173
2456.000000	98.093063
2455.000000	98.092212
2454.000000	98.092352
2453.000000	98.094798
2452.000000	98.102137
2451.000000	98.113603
2450.000000	98.122781
2449.000000	98.123403
2448.000000	98.116934
2447.000000	98.111472
2446.000000	98.113071
2445.000000	98.120544
2444.000000	98.128356
2443.000000	98.131473
2442.000000	98.127676
2441.000000	98.118509
2440.000000	98.109092
2439.000000	98.104545
2438.000000	98.105457
2437.000000	98.108095
2436.000000	98.109140
2435.000000	98.108437
2434.000000	98.107463
2433.000000	98.107902
2432.000000	98.112059
2431.000000	98.121764
2430.000000	98.135308
2429.000000	98.147149
2428.000000	98.152169
2427.000000	98.149911
2426.000000	98.144473
2425.000000	98.141058
2424.000000	98.142181
2423.000000	98.145693
2422.000000	98.146627
2421.000000	98.142272
2420.000000	98.135105
2419.000000	98.129652
2418.000000	98.127402
2417.000000	98.126659
2416.000000	98.126405
2415.000000	98.127526
2414.000000	98.130190
2413.000000	98.132570
2412.000000	98.133184
2411.000000	98.133093
2410.000000	98.135258
2409.000000	98.142205
2408.000000	98.153561
2407.000000	98.164769
2406.000000	98.169469
2405.000000	98.165174
2404.000000	98.156196
2403.000000	98.149271
2402.000000	98.147138
2401.000000	98.148039
2400.000000	98.149842
2399.000000	98.151665
2398.000000	98.152155
2397.000000	98.149502
2396.000000	98.143889
2395.000000	98.137972
2394.000000	98.134653
2393.000000	98.135840
2392.000000	98.142584
2391.000000	98.153886
2390.000000	98.165521
2389.000000	98.172731
2388.000000	98.174847
2387.000000	98.175520
2386.000000	98.178411
2385.000000	98.184223
2384.000000	98.191669
2383.000000	98.199403
2382.000000	98.206492
2381.000000	98.212913
2380.000000	98.219314
2379.000000	98.224652
2378.000000	98.224912
2377.000000	98.216871
2376.000000	98.203209
2375.000000	98.190728
2374.000000	98.183313
2373.000000	98.179894
2372.000000	98.179634
2371.000000	98.184146
2370.000000	98.192603
2369.000000	98.199121
2368.000000	98.197974
2367.000000	98.189763
2366.000000	98.180205
2365.000000	98.174630
2364.000000	98.174681
2363.000000	98.177858
2362.000000	98.179099
2361.000000	98.174870
2360.000000	98.167121
2359.000000	98.161324
2358.000000	98.161367
2357.000000	98.167037
2356.000000	98.173530
2355.000000	98.175221
2354.000000	98.170734
2353.000000	98.163209
2352.000000	98.156364
2351.000000	98.152222
2350.000000	98.151351
2349.000000	98.151971
2348.000000	98.151778
2347.000000	98.149316
2346.000000	98.142785
2345.000000	98.130896
2344.000000	98.118050
2343.000000	98.113747
2342.000000	98.121144
2341.000000	98.133814
2340.000000	98.142493
2339.000000	98.142023
2338.000000	98.133709
2337.000000	98.123128
2336.000000	98.115798
2335.000000	98.113430
2334.000000	98.114154
2333.000000	98.115052
2332.000000	98.114678
2331.000000	98.113665
2330.000000	98.114114
2329.000000	98.115121
2328.000000	98.110991
2327.000000	98.093854
2326.000000	98.062397
2325.000000	98.027338
2324.000000	98.006170
2323.000000	98.009181
2322.000000	98.029213
2321.000000	98.049587
2320.000000	98.060900
2319.000000	98.066439
2318.000000	98.073018
2317.000000	98.082589
2316.000000	98.094050
2315.000000	98.106258
2314.000000	98.118394
2313.000000	98.129700
2312.000000	98.141247
2311.000000	98.153911
2310.000000	98.164864
2309.000000	98.168494
2308.000000	98.163359
2307.000000	98.154435
2306.000000	98.147825
2305.000000	98.145313
2304.000000	98.145316
2303.000000	98.145641
2302.000000	98.144144
2301.000000	98.139049
2300.000000	98.131228
2299.000000	98.123823
2298.000000	98.118974
2297.000000	98.116113
2296.000000	98.114172
2295.000000	98.112571
2294.000000	98.109880
2293.000000	98.104456
2292.000000	98.098093
2291.000000	98.096244
2290.000000	98.102266
2289.000000	98.112894
2288.000000	98.120998
2287.000000	98.121923
2286.000000	98.116228
2285.000000	98.108168
2284.000000	98.102870
2283.000000	98.103827
2282.000000	98.111675
2281.000000	98.124934
2280.000000	98.140631
2279.000000	98.153371
2278.000000	98.156642
2277.000000	98.149153
2276.000000	98.138927
2275.000000	98.136697
2274.000000	98.145520
2273.000000	98.160407
2272.000000	98.177418
2271.000000	98.197770
2270.000000	98.222137
2269.000000	98.245859
2268.000000	98.262138
2267.000000	98.267078
2266.000000	98.260408
2265.000000	98.244552
2264.000000	98.224559
2263.000000	98.206407
2262.000000	98.193995
2261.000000	98.187927
2260.000000	98.185734
2259.000000	98.182835
2258.000000	98.176888
2257.000000	98.173543
2256.000000	98.183070
2255.000000	98.206634
2254.000000	98.230399
2253.000000	98.239431
2252.000000	98.233910
2251.000000	98.225236
2250.000000	98.221390
2249.000000	98.224234
2248.000000	98.235990
2247.000000	98.256561
2246.000000	98.276407
2245.000000	98.283604
2244.000000	98.278993
2243.000000	98.274516
2242.000000	98.275834
2241.000000	98.276549
2240.000000	98.270042
2239.000000	98.256817
2238.000000	98.238740
2237.000000	98.217843
2236.000000	98.203881
2235.000000	98.211852
2234.000000	98.245438
2233.000000	98.290038
2232.000000	98.326445
2231.000000	98.345225
2230.000000	98.344932
2229.000000	98.325967
2228.000000	98.293352
2227.000000	98.259550
2226.000000	98.238090
2225.000000	98.235458
2224.000000	98.249559
2223.000000	98.271915
2222.000000	98.291674
2221.000000	98.303000
2220.000000	98.310139
2219.000000	98.321359
2218.000000	98.339455
2217.000000	98.362306
2216.000000	98.387981
2215.000000	98.411132
2214.000000	98.419584
2213.000000	98.406992
2212.000000	98.387232
2211.000000	98.382595
2210.000000	98.396263
2209.000000	98.408082
2208.000000	98.399255
2207.000000	98.371749
2206.000000	98.342199
2205.000000	98.326022
2204.000000	98.327194
2203.000000	98.334473
2202.000000	98.329713
2201.000000	98.309929
2200.000000	98.296933
2199.000000	98.311554
2198.000000	98.343606
2197.000000	98.365211
2196.000000	98.371891
2195.000000	98.387415
2194.000000	98.423903
2193.000000	98.459555
2192.000000	98.466243
2191.000000	98.442041
2190.000000	98.404596
2189.000000	98.369990
2188.000000	98.350153
2187.000000	98.355948
2186.000000	98.386107
2185.000000	98.420394
2184.000000	98.438791
2183.000000	98.445031
2182.000000	98.459766
2181.000000	98.491300
2180.000000	98.521791
2179.000000	98.523712
2178.000000	98.487842
2177.000000	98.436820
2176.000000	98.409073
2175.000000	98.422411
2174.000000	98.455415
2173.000000	98.472092
2172.000000	98.460992
2171.000000	98.440421
2170.000000	98.431648
2169.000000	98.439437
2168.000000	98.454062
2167.000000	98.460737
2166.000000	98.450565
2165.000000	98.433987
2164.000000	98.437046
2163.000000	98.468803
2162.000000	98.503352
2161.000000	98.516720
2160.000000	98.532403
2159.000000	98.595245
2158.000000	98.695533
2157.000000	98.767574
2156.000000	98.771547
2155.000000	98.727693
2154.000000	98.673839
2153.000000	98.632480
2152.000000	98.612799
2151.000000	98.611120
2150.000000	98.608544
2149.000000	98.590356
2148.000000	98.569944
2147.000000	98.573399
2146.000000	98.600551
2145.000000	98.621321
2144.000000	98.612682
2143.000000	98.578940
2142.000000	98.533980
2141.000000	98.486073
2140.000000	98.444916
2139.000000	98.424200
2138.000000	98.427556
2137.000000	98.443376
2136.000000	98.459303
2135.000000	98.473202
2134.000000	98.486360
2133.000000	98.496268
2132.000000	98.499715
2131.000000	98.494379
2130.000000	98.476421
2129.000000	98.445696
2128.000000	98.413707
2127.000000	98.396506
2126.000000	98.397624
2125.000000	98.404774
2124.000000	98.404675
2123.000000	98.394574
2122.000000	98.379487
2121.000000	98.365747
2120.000000	98.357979
2119.000000	98.355118
2118.000000	98.348859
2117.000000	98.332847
2116.000000	98.313426
2115.000000	98.303252
2114.000000	98.304253
2113.000000	98.305245
2112.000000	98.297415
2111.000000	98.283650
2110.000000	98.270653
2109.000000	98.260834
2108.000000	98.254978
2107.000000	98.255027
2106.000000	98.260320
2105.000000	98.266963
2104.000000	98.273360
2103.000000	98.280749
2102.000000	98.287229
2101.000000	98.287819
2100.000000	98.282832
2099.000000	98.280593
2098.000000	98.290529
2097.000000	98.316961
2096.000000	98.356474
2095.000000	98.395408
2094.000000	98.414603
2093.000000	98.406457
2092.000000	98.385172
2091.000000	98.370423
2090.000000	98.364513
2089.000000	98.355650
2088.000000	98.339971
2087.000000	98.326846
2086.000000	98.322412
2085.000000	98.322684
2084.000000	98.325352
2083.000000	98.335310
2082.000000	98.353204
2081.000000	98.369238
2080.000000	98.373951
2079.000000	98.366799
2078.000000	98.350871
2077.000000	98.329176
2076.000000	98.309313
2075.000000	98.302477
2074.000000	98.313225
2073.000000	98.336358
2072.000000	98.364953
2071.000000	98.392428
2070.000000	98.408359
2069.000000	98.405962
2068.000000	98.396251
2067.000000	98.400108
2066.000000	98.422338
2065.000000	98.445184
2064.000000	98.451544
2063.000000	98.442897
2062.000000	98.430544
2061.000000	98.423432
2060.000000	98.427092
2059.000000	98.440247
2058.000000	98.450058
2057.000000	98.445193
2056.000000	98.435335
2055.000000	98.441299
2054.000000	98.462397
2053.000000	98.473024
2052.000000	98.459054
2051.000000	98.437963
2050.000000	98.434109
2049.000000	98.450635
2048.000000	98.476886
2047.000000	98.508238
2046.000000	98.541465
2045.000000	98.562237
2044.000000	98.555918
2043.000000	98.524496
2042.000000	98.484061
2041.000000	98.454799
2040.000000	98.454296
2039.000000	98.484486
2038.000000	98.523326
2037.000000	98.545609
2036.000000	98.554567
2035.000000	98.572259
2034.000000	98.597003
2033.000000	98.602665
2032.000000	98.588605
2031.000000	98.592424
2030.000000	98.634118
2029.000000	98.682341
2028.000000	98.697187
2027.000000	98.681820
2026.000000	98.669048
2025.000000	98.675497
2024.000000	98.689583
2023.000000	98.690886
2022.000000	98.669433
2021.000000	98.637177
2020.000000	98.625189
2019.000000	98.653372
2018.000000	98.700377
2017.000000	98.719966
2016.000000	98.692968
2015.000000	98.641892
2014.000000	98.593361
2013.000000	98.557662
2012.000000	98.544258
2011.000000	98.565727
2010.000000	98.617950
2009.000000	98.677704
2008.000000	98.726592
2007.000000	98.760447
2006.000000	98.773897
2005.000000	98.760848
2004.000000	98.733754
2003.000000	98.712360
2002.000000	98.693062
2001.000000	98.654536
2000.000000	98.595049
1999.000000	98.543036
1998.000000	98.523452
1997.000000	98.535085
1996.000000	98.565096
1995.000000	98.604916
1994.000000	98.642078
1993.000000	98.656600
1992.000000	98.642328
1991.000000	98.618348
1990.000000	98.602869
1989.000000	98.591452
1988.000000	98.571291
1987.000000	98.542142
1986.000000	98.516141
1985.000000	98.506384
1984.000000	98.516599
1983.000000	98.529991
1982.000000	98.513856
1981.000000	98.455289
1980.000000	98.392961
1979.000000	98.391586
1978.000000	98.472621
1977.000000	98.587903
1976.000000	98.674761
1975.000000	98.716718
1974.000000	98.734016
1973.000000	98.747682
1972.000000	98.767817
1971.000000	98.791045
1970.000000	98.799823
1969.000000	98.781723
1968.000000	98.750711
1967.000000	98.730962
1966.000000	98.723930
1965.000000	98.716196
1964.000000	98.711214
1963.000000	98.722815
1962.000000	98.745436
1961.000000	98.759999
1960.000000	98.766171
1959.000000	98.778091
1958.000000	98.790245
1957.000000	98.781121
1956.000000	98.750279
1955.000000	98.721560
1954.000000	98.706953
1953.000000	98.694904
1952.000000	98.678738
1951.000000	98.668567
1950.000000	98.671547
1949.000000	98.680788
1948.000000	98.687611
1947.000000	98.687872
1946.000000	98.674620
1945.000000	98.644171
1944.000000	98.611601
1943.000000	98.601022
1942.000000	98.615751
1941.000000	98.636823
1940.000000	98.652691
1939.000000	98.665129
1938.000000	98.669072
1937.000000	98.653858
1936.000000	98.626697
1935.000000	98.610877
1934.000000	98.613873
1933.000000	98.619034
1932.000000	98.614287
1931.000000	98.604710
1930.000000	98.596944
1929.000000	98.588645
1928.000000	98.581083
1927.000000	98.583746
1926.000000	98.595733
1925.000000	98.605532
1924.000000	98.609050
1923.000000	98.615322
1922.000000	98.628453
1921.000000	98.638606
1920.000000	98.638893
1919.000000	98.635572
1918.000000	98.633580
1917.000000	98.629325
1916.000000	98.621207
1915.000000	98.613995
1914.000000	98.608873
1913.000000	98.601623
1912.000000	98.593311
1911.000000	98.590590
1910.000000	98.594594
1909.000000	98.596833
1908.000000	98.592913
1907.000000	98.589188
1906.000000	98.589253
1905.000000	98.593657
1904.000000	98.605864
1903.000000	98.626829
1902.000000	98.646432
1901.000000	98.651439
1900.000000	98.644354
1899.000000	98.641127
1898.000000	98.646040
1897.000000	98.649054
1896.000000	98.646836
1895.000000	98.649859
1894.000000	98.662668
1893.000000	98.674149
1892.000000	98.674756
1891.000000	98.668750
1890.000000	98.662964
1889.000000	98.656854
1888.000000	98.650538
1887.000000	98.649274
1886.000000	98.653796
1885.000000	98.657334
1884.000000	98.656032
1883.000000	98.653145
1882.000000	98.651107
1881.000000	98.647005
1880.000000	98.641313
1879.000000	98.642284
1878.000000	98.652004
1877.000000	98.660575
1876.000000	98.662350
1875.000000	98.664073
1874.000000	98.671318
1873.000000	98.679316
1872.000000	98.682989
1871.000000	98.686586
1870.000000	98.695773
1869.000000	98.706052
1868.000000	98.708115
1867.000000	98.699205
1866.000000	98.680687
1865.000000	98.656031
1864.000000	98.634387
1863.000000	98.625918
1862.000000	98.630489
1861.000000	98.637629
1860.000000	98.640587
1859.000000	98.643014
1858.000000	98.648327
1857.000000	98.652195
1856.000000	98.652019
1855.000000	98.651908
1854.000000	98.656084
1853.000000	98.662061
1852.000000	98.663180
1851.000000	98.662631
1850.000000	98.668343
1849.000000	98.681069
1848.000000	98.693166
1847.000000	98.698749
1846.000000	98.700019
1845.000000	98.703363
1844.000000	98.709035
1843.000000	98.709854
1842.000000	98.700433
1841.000000	98.683350
1840.000000	98.670111
1839.000000	98.669848
1838.000000	98.675916
1837.000000	98.677967
1836.000000	98.678869
1835.000000	98.688453
1834.000000	98.704943
1833.000000	98.714497
1832.000000	98.711725
1831.000000	98.711273
1830.000000	98.721272
1829.000000	98.724258
1828.000000	98.705089
1827.000000	98.676097
1826.000000	98.659022
1825.000000	98.657416
1824.000000	98.659735
1823.000000	98.660999
1822.000000	98.664904
1821.000000	98.671529
1820.000000	98.678511
1819.000000	98.687422
1818.000000	98.697555
1817.000000	98.704979
1816.000000	98.708132
1815.000000	98.710973
1814.000000	98.714422
1813.000000	98.710085
1812.000000	98.694806
1811.000000	98.676464
1810.000000	98.662480
1809.000000	98.652741
1808.000000	98.646121
1807.000000	98.644902
1806.000000	98.647594
1805.000000	98.648369
1804.000000	98.644520
1803.000000	98.640470
1802.000000	98.641201
1801.000000	98.641053
1800.000000	98.636461
1799.000000	98.632972
1798.000000	98.635901
1797.000000	98.641993
1796.000000	98.643903
1795.000000	98.640233
1794.000000	98.637662
1793.000000	98.641246
1792.000000	98.650206
1791.000000	98.660050
1790.000000	98.666064
1789.000000	98.664553
1788.000000	98.657974
1787.000000	98.655483
1786.000000	98.663649
1785.000000	98.678818
1784.000000	98.687783
1783.000000	98.683134
1782.000000	98.673527
1781.000000	98.666717
1780.000000	98.668164
1779.000000	98.681565
1778.000000	98.709519
1777.000000	98.746899
1776.000000	98.778340
1775.000000	98.794537
1774.000000	98.802154
1773.000000	98.806432
1772.000000	98.797033
1771.000000	98.766050
1770.000000	98.716527
1769.000000	98.663625
1768.000000	98.628542
1767.000000	98.618802
1766.000000	98.618608
1765.000000	98.603627
1764.000000	98.566231
1763.000000	98.519309
1762.000000	98.474245
1761.000000	98.421024
1760.000000	98.346456
1759.000000	98.246204
1758.000000	98.126019
1757.000000	97.988524
1756.000000	97.835848
1755.000000	97.678339
1754.000000	97.517747
1753.000000	97.343711
1752.000000	97.149993
1751.000000	96.945808
1750.000000	96.743308
1749.000000	96.545629
1748.000000	96.357842
1747.000000	96.199886
1746.000000	96.083278
1745.000000	96.001062
1744.000000	95.951132
1743.000000	95.934210
1742.000000	95.938819
1741.000000	95.961148
1740.000000	96.027784
1739.000000	96.147489
1738.000000	96.273083
1737.000000	96.358253
1736.000000	96.425524
1735.000000	96.561361
1734.000000	96.797122
1733.000000	97.021365
1732.000000	97.162648
1731.000000	97.270319
1730.000000	97.396738
1729.000000	97.542321
1728.000000	97.680661
1727.000000	97.802325
1726.000000	97.912237
1725.000000	98.012028
1724.000000	98.113013
1723.000000	98.225532
1722.000000	98.335188
1721.000000	98.412760
1720.000000	98.453504
1719.000000	98.488711
1718.000000	98.538390
1717.000000	98.571107
1716.000000	98.559729
1715.000000	98.527248
1714.000000	98.492880
1713.000000	98.452343
1712.000000	98.406200
1711.000000	98.367931
1710.000000	98.344136
1709.000000	98.316710
1708.000000	98.262442
1707.000000	98.185439
1706.000000	98.105178
1705.000000	98.028541
1704.000000	97.949827
1703.000000	97.859347
1702.000000	97.751746
1701.000000	97.618520
1700.000000	97.453777
1699.000000	97.295583
1698.000000	97.136289
1697.000000	96.936388
1696.000000	96.710775
1695.000000	96.516514
1694.000000	96.377675
1693.000000	96.258669
1692.000000	96.133083
1691.000000	96.002975
1690.000000	95.880273
1689.000000	95.772052
1688.000000	95.676421
1687.000000	95.584822
1686.000000	95.467704
1685.000000	95.279186
1684.000000	95.017541
1683.000000	94.782140
1682.000000	94.609231
1681.000000	94.454637
1680.000000	94.302659
1679.000000	94.160747
1678.000000	94.022388
1677.000000	93.860978
1676.000000	93.659226
1675.000000	93.441937
1674.000000	93.258470
1673.000000	93.105653
1672.000000	92.943080
1671.000000	92.738783
1670.000000	92.485027
1669.000000	92.211943
1668.000000	91.973990
1667.000000	91.797266
1666.000000	91.656472
1665.000000	91.503611
1664.000000	91.305333
1663.000000	91.067129
1662.000000	90.836718
1661.000000	90.646136
1660.000000	90.491382
1659.000000	90.371504
1658.000000	90.290108
1657.000000	90.231192
1656.000000	90.160497
1655.000000	90.040883
1654.000000	89.819676
1653.000000	89.519383
1652.000000	89.328090
1651.000000	89.288193
1650.000000	89.288668
1649.000000	89.252536
1648.000000	89.140625
1647.000000	88.967179
1646.000000	88.808241
1645.000000	88.708732
1644.000000	88.648005
1643.000000	88.604165
1642.000000	88.577716
1641.000000	88.568336
1640.000000	88.568469
1639.000000	88.569905
1638.000000	88.557295
1637.000000	88.502439
1636.000000	88.390531
1635.000000	88.277033
1634.000000	88.220706
1633.000000	88.210147
1632.000000	88.218382
1631.000000	88.237569
1630.000000	88.267528
1629.000000	88.309127
1628.000000	88.366158
1627.000000	88.442142
1626.000000	88.533812
1625.000000	88.632210
1624.000000	88.739369
1623.000000	88.870005
1622.000000	89.030091
1621.000000	89.201927
1620.000000	89.364324
1619.000000	89.513164
1618.000000	89.666326
1617.000000	89.852280
1616.000000	90.067207
1615.000000	90.273034
1614.000000	90.453318
1613.000000	90.626429
1612.000000	90.811528
1611.000000	91.005556
1610.000000	91.194686
1609.000000	91.376567
1608.000000	91.557846
1607.000000	91.736431
1606.000000	91.907910
1605.000000	92.072995
1604.000000	92.232765
1603.000000	92.381870
1602.000000	92.514095
1601.000000	92.634404
1600.000000	92.751238
1599.000000	92.862537
1598.000000	92.960197
1597.000000	93.044686
1596.000000	93.123819
1595.000000	93.196941
1594.000000	93.256072
1593.000000	93.301371
1592.000000	93.340725
1591.000000	93.374749
1590.000000	93.396908
1589.000000	93.406374
1588.000000	93.408804
1587.000000	93.403904
1586.000000	93.388963
1585.000000	93.370244
1584.000000	93.350834
1583.000000	93.326318
1582.000000	93.296333
1581.000000	93.270851
1580.000000	93.252373
1579.000000	93.224861
1578.000000	93.162628
1577.000000	93.055109
1576.000000	92.928644
1575.000000	92.823784
1574.000000	92.749868
1573.000000	92.688992
1572.000000	92.621673
1571.000000	92.520939
1570.000000	92.367052
1569.000000	92.193634
1568.000000	92.050744
1567.000000	91.935588
1566.000000	91.818395
1565.000000	91.697399
1564.000000	91.594423
1563.000000	91.528981
1562.000000	91.491875
1561.000000	91.449807
1560.000000	91.310358
1559.000000	90.996797
1558.000000	90.679321
1557.000000	90.496870
1556.000000	90.368723
1555.000000	90.240453
1554.000000	90.114944
1553.000000	89.998957
1552.000000	89.891056
1551.000000	89.786156
1550.000000	89.684738
1549.000000	89.599005
1548.000000	89.539431
1547.000000	89.503456
1546.000000	89.484296
1545.000000	89.476472
1544.000000	89.477889
1543.000000	89.483515
1542.000000	89.460393
1541.000000	89.365201
1540.000000	89.221998
1539.000000	89.128016
1538.000000	89.115408
1537.000000	89.139623
1536.000000	89.164384
1535.000000	89.177780
1534.000000	89.181245
1533.000000	89.181003
1532.000000	89.193218
1531.000000	89.227069
1530.000000	89.274610
1529.000000	89.324575
1528.000000	89.375007
1527.000000	89.437239
1526.000000	89.519910
1525.000000	89.607349
1524.000000	89.674073
1523.000000	89.714508
1522.000000	89.750758
1521.000000	89.805053
1520.000000	89.870972
1519.000000	89.931593
1518.000000	89.984911
1517.000000	90.042801
1516.000000	90.111768
1515.000000	90.187803
1514.000000	90.272515
1513.000000	90.375921
1512.000000	90.508745
1511.000000	90.667377
1510.000000	90.835181
1509.000000	90.992041
1508.000000	91.127291
1507.000000	91.253319
1506.000000	91.382254
1505.000000	91.499771
1504.000000	91.603288
1503.000000	91.709101
1502.000000	91.832149
1501.000000	91.971701
1500.000000	92.108996
1499.000000	92.231375
1498.000000	92.343685
1497.000000	92.458164
1496.000000	92.583506
1495.000000	92.716226
1494.000000	92.844407
1493.000000	92.957534
1492.000000	93.059465
1491.000000	93.164905
1490.000000	93.273093
1489.000000	93.356436
1488.000000	93.404631
1487.000000	93.437948
1486.000000	93.469587
1485.000000	93.493987
1484.000000	93.500772
1483.000000	93.495337
1482.000000	93.486427
1481.000000	93.471450
1480.000000	93.445235
1479.000000	93.412534
1478.000000	93.377058
1477.000000	93.330948
1476.000000	93.266911
1475.000000	93.182675
1474.000000	93.069003
1473.000000	92.905882
1472.000000	92.709455
1471.000000	92.533359
1470.000000	92.395450
1469.000000	92.277339
1468.000000	92.167757
1467.000000	92.062180
1466.000000	91.952458
1465.000000	91.828984
1464.000000	91.703991
1463.000000	91.608885
1462.000000	91.550854
1461.000000	91.509887
1460.000000	91.455449
1459.000000	91.356809
1458.000000	91.187091
1457.000000	90.966060
1456.000000	90.779720
1455.000000	90.668957
1454.000000	90.598519
1453.000000	90.541427
1452.000000	90.499698
1451.000000	90.477154
1450.000000	90.462525
1449.000000	90.442980
1448.000000	90.423663
1447.000000	90.415943
1446.000000	90.423799
1445.000000	90.437827
1444.000000	90.452675
1443.000000	90.476119
1442.000000	90.515960
1441.000000	90.568346
1440.000000	90.620340
1439.000000	90.664381
1438.000000	90.701979
1437.000000	90.742138
1436.000000	90.791092
1435.000000	90.848522
1434.000000	90.910529
1433.000000	90.975894
1432.000000	91.043545
1431.000000	91.106831
1430.000000	91.156495
1429.000000	91.190855
1428.000000	91.215777
1427.000000	91.232964
1426.000000	91.246503
1425.000000	91.262669
1424.000000	91.282542
1423.000000	91.300671
1422.000000	91.308947
1421.000000	91.303440
1420.000000	91.286399
1419.000000	91.265297
1418.000000	91.245771
1417.000000	91.229093
1416.000000	91.217768
1415.000000	91.216096
1414.000000	91.222126
1413.000000	91.226012
1412.000000	91.221234
1411.000000	91.212305
1410.000000	91.205006
1409.000000	91.198196
1408.000000	91.189460
1407.000000	91.175893
1406.000000	91.157019
1405.000000	91.136506
1404.000000	91.122263
1403.000000	91.119659
1402.000000	91.122913
1401.000000	91.124122
1400.000000	91.124640
1399.000000	91.132043
1398.000000	91.145173
1397.000000	91.153910
1396.000000	91.154335
1395.000000	91.153191
1394.000000	91.160288
1393.000000	91.178578
1392.000000	91.206796
1391.000000	91.243394
1390.000000	91.284451
1389.000000	91.326229
1388.000000	91.371495
1387.000000	91.423339
1386.000000	91.475945
1385.000000	91.521920
1384.000000	91.564248
1383.000000	91.612709
1382.000000	91.669665
1381.000000	91.731400
1380.000000	91.799293
1379.000000	91.878866
1378.000000	91.969137
1377.000000	92.063617
1376.000000	92.160404
1375.000000	92.261635
1374.000000	92.363200
1373.000000	92.454733
1372.000000	92.534417
1371.000000	92.609577
1370.000000	92.688662
1369.000000	92.776075
1368.000000	92.870915
1367.000000	92.968445
1366.000000	93.062055
1365.000000	93.147218
1364.000000	93.223236
1363.000000	93.290418
1362.000000	93.347792
1361.000000	93.396224
1360.000000	93.439032
1359.000000	93.476841
1358.000000	93.506362
1357.000000	93.525171
1356.000000	93.535340
1355.000000	93.541365
1354.000000	93.544836
1353.000000	93.543278
1352.000000	93.534656
1351.000000	93.516457
1350.000000	93.487155
1349.000000	93.447513
1348.000000	93.400298
1347.000000	93.348102
1346.000000	93.291553
1345.000000	93.231615
1344.000000	93.171309
1343.000000	93.113165
1342.000000	93.055962
1341.000000	92.997024
1340.000000	92.937592
1339.000000	92.884113
1338.000000	92.842516
1337.000000	92.813959
1336.000000	92.798541
1335.000000	92.798261
1334.000000	92.814495
1333.000000	92.846349
1332.000000	92.891600
1331.000000	92.946964
1330.000000	93.007695
1329.000000	93.069081
1328.000000	93.129335
1327.000000	93.188121
1326.000000	93.243781
1325.000000	93.292833
1324.000000	93.332542
1323.000000	93.363153
1322.000000	93.386844
1321.000000	93.405801
1320.000000	93.421817
1319.000000	93.436930
1318.000000	93.452705
1317.000000	93.469887
1316.000000	93.489757
1315.000000	93.515036
1314.000000	93.547894
1313.000000	93.587283
1312.000000	93.629596
1311.000000	93.672089
1310.000000	93.714734
1309.000000	93.758308
1308.000000	93.802431
1307.000000	93.845521
1306.000000	93.887022
1305.000000	93.928111
1304.000000	93.970121
1303.000000	94.013021
1302.000000	94.055435
1301.000000	94.095819
1300.000000	94.133160
1299.000000	94.167357
1298.000000	94.198811
1297.000000	94.227267
1296.000000	94.250259
1295.000000	94.263162
1294.000000	94.262305
1293.000000	94.247874
1292.000000	94.223644
1291.000000	94.193879
1290.000000	94.160030
1289.000000	94.121150
1288.000000	94.077442
1287.000000	94.032399
1286.000000	93.990568
1285.000000	93.953801
1284.000000	93.921613
1283.000000	93.894787
1282.000000	93.876305
1281.000000	93.867958
1280.000000	93.866919
1279.000000	93.866759
1278.000000	93.862108
1277.000000	93.852418
1276.000000	93.840677
1275.000000	93.828515
1274.000000	93.813710
1273.000000	93.792881
1272.000000	93.765311
1271.000000	93.732245
1270.000000	93.692601
1269.000000	93.642840
1268.000000	93.582276
1267.000000	93.515798
1266.000000	93.449009
1265.000000	93.382106
1264.000000	93.311621
1263.000000	93.236844
1262.000000	93.160982
1261.000000	93.086843
1260.000000	93.014293
1259.000000	92.942135
1258.000000	92.869735
1257.000000	92.796798
1256.000000	92.723839
1255.000000	92.652681
1254.000000	92.584626
1253.000000	92.518188
1252.000000	92.449690
1251.000000	92.375704
1250.000000	92.294466
1249.000000	92.206570
1248.000000	92.115363
1247.000000	92.024997
1246.000000	91.936736
1245.000000	91.848613
1244.000000	91.759868
1243.000000	91.673651
1242.000000	91.594385
1241.000000	91.524684
1240.000000	91.466130
1239.000000	91.420149
1238.000000	91.386125
1237.000000	91.362512
1236.000000	91.350771
1235.000000	91.355245
1234.000000	91.378221
1233.000000	91.417238
1232.000000	91.469477
1231.000000	91.535007
1230.000000	91.614908
1229.000000	91.710279
1228.000000	91.822883
1227.000000	91.954222
1226.000000	92.101896
1225.000000	92.258918
1224.000000	92.417867
1223.000000	92.573801
1222.000000	92.724436
1221.000000	92.869499
1220.000000	93.009381
1219.000000	93.142608
1218.000000	93.265445
1217.000000	93.374296
1216.000000	93.467018
1215.000000	93.541587
1214.000000	93.595239
1213.000000	93.627946
1212.000000	93.644195
1211.000000	93.648827
1210.000000	93.642477
1209.000000	93.622293
1208.000000	93.587689
1207.000000	93.542860
1206.000000	93.494154
1205.000000	93.447711
1204.000000	93.409265
1203.000000	93.383412
1202.000000	93.371714
1201.000000	93.373345
1200.000000	93.387401
1199.000000	93.413017
1198.000000	93.447449
1197.000000	93.487349
1196.000000	93.532324
1195.000000	93.583557
1194.000000	93.639070
1193.000000	93.693152
1192.000000	93.741240
1191.000000	93.783113
1190.000000	93.820808
1189.000000	93.855399
1188.000000	93.886285
1187.000000	93.911710
1186.000000	93.929270
1185.000000	93.937990
1184.000000	93.939640
1183.000000	93.936521
1182.000000	93.928136
1181.000000	93.911543
1180.000000	93.885551
1179.000000	93.852234
1178.000000	93.814610
1177.000000	93.775461
1176.000000	93.737868
1175.000000	93.703602
1174.000000	93.670267
1173.000000	93.633666
1172.000000	93.593919
1171.000000	93.555628
1170.000000	93.520986
1169.000000	93.486611
1168.000000	93.449134
1167.000000	93.410089
1166.000000	93.373234
1165.000000	93.340463
1164.000000	93.313512
1163.000000	93.297025
1162.000000	93.296043
1161.000000	93.312584
1160.000000	93.345800
1159.000000	93.393510
1158.000000	93.453027
1157.000000	93.522600
1156.000000	93.604242
1155.000000	93.701578
1154.000000	93.813803
1153.000000	93.935248
1152.000000	94.061152
1151.000000	94.191308
1150.000000	94.326542
1149.000000	94.464966
1148.000000	94.603817
1147.000000	94.742167
1146.000000	94.879773
1145.000000	95.014618
1144.000000	95.143355
1143.000000	95.263345
1142.000000	95.373986
1141.000000	95.476703
1140.000000	95.574096
1139.000000	95.668384
1138.000000	95.759398
1137.000000	95.844936
1136.000000	95.922618
1135.000000	95.990521
1134.000000	96.047010
1133.000000	96.091665
1132.000000	96.127672
1131.000000	96.160643
1130.000000	96.192950
1129.000000	96.221149
1128.000000	96.240725
1127.000000	96.252437
1126.000000	96.261094
1125.000000	96.269215
1124.000000	96.275797
1123.000000	96.280354
1122.000000	96.284086
1121.000000	96.285862
1120.000000	96.280560
1119.000000	96.263735
1118.000000	96.235070
1117.000000	96.196147
1116.000000	96.147372
1115.000000	96.088668
1114.000000	96.021682
1113.000000	95.950077
1112.000000	95.879785
1111.000000	95.818845
1110.000000	95.773653
1109.000000	95.744041
1108.000000	95.724976
1107.000000	95.713328
1106.000000	95.709675
1105.000000	95.713919
1104.000000	95.722569
1103.000000	95.731401
1102.000000	95.736776
1101.000000	95.733292
1100.000000	95.714339
1099.000000	95.678264
1098.000000	95.631233
1097.000000	95.581191
1096.000000	95.531810
1095.000000	95.483704
1094.000000	95.437971
1093.000000	95.395356
1092.000000	95.355040
1091.000000	95.317539
1090.000000	95.286354
1089.000000	95.263164
1088.000000	95.243311
1087.000000	95.220185
1086.000000	95.193391
1085.000000	95.170313
1084.000000	95.159540
1083.000000	95.164863
1082.000000	95.185471
1081.000000	95.218872
1080.000000	95.263641
1079.000000	95.320134
1078.000000	95.389052
1077.000000	95.469240
1076.000000	95.556420
1075.000000	95.644987
1074.000000	95.730181
1073.000000	95.807367
1072.000000	95.870541
1071.000000	95.915114
1070.000000	95.942650
1069.000000	95.959743
1068.000000	95.971452
1067.000000	95.978261
1066.000000	95.980811
1065.000000	95.983764
1064.000000	95.992212
1063.000000	96.006256
1062.000000	96.021666
1061.000000	96.035203
1060.000000	96.047352
1059.000000	96.060893
1058.000000	96.079293
1057.000000	96.106269
1056.000000	96.143644
1055.000000	96.187972
1054.000000	96.230921
1053.000000	96.265140
1052.000000	96.289853
1051.000000	96.309964
1050.000000	96.330234
1049.000000	96.351745
1048.000000	96.373942
1047.000000	96.397025
1046.000000	96.419880
1045.000000	96.437199
1044.000000	96.442321
1043.000000	96.434447
1042.000000	96.419860
1041.000000	96.403506
1040.000000	96.381498
1039.000000	96.344901
1038.000000	96.290179
1037.000000	96.222300
1036.000000	96.148644
1035.000000	96.074556
1034.000000	96.005413
1033.000000	95.948238
1032.000000	95.908089
1031.000000	95.884602
1030.000000	95.874476
1029.000000	95.877056
1028.000000	95.894599
1027.000000	95.927671
1026.000000	95.972696
1025.000000	96.024072
1024.000000	96.077125
1023.000000	96.128405
1022.000000	96.175979
1021.000000	96.220554
1020.000000	96.264428
1019.000000	96.308539
1018.000000	96.351434
1017.000000	96.391295
1016.000000	96.427457
1015.000000	96.460202
1014.000000	96.491451
1013.000000	96.526170
1012.000000	96.570397
1011.000000	96.625937
1010.000000	96.687949
1009.000000	96.749157
1008.000000	96.805913
1007.000000	96.859834
1006.000000	96.915117
1005.000000	96.974945
1004.000000	97.039042
1003.000000	97.103537
1002.000000	97.164086
1001.000000	97.219535
1000.000000	97.271718
999.000000	97.321519
998.000000	97.366966
997.000000	97.405967
996.000000	97.438831
995.000000	97.467147
994.000000	97.491512
993.000000	97.512222
992.000000	97.531659
991.000000	97.553828
990.000000	97.580845
989.000000	97.610317
988.000000	97.636799
987.000000	97.655966
986.000000	97.667340
985.000000	97.673247
984.000000	97.675175
983.000000	97.671965
982.000000	97.662380
981.000000	97.648622
980.000000	97.635836
979.000000	97.627154
978.000000	97.620052
977.000000	97.608773
976.000000	97.590153
975.000000	97.566746
974.000000	97.544658
973.000000	97.529389
972.000000	97.523512
971.000000	97.526925
970.000000	97.538072
969.000000	97.554823
968.000000	97.574788
967.000000	97.595434
966.000000	97.615416
965.000000	97.636054
964.000000	97.659861
963.000000	97.686686
962.000000	97.712708
961.000000	97.735320
960.000000	97.757733
959.000000	97.785908
958.000000	97.821210
957.000000	97.858600
956.000000	97.892646
955.000000	97.922708
954.000000	97.951131
953.000000	97.978911
952.000000	98.004834
951.000000	98.027113
950.000000	98.044110
949.000000	98.055072
948.000000	98.062110
947.000000	98.070335
946.000000	98.083292
945.000000	98.098628
944.000000	98.110530
943.000000	98.116001
942.000000	98.116974
941.000000	98.116475
940.000000	98.115467
939.000000	98.114051
938.000000	98.113382
937.000000	98.115355
936.000000	98.121767
935.000000	98.134305
934.000000	98.153581
933.000000	98.177435
932.000000	98.201502
931.000000	98.222175
930.000000	98.238081
929.000000	98.248890
928.000000	98.254873
927.000000	98.258409
926.000000	98.263686
925.000000	98.273097
924.000000	98.284905
923.000000	98.295749
922.000000	98.304804
921.000000	98.314735
920.000000	98.329621
919.000000	98.352381
918.000000	98.382840
917.000000	98.417470
916.000000	98.451996
915.000000	98.484758
914.000000	98.515965
913.000000	98.543259
912.000000	98.561362
911.000000	98.568850
910.000000	98.573103
909.000000	98.584520
908.000000	98.605695
907.000000	98.629654
906.000000	98.648772
905.000000	98.661989
904.000000	98.672223
903.000000	98.680033
902.000000	98.683300
901.000000	98.682422
900.000000	98.682948
899.000000	98.691955
898.000000	98.711879
897.000000	98.737882
896.000000	98.761216
895.000000	98.775714
894.000000	98.782155
893.000000	98.786586
892.000000	98.793970
891.000000	98.802863
890.000000	98.804502
889.000000	98.785828
888.000000	98.733910
887.000000	98.640215
886.000000	98.505818
885.000000	98.344203
884.000000	98.176924
883.000000	98.021673
882.000000	97.879817
881.000000	97.736296
880.000000	97.574771
879.000000	97.393762
878.000000	97.207577
877.000000	97.035476
876.000000	96.893349
875.000000	96.793659
874.000000	96.746988
873.000000	96.759791
872.000000	96.832732
871.000000	96.959485
870.000000	97.125334
869.000000	97.308333
868.000000	97.484605
867.000000	97.636551
866.000000	97.758904
865.000000	97.858179
864.000000	97.944626
863.000000	98.022967
862.000000	98.090179
861.000000	98.142602
860.000000	98.183505
859.000000	98.220843
858.000000	98.258646
857.000000	98.293585
856.000000	98.321179
855.000000	98.342177
854.000000	98.360348
853.000000	98.376594
852.000000	98.388203
851.000000	98.393491
850.000000	98.395048
849.000000	98.398738
848.000000	98.410792
847.000000	98.434533
846.000000	98.467920
845.000000	98.504771
844.000000	98.539642
843.000000	98.570885
842.000000	98.598974
841.000000	98.624352
840.000000	98.648130
839.000000	98.672097
838.000000	98.695420
837.000000	98.713236
836.000000	98.721513
835.000000	98.722218
834.000000	98.721240
833.000000	98.722265
832.000000	98.725257
831.000000	98.729715
830.000000	98.736084
829.000000	98.744569
828.000000	98.755317
827.000000	98.768894
826.000000	98.783677
825.000000	98.793646
824.000000	98.792322
823.000000	98.779487
822.000000	98.761522
821.000000	98.745365
820.000000	98.734200
819.000000	98.727392
818.000000	98.721776
817.000000	98.714065
816.000000	98.704662
815.000000	98.698659
814.000000	98.701405
813.000000	98.714084
812.000000	98.734441
811.000000	98.758497
810.000000	98.779315
809.000000	98.788162
808.000000	98.781781
807.000000	98.767086
806.000000	98.755166
805.000000	98.752145
804.000000	98.757973
803.000000	98.769804
802.000000	98.781537
801.000000	98.783628
800.000000	98.770604
799.000000	98.748232
798.000000	98.727791
797.000000	98.714088
796.000000	98.703943
795.000000	98.694374
794.000000	98.685390
793.000000	98.675248
792.000000	98.660264
791.000000	98.640841
790.000000	98.622547
789.000000	98.609682
788.000000	98.601413
787.000000	98.594675
786.000000	98.587040
785.000000	98.576892
784.000000	98.565063
783.000000	98.556406
782.000000	98.555558
781.000000	98.560844
780.000000	98.566111
779.000000	98.568302
778.000000	98.568797
777.000000	98.567526
776.000000	98.561207
775.000000	98.548772
774.000000	98.534331
773.000000	98.523183
772.000000	98.518119
771.000000	98.520276
770.000000	98.529604
769.000000	98.543027
768.000000	98.555087
767.000000	98.561549
766.000000	98.560450
765.000000	98.550330
764.000000	98.531057
763.000000	98.506443
762.000000	98.482085
761.000000	98.459702
760.000000	98.436852
759.000000	98.412526
758.000000	98.388927
757.000000	98.366640
756.000000	98.342357
755.000000	98.314082
754.000000	98.286165
753.000000	98.266323
752.000000	98.258371
751.000000	98.259057
750.000000	98.261018
749.000000	98.258208
748.000000	98.249402
747.000000	98.237309
746.000000	98.224994
745.000000	98.214122
744.000000	98.205978
743.000000	98.201318
742.000000	98.198236
741.000000	98.193109
740.000000	98.185243
739.000000	98.177022
738.000000	98.166973
737.000000	98.147257
736.000000	98.113221
735.000000	98.072854
734.000000	98.040280
733.000000	98.020088
732.000000	98.003251
731.000000	97.978699
730.000000	97.944014
729.000000	97.903576
728.000000	97.862552
727.000000	97.826124
726.000000	97.800061
725.000000	97.787578
724.000000	97.785104
723.000000	97.782746
722.000000	97.769926
721.000000	97.741501
720.000000	97.699369
719.000000	97.646961
718.000000	97.581120
717.000000	97.490541
716.000000	97.364343
715.000000	97.205258
714.000000	97.037588
713.000000	96.901590
712.000000	96.832834
711.000000	96.837930
710.000000	96.889206
709.000000	96.946798
708.000000	96.987068
707.000000	97.009918
706.000000	97.023281
705.000000	97.030217
704.000000	97.031283
703.000000	97.027978
702.000000	97.019756
701.000000	97.004025
700.000000	96.982118
699.000000	96.960858
698.000000	96.945159
697.000000	96.934406
696.000000	96.928018
695.000000	96.926804
694.000000	96.928379
693.000000	96.928301
692.000000	96.927517
691.000000	96.931722
690.000000	96.939066
689.000000	96.937014
688.000000	96.917367
687.000000	96.887718
686.000000	96.862695
685.000000	96.848894
684.000000	96.841394
683.000000	96.829828
682.000000	96.805273
681.000000	96.767590
680.000000	96.728300
679.000000	96.701073
678.000000	96.687612
677.000000	96.679205
676.000000	96.672999
675.000000	96.673392
674.000000	96.679740
673.000000	96.684326
672.000000	96.684729
671.000000	96.685097
670.000000	96.684131
669.000000	96.670113
668.000000	96.631065
667.000000	96.605495
666.000000	96.632948
665.000000	96.670637
664.000000	96.675473
663.000000	96.651997
662.000000	96.624620
661.000000	96.609975
660.000000	96.607863
659.000000	96.616629
658.000000	96.631176
657.000000	96.637331
656.000000	96.625524
655.000000	96.601679
654.000000	96.575179
653.000000	96.547632
652.000000	96.521867
651.000000	96.506994
650.000000	96.502674
649.000000	96.493306
648.000000	96.471222
647.000000	96.449139
646.000000	96.436083
645.000000	96.419971
644.000000	96.389747
643.000000	96.356785
642.000000	96.337446
641.000000	96.327798
640.000000	96.314424
639.000000	96.298938
638.000000	96.290722
637.000000	96.286644
636.000000	96.277772
635.000000	96.267374
634.000000	96.264883
633.000000	96.269389
632.000000	96.274523
631.000000	96.280423
630.000000	96.284627
629.000000	96.272482
628.000000	96.235903
627.000000	96.193718
626.000000	96.173708
625.000000	96.178717
624.000000	96.188642
623.000000	96.189835
622.000000	96.184450
621.000000	96.176266
620.000000	96.165789
619.000000	96.156813
618.000000	96.151374
617.000000	96.140325
616.000000	96.114238
615.000000	96.080528
614.000000	96.054908
613.000000	96.041211
612.000000	96.033989
611.000000	96.035097
610.000000	96.051318
609.000000	96.078998
608.000000	96.105760
607.000000	96.124912
606.000000	96.136307
605.000000	96.139374
604.000000	96.138371
603.000000	96.147627
602.000000	96.175794
601.000000	96.209789
600.000000	96.230125
599.000000	96.236773
598.000000	96.244863
597.000000	96.259647
596.000000	96.273910
595.000000	96.287002
594.000000	96.308572
593.000000	96.342154
592.000000	96.377827
591.000000	96.403295
590.000000	96.413690
589.000000	96.411860
588.000000	96.406420
587.000000	96.406410
586.000000	96.410043
585.000000	96.404913
584.000000	96.388535
583.000000	96.377334
582.000000	96.381744
581.000000	96.385959
580.000000	96.372117
579.000000	96.353604
578.000000	96.359133
577.000000	96.389062
576.000000	96.411359
575.000000	96.401164
574.000000	96.366088
573.000000	96.327776
572.000000	96.299707
571.000000	96.287292
570.000000	96.288449
569.000000	96.289973
568.000000	96.277354
567.000000	96.249956
566.000000	96.216665
565.000000	96.180749
564.000000	96.142027
563.000000	96.109029
562.000000	96.093645
561.000000	96.096759
560.000000	96.111813
559.000000	96.135272
558.000000	96.159104
557.000000	96.163639
556.000000	96.137821
555.000000	96.101127
554.000000	96.085766
553.000000	96.098903
552.000000	96.121110
551.000000	96.137732
550.000000	96.153364
549.000000	96.177784
548.000000	96.213574
547.000000	96.256922
546.000000	96.298009
545.000000	96.322965
544.000000	96.326865
543.000000	96.322253
542.000000	96.326381
541.000000	96.343511
540.000000	96.364020
539.000000	96.372954
538.000000	96.356326
537.000000	96.311828
536.000000	96.258819
535.000000	96.223324
534.000000	96.206346
533.000000	96.183455
532.000000	96.143340
531.000000	96.104301
530.000000	96.082114
529.000000	96.070592
528.000000	96.070527
527.000000	96.107360
526.000000	96.190106
525.000000	96.275331
524.000000	96.314537
523.000000	96.310435
522.000000	96.293441
521.000000	96.279653
520.000000	96.278189
519.000000	96.308651
518.000000	96.373720
517.000000	96.433194
516.000000	96.450111
515.000000	96.443516
514.000000	96.456079
513.000000	96.496677
512.000000	96.548099
511.000000	96.605854
510.000000	96.673495
509.000000	96.734365
508.000000	96.765588
507.000000	96.774730
506.000000	96.788646
505.000000	96.812330
504.000000	96.835357
503.000000	96.868087
502.000000	96.929037
501.000000	96.999446
500.000000	97.038853
499.000000	97.043962
498.000000	97.050497
497.000000	97.080840
496.000000	97.118710
495.000000	97.138207
494.000000	97.134485
493.000000	97.118601
492.000000	97.102517
491.000000	97.096892
490.000000	97.109911
489.000000	97.142833
488.000000	97.190930
487.000000	97.242135
486.000000	97.272624
485.000000	97.264625
484.000000	97.240344
483.000000	97.252775
482.000000	97.323875
481.000000	97.420098
480.000000	97.502372
479.000000	97.564801
478.000000	97.612886
477.000000	97.642191
476.000000	97.662344
475.000000	97.703923
474.000000	97.767388
473.000000	97.798608
472.000000	97.766499
471.000000	97.731961
470.000000	97.762543
469.000000	97.833627
468.000000	97.880292
467.000000	97.891412
466.000000	97.898526
465.000000	97.899978
464.000000	97.873428
463.000000	97.849042
462.000000	97.904612
461.000000	98.052172
460.000000	98.222774
459.000000	98.318674
458.000000	98.314507
457.000000	98.317655
456.000000	98.373240
455.000000	98.514029
454.000000	98.692113
453.000000	98.819676
452.000000	98.827056
451.000000	98.762644
450.000000	98.713277
