PE IR       SUBTECH     SPECTRUM    ASCII       PEDS        4.00        
   -1
3C-YYX-C008_1.ASC
23/09/07
11:17:34.00
23/09/07
11:30:09.00
uco
Sample 008 By uco Date Thursday, September 07 2023
450.000000
#HDR
-1
-1
#GR
cm-1
%T
1.0
0.0
4000.000000
-1.000000
3551
8
98.923010
79.815092
#DATA
4000.000000	98.813145
3999.000000	98.809520
3998.000000	98.806341
3997.000000	98.808328
3996.000000	98.808743
3995.000000	98.809261
3994.000000	98.809361
3993.000000	98.809190
3992.000000	98.809256
3991.000000	98.809701
3990.000000	98.809879
3989.000000	98.808733
3988.000000	98.805566
3987.000000	98.800430
3986.000000	98.794051
3985.000000	98.787762
3984.000000	98.783500
3983.000000	98.783029
3982.000000	98.786542
3981.000000	98.792137
3980.000000	98.797086
3979.000000	98.799741
3978.000000	98.800011
3977.000000	98.798363
3976.000000	98.795153
3975.000000	98.791326
3974.000000	98.789065
3973.000000	98.790701
3972.000000	98.796414
3971.000000	98.803275
3970.000000	98.807178
3969.000000	98.805699
3968.000000	98.799508
3967.000000	98.791263
3966.000000	98.783438
3965.000000	98.777373
3964.000000	98.773723
3963.000000	98.773135
3962.000000	98.776123
3961.000000	98.782376
3960.000000	98.790252
3959.000000	98.797040
3958.000000	98.799964
3957.000000	98.797380
3956.000000	98.790071
3955.000000	98.781493
3954.000000	98.776161
3953.000000	98.777064
3952.000000	98.783789
3951.000000	98.792864
3950.000000	98.799884
3949.000000	98.801948
3948.000000	98.798947
3947.000000	98.792861
3946.000000	98.786074
3945.000000	98.780379
3944.000000	98.777073
3943.000000	98.777304
3942.000000	98.781378
3941.000000	98.787984
3940.000000	98.794274
3939.000000	98.796820
3938.000000	98.793334
3937.000000	98.783895
3936.000000	98.771409
3935.000000	98.760777
3934.000000	98.756942
3933.000000	98.762618
3932.000000	98.775991
3931.000000	98.791138
3930.000000	98.801872
3929.000000	98.805554
3928.000000	98.803717
3927.000000	98.799492
3926.000000	98.795312
3925.000000	98.792330
3924.000000	98.790815
3923.000000	98.790465
3922.000000	98.790162
3921.000000	98.787829
3920.000000	98.781476
3919.000000	98.770979
3918.000000	98.759339
3917.000000	98.751491
3916.000000	98.750699
3915.000000	98.756017
3914.000000	98.763153
3913.000000	98.767728
3912.000000	98.767759
3911.000000	98.764261
3910.000000	98.759895
3909.000000	98.756547
3908.000000	98.754564
3907.000000	98.753460
3906.000000	98.753000
3905.000000	98.753725
3904.000000	98.756757
3903.000000	98.763084
3902.000000	98.772522
3901.000000	98.782946
3900.000000	98.791582
3899.000000	98.796807
3898.000000	98.798777
3897.000000	98.798532
3896.000000	98.796568
3895.000000	98.793009
3894.000000	98.788901
3893.000000	98.786102
3892.000000	98.785570
3891.000000	98.785942
3890.000000	98.785359
3889.000000	98.783851
3888.000000	98.782665
3887.000000	98.782478
3886.000000	98.782615
3885.000000	98.781922
3884.000000	98.780965
3883.000000	98.781178
3882.000000	98.782344
3881.000000	98.781872
3880.000000	98.777473
3879.000000	98.770788
3878.000000	98.766226
3877.000000	98.766199
3876.000000	98.769496
3875.000000	98.772575
3874.000000	98.772318
3873.000000	98.768945
3872.000000	98.765671
3871.000000	98.765419
3870.000000	98.768224
3869.000000	98.772074
3868.000000	98.775976
3867.000000	98.779808
3866.000000	98.782621
3865.000000	98.783137
3864.000000	98.781261
3863.000000	98.778385
3862.000000	98.775702
3861.000000	98.773149
3860.000000	98.770757
3859.000000	98.768714
3858.000000	98.766731
3857.000000	98.763805
3856.000000	98.759531
3855.000000	98.755005
3854.000000	98.751140
3853.000000	98.748594
3852.000000	98.748816
3851.000000	98.751209
3850.000000	98.753453
3849.000000	98.754623
3848.000000	98.755374
3847.000000	98.756110
3846.000000	98.755814
3845.000000	98.753125
3844.000000	98.748395
3843.000000	98.744333
3842.000000	98.744225
3841.000000	98.749670
3840.000000	98.760140
3839.000000	98.773187
3838.000000	98.785366
3837.000000	98.793946
3836.000000	98.798228
3835.000000	98.798904
3834.000000	98.796609
3833.000000	98.791777
3832.000000	98.785481
3831.000000	98.779320
3830.000000	98.774686
3829.000000	98.771835
3828.000000	98.769893
3827.000000	98.767439
3826.000000	98.763585
3825.000000	98.758725
3824.000000	98.754272
3823.000000	98.752092
3822.000000	98.752635
3821.000000	98.753555
3820.000000	98.752345
3819.000000	98.749853
3818.000000	98.748935
3817.000000	98.750981
3816.000000	98.754822
3815.000000	98.757734
3814.000000	98.758905
3813.000000	98.759388
3812.000000	98.759868
3811.000000	98.760570
3810.000000	98.761655
3809.000000	98.763128
3808.000000	98.764235
3807.000000	98.763797
3806.000000	98.761843
3805.000000	98.760051
3804.000000	98.760022
3803.000000	98.762495
3802.000000	98.766644
3801.000000	98.769415
3800.000000	98.768563
3799.000000	98.765570
3798.000000	98.762394
3797.000000	98.759571
3796.000000	98.756750
3795.000000	98.754128
3794.000000	98.752992
3793.000000	98.754579
3792.000000	98.758754
3791.000000	98.764032
3790.000000	98.768509
3789.000000	98.771151
3788.000000	98.772450
3787.000000	98.773451
3786.000000	98.774356
3785.000000	98.774422
3784.000000	98.773420
3783.000000	98.772573
3782.000000	98.773448
3781.000000	98.775742
3780.000000	98.776791
3779.000000	98.774018
3778.000000	98.768130
3777.000000	98.762514
3776.000000	98.759742
3775.000000	98.760016
3774.000000	98.762224
3773.000000	98.765495
3772.000000	98.769582
3771.000000	98.774295
3770.000000	98.779040
3769.000000	98.783042
3768.000000	98.786250
3767.000000	98.788712
3766.000000	98.789732
3765.000000	98.788356
3764.000000	98.784665
3763.000000	98.780059
3762.000000	98.776209
3761.000000	98.773638
3760.000000	98.771479
3759.000000	98.768533
3758.000000	98.764880
3757.000000	98.761845
3756.000000	98.760289
3755.000000	98.759831
3754.000000	98.759361
3753.000000	98.758112
3752.000000	98.756769
3751.000000	98.757029
3750.000000	98.759534
3749.000000	98.763492
3748.000000	98.768923
3747.000000	98.777056
3746.000000	98.788443
3745.000000	98.799586
3744.000000	98.803345
3743.000000	98.799161
3742.000000	98.792787
3741.000000	98.786535
3740.000000	98.780269
3739.000000	98.775059
3738.000000	98.772639
3737.000000	98.773414
3736.000000	98.777282
3735.000000	98.785893
3734.000000	98.799606
3733.000000	98.814410
3732.000000	98.824628
3731.000000	98.827606
3730.000000	98.824756
3729.000000	98.818615
3728.000000	98.810832
3727.000000	98.802451
3726.000000	98.795026
3725.000000	98.790742
3724.000000	98.790469
3723.000000	98.792175
3722.000000	98.792229
3721.000000	98.789419
3720.000000	98.786645
3719.000000	98.787291
3718.000000	98.791450
3717.000000	98.796017
3716.000000	98.797792
3715.000000	98.795357
3714.000000	98.788212
3713.000000	98.777069
3712.000000	98.766067
3711.000000	98.761540
3710.000000	98.765522
3709.000000	98.773680
3708.000000	98.781448
3707.000000	98.787337
3706.000000	98.791479
3705.000000	98.794214
3704.000000	98.795534
3703.000000	98.795110
3702.000000	98.793463
3701.000000	98.792658
3700.000000	98.794987
3699.000000	98.800029
3698.000000	98.803877
3697.000000	98.801818
3696.000000	98.792050
3695.000000	98.777372
3694.000000	98.763164
3693.000000	98.754466
3692.000000	98.753975
3691.000000	98.760846
3690.000000	98.769904
3689.000000	98.774510
3688.000000	98.772995
3687.000000	98.769523
3686.000000	98.767348
3685.000000	98.765359
3684.000000	98.761229
3683.000000	98.754845
3682.000000	98.748615
3681.000000	98.744483
3680.000000	98.741502
3679.000000	98.736801
3678.000000	98.728235
3677.000000	98.716021
3676.000000	98.702776
3675.000000	98.691980
3674.000000	98.685435
3673.000000	98.683559
3672.000000	98.685810
3671.000000	98.691107
3670.000000	98.696346
3669.000000	98.696789
3668.000000	98.691336
3667.000000	98.683073
3666.000000	98.674779
3665.000000	98.667816
3664.000000	98.662541
3663.000000	98.658406
3662.000000	98.654209
3661.000000	98.649369
3660.000000	98.645121
3659.000000	98.643686
3658.000000	98.645376
3657.000000	98.646920
3656.000000	98.644326
3655.000000	98.638373
3654.000000	98.633369
3653.000000	98.631245
3652.000000	98.629542
3651.000000	98.623468
3650.000000	98.610817
3649.000000	98.596627
3648.000000	98.587408
3647.000000	98.581891
3646.000000	98.575372
3645.000000	98.566711
3644.000000	98.558363
3643.000000	98.553555
3642.000000	98.553875
3641.000000	98.557815
3640.000000	98.561943
3639.000000	98.563469
3638.000000	98.561279
3637.000000	98.555534
3636.000000	98.546843
3635.000000	98.535932
3634.000000	98.523560
3633.000000	98.510320
3632.000000	98.496772
3631.000000	98.484186
3630.000000	98.474460
3629.000000	98.468089
3628.000000	98.462820
3627.000000	98.456802
3626.000000	98.450854
3625.000000	98.445591
3624.000000	98.440767
3623.000000	98.435689
3622.000000	98.429345
3621.000000	98.420845
3620.000000	98.410044
3619.000000	98.397957
3618.000000	98.386469
3617.000000	98.376916
3616.000000	98.368898
3615.000000	98.360558
3614.000000	98.350039
3613.000000	98.337306
3612.000000	98.324893
3611.000000	98.316037
3610.000000	98.311483
3609.000000	98.309223
3608.000000	98.306339
3607.000000	98.300884
3606.000000	98.293040
3605.000000	98.284512
3604.000000	98.277457
3603.000000	98.272980
3602.000000	98.270006
3601.000000	98.265998
3600.000000	98.259120
3599.000000	98.249617
3598.000000	98.238556
3597.000000	98.226219
3596.000000	98.212087
3595.000000	98.196705
3594.000000	98.181881
3593.000000	98.169221
3592.000000	98.158495
3591.000000	98.148463
3590.000000	98.138298
3589.000000	98.128412
3588.000000	98.119793
3587.000000	98.112726
3586.000000	98.105859
3585.000000	98.097508
3584.000000	98.086985
3583.000000	98.074358
3582.000000	98.060335
3581.000000	98.046496
3580.000000	98.034617
3579.000000	98.025838
3578.000000	98.019891
3577.000000	98.015179
3576.000000	98.008947
3575.000000	97.998200
3574.000000	97.981527
3573.000000	97.960926
3572.000000	97.941404
3571.000000	97.927831
3570.000000	97.921555
3569.000000	97.919345
3568.000000	97.915593
3567.000000	97.906892
3566.000000	97.894213
3565.000000	97.879876
3564.000000	97.865138
3563.000000	97.850687
3562.000000	97.837281
3561.000000	97.825141
3560.000000	97.813169
3559.000000	97.799493
3558.000000	97.783475
3557.000000	97.766593
3556.000000	97.751068
3555.000000	97.737617
3554.000000	97.724824
3553.000000	97.710763
3552.000000	97.695413
3551.000000	97.681015
3550.000000	97.669999
3549.000000	97.663260
3548.000000	97.660120
3547.000000	97.659069
3546.000000	97.658259
3545.000000	97.655806
3544.000000	97.650022
3543.000000	97.639547
3542.000000	97.623421
3541.000000	97.601922
3540.000000	97.577643
3539.000000	97.554815
3538.000000	97.536594
3537.000000	97.522939
3536.000000	97.511557
3535.000000	97.500975
3534.000000	97.491659
3533.000000	97.484426
3532.000000	97.478738
3531.000000	97.473128
3530.000000	97.466601
3529.000000	97.459236
3528.000000	97.451627
3527.000000	97.444130
3526.000000	97.436485
3525.000000	97.427899
3524.000000	97.417418
3523.000000	97.404651
3522.000000	97.390437
3521.000000	97.376604
3520.000000	97.364738
3519.000000	97.354752
3518.000000	97.344521
3517.000000	97.331400
3516.000000	97.314645
3515.000000	97.296507
3514.000000	97.280469
3513.000000	97.268229
3512.000000	97.258474
3511.000000	97.248629
3510.000000	97.237508
3509.000000	97.226221
3508.000000	97.216780
3507.000000	97.210388
3506.000000	97.206856
3505.000000	97.204546
3504.000000	97.200612
3503.000000	97.192467
3502.000000	97.179971
3501.000000	97.165791
3500.000000	97.153022
3499.000000	97.142784
3498.000000	97.134127
3497.000000	97.125511
3496.000000	97.115751
3495.000000	97.103953
3494.000000	97.089602
3493.000000	97.073326
3492.000000	97.057098
3491.000000	97.043160
3490.000000	97.032561
3489.000000	97.024629
3488.000000	97.017652
3487.000000	97.010150
3486.000000	97.001851
3485.000000	96.993449
3484.000000	96.985235
3483.000000	96.976299
3482.000000	96.965498
3481.000000	96.953088
3480.000000	96.940702
3479.000000	96.929810
3478.000000	96.920940
3477.000000	96.914144
3476.000000	96.908987
3475.000000	96.903842
3474.000000	96.896518
3473.000000	96.886384
3472.000000	96.875026
3471.000000	96.864210
3470.000000	96.853955
3469.000000	96.843211
3468.000000	96.831629
3467.000000	96.819792
3466.000000	96.808451
3465.000000	96.798609
3464.000000	96.791681
3463.000000	96.788113
3462.000000	96.785780
3461.000000	96.781078
3460.000000	96.772085
3459.000000	96.760080
3458.000000	96.747852
3457.000000	96.737288
3456.000000	96.728618
3455.000000	96.721084
3454.000000	96.713632
3453.000000	96.705576
3452.000000	96.697168
3451.000000	96.689719
3450.000000	96.684634
3449.000000	96.681981
3448.000000	96.679979
3447.000000	96.676128
3446.000000	96.669078
3445.000000	96.659252
3444.000000	96.647763
3443.000000	96.635575
3442.000000	96.624176
3441.000000	96.616051
3440.000000	96.613140
3439.000000	96.614595
3438.000000	96.616819
3437.000000	96.616117
3436.000000	96.610982
3435.000000	96.602008
3434.000000	96.590523
3433.000000	96.577929
3432.000000	96.565443
3431.000000	96.553754
3430.000000	96.543056
3429.000000	96.533561
3428.000000	96.525363
3427.000000	96.517404
3426.000000	96.507800
3425.000000	96.496176
3424.000000	96.484926
3423.000000	96.476760
3422.000000	96.471103
3421.000000	96.464208
3420.000000	96.453157
3419.000000	96.438870
3418.000000	96.424724
3417.000000	96.413275
3416.000000	96.404742
3415.000000	96.397770
3414.000000	96.390916
3413.000000	96.383543
3412.000000	96.375595
3411.000000	96.366741
3410.000000	96.356328
3409.000000	96.344556
3408.000000	96.333146
3407.000000	96.323899
3406.000000	96.316855
3405.000000	96.310640
3404.000000	96.304398
3403.000000	96.298425
3402.000000	96.292940
3401.000000	96.287469
3400.000000	96.281500
3399.000000	96.274686
3398.000000	96.266104
3397.000000	96.254576
3396.000000	96.240516
3395.000000	96.226485
3394.000000	96.214878
3393.000000	96.205369
3392.000000	96.195382
3391.000000	96.183018
3390.000000	96.168989
3389.000000	96.155791
3388.000000	96.145680
3387.000000	96.139421
3386.000000	96.136101
3385.000000	96.133391
3384.000000	96.128166
3383.000000	96.118005
3382.000000	96.103163
3381.000000	96.087102
3380.000000	96.074049
3379.000000	96.065318
3378.000000	96.058385
3377.000000	96.049799
3376.000000	96.038337
3375.000000	96.024910
3374.000000	96.010594
3373.000000	95.996115
3372.000000	95.982771
3371.000000	95.972179
3370.000000	95.964626
3369.000000	95.958498
3368.000000	95.951675
3367.000000	95.942837
3366.000000	95.931396
3365.000000	95.917199
3364.000000	95.900885
3363.000000	95.883895
3362.000000	95.867516
3361.000000	95.852090
3360.000000	95.837386
3359.000000	95.823324
3358.000000	95.809867
3357.000000	95.796261
3356.000000	95.780882
3355.000000	95.762409
3354.000000	95.741541
3353.000000	95.721344
3352.000000	95.705124
3351.000000	95.693422
3350.000000	95.683419
3349.000000	95.671545
3348.000000	95.656396
3347.000000	95.638965
3346.000000	95.620823
3345.000000	95.602845
3344.000000	95.585173
3343.000000	95.567622
3342.000000	95.550275
3341.000000	95.534244
3340.000000	95.521299
3339.000000	95.511733
3338.000000	95.502856
3337.000000	95.490748
3336.000000	95.473863
3335.000000	95.454322
3334.000000	95.435592
3333.000000	95.419568
3332.000000	95.406009
3331.000000	95.393917
3330.000000	95.382869
3329.000000	95.373040
3328.000000	95.363990
3327.000000	95.353609
3326.000000	95.339167
3325.000000	95.320199
3324.000000	95.299951
3323.000000	95.283015
3322.000000	95.271385
3321.000000	95.263156
3320.000000	95.254470
3319.000000	95.242083
3318.000000	95.224733
3317.000000	95.203472
3316.000000	95.181066
3315.000000	95.160446
3314.000000	95.143435
3313.000000	95.130888
3312.000000	95.123050
3311.000000	95.118778
3310.000000	95.114924
3309.000000	95.107893
3308.000000	95.096184
3307.000000	95.080786
3306.000000	95.063495
3305.000000	95.045910
3304.000000	95.029682
3303.000000	95.016080
3302.000000	95.004895
3301.000000	94.994959
3300.000000	94.986225
3299.000000	94.980195
3298.000000	94.977484
3297.000000	94.975775
3296.000000	94.971015
3295.000000	94.960726
3294.000000	94.946035
3293.000000	94.930896
3292.000000	94.919422
3291.000000	94.913227
3290.000000	94.910795
3289.000000	94.909278
3288.000000	94.906804
3287.000000	94.903120
3286.000000	94.899013
3285.000000	94.895967
3284.000000	94.895545
3283.000000	94.897738
3282.000000	94.900068
3281.000000	94.899769
3280.000000	94.897275
3279.000000	94.896252
3278.000000	94.899811
3277.000000	94.907479
3276.000000	94.916412
3275.000000	94.925077
3274.000000	94.934804
3273.000000	94.947852
3272.000000	94.964063
3271.000000	94.979463
3270.000000	94.988929
3269.000000	94.991102
3268.000000	94.990441
3267.000000	94.993621
3266.000000	95.003892
3265.000000	95.019566
3264.000000	95.037435
3263.000000	95.055756
3262.000000	95.073835
3261.000000	95.090642
3260.000000	95.105314
3259.000000	95.118357
3258.000000	95.131462
3257.000000	95.146409
3256.000000	95.164265
3255.000000	95.184876
3254.000000	95.206670
3253.000000	95.227633
3252.000000	95.246817
3251.000000	95.264419
3250.000000	95.280470
3249.000000	95.294659
3248.000000	95.307825
3247.000000	95.322050
3246.000000	95.338120
3245.000000	95.353590
3244.000000	95.364850
3243.000000	95.371077
3242.000000	95.375176
3241.000000	95.381057
3240.000000	95.390737
3239.000000	95.403906
3238.000000	95.419168
3237.000000	95.435043
3236.000000	95.450258
3235.000000	95.464051
3234.000000	95.476672
3233.000000	95.489148
3232.000000	95.501680
3231.000000	95.512336
3230.000000	95.518444
3229.000000	95.519952
3228.000000	95.520621
3227.000000	95.524736
3226.000000	95.533020
3225.000000	95.542851
3224.000000	95.551911
3223.000000	95.560436
3222.000000	95.570089
3221.000000	95.582199
3220.000000	95.597168
3219.000000	95.613899
3218.000000	95.629256
3217.000000	95.639648
3216.000000	95.644256
3215.000000	95.646121
3214.000000	95.649068
3213.000000	95.654061
3212.000000	95.659139
3211.000000	95.662246
3210.000000	95.663384
3209.000000	95.664299
3208.000000	95.667021
3207.000000	95.672628
3206.000000	95.680941
3205.000000	95.691149
3204.000000	95.702556
3203.000000	95.714509
3202.000000	95.725973
3201.000000	95.735988
3200.000000	95.744701
3199.000000	95.753293
3198.000000	95.762705
3197.000000	95.773008
3196.000000	95.783901
3195.000000	95.794856
3194.000000	95.804655
3193.000000	95.812100
3192.000000	95.818076
3191.000000	95.826118
3190.000000	95.839764
3189.000000	95.859219
3188.000000	95.880771
3187.000000	95.899365
3186.000000	95.911924
3185.000000	95.919270
3184.000000	95.925299
3183.000000	95.933855
3182.000000	95.945902
3181.000000	95.959639
3180.000000	95.972949
3179.000000	95.984864
3178.000000	95.995256
3177.000000	96.004757
3176.000000	96.015558
3175.000000	96.030655
3174.000000	96.050973
3173.000000	96.073753
3172.000000	96.094449
3171.000000	96.109839
3170.000000	96.119102
3169.000000	96.123472
3168.000000	96.126204
3167.000000	96.131732
3166.000000	96.142921
3165.000000	96.158794
3164.000000	96.175986
3163.000000	96.192221
3162.000000	96.207543
3161.000000	96.222569
3160.000000	96.236976
3159.000000	96.249947
3158.000000	96.260939
3157.000000	96.269604
3156.000000	96.275983
3155.000000	96.281545
3154.000000	96.289296
3153.000000	96.301690
3152.000000	96.317987
3151.000000	96.334109
3150.000000	96.345725
3149.000000	96.352081
3148.000000	96.356705
3147.000000	96.364057
3146.000000	96.375370
3145.000000	96.388259
3144.000000	96.400083
3143.000000	96.410582
3142.000000	96.420743
3141.000000	96.430561
3140.000000	96.439342
3139.000000	96.447443
3138.000000	96.455950
3137.000000	96.464694
3136.000000	96.471988
3135.000000	96.476806
3134.000000	96.480299
3133.000000	96.484795
3132.000000	96.491864
3131.000000	96.501356
3130.000000	96.511416
3129.000000	96.519316
3128.000000	96.523431
3127.000000	96.525178
3126.000000	96.528157
3125.000000	96.534520
3124.000000	96.542649
3123.000000	96.548944
3122.000000	96.551344
3121.000000	96.550608
3120.000000	96.549000
3119.000000	96.548882
3118.000000	96.551902
3117.000000	96.557986
3116.000000	96.564720
3115.000000	96.568867
3114.000000	96.569065
3113.000000	96.566659
3112.000000	96.563867
3111.000000	96.562128
3110.000000	96.562248
3109.000000	96.564764
3108.000000	96.568831
3107.000000	96.571484
3106.000000	96.569468
3105.000000	96.562398
3104.000000	96.553632
3103.000000	96.547606
3102.000000	96.546165
3101.000000	96.547312
3100.000000	96.547395
3099.000000	96.544706
3098.000000	96.541010
3097.000000	96.539503
3096.000000	96.541356
3095.000000	96.544480
3094.000000	96.545678
3093.000000	96.543444
3092.000000	96.538452
3091.000000	96.532209
3090.000000	96.526076
3089.000000	96.521045
3088.000000	96.517195
3087.000000	96.513264
3086.000000	96.507655
3085.000000	96.500248
3084.000000	96.492744
3083.000000	96.486966
3082.000000	96.483331
3081.000000	96.481066
3080.000000	96.479234
3079.000000	96.477129
3078.000000	96.474185
3077.000000	96.470109
3076.000000	96.465102
3075.000000	96.459947
3074.000000	96.455956
3073.000000	96.454521
3072.000000	96.455993
3071.000000	96.458974
3070.000000	96.461340
3069.000000	96.462137
3068.000000	96.461916
3067.000000	96.461272
3066.000000	96.459988
3065.000000	96.457974
3064.000000	96.456205
3063.000000	96.456204
3062.000000	96.459278
3061.000000	96.466376
3060.000000	96.477507
3059.000000	96.490531
3058.000000	96.501678
3057.000000	96.508612
3056.000000	96.512616
3055.000000	96.517019
3054.000000	96.523843
3053.000000	96.532637
3052.000000	96.541669
3051.000000	96.549244
3050.000000	96.554630
3049.000000	96.559085
3048.000000	96.565499
3047.000000	96.575786
3046.000000	96.588830
3045.000000	96.601913
3044.000000	96.613612
3043.000000	96.624055
3042.000000	96.632975
3041.000000	96.639393
3040.000000	96.643538
3039.000000	96.647520
3038.000000	96.653405
3037.000000	96.661355
3036.000000	96.670106
3035.000000	96.678451
3034.000000	96.685891
3033.000000	96.692490
3032.000000	96.698493
3031.000000	96.703780
3030.000000	96.707826
3029.000000	96.710762
3028.000000	96.714012
3027.000000	96.718844
3026.000000	96.724425
3025.000000	96.728456
3024.000000	96.729845
3023.000000	96.729770
3022.000000	96.730094
3021.000000	96.731929
3020.000000	96.735827
3019.000000	96.741672
3018.000000	96.747648
3017.000000	96.750573
3016.000000	96.748502
3015.000000	96.742453
3014.000000	96.734754
3013.000000	96.726249
3012.000000	96.715788
3011.000000	96.701931
3010.000000	96.684481
3009.000000	96.664751
3008.000000	96.645151
3007.000000	96.628137
3006.000000	96.614715
3005.000000	96.603512
3004.000000	96.591365
3003.000000	96.575127
3002.000000	96.553428
3001.000000	96.527397
3000.000000	96.499676
2999.000000	96.472193
2998.000000	96.444656
2997.000000	96.415408
2996.000000	96.383240
2995.000000	96.347681
2994.000000	96.307927
2993.000000	96.263171
2992.000000	96.214359
2991.000000	96.163966
2990.000000	96.113000
2989.000000	96.058891
2988.000000	95.997764
2987.000000	95.928566
2986.000000	95.854101
2985.000000	95.778141
2984.000000	95.702046
2983.000000	95.623926
2982.000000	95.540189
2981.000000	95.447629
2980.000000	95.345450
2979.000000	95.236249
2978.000000	95.124907
2977.000000	95.015115
2976.000000	94.905660
2975.000000	94.790508
2974.000000	94.663430
2973.000000	94.523118
2972.000000	94.373450
2971.000000	94.218884
2970.000000	94.061049
2969.000000	93.900095
2968.000000	93.737935
2967.000000	93.578430
2966.000000	93.424834
2965.000000	93.278826
2964.000000	93.142111
2963.000000	93.018122
2962.000000	92.911156
2961.000000	92.824596
2960.000000	92.760100
2959.000000	92.718112
2958.000000	92.699129
2957.000000	92.703831
2956.000000	92.732217
2955.000000	92.781852
2954.000000	92.847456
2953.000000	92.922204
2952.000000	92.998772
2951.000000	93.069556
2950.000000	93.126456
2949.000000	93.162636
2948.000000	93.174324
2947.000000	93.160983
2946.000000	93.123774
2945.000000	93.064279
2944.000000	92.984313
2943.000000	92.885123
2942.000000	92.766944
2941.000000	92.629726
2940.000000	92.475150
2939.000000	92.307327
2938.000000	92.131354
2937.000000	91.952017
2936.000000	91.773424
2935.000000	91.599569
2934.000000	91.434388
2933.000000	91.281648
2932.000000	91.144530
2931.000000	91.024578
2930.000000	90.920997
2929.000000	90.831416
2928.000000	90.754700
2927.000000	90.693315
2926.000000	90.652658
2925.000000	90.637486
2924.000000	90.648229
2923.000000	90.681200
2922.000000	90.732010
2921.000000	90.798598
2920.000000	90.881025
2919.000000	90.979371
2918.000000	91.093603
2917.000000	91.224950
2916.000000	91.375607
2915.000000	91.545372
2914.000000	91.728562
2913.000000	91.915327
2912.000000	92.096450
2911.000000	92.267490
2910.000000	92.428880
2909.000000	92.582828
2908.000000	92.730394
2907.000000	92.870975
2906.000000	93.004350
2905.000000	93.132841
2904.000000	93.261116
2903.000000	93.393174
2902.000000	93.529426
2901.000000	93.666926
2900.000000	93.801980
2899.000000	93.932918
2898.000000	94.060165
2897.000000	94.184387
2896.000000	94.304828
2895.000000	94.419350
2894.000000	94.526091
2893.000000	94.625151
2892.000000	94.718237
2891.000000	94.806376
2890.000000	94.887757
2889.000000	94.958090
2888.000000	95.013233
2887.000000	95.051744
2886.000000	95.075504
2885.000000	95.087978
2884.000000	95.091289
2883.000000	95.084471
2882.000000	95.064300
2881.000000	95.027747
2880.000000	94.973463
2879.000000	94.901909
2878.000000	94.815834
2877.000000	94.721481
2876.000000	94.627699
2875.000000	94.542357
2874.000000	94.470074
2873.000000	94.413539
2872.000000	94.375659
2871.000000	94.358019
2870.000000	94.357033
2869.000000	94.362839
2868.000000	94.362993
2867.000000	94.347712
2866.000000	94.312898
2865.000000	94.259891
2864.000000	94.192527
2863.000000	94.114047
2862.000000	94.026421
2861.000000	93.932638
2860.000000	93.838321
2859.000000	93.749979
2858.000000	93.671964
2857.000000	93.606501
2856.000000	93.556567
2855.000000	93.527141
2854.000000	93.523941
2853.000000	93.551652
2852.000000	93.613756
2851.000000	93.713396
2850.000000	93.853230
2849.000000	94.033734
2848.000000	94.250271
2847.000000	94.491021
2846.000000	94.738589
2845.000000	94.976192
2844.000000	95.193262
2843.000000	95.386541
2842.000000	95.557092
2841.000000	95.707232
2840.000000	95.839742
2839.000000	95.957148
2838.000000	96.060767
2837.000000	96.151083
2836.000000	96.229173
2835.000000	96.296724
2834.000000	96.354739
2833.000000	96.403492
2832.000000	96.444293
2831.000000	96.480160
2830.000000	96.514072
2829.000000	96.547456
2828.000000	96.580431
2827.000000	96.612316
2826.000000	96.641494
2825.000000	96.665985
2824.000000	96.685298
2823.000000	96.701147
2822.000000	96.715919
2821.000000	96.730978
2820.000000	96.746653
2819.000000	96.762983
2818.000000	96.779933
2817.000000	96.797478
2816.000000	96.815961
2815.000000	96.835839
2814.000000	96.856911
2813.000000	96.878362
2812.000000	96.899671
2811.000000	96.920721
2810.000000	96.941028
2809.000000	96.959820
2808.000000	96.977121
2807.000000	96.993763
2806.000000	97.009916
2805.000000	97.024566
2804.000000	97.036964
2803.000000	97.047786
2802.000000	97.058357
2801.000000	97.069523
2800.000000	97.081604
2799.000000	97.094544
2798.000000	97.107520
2797.000000	97.119239
2796.000000	97.129348
2795.000000	97.138946
2794.000000	97.149135
2793.000000	97.159599
2792.000000	97.169109
2791.000000	97.176953
2790.000000	97.183525
2789.000000	97.190074
2788.000000	97.198250
2787.000000	97.209217
2786.000000	97.222582
2785.000000	97.236432
2784.000000	97.248643
2783.000000	97.257992
2782.000000	97.264337
2781.000000	97.268775
2780.000000	97.273588
2779.000000	97.280746
2778.000000	97.289707
2777.000000	97.297543
2776.000000	97.301869
2775.000000	97.303143
2774.000000	97.303739
2773.000000	97.305664
2772.000000	97.309712
2771.000000	97.315849
2770.000000	97.323343
2769.000000	97.330826
2768.000000	97.337157
2767.000000	97.342309
2766.000000	97.347162
2765.000000	97.352479
2764.000000	97.358189
2763.000000	97.363433
2762.000000	97.367353
2761.000000	97.370238
2760.000000	97.373740
2759.000000	97.379370
2758.000000	97.386788
2757.000000	97.394138
2756.000000	97.399955
2755.000000	97.404141
2754.000000	97.407287
2753.000000	97.410035
2752.000000	97.413029
2751.000000	97.416400
2750.000000	97.419111
2749.000000	97.419840
2748.000000	97.418842
2747.000000	97.417963
2746.000000	97.418603
2745.000000	97.420696
2744.000000	97.424007
2743.000000	97.429058
2742.000000	97.435935
2741.000000	97.443033
2740.000000	97.448019
2739.000000	97.449728
2738.000000	97.448748
2737.000000	97.446779
2736.000000	97.445898
2735.000000	97.447777
2734.000000	97.452793
2733.000000	97.459881
2732.000000	97.467443
2731.000000	97.474134
2730.000000	97.479079
2729.000000	97.482296
2728.000000	97.485147
2727.000000	97.489412
2726.000000	97.495493
2725.000000	97.502260
2724.000000	97.508932
2723.000000	97.515964
2722.000000	97.523419
2721.000000	97.529688
2720.000000	97.533184
2719.000000	97.534764
2718.000000	97.537127
2717.000000	97.541661
2716.000000	97.546804
2715.000000	97.549792
2714.000000	97.549532
2713.000000	97.547504
2712.000000	97.546206
2711.000000	97.547052
2710.000000	97.549697
2709.000000	97.552939
2708.000000	97.555894
2707.000000	97.558483
2706.000000	97.561410
2705.000000	97.565750
2704.000000	97.571763
2703.000000	97.577802
2702.000000	97.581344
2701.000000	97.581910
2700.000000	97.582125
2699.000000	97.584672
2698.000000	97.588843
2697.000000	97.591511
2696.000000	97.591207
2695.000000	97.589648
2694.000000	97.589081
2693.000000	97.589725
2692.000000	97.590409
2691.000000	97.590493
2690.000000	97.590258
2689.000000	97.590117
2688.000000	97.590248
2687.000000	97.590870
2686.000000	97.592532
2685.000000	97.596028
2684.000000	97.601596
2683.000000	97.607776
2682.000000	97.611736
2681.000000	97.611875
2680.000000	97.609873
2679.000000	97.609098
2678.000000	97.610984
2677.000000	97.613996
2676.000000	97.615928
2675.000000	97.615954
2674.000000	97.614408
2673.000000	97.612073
2672.000000	97.610181
2671.000000	97.609846
2670.000000	97.610839
2669.000000	97.611741
2668.000000	97.611760
2667.000000	97.611604
2666.000000	97.612244
2665.000000	97.613727
2664.000000	97.615559
2663.000000	97.617365
2662.000000	97.618736
2661.000000	97.619343
2660.000000	97.619672
2659.000000	97.620884
2658.000000	97.623432
2657.000000	97.626520
2656.000000	97.629504
2655.000000	97.633256
2654.000000	97.639531
2653.000000	97.649159
2652.000000	97.660811
2651.000000	97.671189
2650.000000	97.676870
2649.000000	97.677228
2648.000000	97.675757
2647.000000	97.677411
2646.000000	97.684041
2645.000000	97.692962
2644.000000	97.700091
2643.000000	97.703694
2642.000000	97.705149
2641.000000	97.707254
2640.000000	97.712211
2639.000000	97.720333
2638.000000	97.730038
2637.000000	97.739239
2636.000000	97.746568
2635.000000	97.751026
2634.000000	97.751694
2633.000000	97.749345
2632.000000	97.747576
2631.000000	97.750161
2630.000000	97.757047
2629.000000	97.764786
2628.000000	97.771030
2627.000000	97.776750
2626.000000	97.783682
2625.000000	97.791475
2624.000000	97.798114
2623.000000	97.801711
2622.000000	97.801466
2621.000000	97.798351
2620.000000	97.795200
2619.000000	97.794690
2618.000000	97.797015
2617.000000	97.800965
2616.000000	97.806895
2615.000000	97.816165
2614.000000	97.827636
2613.000000	97.837529
2612.000000	97.843563
2611.000000	97.846603
2610.000000	97.847289
2609.000000	97.844285
2608.000000	97.837689
2607.000000	97.831659
2606.000000	97.830846
2605.000000	97.835464
2604.000000	97.841822
2603.000000	97.846460
2602.000000	97.848048
2601.000000	97.846423
2600.000000	97.842253
2599.000000	97.837684
2598.000000	97.836099
2597.000000	97.840761
2596.000000	97.853242
2595.000000	97.871712
2594.000000	97.890323
2593.000000	97.901986
2592.000000	97.903507
2591.000000	97.897870
2590.000000	97.891092
2589.000000	97.887329
2588.000000	97.886647
2587.000000	97.886190
2586.000000	97.883319
2585.000000	97.878635
2584.000000	97.875994
2583.000000	97.878341
2582.000000	97.884042
2581.000000	97.888899
2580.000000	97.891179
2579.000000	97.892586
2578.000000	97.894621
2577.000000	97.896857
2576.000000	97.898927
2575.000000	97.901487
2574.000000	97.904435
2573.000000	97.906545
2572.000000	97.907742
2571.000000	97.909710
2570.000000	97.913649
2569.000000	97.919329
2568.000000	97.926624
2567.000000	97.935568
2566.000000	97.944366
2565.000000	97.949818
2564.000000	97.950712
2563.000000	97.948951
2562.000000	97.946811
2561.000000	97.945152
2560.000000	97.944453
2559.000000	97.945104
2558.000000	97.946136
2557.000000	97.946062
2556.000000	97.945481
2555.000000	97.946360
2554.000000	97.948296
2553.000000	97.948274
2552.000000	97.944860
2551.000000	97.940013
2550.000000	97.935994
2549.000000	97.932923
2548.000000	97.930125
2547.000000	97.927423
2546.000000	97.924748
2545.000000	97.923045
2544.000000	97.925556
2543.000000	97.934430
2542.000000	97.945299
2541.000000	97.949093
2540.000000	97.941362
2539.000000	97.926968
2538.000000	97.914393
2537.000000	97.908488
2536.000000	97.910082
2535.000000	97.918348
2534.000000	97.929881
2533.000000	97.937947
2532.000000	97.936333
2531.000000	97.923964
2530.000000	97.904391
2529.000000	97.882321
2528.000000	97.862032
2527.000000	97.847113
2526.000000	97.838838
2525.000000	97.834720
2524.000000	97.829922
2523.000000	97.820724
2522.000000	97.807584
2521.000000	97.796039
2520.000000	97.793643
2519.000000	97.803354
2518.000000	97.819239
2517.000000	97.830437
2516.000000	97.830345
2515.000000	97.821108
2514.000000	97.810351
2513.000000	97.805648
2512.000000	97.810994
2511.000000	97.824924
2510.000000	97.841281
2509.000000	97.854412
2508.000000	97.864083
2507.000000	97.873348
2506.000000	97.882585
2505.000000	97.889328
2504.000000	97.893770
2503.000000	97.900202
2502.000000	97.911935
2501.000000	97.928287
2500.000000	97.947296
2499.000000	97.967541
2498.000000	97.986022
2497.000000	97.998318
2496.000000	98.003051
2495.000000	98.003414
2494.000000	98.002824
2493.000000	98.002264
2492.000000	98.003466
2491.000000	98.010550
2490.000000	98.025319
2489.000000	98.043433
2488.000000	98.058596
2487.000000	98.069066
2486.000000	98.077494
2485.000000	98.085913
2484.000000	98.093497
2483.000000	98.098888
2482.000000	98.102690
2481.000000	98.107225
2480.000000	98.114184
2479.000000	98.122026
2478.000000	98.126043
2477.000000	98.122662
2476.000000	98.113797
2475.000000	98.105656
2474.000000	98.103177
2473.000000	98.106859
2472.000000	98.114259
2471.000000	98.122444
2470.000000	98.129273
2469.000000	98.134452
2468.000000	98.139275
2467.000000	98.143754
2466.000000	98.145208
2465.000000	98.142117
2464.000000	98.138094
2463.000000	98.138528
2462.000000	98.144033
2461.000000	98.150580
2460.000000	98.155435
2459.000000	98.158980
2458.000000	98.161031
2457.000000	98.159986
2456.000000	98.156233
2455.000000	98.152697
2454.000000	98.151435
2453.000000	98.153269
2452.000000	98.160184
2451.000000	98.173059
2450.000000	98.186414
2449.000000	98.191206
2448.000000	98.185199
2447.000000	98.176102
2446.000000	98.171977
2445.000000	98.172588
2444.000000	98.172727
2443.000000	98.169920
2442.000000	98.165924
2441.000000	98.163601
2440.000000	98.165060
2439.000000	98.170276
2438.000000	98.175048
2437.000000	98.172839
2436.000000	98.161384
2435.000000	98.145980
2434.000000	98.134638
2433.000000	98.131647
2432.000000	98.136475
2431.000000	98.146020
2430.000000	98.156093
2429.000000	98.163087
2428.000000	98.166531
2427.000000	98.168987
2426.000000	98.172541
2425.000000	98.176807
2424.000000	98.180406
2423.000000	98.182125
2422.000000	98.180467
2421.000000	98.174836
2420.000000	98.167789
2419.000000	98.163558
2418.000000	98.163555
2417.000000	98.165424
2416.000000	98.166753
2415.000000	98.167323
2414.000000	98.167822
2413.000000	98.169201
2412.000000	98.173326
2411.000000	98.181164
2410.000000	98.190195
2409.000000	98.196577
2408.000000	98.199918
2407.000000	98.202516
2406.000000	98.204062
2405.000000	98.201164
2404.000000	98.192886
2403.000000	98.182943
2402.000000	98.175394
2401.000000	98.171534
2400.000000	98.171585
2399.000000	98.175573
2398.000000	98.181403
2397.000000	98.185615
2396.000000	98.187574
2395.000000	98.190080
2394.000000	98.194638
2393.000000	98.199018
2392.000000	98.200579
2391.000000	98.199454
2390.000000	98.197457
2389.000000	98.196322
2388.000000	98.197898
2387.000000	98.202948
2386.000000	98.209551
2385.000000	98.214867
2384.000000	98.219048
2383.000000	98.225401
2382.000000	98.235509
2381.000000	98.247469
2380.000000	98.257916
2379.000000	98.263002
2378.000000	98.258636
2377.000000	98.244313
2376.000000	98.227387
2375.000000	98.217860
2374.000000	98.217897
2373.000000	98.221011
2372.000000	98.222682
2371.000000	98.225282
2370.000000	98.231055
2369.000000	98.237550
2368.000000	98.241033
2367.000000	98.239841
2366.000000	98.232067
2365.000000	98.216534
2364.000000	98.198447
2363.000000	98.186884
2362.000000	98.186040
2361.000000	98.193196
2360.000000	98.203994
2359.000000	98.216030
2358.000000	98.227356
2357.000000	98.234981
2356.000000	98.235312
2355.000000	98.225858
2354.000000	98.213041
2353.000000	98.205891
2352.000000	98.205897
2351.000000	98.207276
2350.000000	98.206088
2349.000000	98.201414
2348.000000	98.195081
2347.000000	98.192059
2346.000000	98.193665
2345.000000	98.192558
2344.000000	98.185235
2343.000000	98.180160
2342.000000	98.185718
2341.000000	98.198647
2340.000000	98.207469
2339.000000	98.204650
2338.000000	98.192802
2337.000000	98.179857
2336.000000	98.170523
2335.000000	98.166637
2334.000000	98.169566
2333.000000	98.179413
2332.000000	98.189364
2331.000000	98.192307
2330.000000	98.186075
2329.000000	98.174198
2328.000000	98.156587
2327.000000	98.131363
2326.000000	98.100091
2325.000000	98.072271
2324.000000	98.059460
2323.000000	98.066462
2322.000000	98.085068
2321.000000	98.102061
2320.000000	98.111271
2319.000000	98.117920
2318.000000	98.127188
2317.000000	98.138880
2316.000000	98.149378
2315.000000	98.158321
2314.000000	98.165730
2313.000000	98.172173
2312.000000	98.178994
2311.000000	98.189008
2310.000000	98.200589
2309.000000	98.208824
2308.000000	98.212026
2307.000000	98.215258
2306.000000	98.222063
2305.000000	98.229216
2304.000000	98.231232
2303.000000	98.227849
2302.000000	98.222084
2301.000000	98.216400
2300.000000	98.212416
2299.000000	98.212640
2298.000000	98.216042
2297.000000	98.217435
2296.000000	98.212083
2295.000000	98.201828
2294.000000	98.192023
2293.000000	98.186890
2292.000000	98.188101
2291.000000	98.195562
2290.000000	98.205572
2289.000000	98.211403
2288.000000	98.208509
2287.000000	98.197732
2286.000000	98.182892
2285.000000	98.168849
2284.000000	98.163365
2283.000000	98.174023
2282.000000	98.199853
2281.000000	98.229305
2280.000000	98.250458
2279.000000	98.259479
2278.000000	98.258023
2277.000000	98.248961
2276.000000	98.237992
2275.000000	98.232682
2274.000000	98.234999
2273.000000	98.239752
2272.000000	98.243748
2271.000000	98.250783
2270.000000	98.263803
2269.000000	98.278982
2268.000000	98.292087
2267.000000	98.303939
2266.000000	98.313772
2265.000000	98.314459
2264.000000	98.301875
2263.000000	98.284211
2262.000000	98.274516
2261.000000	98.276645
2260.000000	98.283413
2259.000000	98.285984
2258.000000	98.281974
2257.000000	98.277600
2256.000000	98.284259
2255.000000	98.307992
2254.000000	98.339926
2253.000000	98.362508
2252.000000	98.367242
2251.000000	98.360592
2250.000000	98.351934
2249.000000	98.344447
2248.000000	98.338981
2247.000000	98.337138
2246.000000	98.336804
2245.000000	98.334195
2244.000000	98.333609
2243.000000	98.345231
2242.000000	98.368540
2241.000000	98.387897
2240.000000	98.390361
2239.000000	98.379626
2238.000000	98.367600
2237.000000	98.362235
2236.000000	98.368304
2235.000000	98.388926
2234.000000	98.418463
2233.000000	98.442434
2232.000000	98.451540
2231.000000	98.448474
2230.000000	98.436757
2229.000000	98.414057
2228.000000	98.383236
2227.000000	98.359297
2226.000000	98.357316
2225.000000	98.379854
2224.000000	98.419126
2223.000000	98.461351
2222.000000	98.486638
2221.000000	98.479771
2220.000000	98.449996
2219.000000	98.427082
2218.000000	98.429484
2217.000000	98.447531
2216.000000	98.463643
2215.000000	98.474868
2214.000000	98.486283
2213.000000	98.497223
2212.000000	98.506966
2211.000000	98.522521
2210.000000	98.547350
2209.000000	98.570630
2208.000000	98.579377
2207.000000	98.574069
2206.000000	98.562944
2205.000000	98.548687
2204.000000	98.529832
2203.000000	98.508189
2202.000000	98.487589
2201.000000	98.471203
2200.000000	98.464036
2199.000000	98.469762
2198.000000	98.482330
2197.000000	98.491418
2196.000000	98.499482
2195.000000	98.520279
2194.000000	98.556177
2193.000000	98.590527
2192.000000	98.607972
2191.000000	98.609237
2190.000000	98.601210
2189.000000	98.589813
2188.000000	98.587442
2187.000000	98.607902
2186.000000	98.644835
2185.000000	98.673471
2184.000000	98.684310
2183.000000	98.696364
2182.000000	98.722749
2181.000000	98.742426
2180.000000	98.724352
2179.000000	98.666731
2178.000000	98.598392
2177.000000	98.553800
2176.000000	98.553864
2175.000000	98.594194
2174.000000	98.641492
2173.000000	98.654398
2172.000000	98.619703
2171.000000	98.561731
2170.000000	98.515706
2169.000000	98.502258
2168.000000	98.521459
2167.000000	98.553902
2166.000000	98.570000
2165.000000	98.559386
2164.000000	98.552091
2163.000000	98.585203
2162.000000	98.650843
2161.000000	98.709776
2160.000000	98.755316
2159.000000	98.818699
2158.000000	98.894263
2157.000000	98.923010
2156.000000	98.878599
2155.000000	98.804293
2154.000000	98.750805
2153.000000	98.728280
2152.000000	98.723725
2151.000000	98.725974
2150.000000	98.724379
2149.000000	98.711523
2148.000000	98.698492
2147.000000	98.702333
2146.000000	98.711993
2145.000000	98.694019
2144.000000	98.640850
2143.000000	98.583895
2142.000000	98.549617
2141.000000	98.531915
2140.000000	98.518255
2139.000000	98.515373
2138.000000	98.531468
2137.000000	98.555401
2136.000000	98.572562
2135.000000	98.585647
2134.000000	98.601591
2133.000000	98.611626
2132.000000	98.601309
2131.000000	98.570888
2130.000000	98.533668
2129.000000	98.502276
2128.000000	98.483533
2127.000000	98.478007
2126.000000	98.477521
2125.000000	98.469805
2124.000000	98.451458
2123.000000	98.430780
2122.000000	98.415530
2121.000000	98.405742
2120.000000	98.400694
2119.000000	98.402525
2118.000000	98.408200
2117.000000	98.407417
2116.000000	98.394461
2115.000000	98.374947
2114.000000	98.356607
2113.000000	98.341593
2112.000000	98.331156
2111.000000	98.328340
2110.000000	98.330652
2109.000000	98.328927
2108.000000	98.319379
2107.000000	98.309500
2106.000000	98.307176
2105.000000	98.311917
2104.000000	98.320784
2103.000000	98.333688
2102.000000	98.347604
2101.000000	98.354107
2100.000000	98.349241
2099.000000	98.340123
2098.000000	98.338829
2097.000000	98.354346
2096.000000	98.389175
2095.000000	98.433757
2094.000000	98.465768
2093.000000	98.467982
2092.000000	98.448531
2091.000000	98.430946
2090.000000	98.424601
2089.000000	98.418061
2088.000000	98.402017
2087.000000	98.383912
2086.000000	98.374947
2085.000000	98.376569
2084.000000	98.384366
2083.000000	98.393521
2082.000000	98.396583
2081.000000	98.388104
2080.000000	98.375185
2079.000000	98.370916
2078.000000	98.375450
2077.000000	98.377948
2076.000000	98.378497
2075.000000	98.389406
2074.000000	98.411710
2073.000000	98.431206
2072.000000	98.443240
2071.000000	98.459210
2070.000000	98.479448
2069.000000	98.483231
2068.000000	98.460382
2067.000000	98.432592
2066.000000	98.427770
2065.000000	98.448223
2064.000000	98.476315
2063.000000	98.497844
2062.000000	98.506517
2061.000000	98.500048
2060.000000	98.484854
2059.000000	98.472504
2058.000000	98.464945
2057.000000	98.458273
2056.000000	98.462571
2055.000000	98.493997
2054.000000	98.540146
2053.000000	98.561646
2052.000000	98.541997
2051.000000	98.509735
2050.000000	98.497536
2049.000000	98.504060
2048.000000	98.514935
2047.000000	98.536664
2046.000000	98.578347
2045.000000	98.620936
2044.000000	98.637694
2043.000000	98.628494
2042.000000	98.608315
2041.000000	98.581510
2040.000000	98.551213
2039.000000	98.534830
2038.000000	98.547377
2037.000000	98.586026
2036.000000	98.644664
2035.000000	98.720583
2034.000000	98.791269
2033.000000	98.818071
2032.000000	98.797427
2031.000000	98.771284
2030.000000	98.762553
2029.000000	98.744523
2028.000000	98.699996
2027.000000	98.668103
2026.000000	98.694914
2025.000000	98.769446
2024.000000	98.840093
2023.000000	98.872324
2022.000000	98.862771
2021.000000	98.824130
2020.000000	98.784440
2019.000000	98.775859
2018.000000	98.800105
2017.000000	98.824057
2016.000000	98.826293
2015.000000	98.820042
2014.000000	98.814336
2013.000000	98.792596
2012.000000	98.750138
2011.000000	98.718144
2010.000000	98.725747
2009.000000	98.765194
2008.000000	98.811206
2007.000000	98.848502
2006.000000	98.862735
2005.000000	98.838493
2004.000000	98.787083
2003.000000	98.745119
2002.000000	98.729997
2001.000000	98.723138
2000.000000	98.707007
1999.000000	98.688612
1998.000000	98.677940
1997.000000	98.671790
1996.000000	98.672370
1995.000000	98.692644
1994.000000	98.728693
1993.000000	98.752866
1992.000000	98.752448
1991.000000	98.749955
1990.000000	98.762233
1989.000000	98.771372
1988.000000	98.757058
1987.000000	98.726208
1986.000000	98.691804
1985.000000	98.652193
1984.000000	98.609427
1983.000000	98.578696
1982.000000	98.562132
1981.000000	98.544547
1980.000000	98.536207
1979.000000	98.581177
1978.000000	98.691934
1977.000000	98.805274
1976.000000	98.850641
1975.000000	98.831294
1974.000000	98.793044
1973.000000	98.760491
1972.000000	98.742501
1971.000000	98.755308
1970.000000	98.799761
1969.000000	98.842628
1968.000000	98.852268
1967.000000	98.835949
1966.000000	98.818051
1965.000000	98.804670
1964.000000	98.793113
1963.000000	98.790555
1962.000000	98.800812
1961.000000	98.813691
1960.000000	98.822508
1959.000000	98.831169
1958.000000	98.833683
1957.000000	98.813400
1956.000000	98.772738
1955.000000	98.736610
1954.000000	98.718206
1953.000000	98.708242
1952.000000	98.703569
1951.000000	98.718982
1950.000000	98.756148
1949.000000	98.789797
1948.000000	98.800241
1947.000000	98.794438
1946.000000	98.782353
1945.000000	98.759098
1944.000000	98.725399
1943.000000	98.701228
1942.000000	98.699438
1941.000000	98.707524
1940.000000	98.712985
1939.000000	98.721453
1938.000000	98.736822
1937.000000	98.746482
1936.000000	98.739463
1935.000000	98.722076
1934.000000	98.702619
1933.000000	98.678707
1932.000000	98.650614
1931.000000	98.630988
1930.000000	98.625154
1929.000000	98.622169
1928.000000	98.617759
1927.000000	98.624820
1926.000000	98.652177
1925.000000	98.683708
1924.000000	98.700598
1923.000000	98.705934
1922.000000	98.711991
1921.000000	98.716163
1920.000000	98.708713
1919.000000	98.693875
1918.000000	98.685398
1917.000000	98.685274
1916.000000	98.685125
1915.000000	98.679799
1914.000000	98.670908
1913.000000	98.663565
1912.000000	98.664191
1911.000000	98.676485
1910.000000	98.692918
1909.000000	98.698962
1908.000000	98.690971
1907.000000	98.678213
1906.000000	98.668728
1905.000000	98.659908
1904.000000	98.652749
1903.000000	98.655409
1902.000000	98.666891
1901.000000	98.674951
1900.000000	98.676439
1899.000000	98.682839
1898.000000	98.701168
1897.000000	98.720538
1896.000000	98.729670
1895.000000	98.732931
1894.000000	98.737962
1893.000000	98.741730
1892.000000	98.739828
1891.000000	98.736930
1890.000000	98.736421
1889.000000	98.731869
1888.000000	98.722695
1887.000000	98.721215
1886.000000	98.733712
1885.000000	98.750585
1884.000000	98.760020
1883.000000	98.761929
1882.000000	98.760089
1881.000000	98.753278
1880.000000	98.742682
1879.000000	98.735541
1878.000000	98.735472
1877.000000	98.735766
1876.000000	98.730802
1875.000000	98.727580
1874.000000	98.733967
1873.000000	98.745460
1872.000000	98.755252
1871.000000	98.768611
1870.000000	98.794479
1869.000000	98.824596
1868.000000	98.839027
1867.000000	98.832771
1866.000000	98.812503
1865.000000	98.783196
1864.000000	98.753738
1863.000000	98.737288
1862.000000	98.736935
1861.000000	98.742377
1860.000000	98.746889
1859.000000	98.755507
1858.000000	98.770395
1857.000000	98.780842
1856.000000	98.777775
1855.000000	98.767605
1854.000000	98.760731
1853.000000	98.756732
1852.000000	98.752722
1851.000000	98.748905
1850.000000	98.750427
1849.000000	98.759765
1848.000000	98.773415
1847.000000	98.784995
1846.000000	98.790047
1845.000000	98.789437
1844.000000	98.787142
1843.000000	98.789549
1842.000000	98.795904
1841.000000	98.794706
1840.000000	98.784558
1839.000000	98.778650
1838.000000	98.782906
1837.000000	98.783882
1836.000000	98.774410
1835.000000	98.766779
1834.000000	98.770827
1833.000000	98.780322
1832.000000	98.791003
1831.000000	98.810864
1830.000000	98.842246
1829.000000	98.862299
1828.000000	98.852657
1827.000000	98.821728
1826.000000	98.790380
1825.000000	98.771947
1824.000000	98.764040
1823.000000	98.760893
1822.000000	98.759277
1821.000000	98.757863
1820.000000	98.757569
1819.000000	98.759796
1818.000000	98.763324
1817.000000	98.763167
1816.000000	98.761704
1815.000000	98.767990
1814.000000	98.782264
1813.000000	98.794569
1812.000000	98.795336
1811.000000	98.787573
1810.000000	98.776858
1809.000000	98.759051
1808.000000	98.730601
1807.000000	98.698009
1806.000000	98.668249
1805.000000	98.637991
1804.000000	98.601662
1803.000000	98.562829
1802.000000	98.526654
1801.000000	98.492761
1800.000000	98.454961
1799.000000	98.416351
1798.000000	98.386417
1797.000000	98.370154
1796.000000	98.365329
1795.000000	98.368879
1794.000000	98.383232
1793.000000	98.417357
1792.000000	98.470197
1791.000000	98.531267
1790.000000	98.590116
1789.000000	98.634140
1788.000000	98.654639
1787.000000	98.658766
1786.000000	98.663195
1785.000000	98.677671
1784.000000	98.701945
1783.000000	98.731611
1782.000000	98.756460
1781.000000	98.770564
1780.000000	98.770400
1779.000000	98.765149
1778.000000	98.768006
1777.000000	98.781790
1776.000000	98.799201
1775.000000	98.809268
1774.000000	98.811806
1773.000000	98.814973
1772.000000	98.810816
1771.000000	98.781765
1770.000000	98.720347
1769.000000	98.625793
1768.000000	98.519502
1767.000000	98.440128
1766.000000	98.395360
1765.000000	98.348567
1764.000000	98.262122
1763.000000	98.132837
1762.000000	97.972635
1761.000000	97.787310
1760.000000	97.573875
1759.000000	97.322075
1758.000000	97.004504
1757.000000	96.602345
1756.000000	96.148214
1755.000000	95.699777
1754.000000	95.256062
1753.000000	94.762052
1752.000000	94.187970
1751.000000	93.576558
1750.000000	92.995507
1749.000000	92.445873
1748.000000	91.910860
1747.000000	91.419196
1746.000000	90.996297
1745.000000	90.633486
1744.000000	90.326278
1743.000000	90.095583
1742.000000	89.946040
1741.000000	89.856293
1740.000000	89.830582
1739.000000	89.894624
1738.000000	90.014777
1737.000000	90.128219
1736.000000	90.252790
1735.000000	90.526849
1734.000000	91.034300
1733.000000	91.591367
1732.000000	92.045871
1731.000000	92.444619
1730.000000	92.851489
1729.000000	93.272362
1728.000000	93.686371
1727.000000	94.084163
1726.000000	94.468914
1725.000000	94.845323
1724.000000	95.212054
1723.000000	95.562660
1722.000000	95.872087
1721.000000	96.114986
1720.000000	96.308601
1719.000000	96.518954
1718.000000	96.784930
1717.000000	97.035365
1716.000000	97.200082
1715.000000	97.301248
1714.000000	97.365773
1713.000000	97.397042
1712.000000	97.408001
1711.000000	97.420627
1710.000000	97.440988
1709.000000	97.459795
1708.000000	97.471878
1707.000000	97.477660
1706.000000	97.473855
1705.000000	97.447948
1704.000000	97.397427
1703.000000	97.315077
1702.000000	97.191304
1701.000000	97.057782
1700.000000	96.974313
1699.000000	96.959051
1698.000000	96.931960
1697.000000	96.799023
1696.000000	96.576013
1695.000000	96.380388
1694.000000	96.274874
1693.000000	96.202657
1692.000000	96.108650
1691.000000	96.001662
1690.000000	95.902160
1689.000000	95.807023
1688.000000	95.710011
1687.000000	95.608875
1686.000000	95.507852
1685.000000	95.402964
1684.000000	95.270918
1683.000000	95.133119
1682.000000	95.012894
1681.000000	94.875255
1680.000000	94.716414
1679.000000	94.569948
1678.000000	94.439411
1677.000000	94.294986
1676.000000	94.130784
1675.000000	93.986796
1674.000000	93.891670
1673.000000	93.817902
1672.000000	93.720261
1671.000000	93.591269
1670.000000	93.434248
1669.000000	93.243810
1668.000000	93.046243
1667.000000	92.880806
1666.000000	92.743044
1665.000000	92.602259
1664.000000	92.443347
1663.000000	92.278349
1662.000000	92.116112
1661.000000	91.954659
1660.000000	91.791137
1659.000000	91.635683
1658.000000	91.504440
1657.000000	91.392189
1656.000000	91.271336
1655.000000	91.134111
1654.000000	91.011458
1653.000000	90.881647
1652.000000	90.770592
1651.000000	90.759015
1650.000000	90.779194
1649.000000	90.762934
1648.000000	90.722318
1647.000000	90.692973
1646.000000	90.676542
1645.000000	90.661095
1644.000000	90.654349
1643.000000	90.660715
1642.000000	90.676277
1641.000000	90.705770
1640.000000	90.754275
1639.000000	90.814978
1638.000000	90.878131
1637.000000	90.944790
1636.000000	91.020362
1635.000000	91.084974
1634.000000	91.133972
1633.000000	91.172675
1632.000000	91.202749
1631.000000	91.241695
1630.000000	91.312865
1629.000000	91.421078
1628.000000	91.548756
1627.000000	91.673829
1626.000000	91.786320
1625.000000	91.898242
1624.000000	92.033106
1623.000000	92.195715
1622.000000	92.352854
1621.000000	92.476755
1620.000000	92.567940
1619.000000	92.646446
1618.000000	92.751999
1617.000000	92.914612
1616.000000	93.104819
1615.000000	93.267270
1614.000000	93.382821
1613.000000	93.464303
1612.000000	93.545219
1611.000000	93.652413
1610.000000	93.777929
1609.000000	93.897318
1608.000000	94.001442
1607.000000	94.095578
1606.000000	94.179293
1605.000000	94.253970
1604.000000	94.325242
1603.000000	94.393198
1602.000000	94.449326
1601.000000	94.488210
1600.000000	94.517284
1599.000000	94.546771
1598.000000	94.578446
1597.000000	94.610510
1596.000000	94.644306
1595.000000	94.678436
1594.000000	94.703412
1593.000000	94.713224
1592.000000	94.714257
1591.000000	94.714697
1590.000000	94.712406
1589.000000	94.701886
1588.000000	94.684624
1587.000000	94.664233
1586.000000	94.638233
1585.000000	94.604554
1584.000000	94.570695
1583.000000	94.536668
1582.000000	94.497994
1581.000000	94.458513
1580.000000	94.426094
1579.000000	94.394875
1578.000000	94.356482
1577.000000	94.313914
1576.000000	94.273170
1575.000000	94.239895
1574.000000	94.211344
1573.000000	94.169804
1572.000000	94.111646
1571.000000	94.057170
1570.000000	94.011364
1569.000000	93.950544
1568.000000	93.876438
1567.000000	93.800961
1566.000000	93.719048
1565.000000	93.626402
1564.000000	93.536520
1563.000000	93.450793
1562.000000	93.353868
1561.000000	93.253776
1560.000000	93.199367
1559.000000	93.137110
1558.000000	92.968476
1557.000000	92.781968
1556.000000	92.610105
1555.000000	92.426968
1554.000000	92.244203
1553.000000	92.088609
1552.000000	91.955923
1551.000000	91.823915
1550.000000	91.686442
1549.000000	91.549226
1548.000000	91.423537
1547.000000	91.309526
1546.000000	91.207111
1545.000000	91.123086
1544.000000	91.061748
1543.000000	91.019242
1542.000000	90.988155
1541.000000	90.947191
1540.000000	90.869068
1539.000000	90.769599
1538.000000	90.705430
1537.000000	90.675597
1536.000000	90.647921
1535.000000	90.628779
1534.000000	90.641322
1533.000000	90.665598
1532.000000	90.665477
1531.000000	90.648921
1530.000000	90.633584
1529.000000	90.622707
1528.000000	90.620026
1527.000000	90.635642
1526.000000	90.668760
1525.000000	90.701193
1524.000000	90.713581
1523.000000	90.706106
1522.000000	90.691798
1521.000000	90.670473
1520.000000	90.651001
1519.000000	90.644458
1518.000000	90.631463
1517.000000	90.593121
1516.000000	90.538704
1515.000000	90.493749
1514.000000	90.461333
1513.000000	90.438758
1512.000000	90.443684
1511.000000	90.493840
1510.000000	90.568338
1509.000000	90.636007
1508.000000	90.697991
1507.000000	90.755012
1506.000000	90.748322
1505.000000	90.698387
1504.000000	90.668372
1503.000000	90.651313
1502.000000	90.630587
1501.000000	90.606776
1500.000000	90.587751
1499.000000	90.575335
1498.000000	90.554919
1497.000000	90.504189
1496.000000	90.434486
1495.000000	90.389077
1494.000000	90.368574
1493.000000	90.338333
1492.000000	90.291031
1491.000000	90.255582
1490.000000	90.233064
1489.000000	90.176789
1488.000000	90.069474
1487.000000	89.941263
1486.000000	89.809059
1485.000000	89.667569
1484.000000	89.520462
1483.000000	89.371918
1482.000000	89.216500
1481.000000	89.042724
1480.000000	88.857623
1479.000000	88.674822
1478.000000	88.490515
1477.000000	88.291718
1476.000000	88.081463
1475.000000	87.871250
1474.000000	87.636271
1473.000000	87.329305
1472.000000	86.964759
1471.000000	86.627410
1470.000000	86.341385
1469.000000	86.073555
1468.000000	85.815075
1467.000000	85.585567
1466.000000	85.388397
1465.000000	85.208060
1464.000000	85.045107
1463.000000	84.915066
1462.000000	84.810216
1461.000000	84.704072
1460.000000	84.584374
1459.000000	84.446881
1458.000000	84.267715
1457.000000	84.019005
1456.000000	83.783301
1455.000000	83.646713
1454.000000	83.552879
1453.000000	83.439537
1452.000000	83.316788
1451.000000	83.218258
1450.000000	83.139442
1449.000000	83.052874
1448.000000	82.957236
1447.000000	82.873006
1446.000000	82.794708
1445.000000	82.707244
1444.000000	82.607969
1443.000000	82.504565
1442.000000	82.397214
1441.000000	82.278584
1440.000000	82.146007
1439.000000	81.996799
1438.000000	81.824367
1437.000000	81.630569
1436.000000	81.459270
1435.000000	81.356037
1434.000000	81.291697
1433.000000	81.217442
1432.000000	81.131242
1431.000000	81.048254
1430.000000	80.949970
1429.000000	80.804781
1428.000000	80.628193
1427.000000	80.462012
1426.000000	80.316799
1425.000000	80.193035
1424.000000	80.105835
1423.000000	80.057603
1422.000000	80.011537
1421.000000	79.938820
1420.000000	79.866353
1419.000000	79.836932
1418.000000	79.834845
1417.000000	79.824181
1416.000000	79.815092
1415.000000	79.833612
1414.000000	79.883106
1413.000000	79.954481
1412.000000	80.053304
1411.000000	80.189870
1410.000000	80.350858
1409.000000	80.512848
1408.000000	80.675978
1407.000000	80.854973
1406.000000	81.047324
1405.000000	81.239721
1404.000000	81.423933
1403.000000	81.590785
1402.000000	81.726257
1401.000000	81.832715
1400.000000	81.938424
1399.000000	82.060956
1398.000000	82.178206
1397.000000	82.268813
1396.000000	82.351432
1395.000000	82.454323
1394.000000	82.570330
1393.000000	82.680728
1392.000000	82.788375
1391.000000	82.900849
1390.000000	83.016792
1389.000000	83.141793
1388.000000	83.295640
1387.000000	83.482638
1386.000000	83.669796
1385.000000	83.828694
1384.000000	83.966566
1383.000000	84.103213
1382.000000	84.246293
1381.000000	84.395403
1380.000000	84.560249
1379.000000	84.751324
1378.000000	84.962770
1377.000000	85.184367
1376.000000	85.422000
1375.000000	85.681718
1374.000000	85.938922
1373.000000	86.158313
1372.000000	86.337724
1371.000000	86.497466
1370.000000	86.649136
1369.000000	86.797273
1368.000000	86.943970
1367.000000	87.085795
1366.000000	87.216422
1365.000000	87.338998
1364.000000	87.465441
1363.000000	87.595088
1362.000000	87.708722
1361.000000	87.797648
1360.000000	87.874902
1359.000000	87.950347
1358.000000	88.021287
1357.000000	88.087472
1356.000000	88.157744
1355.000000	88.237971
1354.000000	88.323811
1353.000000	88.410631
1352.000000	88.500129
1351.000000	88.592538
1350.000000	88.679070
1349.000000	88.752586
1348.000000	88.812413
1347.000000	88.858515
1346.000000	88.887224
1345.000000	88.898140
1344.000000	88.896731
1343.000000	88.886380
1342.000000	88.864677
1341.000000	88.829232
1340.000000	88.780569
1339.000000	88.719906
1338.000000	88.652092
1337.000000	88.590832
1336.000000	88.552532
1335.000000	88.544231
1334.000000	88.562215
1333.000000	88.602593
1332.000000	88.665987
1331.000000	88.750121
1330.000000	88.845797
1329.000000	88.944582
1328.000000	89.044142
1327.000000	89.142730
1326.000000	89.235281
1325.000000	89.319337
1324.000000	89.397317
1323.000000	89.471468
1322.000000	89.542100
1321.000000	89.611951
1320.000000	89.685601
1319.000000	89.762906
1318.000000	89.839280
1317.000000	89.914303
1316.000000	89.993195
1315.000000	90.078626
1314.000000	90.167529
1313.000000	90.256265
1312.000000	90.343336
1311.000000	90.427426
1310.000000	90.508715
1309.000000	90.591795
1308.000000	90.680742
1307.000000	90.772440
1306.000000	90.860450
1305.000000	90.945019
1304.000000	91.031624
1303.000000	91.121629
1302.000000	91.211201
1301.000000	91.298597
1300.000000	91.385469
1299.000000	91.471855
1298.000000	91.556362
1297.000000	91.639510
1296.000000	91.720325
1295.000000	91.791137
1294.000000	91.844108
1293.000000	91.881276
1292.000000	91.911526
1291.000000	91.939633
1290.000000	91.963902
1289.000000	91.983075
1288.000000	91.998376
1287.000000	92.010385
1286.000000	92.020573
1285.000000	92.033880
1284.000000	92.053485
1283.000000	92.074871
1282.000000	92.090868
1281.000000	92.100383
1280.000000	92.105040
1279.000000	92.100134
1278.000000	92.077242
1277.000000	92.034210
1276.000000	91.975762
1275.000000	91.903314
1274.000000	91.811979
1273.000000	91.697730
1272.000000	91.561302
1271.000000	91.405519
1270.000000	91.232351
1269.000000	91.044375
1268.000000	90.845204
1267.000000	90.636489
1266.000000	90.418029
1265.000000	90.191274
1264.000000	89.961453
1263.000000	89.735474
1262.000000	89.519004
1261.000000	89.315383
1260.000000	89.125021
1259.000000	88.945335
1258.000000	88.774578
1257.000000	88.618917
1256.000000	88.491701
1255.000000	88.403674
1254.000000	88.354464
1253.000000	88.333441
1252.000000	88.326492
1251.000000	88.318991
1250.000000	88.299340
1249.000000	88.265181
1248.000000	88.223282
1247.000000	88.180435
1246.000000	88.136996
1245.000000	88.091717
1244.000000	88.048314
1243.000000	88.013047
1242.000000	87.989396
1241.000000	87.979160
1240.000000	87.985704
1239.000000	88.012290
1238.000000	88.059010
1237.000000	88.125917
1236.000000	88.214563
1235.000000	88.322973
1234.000000	88.444059
1233.000000	88.572310
1232.000000	88.709786
1231.000000	88.861619
1230.000000	89.030620
1229.000000	89.220406
1228.000000	89.436464
1227.000000	89.679730
1226.000000	89.941771
1225.000000	90.209601
1224.000000	90.471823
1223.000000	90.718542
1222.000000	90.942351
1221.000000	91.142359
1220.000000	91.322809
1219.000000	91.485335
1218.000000	91.628255
1217.000000	91.752206
1216.000000	91.860362
1215.000000	91.953624
1214.000000	92.030754
1213.000000	92.095040
1212.000000	92.152721
1211.000000	92.203328
1210.000000	92.238630
1209.000000	92.252382
1208.000000	92.247188
1207.000000	92.229945
1206.000000	92.205677
1205.000000	92.177689
1204.000000	92.147958
1203.000000	92.115655
1202.000000	92.078624
1201.000000	92.038114
1200.000000	91.998981
1199.000000	91.963257
1198.000000	91.927067
1197.000000	91.885389
1196.000000	91.836957
1195.000000	91.783470
1194.000000	91.726717
1193.000000	91.667836
1192.000000	91.606731
1191.000000	91.541025
1190.000000	91.468378
1189.000000	91.389684
1188.000000	91.307016
1187.000000	91.218308
1186.000000	91.117623
1185.000000	91.002307
1184.000000	90.875262
1183.000000	90.738921
1182.000000	90.591453
1181.000000	90.430974
1180.000000	90.260765
1179.000000	90.086188
1178.000000	89.909330
1177.000000	89.730573
1176.000000	89.552713
1175.000000	89.379478
1174.000000	89.211352
1173.000000	89.047282
1172.000000	88.889120
1171.000000	88.740437
1170.000000	88.601367
1169.000000	88.469390
1168.000000	88.345292
1167.000000	88.233511
1166.000000	88.137936
1165.000000	88.060388
1164.000000	88.003012
1163.000000	87.968816
1162.000000	87.959134
1161.000000	87.975933
1160.000000	88.023417
1159.000000	88.103682
1158.000000	88.214492
1157.000000	88.353434
1156.000000	88.522816
1155.000000	88.723884
1154.000000	88.950736
1153.000000	89.197504
1152.000000	89.465251
1151.000000	89.756906
1150.000000	90.067928
1149.000000	90.388921
1148.000000	90.714974
1147.000000	91.045151
1146.000000	91.376376
1145.000000	91.702900
1144.000000	92.020181
1143.000000	92.325276
1142.000000	92.616248
1141.000000	92.892946
1140.000000	93.155208
1139.000000	93.399699
1138.000000	93.620740
1137.000000	93.816575
1136.000000	93.989767
1135.000000	94.140627
1134.000000	94.266148
1133.000000	94.365213
1132.000000	94.442686
1131.000000	94.505290
1130.000000	94.555427
1129.000000	94.591502
1128.000000	94.611069
1127.000000	94.614155
1126.000000	94.604017
1125.000000	94.584767
1124.000000	94.558724
1123.000000	94.524952
1122.000000	94.480543
1121.000000	94.421496
1120.000000	94.341796
1119.000000	94.235831
1118.000000	94.101537
1117.000000	93.939790
1116.000000	93.749789
1115.000000	93.527497
1114.000000	93.273313
1113.000000	93.000228
1112.000000	92.734267
1111.000000	92.504768
1110.000000	92.331833
1109.000000	92.219210
1108.000000	92.158484
1107.000000	92.138016
1106.000000	92.146846
1105.000000	92.174759
1104.000000	92.209618
1103.000000	92.238501
1102.000000	92.251548
1101.000000	92.243837
1100.000000	92.213739
1099.000000	92.160379
1098.000000	92.086608
1097.000000	92.001308
1096.000000	91.916704
1095.000000	91.842513
1094.000000	91.783950
1093.000000	91.745168
1092.000000	91.733957
1091.000000	91.760311
1090.000000	91.831069
1089.000000	91.943815
1088.000000	92.086144
1087.000000	92.243090
1086.000000	92.406246
1085.000000	92.577227
1084.000000	92.759518
1083.000000	92.949775
1082.000000	93.139692
1081.000000	93.322637
1080.000000	93.494414
1079.000000	93.650859
1078.000000	93.790961
1077.000000	93.919476
1076.000000	94.041434
1075.000000	94.155019
1074.000000	94.254488
1073.000000	94.337549
1072.000000	94.404002
1071.000000	94.451862
1070.000000	94.479786
1069.000000	94.491452
1068.000000	94.492716
1067.000000	94.486109
1066.000000	94.473208
1065.000000	94.458576
1064.000000	94.446564
1063.000000	94.437069
1062.000000	94.428959
1061.000000	94.424980
1060.000000	94.428161
1059.000000	94.436722
1058.000000	94.448123
1057.000000	94.465499
1056.000000	94.493371
1055.000000	94.529066
1054.000000	94.565635
1053.000000	94.602153
1052.000000	94.644920
1051.000000	94.697865
1050.000000	94.757854
1049.000000	94.819445
1048.000000	94.878078
1047.000000	94.928758
1046.000000	94.967551
1045.000000	94.994563
1044.000000	95.010358
1043.000000	95.011492
1042.000000	94.993812
1041.000000	94.959069
1040.000000	94.912986
1039.000000	94.857574
1038.000000	94.791401
1037.000000	94.715726
1036.000000	94.635236
1035.000000	94.552969
1034.000000	94.469576
1033.000000	94.387914
1032.000000	94.313241
1031.000000	94.248377
1030.000000	94.193161
1029.000000	94.150077
1028.000000	94.124843
1027.000000	94.119266
1026.000000	94.127471
1025.000000	94.141443
1024.000000	94.158020
1023.000000	94.178324
1022.000000	94.203970
1021.000000	94.235863
1020.000000	94.273709
1019.000000	94.315761
1018.000000	94.360906
1017.000000	94.411533
1016.000000	94.471249
1015.000000	94.539247
1014.000000	94.611070
1013.000000	94.685450
1012.000000	94.766254
1011.000000	94.856259
1010.000000	94.952543
1009.000000	95.050045
1008.000000	95.146431
1007.000000	95.241728
1006.000000	95.335403
1005.000000	95.425117
1004.000000	95.506920
1003.000000	95.577117
1002.000000	95.636323
1001.000000	95.690318
1000.000000	95.744225
999.000000	95.795757
998.000000	95.837259
997.000000	95.864402
996.000000	95.879697
995.000000	95.888684
994.000000	95.895505
993.000000	95.902495
992.000000	95.911358
991.000000	95.922990
990.000000	95.936779
989.000000	95.949636
988.000000	95.955927
987.000000	95.950906
986.000000	95.935797
985.000000	95.917725
984.000000	95.902642
983.000000	95.890264
982.000000	95.877542
981.000000	95.863423
980.000000	95.847255
979.000000	95.825202
978.000000	95.792842
977.000000	95.750193
976.000000	95.700422
975.000000	95.645129
974.000000	95.584968
973.000000	95.524204
972.000000	95.470390
971.000000	95.428794
970.000000	95.399648
969.000000	95.380840
968.000000	95.370727
967.000000	95.367966
966.000000	95.372518
965.000000	95.387418
964.000000	95.416220
963.000000	95.458219
962.000000	95.508334
961.000000	95.562970
960.000000	95.622912
959.000000	95.689579
958.000000	95.762632
957.000000	95.842188
956.000000	95.930195
955.000000	96.026913
954.000000	96.128495
953.000000	96.230471
952.000000	96.331444
951.000000	96.431450
950.000000	96.528475
949.000000	96.619201
948.000000	96.702408
947.000000	96.780012
946.000000	96.854369
945.000000	96.925001
944.000000	96.988703
943.000000	97.042800
942.000000	97.088420
941.000000	97.129449
940.000000	97.168510
939.000000	97.205826
938.000000	97.241837
937.000000	97.279109
936.000000	97.320595
935.000000	97.367352
934.000000	97.418019
933.000000	97.468799
932.000000	97.514470
931.000000	97.552366
930.000000	97.585626
929.000000	97.619768
928.000000	97.656201
927.000000	97.692899
926.000000	97.731054
925.000000	97.774963
924.000000	97.823851
923.000000	97.869626
922.000000	97.906963
921.000000	97.940824
920.000000	97.979808
919.000000	98.025670
918.000000	98.073790
917.000000	98.121143
916.000000	98.168698
915.000000	98.217948
914.000000	98.269131
913.000000	98.321585
912.000000	98.372653
911.000000	98.417947
910.000000	98.455528
909.000000	98.488407
908.000000	98.520641
907.000000	98.553427
906.000000	98.587146
905.000000	98.623315
904.000000	98.660862
903.000000	98.693328
902.000000	98.714572
901.000000	98.726467
900.000000	98.738135
899.000000	98.757741
898.000000	98.786757
897.000000	98.819565
896.000000	98.847226
895.000000	98.863294
894.000000	98.867611
893.000000	98.863181
892.000000	98.848876
891.000000	98.817116
890.000000	98.752428
889.000000	98.621570
888.000000	98.368114
887.000000	97.933538
886.000000	97.305953
885.000000	96.547348
884.000000	95.759591
883.000000	95.014075
882.000000	94.301507
881.000000	93.547865
880.000000	92.682496
879.000000	91.701815
878.000000	90.676756
877.000000	89.714418
876.000000	88.917935
875.000000	88.373283
874.000000	88.153050
873.000000	88.306274
872.000000	88.839716
871.000000	89.694244
870.000000	90.746207
869.000000	91.848952
868.000000	92.880714
867.000000	93.771449
866.000000	94.502264
865.000000	95.092346
864.000000	95.576950
863.000000	95.986899
862.000000	96.338075
861.000000	96.635152
860.000000	96.881753
859.000000	97.086330
858.000000	97.262604
857.000000	97.420882
856.000000	97.560001
855.000000	97.673380
854.000000	97.762265
853.000000	97.833632
852.000000	97.877528
851.000000	97.861819
850.000000	97.770961
849.000000	97.649161
848.000000	97.584827
847.000000	97.637274
846.000000	97.783545
845.000000	97.946375
844.000000	98.066697
843.000000	98.140740
842.000000	98.195741
841.000000	98.248714
840.000000	98.295526
839.000000	98.326251
838.000000	98.337943
837.000000	98.333809
836.000000	98.319305
835.000000	98.302057
834.000000	98.289835
833.000000	98.285522
832.000000	98.287513
831.000000	98.297662
830.000000	98.324634
829.000000	98.375215
828.000000	98.443680
827.000000	98.514216
826.000000	98.573926
825.000000	98.620201
824.000000	98.655749
823.000000	98.681550
822.000000	98.697951
821.000000	98.709215
820.000000	98.722627
819.000000	98.742358
818.000000	98.765659
817.000000	98.785881
816.000000	98.799152
815.000000	98.807730
814.000000	98.816259
813.000000	98.825878
812.000000	98.834406
811.000000	98.840892
810.000000	98.845574
809.000000	98.844804
808.000000	98.832289
807.000000	98.808876
806.000000	98.785183
805.000000	98.768757
804.000000	98.752688
803.000000	98.724615
802.000000	98.684580
801.000000	98.645768
800.000000	98.617936
799.000000	98.597723
798.000000	98.576948
797.000000	98.553343
796.000000	98.529805
795.000000	98.508171
794.000000	98.487483
793.000000	98.465812
792.000000	98.441452
791.000000	98.414128
790.000000	98.386099
789.000000	98.359958
788.000000	98.335182
787.000000	98.309751
786.000000	98.285385
785.000000	98.267238
784.000000	98.256701
783.000000	98.247429
782.000000	98.231047
781.000000	98.205485
780.000000	98.176066
779.000000	98.149306
778.000000	98.127188
777.000000	98.107095
776.000000	98.086319
775.000000	98.065349
774.000000	98.045681
773.000000	98.025728
772.000000	98.002297
771.000000	97.976837
770.000000	97.956037
769.000000	97.943567
768.000000	97.934395
767.000000	97.920444
766.000000	97.898731
765.000000	97.870091
764.000000	97.833547
763.000000	97.787965
762.000000	97.737393
761.000000	97.688257
760.000000	97.641614
759.000000	97.593832
758.000000	97.544675
757.000000	97.498359
756.000000	97.456098
755.000000	97.414825
754.000000	97.376028
753.000000	97.349614
752.000000	97.343745
751.000000	97.353914
750.000000	97.365824
749.000000	97.367654
748.000000	97.357491
747.000000	97.341526
746.000000	97.328412
745.000000	97.323731
744.000000	97.326154
743.000000	97.328442
742.000000	97.323472
741.000000	97.308999
740.000000	97.286449
739.000000	97.256744
738.000000	97.218806
737.000000	97.171408
736.000000	97.115363
735.000000	97.053476
734.000000	96.987748
733.000000	96.916826
732.000000	96.838790
731.000000	96.757843
730.000000	96.685133
729.000000	96.628475
728.000000	96.585422
727.000000	96.549641
726.000000	96.518569
725.000000	96.491369
724.000000	96.462487
723.000000	96.422577
722.000000	96.363349
721.000000	96.276329
720.000000	96.148436
719.000000	95.962204
718.000000	95.695341
717.000000	95.313708
716.000000	94.779367
715.000000	94.099010
714.000000	93.381817
713.000000	92.825792
712.000000	92.606863
711.000000	92.756242
710.000000	93.144999
709.000000	93.584795
708.000000	93.941851
707.000000	94.177395
706.000000	94.313298
705.000000	94.385354
704.000000	94.421511
703.000000	94.435944
702.000000	94.429960
701.000000	94.400382
700.000000	94.349136
699.000000	94.288035
698.000000	94.232742
697.000000	94.193842
696.000000	94.173146
695.000000	94.163603
694.000000	94.157466
693.000000	94.154911
692.000000	94.160947
691.000000	94.176848
690.000000	94.195240
689.000000	94.206718
688.000000	94.209824
687.000000	94.210432
686.000000	94.215089
685.000000	94.223903
684.000000	94.227465
683.000000	94.215340
682.000000	94.189257
681.000000	94.164779
680.000000	94.156838
679.000000	94.168021
678.000000	94.193238
677.000000	94.224276
676.000000	94.255303
675.000000	94.283411
674.000000	94.312480
673.000000	94.351673
672.000000	94.405701
671.000000	94.472652
670.000000	94.558495
669.000000	94.679749
668.000000	94.801957
667.000000	94.855598
666.000000	94.879656
665.000000	94.893341
664.000000	94.904053
663.000000	94.930901
662.000000	94.971850
661.000000	95.001985
660.000000	95.008201
659.000000	95.004610
658.000000	95.005152
657.000000	94.996689
656.000000	94.961957
655.000000	94.903108
654.000000	94.831744
653.000000	94.752652
652.000000	94.670557
651.000000	94.593163
650.000000	94.517502
649.000000	94.428637
648.000000	94.324960
647.000000	94.224297
646.000000	94.133253
645.000000	94.034770
644.000000	93.916438
643.000000	93.788980
642.000000	93.667237
641.000000	93.549006
640.000000	93.429031
639.000000	93.318716
638.000000	93.232451
637.000000	93.169970
636.000000	93.128667
635.000000	93.116616
634.000000	93.139087
633.000000	93.185581
632.000000	93.240202
631.000000	93.291400
630.000000	93.325741
629.000000	93.330525
628.000000	93.311916
627.000000	93.293859
626.000000	93.287157
625.000000	93.275966
624.000000	93.242144
623.000000	93.186474
622.000000	93.119484
621.000000	93.048988
620.000000	92.985259
619.000000	92.939254
618.000000	92.904244
617.000000	92.855979
616.000000	92.784827
615.000000	92.711543
614.000000	92.658260
613.000000	92.623000
612.000000	92.595912
611.000000	92.581609
610.000000	92.588893
609.000000	92.614291
608.000000	92.652540
607.000000	92.711945
606.000000	92.802639
605.000000	92.924534
604.000000	93.077545
603.000000	93.267853
602.000000	93.492017
601.000000	93.726289
600.000000	93.944615
599.000000	94.140170
598.000000	94.321394
597.000000	94.494557
596.000000	94.659296
595.000000	94.812955
594.000000	94.949700
593.000000	95.061525
592.000000	95.146504
591.000000	95.211461
590.000000	95.262741
589.000000	95.300859
588.000000	95.329349
587.000000	95.358171
586.000000	95.391799
585.000000	95.424716
584.000000	95.455893
583.000000	95.495476
582.000000	95.545811
581.000000	95.589280
580.000000	95.609030
579.000000	95.612395
578.000000	95.618665
577.000000	95.633857
576.000000	95.652847
575.000000	95.676255
574.000000	95.709325
573.000000	95.748706
572.000000	95.786527
571.000000	95.821795
570.000000	95.856717
569.000000	95.887430
568.000000	95.910204
567.000000	95.929863
566.000000	95.949205
565.000000	95.957099
564.000000	95.941514
563.000000	95.910240
562.000000	95.885056
561.000000	95.877727
560.000000	95.882928
559.000000	95.892023
558.000000	95.900623
557.000000	95.906192
556.000000	95.910416
555.000000	95.920081
554.000000	95.937394
553.000000	95.954184
552.000000	95.963623
551.000000	95.971607
550.000000	95.989212
549.000000	96.020562
548.000000	96.064161
547.000000	96.113284
546.000000	96.148093
545.000000	96.145054
544.000000	96.107805
543.000000	96.073112
542.000000	96.072831
541.000000	96.099880
540.000000	96.124187
539.000000	96.129792
538.000000	96.121402
537.000000	96.109659
536.000000	96.107579
535.000000	96.128279
534.000000	96.166569
533.000000	96.193068
532.000000	96.182007
531.000000	96.136527
530.000000	96.077768
529.000000	96.022016
528.000000	95.984288
527.000000	95.986245
526.000000	96.030829
525.000000	96.082183
524.000000	96.107783
523.000000	96.120144
522.000000	96.147223
521.000000	96.187032
520.000000	96.216290
519.000000	96.230245
518.000000	96.244977
517.000000	96.263196
516.000000	96.272305
515.000000	96.273559
514.000000	96.281678
513.000000	96.300704
512.000000	96.324402
511.000000	96.353381
510.000000	96.391037
509.000000	96.429035
508.000000	96.457518
507.000000	96.483691
506.000000	96.515989
505.000000	96.538090
504.000000	96.530504
503.000000	96.510939
502.000000	96.522392
501.000000	96.574827
500.000000	96.633384
499.000000	96.671655
498.000000	96.696576
497.000000	96.719447
496.000000	96.734221
495.000000	96.732245
494.000000	96.718493
493.000000	96.703914
492.000000	96.698039
491.000000	96.717196
490.000000	96.777546
489.000000	96.870808
488.000000	96.963395
487.000000	97.022236
486.000000	97.034293
485.000000	97.010147
484.000000	96.981713
483.000000	96.988882
482.000000	97.044462
481.000000	97.116471
480.000000	97.164876
479.000000	97.186677
478.000000	97.209793
477.000000	97.252634
476.000000	97.310239
475.000000	97.374700
474.000000	97.443329
473.000000	97.506006
472.000000	97.548830
471.000000	97.577796
470.000000	97.607065
469.000000	97.633020
468.000000	97.648569
467.000000	97.663562
466.000000	97.688607
465.000000	97.717305
464.000000	97.751090
463.000000	97.817436
462.000000	97.934061
461.000000	98.072563
460.000000	98.198831
459.000000	98.322604
458.000000	98.460092
457.000000	98.579951
456.000000	98.657334
455.000000	98.721801
454.000000	98.791617
453.000000	98.829553
452.000000	98.801030
451.000000	98.758922
450.000000	98.798533
