PE UV       SUBTECH     SPECTRUM    ASCII       PEDS        4.00        
   -1
Empty Chamber.Sample2.asc
18/03/09
14:03:53.00
18/03/09
14:03:53.00
Administrator

200.000000
1
Lambda 750
750N8071901
PerkinElmer UV WinLab 6.0.4.0738 / 1.61.00 Lambda 900

0
0
3350/servo 860.8/2
0
0
UV/VIS
1
1
1
CommonBeamDepol,150mm sphere / downward view
0
0
0
0
Program
Program
3350/servo 860.8/2
3350/0.2 860.8/0.2
3350/0.2 860.8/0.2
0
1
 
 
 
0
 
860.8
319.2
860.8
Front
100
on
 
 
0
0
0
 
0
 
 
 
0
 
 
0
0
0
0
0
 
 
 
 
0
0


0
0
#HDR
-1
-1
#GR
nm
%T
1.0
0.0
2350.000000
-1.000000
2151
8
100.454974
99.384071
#DATA
2350.000000	100.360642
2349.000000	99.988735
2348.000000	99.756951
2347.000000	99.897209
2346.000000	99.384071
2345.000000	100.140614
2344.000000	99.993753
2343.000000	100.009980
2342.000000	100.048776
2341.000000	100.048068
2340.000000	100.126622
2339.000000	99.902816
2338.000000	100.339057
2337.000000	100.307143
2336.000000	99.982571
2335.000000	100.098468
2334.000000	100.086879
2333.000000	100.075355
2332.000000	100.051912
2331.000000	100.071489
2330.000000	99.916266
2329.000000	99.894977
2328.000000	100.133936
2327.000000	99.972789
2326.000000	100.233014
2325.000000	100.048464
2324.000000	99.903896
2323.000000	100.042535
2322.000000	99.574131
2321.000000	99.890199
2320.000000	99.786599
2319.000000	100.156762
2318.000000	100.177284
2317.000000	100.345921
2316.000000	100.014319
2315.000000	99.854954
2314.000000	100.036495
2313.000000	100.091731
2312.000000	99.991210
2311.000000	99.790463
2310.000000	100.187986
2309.000000	100.123669
2308.000000	99.928110
2307.000000	99.836196
2306.000000	99.849639
2305.000000	100.145859
2304.000000	100.053835
2303.000000	100.032662
2302.000000	100.118386
2301.000000	100.151409
2300.000000	100.118683
2299.000000	99.950200
2298.000000	99.858578
2297.000000	100.042825
2296.000000	100.017475
2295.000000	99.926272
2294.000000	99.938065
2293.000000	99.880373
2292.000000	99.742567
2291.000000	99.894950
2290.000000	100.074570
2289.000000	100.096282
2288.000000	100.280076
2287.000000	99.918841
2286.000000	99.766782
2285.000000	100.219500
2284.000000	100.198077
2283.000000	99.850321
2282.000000	99.947366
2281.000000	100.243028
2280.000000	100.126261
2279.000000	100.063074
2278.000000	100.016953
2277.000000	99.890543
2276.000000	99.991827
2275.000000	100.064112
2274.000000	99.963584
2273.000000	100.061711
2272.000000	100.222528
2271.000000	100.141752
2270.000000	100.091270
2269.000000	100.093197
2268.000000	100.049868
2267.000000	99.999899
2266.000000	100.018174
2265.000000	99.996467
2264.000000	99.924395
2263.000000	99.921368
2262.000000	99.907483
2261.000000	99.925589
2260.000000	100.052032
2259.000000	100.026627
2258.000000	99.969148
2257.000000	99.888985
2256.000000	99.826441
2255.000000	99.998788
2254.000000	100.125274
2253.000000	100.003939
2252.000000	100.057905
2251.000000	100.221616
2250.000000	100.065713
2249.000000	100.044161
2248.000000	100.020494
2247.000000	99.787122
2246.000000	99.806443
2245.000000	99.805323
2244.000000	99.868068
2243.000000	100.023008
2242.000000	99.974960
2241.000000	100.012931
2240.000000	100.144389
2239.000000	100.157686
2238.000000	100.042209
2237.000000	100.035265
2236.000000	100.008492
2235.000000	99.999899
2234.000000	100.014642
2233.000000	99.886457
2232.000000	99.917341
2231.000000	100.001010
2230.000000	99.981942
2229.000000	99.936984
2228.000000	100.120233
2227.000000	99.993539
2226.000000	99.982328
2225.000000	100.082751
2224.000000	100.068364
2223.000000	99.982737
2222.000000	100.030200
2221.000000	100.024937
2220.000000	100.172468
2219.000000	100.211067
2218.000000	99.992327
2217.000000	99.979014
2216.000000	100.041173
2215.000000	100.150623
2214.000000	100.047119
2213.000000	100.122804
2212.000000	100.066333
2211.000000	99.866061
2210.000000	99.896660
2209.000000	99.997275
2208.000000	99.924779
2207.000000	99.982541
2206.000000	99.910432
2205.000000	99.986282
2204.000000	100.011203
2203.000000	99.936341
2202.000000	99.950207
2201.000000	99.927209
2200.000000	100.018872
2199.000000	100.151911
2198.000000	100.206009
2197.000000	99.947878
2196.000000	99.958437
2195.000000	100.051284
2194.000000	99.997379
2193.000000	100.183241
2192.000000	100.097520
2191.000000	100.036118
2190.000000	99.945774
2189.000000	100.044662
2188.000000	100.052933
2187.000000	99.991636
2186.000000	100.000504
2185.000000	99.981468
2184.000000	100.126228
2183.000000	100.311393
2182.000000	100.225232
2181.000000	99.993351
2180.000000	100.154709
2179.000000	100.070683
2178.000000	99.931165
2177.000000	99.877431
2176.000000	100.195238
2175.000000	100.015703
2174.000000	100.129939
2173.000000	99.938540
2172.000000	99.871857
2171.000000	99.936293
2170.000000	99.907517
2169.000000	99.989242
2168.000000	100.213326
2167.000000	100.043205
2166.000000	100.126516
2165.000000	99.990251
2164.000000	99.863801
2163.000000	100.042533
2162.000000	99.982821
2161.000000	100.033680
2160.000000	99.857981
2159.000000	100.184859
2158.000000	99.966179
2157.000000	99.963293
2156.000000	99.917830
2155.000000	99.971575
2154.000000	99.724276
2153.000000	100.187539
2152.000000	99.805692
2151.000000	100.146140
2150.000000	99.968340
2149.000000	99.921541
2148.000000	100.000502
2147.000000	99.835020
2146.000000	99.939909
2145.000000	99.788694
2144.000000	99.867229
2143.000000	100.014559
2142.000000	100.107744
2141.000000	99.793878
2140.000000	100.060224
2139.000000	100.085817
2138.000000	100.056107
2137.000000	99.858905
2136.000000	99.893718
2135.000000	99.893613
2134.000000	100.160144
2133.000000	100.029914
2132.000000	99.968687
2131.000000	99.992176
2130.000000	100.011648
2129.000000	99.920520
2128.000000	100.017086
2127.000000	100.049298
2126.000000	100.013356
2125.000000	100.065850
2124.000000	100.085719
2123.000000	100.042284
2122.000000	99.973956
2121.000000	99.890142
2120.000000	99.771284
2119.000000	99.836700
2118.000000	99.877545
2117.000000	99.785260
2116.000000	100.051176
2115.000000	100.122045
2114.000000	99.928327
2113.000000	100.026469
2112.000000	100.176245
2111.000000	99.890414
2110.000000	99.959448
2109.000000	100.000805
2108.000000	100.098948
2107.000000	100.144324
2106.000000	100.167687
2105.000000	99.972130
2104.000000	99.950412
2103.000000	100.073947
2102.000000	100.082003
2101.000000	100.153869
2100.000000	100.136132
2099.000000	99.934032
2098.000000	100.064022
2097.000000	99.999496
2096.000000	99.979354
2095.000000	100.045298
2094.000000	99.842326
2093.000000	99.995268
2092.000000	100.030924
2091.000000	100.034653
2090.000000	99.899139
2089.000000	99.984096
2088.000000	99.990945
2087.000000	99.938822
2086.000000	99.949459
2085.000000	100.023074
2084.000000	100.065213
2083.000000	100.097138
2082.000000	100.124404
2081.000000	100.010276
2080.000000	100.043766
2079.000000	100.048706
2078.000000	99.957496
2077.000000	100.030925
2076.000000	100.075087
2075.000000	100.039483
2074.000000	99.980263
2073.000000	100.052884
2072.000000	100.010875
2071.000000	99.960540
2070.000000	100.075776
2069.000000	99.946683
2068.000000	100.082560
2067.000000	99.996473
2066.000000	99.989923
2065.000000	100.005139
2064.000000	100.034080
2063.000000	99.972289
2062.000000	99.957180
2061.000000	100.050516
2060.000000	99.990324
2059.000000	99.966651
2058.000000	100.018348
2057.000000	100.011690
2056.000000	100.028724
2055.000000	100.033373
2054.000000	99.979028
2053.000000	100.102628
2052.000000	100.035609
2051.000000	99.958668
2050.000000	100.042959
2049.000000	100.107356
2048.000000	100.066290
2047.000000	99.998991
2046.000000	100.021089
2045.000000	100.006759
2044.000000	99.930534
2043.000000	99.962398
2042.000000	99.959784
2041.000000	100.002118
2040.000000	100.023301
2039.000000	99.955620
2038.000000	99.977196
2037.000000	99.966196
2036.000000	99.983149
2035.000000	99.993643
2034.000000	100.025834
2033.000000	100.051180
2032.000000	100.039683
2031.000000	100.036546
2030.000000	100.018471
2029.000000	99.995155
2028.000000	99.925445
2027.000000	99.942802
2026.000000	100.048048
2025.000000	100.014236
2024.000000	99.940542
2023.000000	99.995456
2022.000000	100.040498
2021.000000	100.009997
2020.000000	99.990608
2019.000000	100.029495
2018.000000	100.022221
2017.000000	100.027879
2016.000000	100.026977
2015.000000	99.985051
2014.000000	99.956075
2013.000000	99.928636
2012.000000	99.921661
2011.000000	99.978486
2010.000000	100.032133
2009.000000	99.995151
2008.000000	99.974442
2007.000000	99.931323
2006.000000	99.949892
2005.000000	100.006065
2004.000000	100.001820
2003.000000	100.016071
2002.000000	100.007480
2001.000000	100.013952
2000.000000	99.996967
1999.000000	99.978365
1998.000000	99.972602
1997.000000	99.970989
1996.000000	100.022447
1995.000000	99.992418
1994.000000	99.958239
1993.000000	99.984020
1992.000000	99.991808
1991.000000	99.998786
1990.000000	100.010217
1989.000000	100.021247
1988.000000	100.033693
1987.000000	100.012446
1986.000000	99.994335
1985.000000	99.982906
1984.000000	100.022967
1983.000000	100.006272
1982.000000	99.976435
1981.000000	100.034615
1980.000000	99.936168
1979.000000	99.957408
1978.000000	100.024892
1977.000000	99.963181
1976.000000	99.974006
1975.000000	100.047766
1974.000000	100.007084
1973.000000	100.009817
1972.000000	100.035117
1971.000000	99.987455
1970.000000	99.944671
1969.000000	99.961665
1968.000000	99.972086
1967.000000	100.010824
1966.000000	100.012546
1965.000000	99.964289
1964.000000	99.984622
1963.000000	100.030457
1962.000000	99.950128
1961.000000	100.011434
1960.000000	99.968040
1959.000000	100.038045
1958.000000	100.019525
1957.000000	100.004956
1956.000000	99.963602
1955.000000	99.852106
1954.000000	99.966734
1953.000000	99.954629
1952.000000	100.037712
1951.000000	99.984535
1950.000000	99.941690
1949.000000	99.896625
1948.000000	99.984640
1947.000000	100.059946
1946.000000	100.017889
1945.000000	100.046688
1944.000000	100.098483
1943.000000	99.947681
1942.000000	99.971306
1941.000000	99.983439
1940.000000	99.941575
1939.000000	99.882608
1938.000000	99.954880
1937.000000	99.899950
1936.000000	99.971544
1935.000000	99.941476
1934.000000	99.904508
1933.000000	99.975882
1932.000000	99.987289
1931.000000	99.997479
1930.000000	100.119106
1929.000000	100.037625
1928.000000	99.982142
1927.000000	100.009683
1926.000000	100.009180
1925.000000	99.926516
1924.000000	99.863136
1923.000000	99.968948
1922.000000	99.916860
1921.000000	100.000101
1920.000000	99.923074
1919.000000	100.107283
1918.000000	99.980533
1917.000000	100.004641
1916.000000	100.013010
1915.000000	100.040229
1914.000000	100.042477
1913.000000	100.135921
1912.000000	99.994151
1911.000000	99.995158
1910.000000	99.914860
1909.000000	99.980826
1908.000000	100.022296
1907.000000	99.984153
1906.000000	99.956192
1905.000000	99.936937
1904.000000	100.051525
1903.000000	99.948935
1902.000000	99.920873
1901.000000	99.951162
1900.000000	99.940660
1899.000000	99.889181
1898.000000	99.994142
1897.000000	99.957879
1896.000000	100.053957
1895.000000	100.025660
1894.000000	100.009800
1893.000000	100.019897
1892.000000	100.051331
1891.000000	100.069441
1890.000000	99.965762
1889.000000	99.965864
1888.000000	100.032722
1887.000000	99.961840
1886.000000	100.033515
1885.000000	100.026847
1884.000000	100.015844
1883.000000	100.021496
1882.000000	99.946451
1881.000000	100.046508
1880.000000	99.975904
1879.000000	99.863035
1878.000000	99.967348
1877.000000	99.998286
1876.000000	100.003830
1875.000000	99.993955
1874.000000	99.961211
1873.000000	99.966752
1872.000000	99.936541
1871.000000	99.996877
1870.000000	99.995063
1869.000000	99.993752
1868.000000	100.001310
1867.000000	99.981153
1866.000000	99.973998
1865.000000	99.949712
1864.000000	99.966740
1863.000000	99.958073
1862.000000	99.999395
1861.000000	100.021174
1860.000000	100.004538
1859.000000	99.951398
1858.000000	99.888919
1857.000000	99.940817
1856.000000	99.994959
1855.000000	99.965118
1854.000000	99.950702
1853.000000	99.923490
1852.000000	99.950303
1851.000000	99.983471
1850.000000	99.954045
1849.000000	99.967542
1848.000000	100.007764
1847.000000	100.000101
1846.000000	99.991431
1845.000000	99.966032
1844.000000	99.993347
1843.000000	99.926239
1842.000000	99.939440
1841.000000	99.975612
1840.000000	99.929467
1839.000000	99.974798
1838.000000	99.990622
1837.000000	99.983159
1836.000000	100.011700
1835.000000	99.985676
1834.000000	99.960661
1833.000000	99.968926
1832.000000	99.992632
1831.000000	99.987583
1830.000000	100.028878
1829.000000	99.992932
1828.000000	99.956489
1827.000000	99.989903
1826.000000	99.965975
1825.000000	99.943253
1824.000000	100.005051
1823.000000	100.001920
1822.000000	99.981310
1821.000000	99.992826
1820.000000	99.991715
1819.000000	99.989491
1818.000000	100.008287
1817.000000	100.015465
1816.000000	99.976857
1815.000000	99.982717
1814.000000	100.003134
1813.000000	99.998079
1812.000000	99.997270
1811.000000	99.979579
1810.000000	99.973712
1809.000000	99.991201
1808.000000	99.989483
1807.000000	99.990089
1806.000000	100.006777
1805.000000	99.993122
1804.000000	99.992414
1803.000000	99.998280
1802.000000	99.999595
1801.000000	99.986848
1800.000000	99.982599
1799.000000	99.968739
1798.000000	99.959935
1797.000000	99.959736
1796.000000	99.983106
1795.000000	99.989680
1794.000000	100.015584
1793.000000	99.989880
1792.000000	99.963065
1791.000000	99.940998
1790.000000	99.956481
1789.000000	99.983302
1788.000000	100.022475
1787.000000	99.983803
1786.000000	100.000304
1785.000000	100.040502
1784.000000	100.002733
1783.000000	99.963263
1782.000000	99.987246
1781.000000	99.993522
1780.000000	99.967213
1779.000000	99.988865
1778.000000	99.990485
1777.000000	100.005162
1776.000000	100.001316
1775.000000	99.997368
1774.000000	99.992916
1773.000000	100.001316
1772.000000	99.995343
1771.000000	100.004151
1770.000000	100.012961
1769.000000	99.996558
1768.000000	99.960529
1767.000000	99.989676
1766.000000	100.005061
1765.000000	100.014578
1764.000000	100.011237
1763.000000	99.963365
1762.000000	99.985627
1761.000000	100.014273
1760.000000	99.975814
1759.000000	100.000506
1758.000000	100.015085
1757.000000	100.012248
1756.000000	100.014273
1755.000000	100.015591
1754.000000	99.992915
1753.000000	99.991398
1752.000000	99.993320
1751.000000	100.002328
1750.000000	100.027534
1749.000000	100.005262
1748.000000	99.997066
1747.000000	100.017005
1746.000000	100.007995
1745.000000	100.012752
1744.000000	99.961758
1743.000000	100.008908
1742.000000	100.013867
1741.000000	100.014778
1740.000000	100.021461
1739.000000	100.016700
1738.000000	100.012144
1737.000000	99.973793
1736.000000	99.966818
1735.000000	100.000810
1734.000000	99.979155
1733.000000	99.977841
1732.000000	100.035623
1731.000000	100.019129
1730.000000	99.968226
1729.000000	100.037548
1728.000000	100.000202
1727.000000	100.012648
1726.000000	99.999190
1725.000000	99.990489
1724.000000	99.959835
1723.000000	99.972890
1722.000000	99.998179
1721.000000	99.981283
1720.000000	100.032181
1719.000000	100.009815
1718.000000	99.994436
1717.000000	100.056375
1716.000000	100.001619
1715.000000	99.983709
1714.000000	100.015783
1713.000000	99.964687
1712.000000	99.981787
1711.000000	99.989781
1710.000000	100.026510
1709.000000	100.027924
1708.000000	100.018214
1707.000000	100.007690
1706.000000	100.017504
1705.000000	100.001113
1704.000000	100.050701
1703.000000	100.044430
1702.000000	100.021352
1701.000000	99.997774
1700.000000	99.954978
1699.000000	100.023778
1698.000000	100.010318
1697.000000	100.003339
1696.000000	99.997673
1695.000000	100.013153
1694.000000	100.003946
1693.000000	99.999798
1692.000000	99.990289
1691.000000	99.985029
1690.000000	99.995750
1689.000000	100.024387
1688.000000	100.010725
1687.000000	100.019628
1686.000000	99.980880
1685.000000	100.007587
1684.000000	100.015376
1683.000000	99.999899
1682.000000	99.987051
1681.000000	100.001214
1680.000000	100.004250
1679.000000	100.011029
1678.000000	100.018213
1677.000000	99.992009
1676.000000	99.998483
1675.000000	100.002631
1674.000000	99.983508
1673.000000	100.006981
1672.000000	99.990694
1671.000000	99.981896
1670.000000	99.959954
1669.000000	99.992214
1668.000000	100.000404
1667.000000	100.014867
1666.000000	99.997775
1665.000000	100.006169
1664.000000	100.021544
1663.000000	99.953795
1662.000000	99.962090
1661.000000	100.000202
1660.000000	99.998382
1659.000000	99.988775
1658.000000	99.987159
1657.000000	100.016078
1656.000000	99.975129
1655.000000	99.982308
1654.000000	100.004449
1653.000000	99.983218
1652.000000	99.982306
1651.000000	100.019315
1650.000000	100.022956
1649.000000	100.006371
1648.000000	99.997371
1647.000000	100.040254
1646.000000	100.015070
1645.000000	100.003640
1644.000000	99.992114
1643.000000	99.996158
1642.000000	99.987365
1641.000000	99.993833
1640.000000	99.981802
1639.000000	99.969166
1638.000000	99.992519
1637.000000	99.993429
1636.000000	99.992418
1635.000000	100.006067
1634.000000	99.982409
1633.000000	99.981500
1632.000000	99.985038
1631.000000	99.988676
1630.000000	99.986450
1629.000000	100.011327
1628.000000	100.009101
1627.000000	99.998989
1626.000000	99.989384
1625.000000	99.982306
1624.000000	99.993226
1623.000000	100.000101
1622.000000	99.995956
1621.000000	99.986959
1620.000000	99.991205
1619.000000	99.997371
1618.000000	100.015470
1617.000000	100.013245
1616.000000	100.010212
1615.000000	100.012435
1614.000000	100.000910
1613.000000	100.000303
1612.000000	99.983725
1611.000000	99.977660
1610.000000	100.015065
1609.000000	100.033666
1608.000000	100.010312
1607.000000	100.002629
1606.000000	99.985949
1605.000000	99.989588
1604.000000	100.000101
1603.000000	100.011121
1602.000000	100.022446
1601.000000	100.012941
1600.000000	99.991306
1599.000000	99.983522
1598.000000	100.004246
1597.000000	100.016681
1596.000000	100.017085
1595.000000	100.000202
1594.000000	99.992015
1593.000000	99.994441
1592.000000	99.992217
1591.000000	99.998989
1590.000000	100.001921
1589.000000	99.991813
1588.000000	99.978271
1587.000000	99.987466
1586.000000	99.996563
1585.000000	99.999899
1584.000000	100.007177
1583.000000	100.011726
1582.000000	100.018194
1581.000000	100.002021
1580.000000	99.979181
1579.000000	99.980900
1578.000000	100.006065
1577.000000	100.002830
1576.000000	100.000910
1575.000000	100.001617
1574.000000	100.005054
1573.000000	100.004649
1572.000000	99.996159
1571.000000	99.990904
1570.000000	99.994744
1569.000000	99.981708
1568.000000	99.984739
1567.000000	99.994947
1566.000000	99.995857
1565.000000	99.983025
1564.000000	99.998181
1563.000000	99.986964
1562.000000	99.982923
1561.000000	100.001718
1560.000000	100.001920
1559.000000	99.998484
1558.000000	99.990905
1557.000000	100.001920
1556.000000	100.004851
1555.000000	99.995048
1554.000000	100.008287
1553.000000	100.010104
1552.000000	99.999596
1551.000000	99.988482
1550.000000	100.000404
1549.000000	99.999293
1548.000000	99.999293
1547.000000	99.975955
1546.000000	99.984238
1545.000000	99.988482
1544.000000	99.993433
1543.000000	99.994342
1542.000000	99.996868
1541.000000	99.985755
1540.000000	99.998889
1539.000000	100.012529
1538.000000	99.997980
1537.000000	99.981616
1536.000000	99.982726
1535.000000	99.992222
1534.000000	99.992929
1533.000000	99.996969
1532.000000	99.992525
1531.000000	100.010810
1530.000000	100.013133
1529.000000	99.995352
1528.000000	99.994038
1527.000000	100.014855
1526.000000	100.016471
1525.000000	100.014146
1524.000000	99.998485
1523.000000	100.001415
1522.000000	99.987570
1521.000000	99.977772
1520.000000	99.984845
1519.000000	99.984441
1518.000000	100.002930
1517.000000	99.996160
1516.000000	99.987572
1515.000000	99.989897
1514.000000	100.016269
1513.000000	99.969584
1512.000000	100.005559
1511.000000	100.006974
1510.000000	100.002729
1509.000000	100.009196
1508.000000	99.988986
1507.000000	99.994946
1506.000000	99.992320
1505.000000	99.995655
1504.000000	100.008794
1503.000000	99.989995
1502.000000	99.993330
1501.000000	100.008692
1500.000000	99.998787
1499.000000	99.997878
1498.000000	100.022335
1497.000000	99.986257
1496.000000	99.995351
1495.000000	99.991815
1494.000000	99.991814
1493.000000	99.994038
1492.000000	99.978379
1491.000000	99.999394
1490.000000	100.005860
1489.000000	100.005961
1488.000000	100.002425
1487.000000	100.002324
1486.000000	99.994443
1485.000000	100.012427
1484.000000	100.010104
1483.000000	99.996464
1482.000000	99.988284
1481.000000	99.999798
1480.000000	99.974350
1479.000000	99.995859
1478.000000	99.970010
1477.000000	99.985761
1476.000000	99.986065
1475.000000	99.984955
1474.000000	100.006666
1473.000000	100.009293
1472.000000	99.987477
1471.000000	99.978492
1470.000000	100.015857
1469.000000	100.006767
1468.000000	100.006160
1467.000000	99.997778
1466.000000	100.004040
1465.000000	99.972731
1464.000000	99.977480
1463.000000	99.987781
1462.000000	99.997879
1461.000000	99.985459
1460.000000	99.973338
1459.000000	99.982733
1458.000000	100.001616
1457.000000	100.005554
1456.000000	99.959713
1455.000000	99.971618
1454.000000	100.009695
1453.000000	100.016562
1452.000000	99.995961
1451.000000	99.989803
1450.000000	100.016766
1449.000000	99.997476
1448.000000	99.994144
1447.000000	99.994447
1446.000000	99.990914
1445.000000	99.975165
1444.000000	100.009491
1443.000000	99.989501
1442.000000	100.001212
1441.000000	100.025243
1440.000000	100.004947
1439.000000	100.007875
1438.000000	100.002625
1437.000000	99.991419
1436.000000	100.005552
1435.000000	100.009792
1434.000000	99.988798
1433.000000	99.991725
1432.000000	99.998183
1431.000000	100.003937
1430.000000	100.000606
1429.000000	99.998385
1428.000000	100.010496
1427.000000	100.004945
1426.000000	99.989809
1425.000000	99.990314
1424.000000	99.991425
1423.000000	99.974885
1422.000000	99.966517
1421.000000	99.973677
1420.000000	99.982151
1419.000000	99.999092
1418.000000	99.968748
1417.000000	99.972683
1416.000000	99.983673
1415.000000	99.989420
1414.000000	100.003124
1413.000000	99.994560
1412.000000	99.979353
1411.000000	99.999799
1410.000000	99.996173
1409.000000	99.973418
1408.000000	99.980267
1407.000000	99.991443
1406.000000	99.986915
1405.000000	99.981281
1404.000000	99.983194
1403.000000	99.987624
1402.000000	99.978771
1401.000000	99.992353
1400.000000	99.988329
1399.000000	99.994970
1398.000000	99.994669
1397.000000	99.993463
1396.000000	99.992458
1395.000000	99.995073
1394.000000	99.998090
1393.000000	100.001408
1392.000000	99.985323
1391.000000	99.977585
1390.000000	99.980599
1389.000000	99.981305
1388.000000	99.995377
1387.000000	99.985827
1386.000000	99.981706
1385.000000	99.987840
1384.000000	99.991156
1383.000000	99.992161
1382.000000	99.984722
1381.000000	99.982913
1380.000000	99.980906
1379.000000	99.991757
1378.000000	99.992863
1377.000000	99.971661
1376.000000	99.968946
1375.000000	99.988742
1374.000000	99.999899
1373.000000	99.993266
1372.000000	100.008442
1371.000000	100.005628
1370.000000	99.986836
1369.000000	99.985430
1368.000000	99.972070
1367.000000	99.968256
1366.000000	99.985836
1365.000000	99.991160
1364.000000	99.991360
1363.000000	100.000201
1362.000000	99.999598
1361.000000	100.003215
1360.000000	100.000000
1359.000000	99.995779
1358.000000	99.991453
1357.000000	99.974961
1356.000000	99.956858
1355.000000	99.981991
1354.000000	100.024258
1353.000000	99.980673
1352.000000	99.952082
1351.000000	100.005439
1350.000000	100.001310
1349.000000	99.981464
1348.000000	99.984788
1347.000000	99.982464
1346.000000	99.981658
1345.000000	99.990021
1344.000000	99.998185
1343.000000	100.006956
1342.000000	100.005141
1341.000000	100.002319
1340.000000	99.984977
1339.000000	99.993346
1338.000000	99.975304
1337.000000	100.012300
1336.000000	100.029339
1335.000000	100.012601
1334.000000	99.993850
1333.000000	100.000807
1332.000000	99.996573
1331.000000	99.989619
1330.000000	100.011188
1329.000000	99.998992
1328.000000	99.983269
1327.000000	99.983371
1326.000000	99.988611
1325.000000	99.994858
1324.000000	99.986290
1323.000000	99.988409
1322.000000	99.974192
1321.000000	100.001714
1320.000000	99.987099
1319.000000	99.988910
1318.000000	99.978632
1317.000000	99.984981
1316.000000	100.002218
1315.000000	100.015627
1314.000000	99.952323
1313.000000	100.004638
1312.000000	99.996875
1311.000000	100.001008
1310.000000	99.990924
1309.000000	99.998891
1308.000000	99.993850
1307.000000	99.987292
1306.000000	99.986287
1305.000000	99.989211
1304.000000	99.976709
1303.000000	99.986085
1302.000000	99.983362
1301.000000	100.005546
1300.000000	99.992737
1299.000000	100.000101
1298.000000	99.975901
1297.000000	99.992335
1296.000000	99.981848
1295.000000	99.986588
1294.000000	99.980234
1293.000000	99.995765
1292.000000	99.997681
1291.000000	100.004941
1290.000000	99.987700
1289.000000	99.987397
1288.000000	100.004133
1287.000000	100.000605
1286.000000	99.988913
1285.000000	100.000605
1284.000000	99.981051
1283.000000	99.998085
1282.000000	100.001714
1281.000000	100.011491
1280.000000	100.002117
1279.000000	99.999798
1278.000000	99.992645
1277.000000	100.001813
1276.000000	100.001914
1275.000000	100.011483
1274.000000	100.019741
1273.000000	100.020045
1272.000000	100.012287
1271.000000	100.000403
1270.000000	99.986406
1269.000000	99.991945
1268.000000	99.985899
1267.000000	99.977948
1266.000000	99.990032
1265.000000	99.986005
1264.000000	99.986207
1263.000000	99.982888
1262.000000	100.008154
1261.000000	100.011684
1260.000000	99.988120
1259.000000	99.984697
1258.000000	99.993959
1257.000000	99.987416
1256.000000	100.000201
1255.000000	99.966883
1254.000000	100.039882
1253.000000	99.975438
1252.000000	100.028594
1251.000000	100.009665
1250.000000	99.984499
1249.000000	99.993860
1248.000000	99.997080
1247.000000	99.992249
1246.000000	99.997584
1245.000000	99.997483
1244.000000	100.002718
1243.000000	100.025771
1242.000000	100.003120
1241.000000	99.982389
1240.000000	99.972732
1239.000000	99.970114
1238.000000	99.979875
1237.000000	99.996076
1236.000000	99.986419
1235.000000	99.991350
1234.000000	99.991753
1233.000000	100.002012
1232.000000	99.996681
1231.000000	100.006536
1230.000000	99.977981
1229.000000	99.977885
1228.000000	100.007539
1227.000000	100.004725
1226.000000	100.003618
1225.000000	100.008542
1224.000000	99.969456
1223.000000	100.005928
1222.000000	100.014766
1221.000000	100.017579
1220.000000	100.010546
1219.000000	99.989356
1218.000000	99.991064
1217.000000	100.005524
1216.000000	99.990860
1215.000000	99.981426
1214.000000	100.023094
1213.000000	100.011445
1212.000000	99.988555
1211.000000	100.001105
1210.000000	100.012147
1209.000000	99.997189
1208.000000	99.983634
1207.000000	99.986148
1206.000000	99.990163
1205.000000	99.979725
1204.000000	99.998594
1203.000000	99.990966
1202.000000	99.953628
1201.000000	99.998795
1200.000000	100.004417
1199.000000	99.989562
1198.000000	99.994681
1197.000000	100.006023
1196.000000	99.990965
1195.000000	100.000502
1194.000000	99.988559
1193.000000	99.997591
1192.000000	99.989764
1191.000000	99.990667
1190.000000	99.995484
1189.000000	100.003413
1188.000000	99.995784
1187.000000	99.994982
1186.000000	100.029909
1185.000000	100.029407
1184.000000	100.009633
1183.000000	100.009833
1182.000000	100.005016
1181.000000	99.990270
1180.000000	99.996288
1179.000000	99.994985
1178.000000	99.988667
1177.000000	99.990674
1176.000000	99.985161
1175.000000	99.986866
1174.000000	100.005314
1173.000000	99.998596
1172.000000	99.987370
1171.000000	99.993585
1170.000000	100.001303
1169.000000	100.005412
1168.000000	100.002104
1167.000000	100.005812
1166.000000	100.008216
1165.000000	100.000301
1164.000000	99.997796
1163.000000	99.998097
1162.000000	99.998898
1161.000000	99.994192
1160.000000	100.004606
1159.000000	100.010012
1158.000000	99.991992
1157.000000	99.975782
1156.000000	99.981489
1155.000000	100.006203
1154.000000	100.018310
1153.000000	100.016707
1152.000000	100.003701
1151.000000	99.994699
1150.000000	99.985400
1149.000000	99.991901
1148.000000	99.989802
1147.000000	99.979809
1146.000000	99.965021
1145.000000	99.972818
1144.000000	99.998101
1143.000000	99.994505
1142.000000	99.975729
1141.000000	99.995905
1140.000000	100.024272
1139.000000	100.021774
1138.000000	100.006491
1137.000000	99.992812
1136.000000	99.999002
1135.000000	99.992615
1134.000000	99.996308
1133.000000	99.991619
1132.000000	99.982540
1131.000000	99.994114
1130.000000	100.013267
1129.000000	100.013663
1128.000000	100.008775
1127.000000	99.992522
1126.000000	99.973583
1125.000000	99.988936
1124.000000	100.002691
1123.000000	100.008173
1122.000000	99.992626
1121.000000	99.982764
1120.000000	99.986252
1119.000000	99.975795
1118.000000	99.985159
1117.000000	99.986454
1116.000000	99.985459
1115.000000	99.993028
1114.000000	100.007270
1113.000000	99.995121
1112.000000	99.993728
1111.000000	99.994525
1110.000000	99.989647
1109.000000	100.001194
1108.000000	99.985371
1107.000000	100.004578
1106.000000	99.988757
1105.000000	99.975729
1104.000000	99.984583
1103.000000	99.995525
1102.000000	99.996619
1101.000000	100.006959
1100.000000	100.013420
1099.000000	99.997118
1098.000000	99.999901
1097.000000	100.003478
1096.000000	100.010631
1095.000000	99.991756
1094.000000	99.997418
1093.000000	100.000298
1092.000000	99.995433
1091.000000	100.012111
1090.000000	100.003176
1089.000000	100.008336
1088.000000	100.016472
1087.000000	100.003273
1086.000000	100.010116
1085.000000	100.011997
1084.000000	100.015466
1083.000000	100.000793
1082.000000	99.998117
1081.000000	100.011693
1080.000000	100.024572
1079.000000	99.982668
1078.000000	100.016737
1077.000000	100.005050
1076.000000	100.009503
1075.000000	100.015640
1074.000000	99.987136
1073.000000	100.008904
1072.000000	100.001484
1071.000000	99.989222
1070.000000	99.999011
1069.000000	100.005437
1068.000000	100.004250
1067.000000	99.985673
1066.000000	99.980343
1065.000000	99.983803
1064.000000	99.989534
1063.000000	99.993781
1062.000000	99.999506
1061.000000	99.975134
1060.000000	99.979877
1059.000000	99.988166
1058.000000	99.994379
1057.000000	99.978804
1056.000000	100.013605
1055.000000	99.969452
1054.000000	100.007981
1053.000000	100.003054
1052.000000	100.000886
1051.000000	99.994782
1050.000000	99.982282
1049.000000	99.992816
1048.000000	99.983181
1047.000000	100.006392
1046.000000	99.990166
1045.000000	99.985157
1044.000000	99.994790
1043.000000	99.992828
1042.000000	99.988016
1041.000000	99.986446
1040.000000	100.030248
1039.000000	100.020418
1038.000000	100.014129
1037.000000	100.004808
1036.000000	100.015202
1035.000000	99.998235
1034.000000	99.995099
1033.000000	99.984519
1032.000000	99.995493
1031.000000	99.989325
1030.000000	99.998434
1029.000000	100.016346
1028.000000	100.009099
1027.000000	99.999804
1026.000000	100.009779
1025.000000	99.976247
1024.000000	100.002248
1023.000000	100.005666
1022.000000	100.001172
1021.000000	100.005077
1020.000000	100.004002
1019.000000	99.998439
1018.000000	100.001268
1017.000000	100.004778
1016.000000	100.010918
1015.000000	100.021342
1014.000000	100.004676
1013.000000	99.994840
1012.000000	99.999319
1011.000000	99.994940
1010.000000	100.019749
1009.000000	100.019547
1008.000000	99.993002
1007.000000	99.993393
1006.000000	99.994949
1005.000000	99.986020
1004.000000	99.997573
1003.000000	100.013585
1002.000000	100.020467
1001.000000	99.999515
1000.000000	99.987402
999.000000	99.991282
998.000000	99.996417
997.000000	99.996515
996.000000	99.996904
995.000000	99.991296
994.000000	100.002127
993.000000	99.996038
992.000000	100.021444
991.000000	100.019892
990.000000	100.005115
989.000000	99.989195
988.000000	99.985437
987.000000	99.983131
986.000000	99.986798
985.000000	100.021773
984.000000	100.004140
983.000000	99.997690
982.000000	100.001251
981.000000	99.990769
980.000000	99.984044
979.000000	99.988471
978.000000	99.986459
977.000000	99.993184
976.000000	100.004702
975.000000	99.996260
974.000000	99.998658
973.000000	100.007379
972.000000	100.021171
971.000000	100.013980
970.000000	100.003924
969.000000	99.993879
968.000000	100.006118
967.000000	100.002676
966.000000	100.000955
965.000000	99.982915
964.000000	99.989221
963.000000	100.004005
962.000000	100.003336
961.000000	99.998761
960.000000	99.984575
959.000000	99.994767
958.000000	100.007134
957.000000	99.993250
956.000000	99.972544
955.000000	99.970375
954.000000	99.991553
953.000000	100.012710
952.000000	99.999716
951.000000	99.986738
950.000000	99.979363
949.000000	99.979091
948.000000	99.976455
947.000000	100.015691
946.000000	100.024185
945.000000	100.009346
944.000000	100.026514
943.000000	100.018668
942.000000	100.019126
941.000000	100.016289
940.000000	99.993508
939.000000	99.998495
938.000000	99.994174
937.000000	99.971265
936.000000	99.943427
935.000000	99.948248
934.000000	99.977976
933.000000	99.989136
932.000000	100.000281
931.000000	100.002526
930.000000	99.983551
929.000000	100.005137
928.000000	99.994866
927.000000	99.981906
926.000000	99.989094
925.000000	100.019559
924.000000	100.005863
923.000000	99.987168
922.000000	100.000093
921.000000	99.980222
920.000000	99.979864
919.000000	99.993880
918.000000	100.029839
917.000000	100.044724
916.000000	99.993249
915.000000	99.982996
914.000000	100.017643
913.000000	100.007753
912.000000	99.994929
911.000000	100.005805
910.000000	100.006352
909.000000	100.020788
908.000000	99.967473
907.000000	99.988798
906.000000	99.956703
905.000000	99.982222
904.000000	100.019050
903.000000	99.986735
902.000000	99.981262
901.000000	99.984383
900.000000	99.970071
899.000000	100.006201
898.000000	100.056506
897.000000	100.011923
896.000000	100.007730
895.000000	99.998092
894.000000	99.992465
893.000000	99.962641
892.000000	99.973095
891.000000	99.959001
890.000000	99.937095
889.000000	99.931465
888.000000	100.004875
887.000000	100.010108
886.000000	99.997206
885.000000	99.985144
884.000000	100.056774
883.000000	100.026155
882.000000	99.979441
881.000000	99.909268
880.000000	99.901410
879.000000	99.935113
878.000000	99.927383
877.000000	100.046821
876.000000	100.017404
875.000000	99.954802
874.000000	100.034129
873.000000	99.982726
872.000000	100.080502
871.000000	99.979199
870.000000	100.035790
869.000000	100.087401
868.000000	100.050442
867.000000	99.965663
866.000000	99.867155
865.000000	99.965971
864.000000	100.110456
863.000000	99.946112
862.000000	99.895282
861.000000	100.003522
860.000000	100.065940
859.000000	99.799537
858.000000	100.347431
857.000000	100.374053
856.000000	99.837722
855.000000	99.873444
854.000000	99.800904
853.000000	99.706720
852.000000	99.962500
851.000000	100.320253
850.000000	100.454974
849.000000	100.245756
848.000000	99.833876
847.000000	99.942596
846.000000	99.986705
845.000000	100.174477
844.000000	99.778000
843.000000	99.818171
842.000000	100.062361
841.000000	99.938276
840.000000	99.826479
839.000000	100.204386
838.000000	100.153870
837.000000	99.910745
836.000000	100.102844
835.000000	100.100834
834.000000	100.173689
833.000000	99.931139
832.000000	100.043029
831.000000	99.963039
830.000000	100.076953
829.000000	100.035297
828.000000	100.014359
827.000000	99.876104
826.000000	100.078650
825.000000	100.043418
824.000000	100.171589
823.000000	100.085266
822.000000	99.930513
821.000000	99.952716
820.000000	99.929106
819.000000	100.051135
818.000000	100.068014
817.000000	100.065939
816.000000	99.889707
815.000000	99.801271
814.000000	99.993616
813.000000	99.975592
812.000000	99.818981
811.000000	100.029842
810.000000	100.119187
809.000000	99.969051
808.000000	100.192387
807.000000	100.066624
806.000000	100.046481
805.000000	99.986933
804.000000	99.941642
803.000000	99.940365
802.000000	100.133772
801.000000	100.247572
800.000000	100.020006
799.000000	99.994915
798.000000	99.997457
797.000000	99.949110
796.000000	100.046122
795.000000	99.963852
794.000000	99.686873
793.000000	99.946799
792.000000	99.895049
791.000000	100.001848
790.000000	99.861845
789.000000	100.150508
788.000000	100.162955
787.000000	100.049912
786.000000	100.108314
785.000000	100.171128
784.000000	100.072099
783.000000	100.042672
782.000000	99.977642
781.000000	99.892730
780.000000	99.927524
779.000000	99.850128
778.000000	100.014518
777.000000	100.140586
776.000000	100.032724
775.000000	99.791165
774.000000	100.034796
773.000000	99.986328
772.000000	99.957221
771.000000	99.935645
770.000000	99.965717
769.000000	100.012889
768.000000	100.029533
767.000000	99.936484
766.000000	99.927055
765.000000	99.983796
764.000000	100.020492
763.000000	99.956001
762.000000	100.003208
761.000000	99.866645
760.000000	99.935012
759.000000	99.901034
758.000000	99.862991
757.000000	99.854319
756.000000	99.950285
755.000000	99.975227
754.000000	100.009215
753.000000	100.048260
752.000000	99.978691
751.000000	99.929640
750.000000	99.936630
749.000000	99.951346
748.000000	99.887682
747.000000	99.965721
746.000000	100.028557
745.000000	100.016527
744.000000	100.136008
743.000000	100.118772
742.000000	99.958037
741.000000	99.947682
740.000000	99.967338
739.000000	100.004949
738.000000	99.984961
737.000000	100.016760
736.000000	100.022808
735.000000	99.960615
734.000000	99.956012
733.000000	99.980248
732.000000	100.006858
731.000000	100.017868
730.000000	99.988626
729.000000	100.074332
728.000000	100.028727
727.000000	99.982930
726.000000	100.034170
725.000000	100.081223
724.000000	100.022795
723.000000	99.916948
722.000000	99.930066
721.000000	99.971858
720.000000	99.965688
719.000000	99.937603
718.000000	99.953054
717.000000	100.000181
716.000000	100.026299
715.000000	100.006621
714.000000	99.964291
713.000000	99.919894
712.000000	99.962630
711.000000	100.059377
710.000000	100.079372
709.000000	99.994370
708.000000	99.940612
707.000000	99.957493
706.000000	99.980100
705.000000	100.010817
704.000000	99.962820
703.000000	100.024468
702.000000	100.095035
701.000000	99.996359
700.000000	99.922351
699.000000	99.903699
698.000000	99.999636
697.000000	100.015477
696.000000	99.920172
695.000000	99.921764
694.000000	99.928999
693.000000	99.895479
692.000000	99.914992
691.000000	100.005472
690.000000	99.937184
689.000000	99.968924
688.000000	100.000182
687.000000	100.022333
686.000000	100.014415
685.000000	99.980754
684.000000	99.922283
683.000000	99.866864
682.000000	100.008313
681.000000	100.012335
680.000000	99.996163
679.000000	100.066752
678.000000	100.040701
677.000000	99.976872
676.000000	100.018379
675.000000	99.992864
674.000000	99.970912
673.000000	99.994329
672.000000	99.971181
671.000000	99.916295
670.000000	100.025263
669.000000	100.006958
668.000000	99.952392
667.000000	100.009800
666.000000	100.052215
665.000000	99.976817
664.000000	99.993219
663.000000	99.978739
662.000000	99.917968
661.000000	99.954373
660.000000	99.956939
659.000000	99.938009
658.000000	99.973670
657.000000	99.986328
656.000000	99.969632
655.000000	100.025788
654.000000	99.942188
653.000000	99.956301
652.000000	99.973557
651.000000	99.963468
650.000000	100.021955
649.000000	100.018640
648.000000	99.941703
647.000000	99.976123
646.000000	99.954619
645.000000	99.997518
644.000000	99.970680
643.000000	100.060960
642.000000	100.100706
641.000000	100.005426
640.000000	100.060544
639.000000	100.030176
638.000000	100.042600
637.000000	100.066644
636.000000	99.996044
635.000000	99.955378
634.000000	99.965403
633.000000	100.001565
632.000000	99.975149
631.000000	100.018413
630.000000	99.977352
629.000000	99.944111
628.000000	99.926496
627.000000	99.981302
626.000000	99.944748
625.000000	99.929258
624.000000	100.011699
623.000000	99.990416
622.000000	99.985985
621.000000	99.989953
620.000000	99.999355
619.000000	100.009036
618.000000	99.963500
617.000000	99.940069
616.000000	100.025462
615.000000	99.980720
614.000000	100.029434
613.000000	100.093325
612.000000	100.015691
611.000000	99.986062
610.000000	99.983474
609.000000	99.982555
608.000000	99.997415
607.000000	99.980713
606.000000	100.032954
605.000000	99.954296
604.000000	99.976271
603.000000	99.974968
602.000000	100.032241
601.000000	99.988362
600.000000	100.013299
599.000000	99.996582
598.000000	100.051482
597.000000	100.003974
596.000000	99.927930
595.000000	100.023568
594.000000	100.037989
593.000000	99.953689
592.000000	100.053179
591.000000	99.931994
590.000000	99.977348
589.000000	100.102911
588.000000	100.001756
587.000000	99.971060
586.000000	100.046979
585.000000	100.009067
584.000000	100.001572
583.000000	99.977812
582.000000	99.979007
581.000000	99.971044
580.000000	100.003885
579.000000	99.903759
578.000000	99.992787
577.000000	99.922892
576.000000	99.995375
575.000000	99.977517
574.000000	99.912785
573.000000	99.991301
572.000000	99.932934
571.000000	100.000092
570.000000	99.980839
569.000000	100.013789
568.000000	100.017965
567.000000	99.926612
566.000000	99.973801
565.000000	99.946132
564.000000	99.995094
563.000000	99.944355
562.000000	99.958144
561.000000	100.023212
560.000000	100.001941
559.000000	100.034211
558.000000	100.017013
557.000000	99.952584
556.000000	99.974299
555.000000	100.033287
554.000000	99.966521
553.000000	100.014984
552.000000	99.991956
551.000000	100.035043
550.000000	99.988630
549.000000	99.963669
548.000000	100.038406
547.000000	100.040059
546.000000	100.044573
545.000000	99.999538
544.000000	100.041896
543.000000	100.009802
542.000000	99.995282
541.000000	100.100517
540.000000	100.002313
539.000000	99.940708
538.000000	100.034051
537.000000	100.087443
536.000000	100.013603
535.000000	100.016199
534.000000	99.938177
533.000000	99.967333
532.000000	100.020546
531.000000	100.039818
530.000000	99.931883
529.000000	99.920880
528.000000	99.980371
527.000000	99.945778
526.000000	99.964081
525.000000	100.046219
524.000000	100.010749
523.000000	100.030944
522.000000	99.983141
521.000000	99.984810
520.000000	99.995554
519.000000	99.992222
518.000000	99.997592
517.000000	100.080263
516.000000	100.021683
515.000000	100.000741
514.000000	100.062138
513.000000	100.030939
512.000000	99.962665
511.000000	99.945246
510.000000	99.962103
509.000000	99.982120
508.000000	100.009267
507.000000	100.036321
506.000000	99.980081
505.000000	99.976466
504.000000	100.018627
503.000000	99.974987
502.000000	100.007969
501.000000	99.972763
500.000000	99.957937
499.000000	99.994902
498.000000	99.903380
497.000000	99.934135
496.000000	99.975075
495.000000	100.017237
494.000000	99.979802
493.000000	99.984712
492.000000	99.969245
491.000000	100.006484
490.000000	99.971393
489.000000	99.956575
488.000000	99.915371
487.000000	99.981021
486.000000	100.075508
485.000000	100.097443
484.000000	99.969951
483.000000	100.000742
482.000000	100.015308
481.000000	99.960765
480.000000	100.023110
479.000000	100.058774
478.000000	99.970759
477.000000	99.975021
476.000000	100.005388
475.000000	99.965268
474.000000	99.963968
473.000000	99.970380
472.000000	99.978919
471.000000	99.966649
470.000000	100.011152
469.000000	99.997956
468.000000	99.993496
467.000000	100.016260
466.000000	99.961347
465.000000	99.951210
464.000000	100.007436
463.000000	100.025927
462.000000	100.033649
461.000000	100.043047
460.000000	99.991541
459.000000	99.998977
458.000000	99.989402
457.000000	99.953169
456.000000	99.960786
455.000000	100.000372
454.000000	100.019433
453.000000	99.974615
452.000000	99.916518
451.000000	99.930907
450.000000	99.953414
449.000000	99.985678
448.000000	99.997674
447.000000	99.972278
446.000000	99.880048
445.000000	99.884751
444.000000	99.939533
443.000000	100.010606
442.000000	100.009395
441.000000	100.022429
440.000000	100.010050
439.000000	100.020196
438.000000	100.024572
437.000000	100.057348
436.000000	100.039759
435.000000	100.090553
434.000000	100.128593
433.000000	100.108262
432.000000	100.028318
431.000000	99.987801
430.000000	99.934715
429.000000	99.937777
428.000000	99.970000
427.000000	99.960416
426.000000	99.932003
425.000000	99.967097
424.000000	99.926671
423.000000	99.969606
422.000000	99.976503
421.000000	99.998601
420.000000	100.073124
419.000000	100.064985
418.000000	100.009885
417.000000	100.034325
416.000000	100.044780
415.000000	100.016696
414.000000	100.042916
413.000000	100.003732
412.000000	100.029864
411.000000	99.953524
410.000000	99.988710
409.000000	99.925390
408.000000	99.942443
407.000000	100.061714
406.000000	99.968271
405.000000	99.973130
404.000000	100.078319
403.000000	100.005040
402.000000	100.026521
401.000000	99.993935
400.000000	99.888440
399.000000	99.936927
398.000000	100.033422
397.000000	100.024372
396.000000	99.993934
395.000000	100.078637
394.000000	100.052493
393.000000	100.040332
392.000000	100.047140
391.000000	99.911882
390.000000	99.894194
389.000000	100.111779
388.000000	100.097190
387.000000	99.933623
386.000000	99.974154
385.000000	100.081597
384.000000	100.063664
383.000000	99.955570
382.000000	99.861544
381.000000	100.041468
380.000000	99.873373
379.000000	100.066852
378.000000	99.841537
377.000000	99.807073
376.000000	100.049567
375.000000	99.899785
374.000000	99.951593
373.000000	100.037936
372.000000	100.044629
371.000000	99.959819
370.000000	100.002606
369.000000	99.808374
368.000000	99.837216
367.000000	100.094912
366.000000	100.122516
365.000000	100.146483
364.000000	100.069215
363.000000	99.716380
362.000000	99.997399
361.000000	99.848854
360.000000	99.904840
359.000000	99.572259
358.000000	100.046738
357.000000	99.910816
356.000000	100.128803
355.000000	100.148852
354.000000	99.964195
353.000000	99.991095
352.000000	99.959377
351.000000	100.073147
350.000000	99.786279
349.000000	100.180004
348.000000	99.959358
347.000000	100.028259
346.000000	99.758903
345.000000	100.099706
344.000000	99.912904
343.000000	99.768898
342.000000	99.641959
341.000000	99.730744
340.000000	100.125553
339.000000	99.868528
338.000000	99.879835
337.000000	100.183950
336.000000	100.265601
335.000000	99.688164
334.000000	99.917278
333.000000	100.069501
332.000000	99.650243
331.000000	100.069183
330.000000	99.789946
329.000000	99.905745
328.000000	100.389567
327.000000	99.893763
326.000000	99.738205
325.000000	100.328703
324.000000	99.633472
323.000000	99.993253
322.000000	100.183913
321.000000	100.013292
320.000000	100.323917
319.000000	99.874069
318.000000	100.080103
317.000000	100.226110
316.000000	100.071561
315.000000	99.901627
314.000000	100.241556
313.000000	99.996057
312.000000	100.026183
311.000000	100.150422
310.000000	100.085022
309.000000	99.981920
308.000000	99.727684
307.000000	100.170355
306.000000	99.946233
305.000000	100.096263
304.000000	99.965073
303.000000	100.049550
302.000000	100.123951
301.000000	99.987956
300.000000	100.012125
299.000000	100.100030
298.000000	99.972173
297.000000	100.236954
296.000000	100.179480
295.000000	99.809425
294.000000	99.861763
293.000000	99.954229
292.000000	100.049597
291.000000	100.011730
290.000000	100.025296
289.000000	99.866572
288.000000	100.086451
287.000000	100.264034
286.000000	99.895078
285.000000	99.678832
284.000000	99.818526
283.000000	100.250374
282.000000	100.074846
281.000000	100.031669
280.000000	99.976526
279.000000	100.151722
278.000000	100.225507
277.000000	100.174960
276.000000	99.870135
275.000000	99.959932
274.000000	100.098880
273.000000	100.109018
272.000000	100.220692
271.000000	100.282847
270.000000	99.826255
269.000000	99.770878
268.000000	100.066790
267.000000	100.070871
266.000000	99.601780
265.000000	99.692982
264.000000	99.923368
263.000000	99.995106
262.000000	100.057044
261.000000	100.172930
260.000000	99.899934
259.000000	99.697907
258.000000	100.059444
257.000000	99.867184
256.000000	99.772908
255.000000	99.811153
254.000000	100.007221
253.000000	100.097858
252.000000	100.103887
251.000000	100.140004
250.000000	100.005418
249.000000	99.704199
248.000000	99.832644
247.000000	100.171413
246.000000	100.174974
245.000000	99.886938
244.000000	99.809761
243.000000	99.721734
242.000000	99.696238
241.000000	99.651001
240.000000	99.929821
239.000000	100.031246
238.000000	100.048935
237.000000	100.195731
236.000000	99.901569
235.000000	99.592230
234.000000	99.907732
233.000000	99.853375
232.000000	99.872802
231.000000	99.970296
230.000000	99.922532
229.000000	100.035146
228.000000	100.223935
227.000000	99.888527
226.000000	99.841303
225.000000	99.799702
224.000000	99.931450
223.000000	99.858192
222.000000	99.860898
221.000000	100.138591
220.000000	100.111328
219.000000	99.754757
218.000000	99.517179
217.000000	99.578229
216.000000	99.511813
215.000000	99.691685
214.000000	99.612133
213.000000	99.533454
212.000000	99.926932
211.000000	99.564331
210.000000	99.762342
209.000000	100.028841
208.000000	99.815911
207.000000	99.857432
206.000000	100.214959
205.000000	99.971227
204.000000	100.050950
203.000000	100.289163
202.000000	100.033788
201.000000	100.451035
200.000000	100.405059
