PE UV       SUBTECH     SPECTRUM    ASCII       PEDS        4.00        
   -1
Empty Chamber.Sample.asc
18/03/09
08:59:51.00
18/03/09
08:59:51.00
Administrator

200.000000
1
Lambda 750
750N8071901
PerkinElmer UV WinLab 6.0.4.0738 / 1.61.00 Lambda 900

0
0
3350/servo 860.8/2
0
0
UV/VIS
1
1
1
CommonBeamDepol,150mm sphere / downward view
0
0
0
0
Program
Program
3350/servo 860.8/2
3350/0.2 860.8/0.2
3350/0.2 860.8/0.2
0
1
 
 
 
0
 
860.8
319.2
860.8
Front
100
on
 
 
0
0
0
 
0
 
 
 
0
 
 
0
0
0
0
0
 
 
 
 
0
0


0
0
#HDR
-1
-1
#GR
nm
%T
1.0
0.0
2350.000000
-1.000000
2151
8
100.791471
98.992728
#DATA
2350.000000	99.912752
2349.000000	100.075051
2348.000000	100.069119
2347.000000	99.775988
2346.000000	99.735938
2345.000000	100.791471
2344.000000	99.975182
2343.000000	100.235252
2342.000000	100.115113
2341.000000	100.350490
2340.000000	100.380708
2339.000000	100.139134
2338.000000	100.151153
2337.000000	100.013763
2336.000000	99.501613
2335.000000	100.219603
2334.000000	100.165074
2333.000000	100.397456
2332.000000	100.174035
2331.000000	100.091631
2330.000000	100.472888
2329.000000	100.229806
2328.000000	100.261464
2327.000000	99.920536
2326.000000	100.486177
2325.000000	99.950575
2324.000000	100.363625
2323.000000	99.884717
2322.000000	99.830959
2321.000000	100.107359
2320.000000	100.264732
2319.000000	99.840995
2318.000000	100.121716
2317.000000	100.258830
2316.000000	99.892823
2315.000000	99.865841
2314.000000	100.151777
2313.000000	99.913964
2312.000000	99.935718
2311.000000	100.065891
2310.000000	100.081501
2309.000000	100.178808
2308.000000	100.080839
2307.000000	99.973598
2306.000000	100.109665
2305.000000	100.093592
2304.000000	99.898824
2303.000000	99.807997
2302.000000	100.156953
2301.000000	99.779140
2300.000000	99.917216
2299.000000	100.307237
2298.000000	100.274199
2297.000000	100.294085
2296.000000	100.221001
2295.000000	100.070875
2294.000000	99.960335
2293.000000	99.875504
2292.000000	99.839917
2291.000000	99.846832
2290.000000	99.992318
2289.000000	100.131080
2288.000000	100.129930
2287.000000	100.135413
2286.000000	100.071338
2285.000000	99.991499
2284.000000	100.086508
2283.000000	100.152342
2282.000000	100.042791
2281.000000	100.154460
2280.000000	100.069156
2279.000000	99.973774
2278.000000	100.148370
2277.000000	99.983498
2276.000000	99.908619
2275.000000	100.017492
2274.000000	100.105973
2273.000000	100.168883
2272.000000	100.241997
2271.000000	99.825098
2270.000000	99.812383
2269.000000	99.872227
2268.000000	99.916482
2267.000000	100.093404
2266.000000	100.173305
2265.000000	100.024203
2264.000000	99.998582
2263.000000	99.929838
2262.000000	100.010928
2261.000000	100.119418
2260.000000	100.005764
2259.000000	100.037144
2258.000000	100.226700
2257.000000	100.270647
2256.000000	100.002936
2255.000000	100.043564
2254.000000	100.168580
2253.000000	100.093818
2252.000000	99.987555
2251.000000	100.067862
2250.000000	100.072927
2249.000000	100.066125
2248.000000	99.942921
2247.000000	99.836817
2246.000000	99.947937
2245.000000	100.036004
2244.000000	100.050766
2243.000000	100.175397
2242.000000	100.189526
2241.000000	100.078187
2240.000000	100.005062
2239.000000	100.002834
2238.000000	99.997672
2237.000000	100.117195
2236.000000	100.135323
2235.000000	99.996661
2234.000000	99.956286
2233.000000	99.872922
2232.000000	99.839308
2231.000000	99.954484
2230.000000	99.976533
2229.000000	99.866219
2228.000000	99.980072
2227.000000	99.968211
2226.000000	100.042842
2225.000000	100.147074
2224.000000	99.994940
2223.000000	100.021064
2222.000000	100.108600
2221.000000	100.058244
2220.000000	100.123555
2219.000000	100.080093
2218.000000	100.055562
2217.000000	100.000810
2216.000000	99.975831
2215.000000	100.012535
2214.000000	100.036818
2213.000000	100.017395
2212.000000	99.873121
2211.000000	100.000506
2210.000000	100.189160
2209.000000	100.064319
2208.000000	100.106041
2207.000000	100.211551
2206.000000	100.171923
2205.000000	100.074592
2204.000000	100.039792
2203.000000	100.073793
2202.000000	100.053526
2201.000000	99.962905
2200.000000	100.042761
2199.000000	100.046299
2198.000000	100.111985
2197.000000	100.117090
2196.000000	100.103783
2195.000000	100.090034
2194.000000	100.071000
2193.000000	100.018412
2192.000000	100.030554
2191.000000	99.931244
2190.000000	100.020312
2189.000000	99.955721
2188.000000	100.079652
2187.000000	99.975370
2186.000000	100.077438
2185.000000	100.117476
2184.000000	100.243357
2183.000000	100.179247
2182.000000	99.934084
2181.000000	99.908662
2180.000000	100.028572
2179.000000	99.949627
2178.000000	99.835910
2177.000000	100.032914
2176.000000	100.047002
2175.000000	100.120982
2174.000000	100.003840
2173.000000	100.046142
2172.000000	99.976815
2171.000000	99.769087
2170.000000	99.973436
2169.000000	100.003828
2168.000000	100.236431
2167.000000	100.083131
2166.000000	99.855963
2165.000000	99.855511
2164.000000	99.868299
2163.000000	99.964839
2162.000000	100.137834
2161.000000	100.038597
2160.000000	99.970078
2159.000000	100.067074
2158.000000	100.136658
2157.000000	99.934859
2156.000000	99.921945
2155.000000	99.953103
2154.000000	99.984598
2153.000000	100.192215
2152.000000	99.978854
2151.000000	100.060425
2150.000000	100.212276
2149.000000	99.824839
2148.000000	100.036441
2147.000000	99.925451
2146.000000	100.109852
2145.000000	99.959902
2144.000000	100.071157
2143.000000	99.869584
2142.000000	99.780470
2141.000000	100.115493
2140.000000	99.899323
2139.000000	99.882559
2138.000000	99.977885
2137.000000	100.110729
2136.000000	100.059924
2135.000000	100.126578
2134.000000	99.895974
2133.000000	100.005036
2132.000000	100.147169
2131.000000	99.892138
2130.000000	99.971445
2129.000000	100.088336
2128.000000	100.032914
2127.000000	100.004831
2126.000000	99.909623
2125.000000	100.014813
2124.000000	100.018238
2123.000000	99.959712
2122.000000	99.896307
2121.000000	100.005749
2120.000000	99.971367
2119.000000	99.950953
2118.000000	99.934134
2117.000000	99.993047
2116.000000	99.915107
2115.000000	100.071491
2114.000000	100.199831
2113.000000	100.195510
2112.000000	100.153143
2111.000000	100.083934
2110.000000	99.982243
2109.000000	100.075939
2108.000000	100.187349
2107.000000	99.912323
2106.000000	99.931025
2105.000000	100.016845
2104.000000	99.851242
2103.000000	99.842539
2102.000000	99.920323
2101.000000	100.121233
2100.000000	100.167643
2099.000000	100.022597
2098.000000	99.920749
2097.000000	100.151733
2096.000000	100.002321
2095.000000	99.995858
2094.000000	100.064131
2093.000000	100.164019
2092.000000	99.968889
2091.000000	100.070048
2090.000000	99.972643
2089.000000	99.897204
2088.000000	99.989702
2087.000000	100.064032
2086.000000	99.958401
2085.000000	100.018789
2084.000000	99.921558
2083.000000	100.016662
2082.000000	100.014748
2081.000000	99.922496
2080.000000	99.945467
2079.000000	99.998080
2078.000000	99.979900
2077.000000	100.032859
2076.000000	100.019911
2075.000000	100.018088
2074.000000	100.039110
2073.000000	100.007881
2072.000000	100.038582
2071.000000	100.026269
2070.000000	100.030325
2069.000000	99.954696
2068.000000	99.988270
2067.000000	100.015776
2066.000000	99.975842
2065.000000	100.023350
2064.000000	100.103679
2063.000000	100.063007
2062.000000	99.989484
2061.000000	100.013146
2060.000000	100.046224
2059.000000	99.988268
2058.000000	99.947633
2057.000000	99.915282
2056.000000	99.885484
2055.000000	100.026800
2054.000000	100.018616
2053.000000	100.055949
2052.000000	100.053322
2051.000000	100.010111
2050.000000	100.089116
2049.000000	100.064450
2048.000000	100.035517
2047.000000	100.009007
2046.000000	100.031168
2045.000000	100.065782
2044.000000	99.958929
2043.000000	100.056882
2042.000000	100.060232
2041.000000	99.995952
2040.000000	100.011740
2039.000000	99.978138
2038.000000	99.986638
2037.000000	99.947969
2036.000000	99.987344
2035.000000	100.036355
2034.000000	100.008909
2033.000000	99.936038
2032.000000	99.914363
2031.000000	100.051356
2030.000000	100.022582
2029.000000	99.957377
2028.000000	100.033631
2027.000000	100.026944
2026.000000	100.058047
2025.000000	100.034448
2024.000000	100.002533
2023.000000	100.074483
2022.000000	99.994529
2021.000000	99.956251
2020.000000	100.039307
2019.000000	100.063549
2018.000000	100.011756
2017.000000	99.989262
2016.000000	100.000405
2015.000000	100.017733
2014.000000	99.994122
2013.000000	99.969308
2012.000000	99.982573
2011.000000	99.966666
2010.000000	99.945290
2009.000000	99.990777
2008.000000	100.010442
2007.000000	100.029509
2006.000000	100.018146
2005.000000	100.026460
2004.000000	100.019571
2003.000000	99.980432
2002.000000	99.990672
2001.000000	100.014196
2000.000000	99.989352
1999.000000	99.978807
1998.000000	99.993510
1997.000000	99.999189
1996.000000	100.025762
1995.000000	100.008521
1994.000000	100.009536
1993.000000	99.990972
1992.000000	99.986815
1991.000000	99.998174
1990.000000	100.013090
1989.000000	100.016133
1988.000000	100.026084
1987.000000	100.003856
1986.000000	100.030752
1985.000000	100.003146
1984.000000	100.011772
1983.000000	100.045581
1982.000000	100.037246
1981.000000	100.017760
1980.000000	100.028018
1979.000000	99.990766
1978.000000	100.038565
1977.000000	100.011465
1976.000000	100.071559
1975.000000	100.041924
1974.000000	100.032584
1973.000000	99.996449
1972.000000	100.054403
1971.000000	100.001015
1970.000000	100.026590
1969.000000	100.030341
1968.000000	100.040393
1967.000000	100.023947
1966.000000	99.994724
1965.000000	100.032988
1964.000000	100.008626
1963.000000	100.015628
1962.000000	99.976053
1961.000000	100.047906
1960.000000	100.045868
1959.000000	100.048189
1958.000000	99.955368
1957.000000	100.040572
1956.000000	99.981641
1955.000000	99.952449
1954.000000	99.979319
1953.000000	99.987225
1952.000000	100.050806
1951.000000	100.083860
1950.000000	99.978408
1949.000000	100.057816
1948.000000	100.068961
1947.000000	100.022614
1946.000000	99.974867
1945.000000	100.046029
1944.000000	100.120774
1943.000000	99.969914
1942.000000	99.995947
1941.000000	100.057866
1940.000000	99.952714
1939.000000	100.032931
1938.000000	100.036983
1937.000000	99.966389
1936.000000	100.018037
1935.000000	99.967480
1934.000000	99.971331
1933.000000	100.006282
1932.000000	99.966892
1931.000000	99.962945
1930.000000	99.945628
1929.000000	100.041432
1928.000000	100.002329
1927.000000	100.059649
1926.000000	99.902255
1925.000000	99.819444
1924.000000	100.089495
1923.000000	100.022573
1922.000000	100.023485
1921.000000	100.042644
1920.000000	99.982895
1919.000000	100.073131
1918.000000	100.061506
1917.000000	99.970845
1916.000000	100.020968
1915.000000	99.964168
1914.000000	99.999190
1913.000000	99.965160
1912.000000	100.032915
1911.000000	100.045180
1910.000000	99.995342
1909.000000	100.058954
1908.000000	100.034850
1907.000000	100.095574
1906.000000	100.002634
1905.000000	99.934457
1904.000000	99.965362
1903.000000	99.971145
1902.000000	99.994124
1901.000000	99.932449
1900.000000	100.032224
1899.000000	100.068197
1898.000000	100.001824
1897.000000	99.996658
1896.000000	100.000203
1895.000000	100.065283
1894.000000	99.974668
1893.000000	99.997366
1892.000000	100.102402
1891.000000	100.048658
1890.000000	100.009020
1889.000000	100.066781
1888.000000	100.067487
1887.000000	100.034962
1886.000000	100.042849
1885.000000	99.994532
1884.000000	99.953434
1883.000000	99.994838
1882.000000	100.006779
1881.000000	99.935150
1880.000000	99.969454
1879.000000	99.969557
1878.000000	99.934571
1877.000000	99.962384
1876.000000	100.020835
1875.000000	99.975232
1874.000000	100.009405
1873.000000	100.003640
1872.000000	100.005560
1871.000000	99.954610
1870.000000	99.992315
1869.000000	99.971998
1868.000000	99.983209
1867.000000	99.996460
1866.000000	99.985639
1865.000000	100.012847
1864.000000	99.978052
1863.000000	100.030755
1862.000000	99.991401
1861.000000	100.002935
1860.000000	99.986545
1859.000000	99.989879
1858.000000	99.978040
1857.000000	100.000911
1856.000000	99.982393
1855.000000	99.973902
1854.000000	99.959733
1853.000000	99.950326
1852.000000	100.014167
1851.000000	100.031772
1850.000000	100.033293
1849.000000	100.035007
1848.000000	100.042385
1847.000000	100.041893
1846.000000	100.036026
1845.000000	100.055455
1844.000000	100.020133
1843.000000	99.987762
1842.000000	100.018209
1841.000000	99.986444
1840.000000	99.988464
1839.000000	100.017204
1838.000000	100.009411
1837.000000	99.986945
1836.000000	100.022270
1835.000000	100.018122
1834.000000	99.956678
1833.000000	99.964467
1832.000000	100.001721
1831.000000	100.039506
1830.000000	100.027859
1829.000000	100.002938
1828.000000	99.981966
1827.000000	100.006181
1826.000000	99.986626
1825.000000	99.980037
1824.000000	100.003447
1823.000000	100.032745
1822.000000	100.013884
1821.000000	100.017840
1820.000000	99.994831
1819.000000	100.012367
1818.000000	100.022304
1817.000000	100.012471
1816.000000	100.007099
1815.000000	100.033677
1814.000000	100.016736
1813.000000	99.987627
1812.000000	100.005681
1811.000000	99.964604
1810.000000	99.974847
1809.000000	100.009333
1808.000000	100.009738
1807.000000	100.014912
1806.000000	100.020799
1805.000000	100.024966
1804.000000	100.008422
1803.000000	100.002943
1802.000000	100.008627
1801.000000	100.013296
1800.000000	100.004262
1799.000000	99.995230
1798.000000	99.990459
1797.000000	100.006497
1796.000000	100.025683
1795.000000	100.014822
1794.000000	100.015127
1793.000000	100.020100
1792.000000	99.997767
1791.000000	100.011473
1790.000000	100.009443
1789.000000	99.996446
1788.000000	100.024675
1787.000000	100.011170
1786.000000	99.997259
1785.000000	100.022442
1784.000000	100.020209
1783.000000	100.006600
1782.000000	100.026807
1781.000000	100.002538
1780.000000	100.000305
1779.000000	99.997868
1778.000000	99.983655
1777.000000	100.001015
1776.000000	100.019395
1775.000000	100.013709
1774.000000	99.988933
1773.000000	100.008224
1772.000000	100.022946
1771.000000	100.028535
1770.000000	100.021121
1769.000000	100.021322
1768.000000	99.985688
1767.000000	100.014111
1766.000000	100.026298
1765.000000	100.005178
1764.000000	100.010964
1763.000000	100.013403
1762.000000	99.983351
1761.000000	100.024372
1760.000000	100.002335
1759.000000	99.986092
1758.000000	99.996751
1757.000000	100.027724
1756.000000	100.021222
1755.000000	99.973607
1754.000000	99.985180
1753.000000	99.977063
1752.000000	99.971278
1751.000000	99.988228
1750.000000	100.005075
1749.000000	100.013907
1748.000000	100.038893
1747.000000	100.042345
1746.000000	100.015130
1745.000000	100.011675
1744.000000	100.021014
1743.000000	100.017159
1742.000000	99.994316
1741.000000	100.010760
1740.000000	100.009441
1739.000000	99.995838
1738.000000	99.993403
1737.000000	99.951093
1736.000000	99.973411
1735.000000	99.982037
1734.000000	100.007308
1733.000000	100.005887
1732.000000	100.017663
1731.000000	99.988225
1730.000000	99.986602
1729.000000	100.009439
1728.000000	100.054825
1727.000000	100.008021
1726.000000	100.023853
1725.000000	100.042542
1724.000000	100.024671
1723.000000	100.020301
1722.000000	99.994214
1721.000000	99.990561
1720.000000	99.986905
1719.000000	100.008831
1718.000000	100.034212
1717.000000	100.010151
1716.000000	100.004973
1715.000000	99.960830
1714.000000	100.004668
1713.000000	99.975544
1712.000000	100.006293
1711.000000	99.991373
1710.000000	99.980919
1709.000000	100.010859
1708.000000	100.045273
1707.000000	100.016038
1706.000000	100.038476
1705.000000	100.035723
1704.000000	100.022026
1703.000000	100.004162
1702.000000	100.008322
1701.000000	99.987721
1700.000000	100.044260
1699.000000	100.033902
1698.000000	99.969457
1697.000000	100.038671
1696.000000	99.969863
1695.000000	100.029337
1694.000000	100.004263
1693.000000	100.002132
1692.000000	100.021717
1691.000000	100.038867
1690.000000	100.019589
1689.000000	100.006901
1688.000000	99.989750
1687.000000	99.996347
1686.000000	100.013700
1685.000000	100.012483
1684.000000	99.964384
1683.000000	99.994114
1682.000000	99.983867
1681.000000	99.996956
1680.000000	99.992084
1679.000000	100.002841
1678.000000	100.026696
1677.000000	100.021617
1676.000000	100.020803
1675.000000	99.997869
1674.000000	100.002131
1673.000000	99.999899
1672.000000	100.009233
1671.000000	99.957694
1670.000000	99.982853
1669.000000	100.003753
1668.000000	100.014809
1667.000000	99.977989
1666.000000	99.983671
1665.000000	100.000203
1664.000000	99.998884
1663.000000	100.002941
1662.000000	99.996247
1661.000000	99.990973
1660.000000	100.005174
1659.000000	100.026073
1658.000000	100.018157
1657.000000	99.983980
1656.000000	99.972521
1655.000000	99.957916
1654.000000	99.975257
1653.000000	100.006288
1652.000000	100.007303
1651.000000	99.993002
1650.000000	100.022725
1649.000000	99.995232
1648.000000	100.004565
1647.000000	100.010550
1646.000000	100.016535
1645.000000	99.998884
1644.000000	100.009333
1643.000000	100.032969
1642.000000	100.032462
1641.000000	100.016533
1640.000000	100.008926
1639.000000	100.007403
1638.000000	100.002029
1637.000000	100.021402
1636.000000	100.003753
1635.000000	100.016432
1634.000000	100.001014
1633.000000	99.977990
1632.000000	100.007912
1631.000000	100.006695
1630.000000	99.986103
1629.000000	100.006796
1628.000000	100.018159
1627.000000	99.985393
1626.000000	99.992596
1625.000000	100.007607
1624.000000	99.992292
1623.000000	99.992292
1622.000000	99.998377
1621.000000	100.006086
1620.000000	100.013388
1619.000000	100.012171
1618.000000	100.003448
1617.000000	100.006086
1616.000000	100.006999
1615.000000	100.003956
1614.000000	100.005376
1613.000000	100.001420
1612.000000	100.004158
1611.000000	100.001217
1610.000000	99.996552
1609.000000	100.002941
1608.000000	99.997769
1607.000000	100.009128
1606.000000	100.021706
1605.000000	100.000710
1604.000000	100.007403
1603.000000	100.012677
1602.000000	99.994219
1601.000000	100.003246
1600.000000	100.008215
1599.000000	100.014607
1598.000000	100.023938
1597.000000	100.005679
1596.000000	99.988845
1595.000000	99.996147
1594.000000	100.005273
1593.000000	100.008316
1592.000000	100.004969
1591.000000	100.010040
1590.000000	100.009229
1589.000000	100.006492
1588.000000	100.018258
1587.000000	100.012780
1586.000000	100.020183
1585.000000	100.015314
1584.000000	100.008722
1583.000000	99.996451
1582.000000	99.993104
1581.000000	100.000203
1580.000000	99.999594
1579.000000	99.991787
1578.000000	99.992497
1577.000000	99.998276
1576.000000	99.988136
1575.000000	99.993409
1574.000000	100.001521
1573.000000	100.011256
1572.000000	100.003752
1571.000000	99.989556
1570.000000	99.991179
1569.000000	99.987225
1568.000000	100.004766
1567.000000	100.012980
1566.000000	99.984285
1565.000000	99.984793
1564.000000	99.992701
1563.000000	100.005272
1562.000000	99.994221
1561.000000	100.000000
1560.000000	100.007199
1559.000000	100.006286
1558.000000	100.012168
1557.000000	100.001318
1556.000000	99.985300
1555.000000	100.000507
1554.000000	100.016119
1553.000000	100.003447
1552.000000	100.011658
1551.000000	100.009733
1550.000000	100.000811
1549.000000	100.011253
1548.000000	100.004461
1547.000000	100.016121
1546.000000	100.001419
1545.000000	100.007806
1544.000000	100.012064
1543.000000	99.999493
1542.000000	100.007198
1541.000000	99.997567
1540.000000	100.019263
1539.000000	99.999392
1538.000000	99.998682
1537.000000	100.002737
1536.000000	100.003447
1535.000000	100.004866
1534.000000	100.009731
1533.000000	100.000405
1532.000000	100.000507
1531.000000	100.015005
1530.000000	100.027988
1529.000000	100.006794
1528.000000	99.991585
1527.000000	99.996249
1526.000000	99.997871
1525.000000	99.975468
1524.000000	99.991078
1523.000000	100.022617
1522.000000	100.003042
1521.000000	100.002839
1520.000000	100.007097
1519.000000	100.009734
1518.000000	99.993207
1517.000000	99.993511
1516.000000	100.004462
1515.000000	99.991079
1514.000000	99.995031
1513.000000	100.013588
1512.000000	100.023525
1511.000000	100.017948
1510.000000	99.995944
1509.000000	100.000000
1508.000000	100.013385
1507.000000	99.980734
1506.000000	99.978707
1505.000000	99.982358
1504.000000	100.005171
1503.000000	100.008721
1502.000000	99.997972
1501.000000	100.002332
1500.000000	100.037624
1499.000000	100.062676
1498.000000	100.025047
1497.000000	99.996350
1496.000000	100.017136
1495.000000	100.025853
1494.000000	100.014906
1493.000000	99.998986
1492.000000	100.019366
1491.000000	99.994931
1490.000000	99.997871
1489.000000	99.986516
1488.000000	99.988040
1487.000000	100.011759
1486.000000	99.998378
1485.000000	99.995945
1484.000000	100.018145
1483.000000	100.028181
1482.000000	100.017435
1481.000000	99.975780
1480.000000	99.992602
1479.000000	100.013480
1478.000000	99.990170
1477.000000	99.993008
1476.000000	100.020269
1475.000000	100.022702
1474.000000	99.998987
1473.000000	100.016013
1472.000000	100.016420
1471.000000	100.028986
1470.000000	100.015202
1469.000000	99.985206
1468.000000	100.001216
1467.000000	100.013074
1466.000000	100.001013
1465.000000	100.013580
1464.000000	100.019764
1463.000000	99.962100
1462.000000	100.019459
1461.000000	99.996859
1460.000000	100.004154
1459.000000	99.983280
1458.000000	100.011556
1457.000000	100.009323
1456.000000	100.004864
1455.000000	99.997872
1454.000000	99.993718
1453.000000	99.974262
1452.000000	100.003141
1451.000000	100.002026
1450.000000	100.006686
1449.000000	100.011245
1448.000000	99.993212
1447.000000	100.003141
1446.000000	100.006383
1445.000000	100.019047
1444.000000	100.009624
1443.000000	100.018440
1442.000000	100.016919
1441.000000	100.025532
1440.000000	100.028669
1439.000000	100.000912
1438.000000	99.987134
1437.000000	99.992301
1436.000000	99.987440
1435.000000	100.003444
1434.000000	100.003140
1433.000000	100.002026
1432.000000	100.010029
1431.000000	99.987440
1430.000000	99.990074
1429.000000	99.996759
1428.000000	100.004355
1427.000000	100.003443
1426.000000	99.985623
1425.000000	99.983801
1424.000000	100.003442
1423.000000	100.011339
1422.000000	100.012351
1421.000000	100.019537
1420.000000	100.008906
1419.000000	99.990995
1418.000000	99.991805
1417.000000	100.009611
1416.000000	100.006171
1415.000000	100.001315
1414.000000	100.004854
1413.000000	100.014461
1412.000000	100.012437
1411.000000	100.017897
1410.000000	100.020420
1409.000000	100.014050
1408.000000	100.022237
1407.000000	100.006366
1406.000000	99.983533
1405.000000	99.999899
1404.000000	100.012225
1403.000000	100.014446
1402.000000	100.008687
1401.000000	100.007475
1400.000000	99.997879
1399.000000	99.989094
1398.000000	100.003837
1397.000000	100.006261
1396.000000	99.993740
1395.000000	99.995558
1394.000000	100.014032
1393.000000	100.017766
1392.000000	100.005956
1391.000000	99.988797
1390.000000	99.991220
1389.000000	100.011506
1388.000000	99.997679
1387.000000	99.981432
1386.000000	99.998082
1385.000000	100.016654
1384.000000	100.002826
1383.000000	99.987183
1382.000000	100.016755
1381.000000	100.004340
1380.000000	99.993440
1379.000000	99.996266
1378.000000	99.979616
1377.000000	100.000404
1376.000000	100.016451
1375.000000	100.010799
1374.000000	100.017762
1373.000000	100.010798
1372.000000	99.990514
1371.000000	99.985469
1370.000000	100.000605
1369.000000	100.010291
1368.000000	99.993846
1367.000000	99.993947
1366.000000	99.987997
1365.000000	99.991325
1364.000000	99.989509
1363.000000	99.996873
1362.000000	100.010795
1361.000000	100.019575
1360.000000	99.991019
1359.000000	99.995156
1358.000000	99.999697
1357.000000	99.973647
1356.000000	99.989397
1355.000000	100.031216
1354.000000	99.985756
1353.000000	99.963127
1352.000000	100.030931
1351.000000	100.061984
1350.000000	100.004449
1349.000000	99.975634
1348.000000	99.989889
1347.000000	100.008092
1346.000000	100.004956
1345.000000	99.999393
1344.000000	100.008396
1343.000000	100.001720
1342.000000	99.992920
1341.000000	99.990089
1340.000000	99.989280
1339.000000	99.998786
1338.000000	99.998584
1337.000000	99.996156
1336.000000	100.012443
1335.000000	100.029843
1334.000000	100.012037
1333.000000	100.004855
1332.000000	100.004348
1331.000000	99.997168
1330.000000	100.008294
1329.000000	100.002326
1328.000000	100.010719
1327.000000	100.015779
1326.000000	100.018710
1325.000000	100.004854
1324.000000	99.996764
1323.000000	99.989583
1322.000000	99.984630
1321.000000	100.005260
1320.000000	99.999697
1319.000000	99.992618
1318.000000	99.987665
1317.000000	100.011835
1316.000000	99.998280
1315.000000	100.003136
1314.000000	99.999798
1313.000000	99.985639
1312.000000	100.016892
1311.000000	100.005564
1310.000000	100.013357
1309.000000	100.014569
1308.000000	99.997775
1307.000000	100.023167
1306.000000	100.024888
1305.000000	99.994133
1304.000000	99.993122
1303.000000	100.019430
1302.000000	100.017505
1301.000000	100.005868
1300.000000	100.012546
1299.000000	99.986748
1298.000000	99.984015
1297.000000	99.994436
1296.000000	100.016592
1295.000000	100.009307
1294.000000	100.009914
1293.000000	100.024280
1292.000000	100.000809
1291.000000	100.021242
1290.000000	100.002529
1289.000000	100.002124
1288.000000	100.005563
1287.000000	99.998887
1286.000000	99.970169
1285.000000	100.019823
1284.000000	100.005764
1283.000000	100.030442
1282.000000	100.021334
1281.000000	100.018199
1280.000000	100.002729
1279.000000	100.004043
1278.000000	99.998282
1277.000000	100.007582
1276.000000	99.980697
1275.000000	99.994845
1274.000000	99.999596
1273.000000	100.009500
1272.000000	99.986156
1271.000000	99.995352
1270.000000	100.001920
1269.000000	100.002223
1268.000000	99.994039
1267.000000	99.995858
1266.000000	100.011719
1265.000000	99.995960
1264.000000	99.987572
1263.000000	99.988585
1262.000000	100.014042
1261.000000	100.001515
1260.000000	99.984546
1259.000000	99.999899
1258.000000	99.996463
1257.000000	100.000808
1256.000000	100.006767
1255.000000	100.009091
1254.000000	100.011414
1253.000000	99.990203
1252.000000	100.014140
1251.000000	100.010404
1250.000000	99.993031
1249.000000	100.004646
1248.000000	99.994445
1247.000000	100.001111
1246.000000	99.981518
1245.000000	100.003939
1244.000000	100.008282
1243.000000	100.015553
1242.000000	99.997576
1241.000000	100.001515
1240.000000	100.027672
1239.000000	99.997072
1238.000000	99.995861
1237.000000	100.013024
1236.000000	100.026043
1235.000000	100.012413
1234.000000	100.009487
1233.000000	99.992634
1232.000000	100.002119
1231.000000	99.991223
1230.000000	100.001311
1229.000000	100.019472
1228.000000	99.990620
1227.000000	100.006960
1226.000000	99.988403
1225.000000	100.002723
1224.000000	99.981048
1223.000000	99.980243
1222.000000	99.973188
1221.000000	99.998286
1220.000000	99.987905
1219.000000	100.004737
1218.000000	100.013707
1217.000000	100.003326
1216.000000	99.979346
1215.000000	99.991437
1214.000000	99.979450
1213.000000	99.988715
1212.000000	99.990429
1211.000000	99.985091
1210.000000	99.980456
1209.000000	100.011285
1208.000000	100.023275
1207.000000	100.039201
1206.000000	99.987004
1205.000000	99.988920
1204.000000	100.004432
1203.000000	100.011588
1202.000000	100.005440
1201.000000	100.009167
1200.000000	100.003324
1199.000000	99.991135
1198.000000	100.006850
1197.000000	100.008763
1196.000000	100.011986
1195.000000	100.012591
1194.000000	100.011281
1193.000000	100.019138
1192.000000	100.011382
1191.000000	100.006143
1190.000000	100.002417
1189.000000	99.991639
1188.000000	99.988518
1187.000000	100.002921
1186.000000	100.007655
1185.000000	100.002316
1184.000000	100.010777
1183.000000	100.010473
1182.000000	100.008458
1181.000000	99.994866
1180.000000	99.997282
1179.000000	100.000101
1178.000000	99.985908
1177.000000	99.997283
1176.000000	100.016403
1175.000000	100.015194
1174.000000	99.991046
1173.000000	99.991449
1172.000000	99.998692
1171.000000	99.997284
1170.000000	100.017300
1169.000000	100.017601
1168.000000	100.005229
1167.000000	100.014682
1166.000000	100.006636
1165.000000	99.991254
1164.000000	99.998191
1163.000000	100.008042
1162.000000	100.010754
1161.000000	99.997287
1160.000000	99.973675
1159.000000	99.991662
1158.000000	100.008840
1157.000000	100.006931
1156.000000	100.018182
1155.000000	100.001908
1154.000000	99.987048
1153.000000	100.009538
1152.000000	100.018876
1151.000000	100.007529
1150.000000	100.002108
1149.000000	100.008229
1148.000000	100.005319
1147.000000	100.006522
1146.000000	100.001806
1145.000000	99.998295
1144.000000	100.010933
1143.000000	100.006418
1142.000000	100.008324
1141.000000	100.028980
1140.000000	100.022858
1139.000000	100.003709
1138.000000	100.003909
1137.000000	99.989779
1136.000000	99.982466
1135.000000	99.991885
1134.000000	100.010619
1133.000000	100.014924
1132.000000	100.008212
1131.000000	100.013419
1130.000000	100.017924
1129.000000	100.000100
1128.000000	99.996196
1127.000000	99.985489
1126.000000	99.993395
1125.000000	100.004603
1124.000000	99.988695
1123.000000	99.987796
1122.000000	99.997299
1121.000000	99.995899
1120.000000	100.014603
1119.000000	100.011801
1118.000000	100.000500
1117.000000	100.002099
1116.000000	100.009498
1115.000000	100.013296
1114.000000	100.019590
1113.000000	100.019090
1112.000000	99.993704
1111.000000	99.995603
1110.000000	100.004297
1109.000000	100.019184
1108.000000	100.003496
1107.000000	99.999001
1106.000000	99.994108
1105.000000	99.985920
1104.000000	100.003595
1103.000000	100.028454
1102.000000	100.022161
1101.000000	100.002794
1100.000000	100.008781
1099.000000	100.007481
1098.000000	99.998404
1097.000000	100.019846
1096.000000	100.007280
1095.000000	100.007079
1094.000000	100.004985
1093.000000	100.005881
1092.000000	100.011162
1091.000000	100.015544
1090.000000	99.996713
1089.000000	100.002092
1088.000000	100.014242
1087.000000	100.004779
1086.000000	99.988752
1085.000000	100.003086
1084.000000	100.021597
1083.000000	100.032741
1082.000000	100.005173
1081.000000	100.008953
1080.000000	99.987868
1079.000000	99.956262
1078.000000	99.997614
1077.000000	100.006261
1076.000000	100.024250
1075.000000	100.014211
1074.000000	99.996324
1073.000000	99.987087
1072.000000	100.015293
1071.000000	100.005559
1070.000000	100.013301
1069.000000	99.997916
1068.000000	99.992658
1067.000000	100.012797
1066.000000	100.006943
1065.000000	100.006545
1064.000000	100.006643
1063.000000	100.004758
1062.000000	99.976319
1061.000000	99.985932
1060.000000	99.988213
1059.000000	100.004159
1058.000000	100.018617
1057.000000	100.016729
1056.000000	100.027813
1055.000000	100.003364
1054.000000	100.022063
1053.000000	100.022352
1052.000000	100.026405
1051.000000	100.004449
1050.000000	100.040925
1049.000000	100.024802
1048.000000	100.003161
1047.000000	100.010568
1046.000000	99.990523
1045.000000	99.986676
1044.000000	99.985593
1043.000000	100.021708
1042.000000	99.988066
1041.000000	100.019133
1040.000000	100.024257
1039.000000	99.981175
1038.000000	99.990540
1037.000000	99.989164
1036.000000	99.988675
1035.000000	100.012702
1034.000000	100.003741
1033.000000	100.012301
1032.000000	100.008166
1031.000000	99.981513
1030.000000	100.013867
1029.000000	100.005210
1028.000000	100.010122
1027.000000	100.021027
1026.000000	99.995482
1025.000000	100.001669
1024.000000	99.989794
1023.000000	99.977731
1022.000000	100.011967
1021.000000	100.015887
1020.000000	100.008824
1019.000000	100.035189
1018.000000	99.999020
1017.000000	100.027819
1016.000000	100.019096
1015.000000	99.987179
1014.000000	100.002348
1013.000000	99.991490
1012.000000	100.011636
1011.000000	100.006647
1010.000000	99.998046
1009.000000	99.987986
1008.000000	99.992482
1007.000000	100.027334
1006.000000	100.025861
1005.000000	100.019023
1004.000000	100.009459
1003.000000	100.002631
1002.000000	100.009258
1001.000000	100.009254
1000.000000	100.017722
999.000000	100.016839
998.000000	100.024227
997.000000	100.006905
996.000000	99.990376
995.000000	99.986395
994.000000	100.007675
993.000000	100.018647
992.000000	100.010775
991.000000	100.011934
990.000000	100.005916
989.000000	100.016773
988.000000	100.015797
987.000000	100.019955
986.000000	100.013364
985.000000	100.014712
984.000000	100.014319
983.000000	100.000097
982.000000	99.997390
981.000000	99.984152
980.000000	99.998068
979.000000	99.989284
978.000000	99.997394
977.000000	100.012445
976.000000	100.003471
975.000000	100.010505
974.000000	100.004431
973.000000	100.008955
972.000000	100.018191
971.000000	99.998653
970.000000	100.017210
969.000000	100.006439
968.000000	100.007973
967.000000	100.002400
966.000000	100.011804
965.000000	100.024847
964.000000	100.011026
963.000000	100.013033
962.000000	100.029025
961.000000	100.013019
960.000000	100.002201
959.000000	100.006790
958.000000	100.013859
957.000000	100.003439
956.000000	99.978426
955.000000	99.990936
954.000000	100.037008
953.000000	100.014773
952.000000	100.009239
951.000000	99.981725
950.000000	99.959572
949.000000	100.008750
948.000000	100.011692
947.000000	100.005699
946.000000	100.009113
945.000000	100.011860
944.000000	100.007396
943.000000	99.992705
942.000000	100.011836
941.000000	100.002271
940.000000	99.994232
939.000000	100.017201
938.000000	100.026537
937.000000	100.000566
936.000000	99.990193
935.000000	100.005655
934.000000	100.010642
933.000000	100.009506
932.000000	100.024550
931.000000	100.012124
930.000000	100.006575
929.000000	100.009199
928.000000	99.986025
927.000000	99.998969
926.000000	99.994756
925.000000	99.985961
924.000000	99.969043
923.000000	99.963737
922.000000	99.994770
921.000000	100.007467
920.000000	100.001958
919.000000	99.982299
918.000000	99.992271
917.000000	100.007723
916.000000	99.983176
915.000000	99.977522
914.000000	100.008447
913.000000	99.984048
912.000000	100.003151
911.000000	100.019543
910.000000	100.016104
909.000000	100.000740
908.000000	100.001477
907.000000	100.010519
906.000000	100.009126
905.000000	100.050485
904.000000	100.009388
903.000000	99.989148
902.000000	100.017367
901.000000	100.023043
900.000000	100.027616
899.000000	100.036563
898.000000	100.060720
897.000000	100.038519
896.000000	100.000183
895.000000	100.035056
894.000000	100.016236
893.000000	99.996445
892.000000	100.026866
891.000000	100.034758
890.000000	99.961279
889.000000	99.956321
888.000000	100.038303
887.000000	100.056762
886.000000	100.066424
885.000000	100.045088
884.000000	100.094617
883.000000	100.004605
882.000000	100.041860
881.000000	99.939716
880.000000	100.001711
879.000000	100.042460
878.000000	100.012127
877.000000	100.031875
876.000000	99.947264
875.000000	99.997849
874.000000	100.035493
873.000000	99.994540
872.000000	99.967198
871.000000	100.015185
870.000000	100.020886
869.000000	99.893206
868.000000	99.955367
867.000000	100.007387
866.000000	99.962040
865.000000	100.043889
864.000000	100.020597
863.000000	99.948685
862.000000	100.009212
861.000000	100.102003
860.000000	100.014860
859.000000	98.992728
858.000000	99.661050
857.000000	99.702198
856.000000	99.907070
855.000000	99.977227
854.000000	100.098630
853.000000	99.524508
852.000000	100.030219
851.000000	100.093199
850.000000	99.573205
849.000000	99.598331
848.000000	99.631324
847.000000	99.847309
846.000000	99.984375
845.000000	99.849116
844.000000	99.847741
843.000000	99.570790
842.000000	100.428500
841.000000	100.207318
840.000000	100.100913
839.000000	99.994724
838.000000	99.804107
837.000000	100.070251
836.000000	100.004577
835.000000	100.037116
834.000000	100.115693
833.000000	99.788174
832.000000	99.888954
831.000000	100.169328
830.000000	99.789375
829.000000	100.161082
828.000000	99.811658
827.000000	99.759878
826.000000	100.088708
825.000000	100.152545
824.000000	99.863978
823.000000	100.149637
822.000000	100.001667
821.000000	99.844588
820.000000	100.082422
819.000000	99.917092
818.000000	99.851912
817.000000	99.830631
816.000000	100.125840
815.000000	99.992543
814.000000	99.779598
813.000000	99.816162
812.000000	100.133934
811.000000	99.800621
810.000000	99.857689
809.000000	99.991926
808.000000	99.885527
807.000000	99.889570
806.000000	99.853212
805.000000	99.870855
804.000000	100.024781
803.000000	99.980670
802.000000	100.003164
801.000000	100.050762
800.000000	100.201146
799.000000	99.973957
798.000000	99.939165
797.000000	99.864300
796.000000	100.016219
795.000000	100.054730
794.000000	99.768561
793.000000	100.097187
792.000000	99.925365
791.000000	100.019342
790.000000	100.075138
789.000000	99.842936
788.000000	99.834283
787.000000	99.879198
786.000000	99.971430
785.000000	100.077512
784.000000	99.979886
783.000000	99.936707
782.000000	99.963456
781.000000	99.968721
780.000000	99.902886
779.000000	99.928358
778.000000	99.890932
777.000000	99.945900
776.000000	99.894884
775.000000	99.832239
774.000000	99.911452
773.000000	100.013010
772.000000	100.019760
771.000000	100.096776
770.000000	100.004994
769.000000	99.922667
768.000000	100.041417
767.000000	99.998928
766.000000	100.034741
765.000000	100.048984
764.000000	99.990791
763.000000	99.951878
762.000000	99.929645
761.000000	99.923246
760.000000	100.011555
759.000000	100.052825
758.000000	100.077620
757.000000	99.953294
756.000000	99.956878
755.000000	100.081079
754.000000	100.042662
753.000000	100.005659
752.000000	100.023106
751.000000	99.976533
750.000000	99.974192
749.000000	99.962202
748.000000	99.987391
747.000000	99.943883
746.000000	99.879293
745.000000	100.045011
744.000000	99.988900
743.000000	100.044328
742.000000	100.078022
741.000000	100.040552
740.000000	100.013998
739.000000	100.071761
738.000000	100.005785
737.000000	100.008319
736.000000	99.949807
735.000000	100.007329
734.000000	99.981085
733.000000	99.925141
732.000000	99.943572
731.000000	99.970270
730.000000	100.065882
729.000000	100.034295
728.000000	99.985756
727.000000	99.954632
726.000000	99.913646
725.000000	99.933829
724.000000	100.005269
723.000000	100.074560
722.000000	100.006275
721.000000	99.977539
720.000000	99.935267
719.000000	99.923787
718.000000	100.054082
717.000000	100.017031
716.000000	99.902572
715.000000	99.985700
714.000000	100.048375
713.000000	100.030249
712.000000	100.069408
711.000000	100.085518
710.000000	100.027007
709.000000	99.926377
708.000000	99.877659
707.000000	99.896889
706.000000	99.883427
705.000000	99.900472
704.000000	99.917433
703.000000	99.949738
702.000000	100.038320
701.000000	100.039886
700.000000	100.052159
699.000000	100.022424
698.000000	99.913528
697.000000	99.931441
696.000000	100.051656
695.000000	100.051033
694.000000	99.968022
693.000000	99.911580
692.000000	99.956083
691.000000	100.059711
690.000000	100.037049
689.000000	100.028885
688.000000	100.053999
687.000000	100.020804
686.000000	99.967833
685.000000	99.902305
684.000000	99.951959
683.000000	99.942132
682.000000	99.992660
681.000000	100.151346
680.000000	100.039851
679.000000	99.937387
678.000000	99.976953
677.000000	100.048602
676.000000	99.965279
675.000000	99.977750
674.000000	99.972602
673.000000	99.952108
672.000000	100.004505
671.000000	99.978399
670.000000	99.992921
669.000000	100.063937
668.000000	100.049977
667.000000	99.984814
666.000000	100.018222
665.000000	99.983157
664.000000	100.006075
663.000000	100.074616
662.000000	100.024599
661.000000	100.025336
660.000000	100.041646
659.000000	99.938214
658.000000	99.965994
657.000000	99.983126
656.000000	99.957870
655.000000	99.960162
654.000000	99.990129
653.000000	100.076966
652.000000	99.951941
651.000000	100.003231
650.000000	99.962069
649.000000	99.973603
648.000000	99.907827
647.000000	99.954303
646.000000	100.002494
645.000000	100.031408
644.000000	99.908133
643.000000	99.951683
642.000000	99.948627
641.000000	99.955091
640.000000	99.956924
639.000000	99.997689
638.000000	99.974486
637.000000	100.019983
636.000000	100.071546
635.000000	100.021747
634.000000	99.945685
633.000000	100.025547
632.000000	99.982042
631.000000	99.946675
630.000000	99.922279
629.000000	99.963700
628.000000	99.971009
627.000000	100.062441
626.000000	99.995275
625.000000	100.025485
624.000000	99.979047
623.000000	100.007506
622.000000	99.955711
621.000000	100.062132
620.000000	99.983589
619.000000	99.962079
618.000000	100.035609
617.000000	100.054388
616.000000	99.992949
615.000000	100.019578
614.000000	100.016805
613.000000	99.947841
612.000000	99.945167
611.000000	99.980509
610.000000	100.042334
609.000000	100.003527
608.000000	99.912303
607.000000	99.903456
606.000000	100.034162
605.000000	100.003156
604.000000	99.981977
603.000000	100.082039
602.000000	99.996189
601.000000	99.948927
600.000000	100.043491
599.000000	100.021745
598.000000	99.971180
597.000000	100.022405
596.000000	99.953051
595.000000	99.941343
594.000000	100.024180
593.000000	100.043229
592.000000	99.946175
591.000000	99.984197
590.000000	99.939188
589.000000	99.943391
588.000000	100.000093
587.000000	100.004092
586.000000	99.981583
585.000000	100.055644
584.000000	99.983619
583.000000	99.974692
582.000000	100.022992
581.000000	100.038332
580.000000	99.966226
579.000000	100.094983
578.000000	99.881751
577.000000	99.994136
576.000000	99.983060
575.000000	100.009777
574.000000	100.017416
573.000000	100.020769
572.000000	99.990408
571.000000	100.030362
570.000000	99.962275
569.000000	99.980626
568.000000	100.011272
567.000000	99.973640
566.000000	100.017608
565.000000	99.984904
564.000000	99.964138
563.000000	100.014625
562.000000	100.074230
561.000000	100.041382
560.000000	99.899723
559.000000	100.017424
558.000000	99.982854
557.000000	100.010997
556.000000	99.959662
555.000000	100.017427
554.000000	99.953400
553.000000	100.037583
552.000000	99.955715
551.000000	99.990677
550.000000	100.001306
549.000000	100.032364
548.000000	99.977708
547.000000	100.026218
546.000000	99.883437
545.000000	99.979934
544.000000	100.039674
543.000000	99.985259
542.000000	99.949980
541.000000	100.076259
540.000000	100.036130
539.000000	99.943360
538.000000	100.035013
537.000000	100.048355
536.000000	99.997199
535.000000	99.974418
534.000000	99.999346
533.000000	99.981231
532.000000	99.942965
531.000000	99.957705
530.000000	99.959102
529.000000	99.984964
528.000000	99.998972
527.000000	99.945262
526.000000	99.999066
525.000000	100.006634
524.000000	99.974408
523.000000	100.093582
522.000000	99.975798
521.000000	99.949644
520.000000	99.951330
519.000000	100.006263
518.000000	99.967566
517.000000	99.987848
516.000000	99.961871
515.000000	99.962061
514.000000	99.998131
513.000000	100.034487
512.000000	100.021588
511.000000	100.022903
510.000000	99.996167
509.000000	99.982891
508.000000	99.989714
507.000000	99.965231
506.000000	99.990933
505.000000	100.031990
504.000000	99.916237
503.000000	99.977844
502.000000	100.041619
501.000000	100.013279
500.000000	100.000374
499.000000	99.975507
498.000000	99.995418
497.000000	100.001402
496.000000	99.975516
495.000000	100.039731
494.000000	100.005515
493.000000	100.005421
492.000000	99.949535
491.000000	99.984943
490.000000	100.049570
489.000000	100.078870
488.000000	100.042948
487.000000	99.977275
486.000000	99.949068
485.000000	99.940387
484.000000	99.988963
483.000000	99.977159
482.000000	99.990829
481.000000	100.018631
480.000000	99.975745
479.000000	100.004872
478.000000	100.012556
477.000000	100.030002
476.000000	100.011157
475.000000	100.052428
474.000000	99.940390
473.000000	99.944792
472.000000	99.989311
471.000000	99.971298
470.000000	99.998404
469.000000	99.983201
468.000000	99.964053
467.000000	99.959267
466.000000	99.975969
465.000000	99.968083
464.000000	99.972959
463.000000	99.988167
462.000000	100.014372
461.000000	100.044529
460.000000	100.057211
459.000000	100.020760
458.000000	100.004884
457.000000	100.018602
456.000000	99.957358
455.000000	99.919625
454.000000	99.975483
453.000000	100.009022
452.000000	100.010433
451.000000	100.032800
450.000000	99.968807
449.000000	99.973217
448.000000	99.996523
447.000000	99.943060
446.000000	100.003385
445.000000	99.933064
444.000000	99.937766
443.000000	99.965673
442.000000	99.956357
441.000000	100.015337
440.000000	100.029932
439.000000	99.983627
438.000000	99.993600
437.000000	99.908259
436.000000	99.876366
435.000000	99.917317
434.000000	99.889730
433.000000	99.931907
432.000000	99.967325
431.000000	100.010361
430.000000	99.946494
429.000000	99.893859
428.000000	100.028834
427.000000	100.055887
426.000000	99.996324
425.000000	100.024230
424.000000	99.988311
423.000000	99.960675
422.000000	99.929614
421.000000	99.966900
420.000000	99.975375
419.000000	99.961130
418.000000	99.989337
417.000000	99.984042
416.000000	100.082451
415.000000	100.048269
414.000000	99.963274
413.000000	100.035493
412.000000	99.967442
411.000000	99.889767
410.000000	99.927036
409.000000	99.911918
408.000000	99.898604
407.000000	100.013701
406.000000	100.046885
405.000000	99.986012
404.000000	100.060592
403.000000	100.011248
402.000000	100.012577
401.000000	99.907704
400.000000	99.984316
399.000000	99.946326
398.000000	100.053518
397.000000	100.003026
396.000000	99.909829
395.000000	99.987705
394.000000	100.035361
393.000000	99.936953
392.000000	100.071836
391.000000	100.065124
390.000000	100.005203
389.000000	100.018528
388.000000	100.050113
387.000000	100.032260
386.000000	100.049299
385.000000	100.003784
384.000000	100.014673
383.000000	100.048167
382.000000	100.110852
381.000000	100.053651
380.000000	100.087158
379.000000	99.952402
378.000000	100.195904
377.000000	100.097923
376.000000	100.039831
375.000000	100.203633
374.000000	100.105495
373.000000	100.123863
372.000000	99.980203
371.000000	99.906573
370.000000	100.147305
369.000000	100.110334
368.000000	100.071726
367.000000	99.912306
366.000000	100.016014
365.000000	100.137744
364.000000	99.946265
363.000000	100.190986
362.000000	99.829627
361.000000	100.148004
360.000000	100.027226
359.000000	99.948748
358.000000	99.969367
357.000000	100.048947
356.000000	100.008581
355.000000	100.160918
354.000000	99.976891
353.000000	100.261904
352.000000	100.009528
351.000000	100.038370
350.000000	99.915817
349.000000	99.933199
348.000000	100.142438
347.000000	100.174432
346.000000	99.765738
345.000000	99.887945
344.000000	100.031274
343.000000	99.822219
342.000000	99.760197
341.000000	100.032205
340.000000	100.068219
339.000000	100.199631
338.000000	100.098555
337.000000	99.700469
336.000000	99.986898
335.000000	99.705520
334.000000	99.682504
333.000000	100.140642
332.000000	99.785276
331.000000	100.220857
330.000000	99.636800
329.000000	99.852283
328.000000	99.713605
327.000000	100.088236
326.000000	100.086337
325.000000	99.939008
324.000000	99.792996
323.000000	99.818544
322.000000	99.875714
321.000000	99.692683
320.000000	99.425456
319.000000	99.591699
318.000000	100.025516
317.000000	100.136255
316.000000	100.289069
315.000000	99.999157
314.000000	99.814003
313.000000	99.961657
312.000000	100.185304
311.000000	100.091717
310.000000	100.017270
309.000000	100.051648
308.000000	100.099925
307.000000	100.137997
306.000000	99.949565
305.000000	99.913597
304.000000	100.084346
303.000000	100.218374
302.000000	100.152897
301.000000	100.511371
300.000000	100.084323
299.000000	100.113542
298.000000	99.982749
297.000000	99.878481
296.000000	100.253420
295.000000	100.164090
294.000000	100.261610
293.000000	99.944326
292.000000	100.157505
291.000000	99.887015
290.000000	100.185325
289.000000	99.994632
288.000000	99.855178
287.000000	100.244174
286.000000	100.115472
285.000000	99.693029
284.000000	99.803661
283.000000	99.755565
282.000000	100.005962
281.000000	100.065727
280.000000	99.966684
279.000000	99.955731
278.000000	99.836225
277.000000	100.132764
276.000000	100.300351
275.000000	99.941251
274.000000	99.879304
273.000000	100.058477
272.000000	100.327281
271.000000	100.192206
270.000000	100.122302
269.000000	100.003796
268.000000	100.052365
267.000000	99.933390
266.000000	100.083362
265.000000	100.055974
264.000000	100.180204
263.000000	100.066151
262.000000	99.895867
261.000000	99.892802
260.000000	99.851426
259.000000	100.042532
258.000000	100.181942
257.000000	100.098235
256.000000	100.019891
255.000000	99.832403
254.000000	99.722543
253.000000	99.696034
252.000000	99.762827
251.000000	99.954150
250.000000	100.073692
249.000000	100.220999
248.000000	100.231643
247.000000	100.155620
246.000000	100.049498
245.000000	100.003918
244.000000	99.951300
243.000000	100.209033
242.000000	99.977055
241.000000	99.973851
240.000000	99.850127
239.000000	100.130106
238.000000	100.326727
237.000000	100.221467
236.000000	100.015102
235.000000	100.082726
234.000000	100.046708
233.000000	99.824870
232.000000	99.835889
231.000000	100.003583
230.000000	100.126385
229.000000	99.914604
228.000000	99.843543
227.000000	99.863410
226.000000	99.798107
225.000000	99.927014
224.000000	100.038277
223.000000	100.089620
222.000000	99.805634
221.000000	99.750044
220.000000	99.957481
219.000000	100.270021
218.000000	100.394136
217.000000	100.490253
216.000000	100.126679
215.000000	99.760388
214.000000	100.254404
213.000000	99.975998
212.000000	99.871411
211.000000	100.261820
210.000000	100.355811
209.000000	100.478656
208.000000	100.419909
207.000000	100.312908
206.000000	100.191806
205.000000	99.953296
204.000000	99.621491
203.000000	99.632055
202.000000	100.414556
201.000000	100.134740
200.000000	100.336098
