PE UV       SUBTECH     SPECTRUM    ASCII       PEDS        4.00        
   -1
RTgAgneauUK 42.Sample.asc
18/03/09
16:30:51.00
18/03/09
16:30:51.00
Administrator

200.000000
1
Lambda 750
750N8071901
PerkinElmer UV WinLab 6.0.4.0738 / 1.61.00 Lambda 900

0
0
3350/servo 860.8/2
0
0
UV/VIS
1
1
1
CommonBeamDepol,150mm sphere / downward view
0
0
0
0
Program
Program
3350/servo 860.8/2
3350/0.2 860.8/0.2
3350/0.2 860.8/0.2
0
1
 
 
 
0
 
860.8
319.2
860.8
Front
100
on
 
 
0
0
0
 
0
 
 
 
0
 
 
0
0
0
0
0
 
 
 
 
0
0


0
0
#HDR
-1
-1
#GR
nm
%R
1.0
0.0
2350.000000
-1.000000
2151
8
70.040726
13.854846
#DATA
2350.000000	25.021917
2349.000000	25.199568
2348.000000	25.240807
2347.000000	25.840190
2346.000000	25.201835
2345.000000	25.440374
2344.000000	25.132816
2343.000000	25.087575
2342.000000	25.441526
2341.000000	25.465641
2340.000000	25.427965
2339.000000	25.959896
2338.000000	25.667736
2337.000000	25.715953
2336.000000	25.484084
2335.000000	26.033055
2334.000000	26.115109
2333.000000	26.144610
2332.000000	26.178564
2331.000000	26.189807
2330.000000	26.213721
2329.000000	26.101058
2328.000000	25.985487
2327.000000	25.804859
2326.000000	25.846794
2325.000000	25.718644
2324.000000	25.806432
2323.000000	25.766212
2322.000000	25.519744
2321.000000	25.659536
2320.000000	25.750748
2319.000000	25.783710
2318.000000	25.661714
2317.000000	25.486195
2316.000000	25.461122
2315.000000	25.474826
2314.000000	25.505120
2313.000000	25.317269
2312.000000	25.313603
2311.000000	25.167952
2310.000000	24.842916
2309.000000	24.960722
2308.000000	24.930933
2307.000000	24.696055
2306.000000	24.933475
2305.000000	24.819165
2304.000000	24.632608
2303.000000	24.546166
2302.000000	24.481038
2301.000000	24.157914
2300.000000	24.086320
2299.000000	24.042212
2298.000000	24.018972
2297.000000	23.831287
2296.000000	23.821722
2295.000000	23.537634
2294.000000	23.423479
2293.000000	23.396244
2292.000000	23.460690
2291.000000	23.368552
2290.000000	23.294642
2289.000000	23.257629
2288.000000	23.187154
2287.000000	23.211004
2286.000000	23.261948
2285.000000	23.189353
2284.000000	23.109331
2283.000000	22.968701
2282.000000	23.107002
2281.000000	23.107847
2280.000000	22.984414
2279.000000	22.825599
2278.000000	22.768413
2277.000000	22.944977
2276.000000	23.015778
2275.000000	23.032833
2274.000000	23.231362
2273.000000	23.326551
2272.000000	23.266265
2271.000000	23.381754
2270.000000	23.350492
2269.000000	23.420909
2268.000000	23.431558
2267.000000	23.462773
2266.000000	23.537845
2265.000000	23.739414
2264.000000	24.023802
2263.000000	24.095756
2262.000000	24.175115
2261.000000	24.361835
2260.000000	24.420815
2259.000000	24.635367
2258.000000	24.911099
2257.000000	25.047365
2256.000000	25.200368
2255.000000	25.533541
2254.000000	25.727430
2253.000000	25.860197
2252.000000	26.079839
2251.000000	26.405833
2250.000000	26.679445
2249.000000	26.823774
2248.000000	27.040572
2247.000000	27.281405
2246.000000	27.655920
2245.000000	27.905676
2244.000000	28.040549
2243.000000	28.324803
2242.000000	28.479474
2241.000000	28.616484
2240.000000	28.756393
2239.000000	28.866367
2238.000000	28.985899
2237.000000	29.127840
2236.000000	29.396226
2235.000000	29.566575
2234.000000	29.655152
2233.000000	29.643273
2232.000000	29.686530
2231.000000	29.834622
2230.000000	29.966043
2229.000000	30.039544
2228.000000	30.007390
2227.000000	29.951120
2226.000000	29.934199
2225.000000	30.022926
2224.000000	30.008099
2223.000000	29.971814
2222.000000	29.966528
2221.000000	29.927349
2220.000000	29.922288
2219.000000	29.874846
2218.000000	29.769851
2217.000000	29.844775
2216.000000	29.866096
2215.000000	29.757721
2214.000000	29.659443
2213.000000	29.660780
2212.000000	29.444619
2211.000000	29.224798
2210.000000	29.140252
2209.000000	29.163874
2208.000000	29.189830
2207.000000	29.048041
2206.000000	28.970190
2205.000000	28.947660
2204.000000	28.896544
2203.000000	28.780507
2202.000000	28.587714
2201.000000	28.578832
2200.000000	28.576330
2199.000000	28.517369
2198.000000	28.444317
2197.000000	28.179960
2196.000000	28.038355
2195.000000	27.984102
2194.000000	27.782549
2193.000000	27.655096
2192.000000	27.726096
2191.000000	27.485704
2190.000000	27.232300
2189.000000	27.306959
2188.000000	27.435274
2187.000000	27.378991
2186.000000	27.270318
2185.000000	27.149128
2184.000000	27.201156
2183.000000	27.173781
2182.000000	27.159965
2181.000000	27.055315
2180.000000	26.918653
2179.000000	26.832542
2178.000000	26.839298
2177.000000	27.020774
2176.000000	26.853626
2175.000000	26.774348
2174.000000	26.935362
2173.000000	26.959382
2172.000000	26.949177
2171.000000	27.016099
2170.000000	26.996886
2169.000000	27.197397
2168.000000	27.305653
2167.000000	27.336539
2166.000000	27.493176
2165.000000	27.497284
2164.000000	27.499498
2163.000000	27.727949
2162.000000	27.930660
2161.000000	28.024616
2160.000000	28.088610
2159.000000	28.219258
2158.000000	28.451140
2157.000000	28.551657
2156.000000	28.684414
2155.000000	28.879278
2154.000000	29.018365
2153.000000	29.283385
2152.000000	29.510676
2151.000000	29.575801
2150.000000	29.734114
2149.000000	29.845432
2148.000000	29.985930
2147.000000	30.183686
2146.000000	30.342807
2145.000000	30.497272
2144.000000	30.686136
2143.000000	30.980393
2142.000000	31.122444
2141.000000	31.130994
2140.000000	31.356753
2139.000000	31.588182
2138.000000	31.573828
2137.000000	31.663964
2136.000000	31.997868
2135.000000	32.008684
2134.000000	32.320295
2133.000000	32.090880
2132.000000	32.423593
2131.000000	32.565800
2130.000000	32.580059
2129.000000	32.656045
2128.000000	32.873058
2127.000000	32.923222
2126.000000	32.752734
2125.000000	32.931127
2124.000000	33.084794
2123.000000	33.038219
2122.000000	33.165206
2121.000000	33.061099
2120.000000	33.028412
2119.000000	33.249907
2118.000000	33.347364
2117.000000	33.373089
2116.000000	33.478448
2115.000000	33.626792
2114.000000	33.620126
2113.000000	33.581648
2112.000000	33.698305
2111.000000	33.595769
2110.000000	33.656270
2109.000000	33.643390
2108.000000	33.624673
2107.000000	33.899619
2106.000000	33.771905
2105.000000	33.728882
2104.000000	33.776671
2103.000000	33.871758
2102.000000	33.878274
2101.000000	33.863102
2100.000000	33.900802
2099.000000	33.848507
2098.000000	33.848426
2097.000000	33.957986
2096.000000	33.940972
2095.000000	33.762996
2094.000000	33.870913
2093.000000	33.866179
2092.000000	33.934327
2091.000000	33.873036
2090.000000	33.716275
2089.000000	33.754961
2088.000000	33.689913
2087.000000	33.635869
2086.000000	33.638590
2085.000000	33.596855
2084.000000	33.481331
2083.000000	33.351102
2082.000000	33.353160
2081.000000	33.229768
2080.000000	33.251549
2079.000000	33.135685
2078.000000	33.007333
2077.000000	32.861607
2076.000000	32.773892
2075.000000	32.672367
2074.000000	32.570755
2073.000000	32.480471
2072.000000	32.320293
2071.000000	32.155372
2070.000000	31.992245
2069.000000	31.827679
2068.000000	31.651013
2067.000000	31.421990
2066.000000	31.270992
2065.000000	31.097018
2064.000000	30.884415
2063.000000	30.695648
2062.000000	30.554959
2061.000000	30.361097
2060.000000	30.123799
2059.000000	29.943428
2058.000000	29.824416
2057.000000	29.630775
2056.000000	29.426100
2055.000000	29.279772
2054.000000	29.129848
2053.000000	28.940581
2052.000000	28.768739
2051.000000	28.585412
2050.000000	28.442205
2049.000000	28.391411
2048.000000	28.287112
2047.000000	28.167010
2046.000000	28.094574
2045.000000	28.025266
2044.000000	27.984445
2043.000000	27.984862
2042.000000	27.962598
2041.000000	27.918430
2040.000000	27.984773
2039.000000	28.038671
2038.000000	28.094672
2037.000000	28.161563
2036.000000	28.177481
2035.000000	28.272774
2034.000000	28.389311
2033.000000	28.509433
2032.000000	28.685011
2031.000000	28.845220
2030.000000	28.976111
2029.000000	29.115584
2028.000000	29.246405
2027.000000	29.341892
2026.000000	29.504090
2025.000000	29.670579
2024.000000	29.758391
2023.000000	29.880046
2022.000000	29.977741
2021.000000	30.032991
2020.000000	30.132067
2019.000000	30.218929
2018.000000	30.244789
2017.000000	30.259216
2016.000000	30.306726
2015.000000	30.324634
2014.000000	30.296562
2013.000000	30.257262
2012.000000	30.255228
2011.000000	30.241031
2010.000000	30.167436
2009.000000	30.125689
2008.000000	30.098049
2007.000000	29.956643
2006.000000	29.855191
2005.000000	29.807026
2004.000000	29.719702
2003.000000	29.601822
2002.000000	29.519326
2001.000000	29.420055
2000.000000	29.297196
1999.000000	29.193222
1998.000000	29.065853
1997.000000	28.942059
1996.000000	28.847251
1995.000000	28.694796
1994.000000	28.587289
1993.000000	28.473526
1992.000000	28.335838
1991.000000	28.203162
1990.000000	28.123701
1989.000000	27.991533
1988.000000	27.823455
1987.000000	27.686177
1986.000000	27.544473
1985.000000	27.428744
1984.000000	27.350145
1983.000000	27.201704
1982.000000	27.070453
1981.000000	26.983653
1980.000000	26.873539
1979.000000	26.731502
1978.000000	26.590305
1977.000000	26.403231
1976.000000	26.240047
1975.000000	26.192956
1974.000000	26.037116
1973.000000	25.966896
1972.000000	25.839362
1971.000000	25.727452
1970.000000	25.617191
1969.000000	25.472940
1968.000000	25.332538
1967.000000	25.225332
1966.000000	25.153339
1965.000000	24.993677
1964.000000	24.843947
1963.000000	24.776458
1962.000000	24.640575
1961.000000	24.548063
1960.000000	24.466030
1959.000000	24.365864
1958.000000	24.247479
1957.000000	24.178554
1956.000000	24.055329
1955.000000	23.902540
1954.000000	23.824695
1953.000000	23.779556
1952.000000	23.719800
1951.000000	23.686139
1950.000000	23.601198
1949.000000	23.587415
1948.000000	23.507144
1947.000000	23.447494
1946.000000	23.476910
1945.000000	23.475614
1944.000000	23.439214
1943.000000	23.408405
1942.000000	23.418518
1941.000000	23.490053
1940.000000	23.535324
1939.000000	23.531923
1938.000000	23.631913
1937.000000	23.713220
1936.000000	23.843212
1935.000000	23.894100
1934.000000	23.999625
1933.000000	24.135808
1932.000000	24.290705
1931.000000	24.478523
1930.000000	24.707383
1929.000000	24.826856
1928.000000	24.993619
1927.000000	25.324618
1926.000000	25.486646
1925.000000	25.778887
1924.000000	26.078486
1923.000000	26.325616
1922.000000	26.636992
1921.000000	26.995395
1920.000000	27.327280
1919.000000	27.643021
1918.000000	28.036735
1917.000000	28.358554
1916.000000	28.687338
1915.000000	29.160021
1914.000000	29.703033
1913.000000	30.140522
1912.000000	30.545383
1911.000000	31.037506
1910.000000	31.466046
1909.000000	31.995875
1908.000000	32.636178
1907.000000	33.181319
1906.000000	33.688942
1905.000000	34.250586
1904.000000	34.952087
1903.000000	35.562012
1902.000000	36.197180
1901.000000	36.869211
1900.000000	37.482188
1899.000000	38.056073
1898.000000	38.830782
1897.000000	39.361558
1896.000000	40.034213
1895.000000	40.676706
1894.000000	41.304284
1893.000000	41.966266
1892.000000	42.625646
1891.000000	43.198471
1890.000000	43.811046
1889.000000	44.370022
1888.000000	44.887141
1887.000000	45.495239
1886.000000	46.051793
1885.000000	46.579389
1884.000000	47.083371
1883.000000	47.585014
1882.000000	48.057999
1881.000000	48.525701
1880.000000	48.962016
1879.000000	49.340523
1878.000000	49.742865
1877.000000	50.173682
1876.000000	50.538761
1875.000000	50.861092
1874.000000	51.158294
1873.000000	51.466437
1872.000000	51.812168
1871.000000	52.042268
1870.000000	52.330658
1869.000000	52.576471
1868.000000	52.719574
1867.000000	52.891156
1866.000000	53.070274
1865.000000	53.196035
1864.000000	53.327716
1863.000000	53.444728
1862.000000	53.569081
1861.000000	53.640857
1860.000000	53.723464
1859.000000	53.764625
1858.000000	53.877968
1857.000000	53.956896
1856.000000	53.974674
1855.000000	54.044700
1854.000000	54.094530
1853.000000	54.152126
1852.000000	54.173605
1851.000000	54.187841
1850.000000	54.211047
1849.000000	54.237134
1848.000000	54.258799
1847.000000	54.265135
1846.000000	54.229746
1845.000000	54.206548
1844.000000	54.175748
1843.000000	54.095169
1842.000000	54.090542
1841.000000	54.090264
1840.000000	54.027494
1839.000000	54.008323
1838.000000	53.980033
1837.000000	53.922026
1836.000000	53.874411
1835.000000	53.795710
1834.000000	53.711020
1833.000000	53.689374
1832.000000	53.661803
1831.000000	53.620385
1830.000000	53.581667
1829.000000	53.527428
1828.000000	53.450613
1827.000000	53.392856
1826.000000	53.359988
1825.000000	53.325760
1824.000000	53.298777
1823.000000	53.233465
1822.000000	53.169161
1821.000000	53.133614
1820.000000	53.082567
1819.000000	53.024693
1818.000000	52.998805
1817.000000	52.958538
1816.000000	52.882460
1815.000000	52.850361
1814.000000	52.813923
1813.000000	52.765921
1812.000000	52.731944
1811.000000	52.668558
1810.000000	52.619398
1809.000000	52.575184
1808.000000	52.525310
1807.000000	52.481311
1806.000000	52.437163
1805.000000	52.398571
1804.000000	52.355227
1803.000000	52.305086
1802.000000	52.262424
1801.000000	52.231637
1800.000000	52.197156
1799.000000	52.154841
1798.000000	52.117946
1797.000000	52.084804
1796.000000	52.053884
1795.000000	52.021255
1794.000000	52.005894
1793.000000	51.955004
1792.000000	51.902916
1791.000000	51.877119
1790.000000	51.836547
1789.000000	51.797425
1788.000000	51.804310
1787.000000	51.764089
1786.000000	51.726672
1785.000000	51.702990
1784.000000	51.644848
1783.000000	51.596593
1782.000000	51.561333
1781.000000	51.512725
1780.000000	51.463156
1779.000000	51.438630
1778.000000	51.370089
1777.000000	51.285910
1776.000000	51.229385
1775.000000	51.154816
1774.000000	51.085837
1773.000000	51.024387
1772.000000	50.958793
1771.000000	50.893738
1770.000000	50.836029
1769.000000	50.738045
1768.000000	50.649809
1767.000000	50.585792
1766.000000	50.504484
1765.000000	50.466987
1764.000000	50.402340
1763.000000	50.303654
1762.000000	50.230380
1761.000000	50.176136
1760.000000	50.097957
1759.000000	50.021102
1758.000000	49.980106
1757.000000	49.888251
1756.000000	49.830193
1755.000000	49.787087
1754.000000	49.701415
1753.000000	49.615055
1752.000000	49.563738
1751.000000	49.489527
1750.000000	49.416981
1749.000000	49.338099
1748.000000	49.232331
1747.000000	49.191036
1746.000000	49.105308
1745.000000	49.014512
1744.000000	48.938786
1743.000000	48.887312
1742.000000	48.791029
1741.000000	48.721102
1740.000000	48.660878
1739.000000	48.616505
1738.000000	48.532954
1737.000000	48.488602
1736.000000	48.420879
1735.000000	48.418788
1734.000000	48.420864
1733.000000	48.376094
1732.000000	48.376412
1731.000000	48.385330
1730.000000	48.428948
1729.000000	48.444915
1728.000000	48.524951
1727.000000	48.567586
1726.000000	48.667000
1725.000000	48.731642
1724.000000	48.808754
1723.000000	48.942287
1722.000000	49.072554
1721.000000	49.203863
1720.000000	49.320212
1719.000000	49.465509
1718.000000	49.567313
1717.000000	49.722478
1716.000000	49.836092
1715.000000	49.952646
1714.000000	50.081748
1713.000000	50.197461
1712.000000	50.281442
1711.000000	50.389638
1710.000000	50.480062
1709.000000	50.572748
1708.000000	50.653327
1707.000000	50.688381
1706.000000	50.755777
1705.000000	50.775035
1704.000000	50.831207
1703.000000	50.854498
1702.000000	50.884804
1701.000000	50.894960
1700.000000	50.925177
1699.000000	50.945769
1698.000000	50.991938
1697.000000	51.019760
1696.000000	51.051541
1695.000000	51.101203
1694.000000	51.139863
1693.000000	51.189036
1692.000000	51.257678
1691.000000	51.338592
1690.000000	51.452246
1689.000000	51.564351
1688.000000	51.696616
1687.000000	51.807762
1686.000000	51.948277
1685.000000	52.127935
1684.000000	52.306721
1683.000000	52.504846
1682.000000	52.703576
1681.000000	52.912804
1680.000000	53.122075
1679.000000	53.336936
1678.000000	53.563063
1677.000000	53.761452
1676.000000	54.018635
1675.000000	54.245309
1674.000000	54.475806
1673.000000	54.686441
1672.000000	54.885371
1671.000000	55.108681
1670.000000	55.302134
1669.000000	55.553331
1668.000000	55.712026
1667.000000	55.901318
1666.000000	56.021648
1665.000000	56.170962
1664.000000	56.292184
1663.000000	56.399060
1662.000000	56.497002
1661.000000	56.605268
1660.000000	56.688210
1659.000000	56.765210
1658.000000	56.829265
1657.000000	56.904268
1656.000000	56.932856
1655.000000	56.980447
1654.000000	57.024162
1653.000000	57.027435
1652.000000	57.069207
1651.000000	57.070177
1650.000000	57.080707
1649.000000	57.065492
1648.000000	57.060600
1647.000000	57.072507
1646.000000	57.038452
1645.000000	57.027285
1644.000000	56.990487
1643.000000	56.972159
1642.000000	56.941211
1641.000000	56.917851
1640.000000	56.878455
1639.000000	56.831921
1638.000000	56.809637
1637.000000	56.766689
1636.000000	56.696003
1635.000000	56.668814
1634.000000	56.621052
1633.000000	56.560801
1632.000000	56.512324
1631.000000	56.467531
1630.000000	56.421336
1629.000000	56.368691
1628.000000	56.310621
1627.000000	56.248667
1626.000000	56.191245
1625.000000	56.134176
1624.000000	56.067348
1623.000000	56.014163
1622.000000	55.948089
1621.000000	55.860859
1620.000000	55.796462
1619.000000	55.730449
1618.000000	55.672585
1617.000000	55.597637
1616.000000	55.535929
1615.000000	55.455713
1614.000000	55.379898
1613.000000	55.312326
1612.000000	55.230801
1611.000000	55.138435
1610.000000	55.064469
1609.000000	54.991376
1608.000000	54.917720
1607.000000	54.830860
1606.000000	54.729254
1605.000000	54.664072
1604.000000	54.600202
1603.000000	54.505603
1602.000000	54.416310
1601.000000	54.338887
1600.000000	54.248855
1599.000000	54.165681
1598.000000	54.081602
1597.000000	54.014126
1596.000000	53.950663
1595.000000	53.867911
1594.000000	53.782029
1593.000000	53.708879
1592.000000	53.645144
1591.000000	53.572346
1590.000000	53.497714
1589.000000	53.419409
1588.000000	53.339519
1587.000000	53.279135
1586.000000	53.215253
1585.000000	53.149370
1584.000000	53.099633
1583.000000	53.037250
1582.000000	52.966130
1581.000000	52.899196
1580.000000	52.827143
1579.000000	52.767293
1578.000000	52.728603
1577.000000	52.654522
1576.000000	52.590647
1575.000000	52.537220
1574.000000	52.473846
1573.000000	52.411871
1572.000000	52.349616
1571.000000	52.284054
1570.000000	52.230727
1569.000000	52.165437
1568.000000	52.116706
1567.000000	52.066786
1566.000000	52.006750
1565.000000	51.970056
1564.000000	51.934056
1563.000000	51.889611
1562.000000	51.848910
1561.000000	51.816237
1560.000000	51.779054
1559.000000	51.743463
1558.000000	51.716956
1557.000000	51.702922
1556.000000	51.671097
1555.000000	51.636214
1554.000000	51.601011
1553.000000	51.553597
1552.000000	51.507038
1551.000000	51.461855
1550.000000	51.428545
1549.000000	51.373607
1548.000000	51.303672
1547.000000	51.219788
1546.000000	51.158932
1545.000000	51.089532
1544.000000	50.989741
1543.000000	50.888448
1542.000000	50.806849
1541.000000	50.692911
1540.000000	50.582825
1539.000000	50.475084
1538.000000	50.345285
1537.000000	50.253645
1536.000000	50.134404
1535.000000	50.013941
1534.000000	49.894794
1533.000000	49.795937
1532.000000	49.682402
1531.000000	49.560213
1530.000000	49.456528
1529.000000	49.348131
1528.000000	49.263269
1527.000000	49.164391
1526.000000	49.072904
1525.000000	48.978526
1524.000000	48.893740
1523.000000	48.827635
1522.000000	48.754469
1521.000000	48.671098
1520.000000	48.613637
1519.000000	48.547880
1518.000000	48.494285
1517.000000	48.438574
1516.000000	48.369011
1515.000000	48.303537
1514.000000	48.278357
1513.000000	48.238128
1512.000000	48.200115
1511.000000	48.198136
1510.000000	48.185489
1509.000000	48.169932
1508.000000	48.133283
1507.000000	48.095707
1506.000000	48.051339
1505.000000	48.027337
1504.000000	48.002729
1503.000000	47.952609
1502.000000	47.933981
1501.000000	47.949142
1500.000000	47.906264
1499.000000	47.902335
1498.000000	47.912155
1497.000000	47.911170
1496.000000	47.912332
1495.000000	47.929734
1494.000000	47.956736
1493.000000	47.977029
1492.000000	47.996617
1491.000000	48.036061
1490.000000	48.093024
1489.000000	48.143763
1488.000000	48.194636
1487.000000	48.238358
1486.000000	48.296904
1485.000000	48.356529
1484.000000	48.429036
1483.000000	48.482651
1482.000000	48.541863
1481.000000	48.614373
1480.000000	48.682465
1479.000000	48.757880
1478.000000	48.813466
1477.000000	48.867414
1476.000000	48.948822
1475.000000	49.015927
1474.000000	49.084531
1473.000000	49.150442
1472.000000	49.194864
1471.000000	49.261315
1470.000000	49.330915
1469.000000	49.411149
1468.000000	49.446773
1467.000000	49.499206
1466.000000	49.570101
1465.000000	49.625608
1464.000000	49.694369
1463.000000	49.757084
1462.000000	49.807065
1461.000000	49.890086
1460.000000	49.961320
1459.000000	50.017520
1458.000000	50.083373
1457.000000	50.153699
1456.000000	50.216278
1455.000000	50.329726
1454.000000	50.399055
1453.000000	50.465040
1452.000000	50.543808
1451.000000	50.622903
1450.000000	50.742872
1449.000000	50.814134
1448.000000	50.888485
1447.000000	50.990534
1446.000000	51.077802
1445.000000	51.186818
1444.000000	51.317146
1443.000000	51.403963
1442.000000	51.530048
1441.000000	51.634055
1440.000000	51.736295
1439.000000	51.867905
1438.000000	51.994136
1437.000000	52.134609
1436.000000	52.285001
1435.000000	52.417711
1434.000000	52.536420
1433.000000	52.676158
1432.000000	52.846079
1431.000000	53.013061
1430.000000	53.172243
1429.000000	53.343191
1428.000000	53.521191
1427.000000	53.690275
1426.000000	53.879436
1425.000000	54.070269
1424.000000	54.281405
1423.000000	54.472494
1422.000000	54.676929
1421.000000	54.889839
1420.000000	55.120052
1419.000000	55.360197
1418.000000	55.585128
1417.000000	55.820559
1416.000000	56.059494
1415.000000	56.300801
1414.000000	56.559088
1413.000000	56.801707
1412.000000	57.053606
1411.000000	57.311723
1410.000000	57.578913
1409.000000	57.828971
1408.000000	58.073532
1407.000000	58.321731
1406.000000	58.547549
1405.000000	58.788366
1404.000000	59.051853
1403.000000	59.302943
1402.000000	59.543362
1401.000000	59.789502
1400.000000	60.020082
1399.000000	60.237482
1398.000000	60.452349
1397.000000	60.656290
1396.000000	60.869631
1395.000000	61.080185
1394.000000	61.273207
1393.000000	61.471081
1392.000000	61.662382
1391.000000	61.839725
1390.000000	62.016920
1389.000000	62.177644
1388.000000	62.340015
1387.000000	62.511598
1386.000000	62.661307
1385.000000	62.786308
1384.000000	62.927417
1383.000000	63.065352
1382.000000	63.193291
1381.000000	63.311301
1380.000000	63.415624
1379.000000	63.536601
1378.000000	63.625297
1377.000000	63.690238
1376.000000	63.777417
1375.000000	63.873029
1374.000000	63.949555
1373.000000	64.006259
1372.000000	64.081510
1371.000000	64.145369
1370.000000	64.195369
1369.000000	64.256337
1368.000000	64.310529
1367.000000	64.366854
1366.000000	64.427323
1365.000000	64.497827
1364.000000	64.577558
1363.000000	64.641281
1362.000000	64.712691
1361.000000	64.792720
1360.000000	64.863683
1359.000000	64.929547
1358.000000	65.010468
1357.000000	65.055916
1356.000000	65.119696
1355.000000	65.224167
1354.000000	65.313877
1353.000000	65.361494
1352.000000	65.428355
1351.000000	65.522305
1350.000000	65.601094
1349.000000	65.657426
1348.000000	65.729310
1347.000000	65.809821
1346.000000	65.866072
1345.000000	65.950294
1344.000000	66.040517
1343.000000	66.085780
1342.000000	66.148333
1341.000000	66.195249
1340.000000	66.262588
1339.000000	66.324950
1338.000000	66.375828
1337.000000	66.450878
1336.000000	66.514630
1335.000000	66.560413
1334.000000	66.608457
1333.000000	66.649999
1332.000000	66.697071
1331.000000	66.733790
1330.000000	66.778916
1329.000000	66.825375
1328.000000	66.855921
1327.000000	66.896882
1326.000000	66.914431
1325.000000	66.955368
1324.000000	66.974190
1323.000000	67.014104
1322.000000	67.045285
1321.000000	67.057684
1320.000000	67.079101
1319.000000	67.127021
1318.000000	67.141839
1317.000000	67.148405
1316.000000	67.181165
1315.000000	67.173537
1314.000000	67.194269
1313.000000	67.257067
1312.000000	67.250058
1311.000000	67.257449
1310.000000	67.293783
1309.000000	67.294947
1308.000000	67.322202
1307.000000	67.341340
1306.000000	67.330701
1305.000000	67.333197
1304.000000	67.371668
1303.000000	67.394123
1302.000000	67.405781
1301.000000	67.396703
1300.000000	67.412845
1299.000000	67.430220
1298.000000	67.418538
1297.000000	67.414936
1296.000000	67.442330
1295.000000	67.437775
1294.000000	67.438631
1293.000000	67.448685
1292.000000	67.428106
1291.000000	67.445709
1290.000000	67.398748
1289.000000	67.382894
1288.000000	67.381352
1287.000000	67.367604
1286.000000	67.372579
1285.000000	67.377820
1284.000000	67.370057
1283.000000	67.371143
1282.000000	67.394872
1281.000000	67.362521
1280.000000	67.366500
1279.000000	67.335575
1278.000000	67.340797
1277.000000	67.348471
1276.000000	67.348590
1275.000000	67.340496
1274.000000	67.357130
1273.000000	67.372567
1272.000000	67.359324
1271.000000	67.361683
1270.000000	67.363396
1269.000000	67.361018
1268.000000	67.397008
1267.000000	67.400741
1266.000000	67.379964
1265.000000	67.419584
1264.000000	67.453258
1263.000000	67.415708
1262.000000	67.442312
1261.000000	67.492093
1260.000000	67.445963
1259.000000	67.479827
1258.000000	67.488583
1257.000000	67.490238
1256.000000	67.522009
1255.000000	67.502554
1254.000000	67.540389
1253.000000	67.505992
1252.000000	67.513544
1251.000000	67.550966
1250.000000	67.533494
1249.000000	67.536259
1248.000000	67.523344
1247.000000	67.505295
1246.000000	67.496271
1245.000000	67.494703
1244.000000	67.459009
1243.000000	67.465415
1242.000000	67.440103
1241.000000	67.414610
1240.000000	67.384027
1239.000000	67.364148
1238.000000	67.343049
1237.000000	67.314267
1236.000000	67.278394
1235.000000	67.243382
1234.000000	67.241827
1233.000000	67.226190
1232.000000	67.192611
1231.000000	67.175136
1230.000000	67.148871
1229.000000	67.116606
1228.000000	67.110993
1227.000000	67.099655
1226.000000	67.064080
1225.000000	67.052307
1224.000000	67.012929
1223.000000	66.992633
1222.000000	66.967605
1221.000000	66.947087
1220.000000	66.928569
1219.000000	66.888248
1218.000000	66.867685
1217.000000	66.858954
1216.000000	66.852440
1215.000000	66.792300
1214.000000	66.773668
1213.000000	66.745412
1212.000000	66.701873
1211.000000	66.680189
1210.000000	66.611587
1209.000000	66.576954
1208.000000	66.540996
1207.000000	66.497765
1206.000000	66.470669
1205.000000	66.407640
1204.000000	66.380840
1203.000000	66.319972
1202.000000	66.286524
1201.000000	66.245675
1200.000000	66.216494
1199.000000	66.174906
1198.000000	66.122870
1197.000000	66.091848
1196.000000	66.059212
1195.000000	66.015275
1194.000000	65.987135
1193.000000	65.961449
1192.000000	65.954904
1191.000000	65.934009
1190.000000	65.891017
1189.000000	65.854440
1188.000000	65.842595
1187.000000	65.831295
1186.000000	65.825204
1185.000000	65.832839
1184.000000	65.834651
1183.000000	65.846373
1182.000000	65.870033
1181.000000	65.893446
1180.000000	65.918144
1179.000000	65.946650
1178.000000	65.989957
1177.000000	66.038258
1176.000000	66.085473
1175.000000	66.138327
1174.000000	66.199170
1173.000000	66.259755
1172.000000	66.317401
1171.000000	66.389045
1170.000000	66.483925
1169.000000	66.556749
1168.000000	66.620237
1167.000000	66.713598
1166.000000	66.802067
1165.000000	66.880427
1164.000000	66.962162
1163.000000	67.051719
1162.000000	67.131975
1161.000000	67.219558
1160.000000	67.316789
1159.000000	67.391078
1158.000000	67.467417
1157.000000	67.543855
1156.000000	67.600417
1155.000000	67.669763
1154.000000	67.752332
1153.000000	67.823817
1152.000000	67.887230
1151.000000	67.957781
1150.000000	68.025252
1149.000000	68.082398
1148.000000	68.135920
1147.000000	68.189410
1146.000000	68.239406
1145.000000	68.292654
1144.000000	68.353964
1143.000000	68.397070
1142.000000	68.435766
1141.000000	68.486397
1140.000000	68.554260
1139.000000	68.614388
1138.000000	68.639924
1137.000000	68.673775
1136.000000	68.724820
1135.000000	68.762624
1134.000000	68.800100
1133.000000	68.845879
1132.000000	68.890942
1131.000000	68.926493
1130.000000	68.968197
1129.000000	68.997579
1128.000000	69.028941
1127.000000	69.055467
1126.000000	69.084745
1125.000000	69.092373
1124.000000	69.104633
1123.000000	69.131904
1122.000000	69.154622
1121.000000	69.165910
1120.000000	69.176085
1119.000000	69.191263
1118.000000	69.211224
1117.000000	69.209753
1116.000000	69.219193
1115.000000	69.248190
1114.000000	69.255138
1113.000000	69.259364
1112.000000	69.255889
1111.000000	69.256606
1110.000000	69.262960
1109.000000	69.270990
1108.000000	69.276975
1107.000000	69.292871
1106.000000	69.294965
1105.000000	69.285027
1104.000000	69.291396
1103.000000	69.310710
1102.000000	69.305818
1101.000000	69.289249
1100.000000	69.289963
1099.000000	69.295008
1098.000000	69.302544
1097.000000	69.313653
1096.000000	69.305440
1095.000000	69.309243
1094.000000	69.312498
1093.000000	69.295868
1092.000000	69.297842
1091.000000	69.312017
1090.000000	69.305274
1089.000000	69.314869
1088.000000	69.332791
1087.000000	69.314758
1086.000000	69.309143
1085.000000	69.284326
1084.000000	69.307132
1083.000000	69.295383
1082.000000	69.274099
1081.000000	69.297559
1080.000000	69.288336
1079.000000	69.253106
1078.000000	69.252747
1077.000000	69.268959
1076.000000	69.260558
1075.000000	69.279249
1074.000000	69.260494
1073.000000	69.248082
1072.000000	69.223975
1071.000000	69.222326
1070.000000	69.222046
1069.000000	69.227644
1068.000000	69.215869
1067.000000	69.200907
1066.000000	69.206226
1065.000000	69.205646
1064.000000	69.167826
1063.000000	69.166449
1062.000000	69.186048
1061.000000	69.155329
1060.000000	69.146604
1059.000000	69.139388
1058.000000	69.114444
1057.000000	69.107535
1056.000000	69.129836
1055.000000	69.112111
1054.000000	69.112431
1053.000000	69.100518
1052.000000	69.075049
1051.000000	69.056222
1050.000000	69.068894
1049.000000	69.060088
1048.000000	69.027906
1047.000000	69.019889
1046.000000	69.042382
1045.000000	69.035402
1044.000000	69.030684
1043.000000	68.989761
1042.000000	68.997476
1041.000000	69.011388
1040.000000	69.039444
1039.000000	69.002323
1038.000000	68.985973
1037.000000	68.999557
1036.000000	68.969846
1035.000000	68.978514
1034.000000	68.968262
1033.000000	68.958909
1032.000000	68.975172
1031.000000	68.956905
1030.000000	68.948161
1029.000000	68.963364
1028.000000	68.961209
1027.000000	68.953736
1026.000000	68.935407
1025.000000	68.937079
1024.000000	68.955255
1023.000000	68.946769
1022.000000	68.952420
1021.000000	68.951665
1020.000000	68.939706
1019.000000	68.948728
1018.000000	68.949107
1017.000000	68.955682
1016.000000	68.962821
1015.000000	68.968128
1014.000000	68.972709
1013.000000	68.962532
1012.000000	68.978544
1011.000000	68.983482
1010.000000	68.997752
1009.000000	68.995668
1008.000000	68.990567
1007.000000	68.993532
1006.000000	69.002678
1005.000000	69.010309
1004.000000	69.019021
1003.000000	69.025920
1002.000000	69.021937
1001.000000	69.026842
1000.000000	69.040833
999.000000	69.035532
998.000000	69.036460
997.000000	69.050486
996.000000	69.050266
995.000000	69.053530
994.000000	69.073748
993.000000	69.074304
992.000000	69.085946
991.000000	69.097347
990.000000	69.089400
989.000000	69.106011
988.000000	69.113334
987.000000	69.112815
986.000000	69.126830
985.000000	69.163019
984.000000	69.168010
983.000000	69.174037
982.000000	69.178569
981.000000	69.173778
980.000000	69.176010
979.000000	69.191251
978.000000	69.200074
977.000000	69.198654
976.000000	69.208933
975.000000	69.212488
974.000000	69.220231
973.000000	69.238856
972.000000	69.272839
971.000000	69.280907
970.000000	69.288593
969.000000	69.288317
968.000000	69.294505
967.000000	69.307509
966.000000	69.307492
965.000000	69.296157
964.000000	69.297676
963.000000	69.314199
962.000000	69.343707
961.000000	69.370708
960.000000	69.374917
959.000000	69.371649
958.000000	69.382706
957.000000	69.405075
956.000000	69.408270
955.000000	69.418438
954.000000	69.430116
953.000000	69.429439
952.000000	69.423325
951.000000	69.423099
950.000000	69.428436
949.000000	69.450810
948.000000	69.460180
947.000000	69.472127
946.000000	69.488800
945.000000	69.497728
944.000000	69.500325
943.000000	69.485876
942.000000	69.492971
941.000000	69.503729
940.000000	69.509153
939.000000	69.520671
938.000000	69.513409
937.000000	69.502433
936.000000	69.461050
935.000000	69.468956
934.000000	69.526879
933.000000	69.522913
932.000000	69.529545
931.000000	69.521344
930.000000	69.507228
929.000000	69.520242
928.000000	69.511411
927.000000	69.516650
926.000000	69.541623
925.000000	69.538251
924.000000	69.513840
923.000000	69.498143
922.000000	69.493381
921.000000	69.486774
920.000000	69.512765
919.000000	69.520067
918.000000	69.518143
917.000000	69.522776
916.000000	69.488304
915.000000	69.501284
914.000000	69.500424
913.000000	69.505963
912.000000	69.519255
911.000000	69.538727
910.000000	69.533447
909.000000	69.516455
908.000000	69.500566
907.000000	69.504891
906.000000	69.472506
905.000000	69.498153
904.000000	69.518354
903.000000	69.514778
902.000000	69.539998
901.000000	69.544479
900.000000	69.558326
899.000000	69.584955
898.000000	69.629439
897.000000	69.608354
896.000000	69.639363
895.000000	69.639230
894.000000	69.630396
893.000000	69.636813
892.000000	69.618279
891.000000	69.585298
890.000000	69.599409
889.000000	69.611885
888.000000	69.671778
887.000000	69.722102
886.000000	69.739081
885.000000	69.741543
884.000000	69.718092
883.000000	69.726265
882.000000	69.764582
881.000000	69.712948
880.000000	69.722998
879.000000	69.719445
878.000000	69.728519
877.000000	69.726686
876.000000	69.710582
875.000000	69.738458
874.000000	69.714235
873.000000	69.728015
872.000000	69.754585
871.000000	69.750997
870.000000	69.785367
869.000000	69.752217
868.000000	69.815884
867.000000	69.707490
866.000000	69.688640
865.000000	69.802227
864.000000	69.766435
863.000000	69.748947
862.000000	69.786703
861.000000	69.610348
860.000000	69.797778
859.000000	69.424671
858.000000	69.970253
857.000000	69.903836
856.000000	69.904847
855.000000	69.767351
854.000000	69.941394
853.000000	69.820224
852.000000	69.596986
851.000000	69.834194
850.000000	70.040726
849.000000	70.012107
848.000000	69.807687
847.000000	69.681303
846.000000	69.602863
845.000000	69.631214
844.000000	69.666244
843.000000	69.684355
842.000000	69.858250
841.000000	69.732715
840.000000	69.508514
839.000000	69.734096
838.000000	69.876333
837.000000	69.631927
836.000000	69.739380
835.000000	69.785934
834.000000	69.828145
833.000000	69.711433
832.000000	69.644180
831.000000	69.804570
830.000000	69.802024
829.000000	69.787177
828.000000	69.784244
827.000000	69.621849
826.000000	69.746036
825.000000	69.567907
824.000000	69.705177
823.000000	69.560069
822.000000	69.689920
821.000000	69.641822
820.000000	69.733419
819.000000	69.819358
818.000000	69.788220
817.000000	69.861650
816.000000	69.678352
815.000000	69.659882
814.000000	69.632053
813.000000	69.733310
812.000000	69.701135
811.000000	69.776661
810.000000	69.847997
809.000000	69.698119
808.000000	69.955267
807.000000	69.795376
806.000000	69.865592
805.000000	69.823989
804.000000	69.884633
803.000000	69.705124
802.000000	69.875245
801.000000	69.854366
800.000000	69.824555
799.000000	69.747974
798.000000	69.762123
797.000000	69.743472
796.000000	69.689404
795.000000	69.778610
794.000000	69.713016
793.000000	69.839815
792.000000	69.726608
791.000000	69.776233
790.000000	69.906171
789.000000	69.875827
788.000000	69.851972
787.000000	69.831242
786.000000	69.869909
785.000000	69.951923
784.000000	69.873804
783.000000	69.884723
782.000000	69.862290
781.000000	69.712321
780.000000	69.810077
779.000000	69.701811
778.000000	69.848064
777.000000	69.865539
776.000000	69.891034
775.000000	69.717988
774.000000	69.787053
773.000000	69.793759
772.000000	69.686666
771.000000	69.741196
770.000000	69.804995
769.000000	69.838634
768.000000	69.798897
767.000000	69.746694
766.000000	69.725088
765.000000	69.749254
764.000000	69.759137
763.000000	69.707434
762.000000	69.781950
761.000000	69.746367
760.000000	69.772551
759.000000	69.716683
758.000000	69.786699
757.000000	69.761329
756.000000	69.774487
755.000000	69.717298
754.000000	69.739859
753.000000	69.766936
752.000000	69.803992
751.000000	69.870798
750.000000	69.763165
749.000000	69.676277
748.000000	69.732535
747.000000	69.776403
746.000000	69.760222
745.000000	69.803090
744.000000	69.858382
743.000000	69.826409
742.000000	69.673626
741.000000	69.603750
740.000000	69.680585
739.000000	69.712578
738.000000	69.802479
737.000000	69.798054
736.000000	69.727680
735.000000	69.714047
734.000000	69.755757
733.000000	69.771605
732.000000	69.734817
731.000000	69.724710
730.000000	69.693632
729.000000	69.684355
728.000000	69.710101
727.000000	69.723112
726.000000	69.725598
725.000000	69.734796
724.000000	69.763310
723.000000	69.734035
722.000000	69.640910
721.000000	69.649847
720.000000	69.730445
719.000000	69.703800
718.000000	69.763812
717.000000	69.753603
716.000000	69.697904
715.000000	69.742402
714.000000	69.690321
713.000000	69.618879
712.000000	69.655125
711.000000	69.732276
710.000000	69.731653
709.000000	69.688552
708.000000	69.636935
707.000000	69.623782
706.000000	69.679460
705.000000	69.680759
704.000000	69.653663
703.000000	69.690018
702.000000	69.738399
701.000000	69.730451
700.000000	69.737241
699.000000	69.708358
698.000000	69.677219
697.000000	69.674805
696.000000	69.667864
695.000000	69.697676
694.000000	69.702162
693.000000	69.664112
692.000000	69.680277
691.000000	69.748448
690.000000	69.738609
689.000000	69.698571
688.000000	69.658087
687.000000	69.680531
686.000000	69.726154
685.000000	69.682729
684.000000	69.664621
683.000000	69.674442
682.000000	69.785543
681.000000	69.757926
680.000000	69.698805
679.000000	69.755744
678.000000	69.742000
677.000000	69.676590
676.000000	69.699788
675.000000	69.699623
674.000000	69.690733
673.000000	69.692962
672.000000	69.715886
671.000000	69.693712
670.000000	69.723428
669.000000	69.711930
668.000000	69.686155
667.000000	69.702357
666.000000	69.701908
665.000000	69.725225
664.000000	69.705850
663.000000	69.665617
662.000000	69.679341
661.000000	69.629543
660.000000	69.612358
659.000000	69.700718
658.000000	69.735496
657.000000	69.734700
656.000000	69.662507
655.000000	69.703091
654.000000	69.689136
653.000000	69.725073
652.000000	69.688934
651.000000	69.659578
650.000000	69.717488
649.000000	69.676190
648.000000	69.660397
647.000000	69.660005
646.000000	69.638193
645.000000	69.690360
644.000000	69.665344
643.000000	69.714105
642.000000	69.746873
641.000000	69.701064
640.000000	69.680781
639.000000	69.687226
638.000000	69.647433
637.000000	69.673857
636.000000	69.635210
635.000000	69.626692
634.000000	69.625602
633.000000	69.658168
632.000000	69.611270
631.000000	69.628554
630.000000	69.638237
629.000000	69.625442
628.000000	69.633179
627.000000	69.588469
626.000000	69.561522
625.000000	69.569471
624.000000	69.591479
623.000000	69.578783
622.000000	69.596166
621.000000	69.593659
620.000000	69.533487
619.000000	69.563522
618.000000	69.531995
617.000000	69.529764
616.000000	69.560717
615.000000	69.557902
614.000000	69.539735
613.000000	69.585301
612.000000	69.551834
611.000000	69.545974
610.000000	69.524744
609.000000	69.488672
608.000000	69.481731
607.000000	69.440676
606.000000	69.495830
605.000000	69.466543
604.000000	69.424258
603.000000	69.436475
602.000000	69.425119
601.000000	69.469329
600.000000	69.383230
599.000000	69.457520
598.000000	69.419525
597.000000	69.407387
596.000000	69.320090
595.000000	69.370761
594.000000	69.394863
593.000000	69.335685
592.000000	69.374888
591.000000	69.292961
590.000000	69.269978
589.000000	69.288445
588.000000	69.248139
587.000000	69.320511
586.000000	69.239277
585.000000	69.281598
584.000000	69.250126
583.000000	69.237604
582.000000	69.212530
581.000000	69.244226
580.000000	69.193559
579.000000	69.102114
578.000000	69.127561
577.000000	69.040482
576.000000	69.136491
575.000000	69.109097
574.000000	68.993177
573.000000	69.097323
572.000000	69.052022
571.000000	69.023958
570.000000	69.067251
569.000000	69.031411
568.000000	69.019530
567.000000	68.996268
566.000000	68.938651
565.000000	68.901921
564.000000	68.924774
563.000000	68.900594
562.000000	68.844343
561.000000	68.798430
560.000000	68.746124
559.000000	68.720880
558.000000	68.686809
557.000000	68.668906
556.000000	68.681541
555.000000	68.604567
554.000000	68.586744
553.000000	68.576732
552.000000	68.554512
551.000000	68.536483
550.000000	68.509374
549.000000	68.437109
548.000000	68.478489
547.000000	68.388721
546.000000	68.398479
545.000000	68.383899
544.000000	68.322141
543.000000	68.271427
542.000000	68.243378
541.000000	68.288087
540.000000	68.210040
539.000000	68.213075
538.000000	68.184300
537.000000	68.150702
536.000000	68.082935
535.000000	68.050945
534.000000	68.058369
533.000000	68.042299
532.000000	67.998634
531.000000	68.020476
530.000000	67.922010
529.000000	67.853438
528.000000	67.886265
527.000000	67.813849
526.000000	67.803545
525.000000	67.810706
524.000000	67.784377
523.000000	67.675807
522.000000	67.652966
521.000000	67.645517
520.000000	67.563209
519.000000	67.510362
518.000000	67.475867
517.000000	67.478563
516.000000	67.435348
515.000000	67.359097
514.000000	67.318176
513.000000	67.300141
512.000000	67.202696
511.000000	67.164020
510.000000	67.132885
509.000000	67.089323
508.000000	67.046718
507.000000	66.992193
506.000000	66.925823
505.000000	66.846937
504.000000	66.833046
503.000000	66.785369
502.000000	66.766584
501.000000	66.668921
500.000000	66.552028
499.000000	66.562085
498.000000	66.493036
497.000000	66.439767
496.000000	66.416554
495.000000	66.384541
494.000000	66.302206
493.000000	66.226031
492.000000	66.184436
491.000000	66.114818
490.000000	66.038092
489.000000	65.995328
488.000000	65.931706
487.000000	65.882605
486.000000	65.820579
485.000000	65.817923
484.000000	65.802919
483.000000	65.769342
482.000000	65.689775
481.000000	65.606721
480.000000	65.593659
479.000000	65.545913
478.000000	65.407066
477.000000	65.333908
476.000000	65.267879
475.000000	65.129252
474.000000	65.046502
473.000000	64.965046
472.000000	64.920342
471.000000	64.872500
470.000000	64.800617
469.000000	64.678158
468.000000	64.564104
467.000000	64.483823
466.000000	64.408455
465.000000	64.307175
464.000000	64.192963
463.000000	64.087815
462.000000	64.018100
461.000000	63.956722
460.000000	63.832416
459.000000	63.747213
458.000000	63.633854
457.000000	63.511312
456.000000	63.454909
455.000000	63.357366
454.000000	63.236028
453.000000	63.140330
452.000000	63.041039
451.000000	62.918093
450.000000	62.793857
449.000000	62.706291
448.000000	62.609538
447.000000	62.441521
446.000000	62.282587
445.000000	62.182460
444.000000	62.026267
443.000000	61.892597
442.000000	61.731384
441.000000	61.648138
440.000000	61.508912
439.000000	61.310363
438.000000	61.145989
437.000000	60.993080
436.000000	60.885095
435.000000	60.759286
434.000000	60.611431
433.000000	60.428111
432.000000	60.232339
431.000000	60.079263
430.000000	59.929928
429.000000	59.719271
428.000000	59.526789
427.000000	59.308557
426.000000	59.121613
425.000000	58.960459
424.000000	58.744983
423.000000	58.579295
422.000000	58.375541
421.000000	58.173820
420.000000	58.020240
419.000000	57.769865
418.000000	57.562728
417.000000	57.331443
416.000000	57.087242
415.000000	56.879123
414.000000	56.693890
413.000000	56.424960
412.000000	56.262552
411.000000	55.966881
410.000000	55.681638
409.000000	55.427257
408.000000	55.210506
407.000000	55.011544
406.000000	54.704635
405.000000	54.433616
404.000000	54.171229
403.000000	53.908426
402.000000	53.702108
401.000000	53.386860
400.000000	53.134441
399.000000	52.850393
398.000000	52.601400
397.000000	52.370836
396.000000	52.077023
395.000000	51.819859
394.000000	51.474892
393.000000	51.289068
392.000000	50.975560
391.000000	50.663823
390.000000	50.305021
389.000000	50.082597
388.000000	49.884026
387.000000	49.451062
386.000000	49.184544
385.000000	48.834904
384.000000	48.611390
383.000000	48.338509
382.000000	47.939102
381.000000	47.643010
380.000000	47.281428
379.000000	47.052074
378.000000	46.699952
377.000000	46.240628
376.000000	46.072435
375.000000	45.685969
374.000000	45.343778
373.000000	44.958703
372.000000	44.803464
371.000000	44.397969
370.000000	44.009254
369.000000	43.670865
368.000000	43.331750
367.000000	43.022255
366.000000	42.543071
365.000000	42.264310
364.000000	41.905683
363.000000	41.476528
362.000000	41.146946
361.000000	40.868013
360.000000	40.582017
359.000000	40.087772
358.000000	39.936276
357.000000	39.573643
356.000000	39.145854
355.000000	38.871395
354.000000	38.527811
353.000000	38.291558
352.000000	37.909220
351.000000	37.655021
350.000000	37.245738
349.000000	36.855309
348.000000	36.604250
347.000000	36.218914
346.000000	35.834570
345.000000	35.446010
344.000000	35.048204
343.000000	34.682553
342.000000	34.123857
341.000000	33.834081
340.000000	33.540426
339.000000	32.948115
338.000000	32.437856
337.000000	31.967015
336.000000	31.478609
335.000000	30.710272
334.000000	30.186429
333.000000	29.778994
332.000000	28.919853
331.000000	28.490370
330.000000	27.798692
329.000000	27.213083
328.000000	26.695927
327.000000	26.119973
326.000000	25.586111
325.000000	25.187271
324.000000	24.539675
323.000000	24.200301
322.000000	23.772967
321.000000	23.466100
320.000000	23.148273
319.000000	22.760806
318.000000	22.380543
317.000000	22.182966
316.000000	21.913729
315.000000	21.741686
314.000000	21.490391
313.000000	21.293121
312.000000	21.116998
311.000000	20.997532
310.000000	20.865443
309.000000	20.548686
308.000000	20.334243
307.000000	20.226333
306.000000	20.072246
305.000000	19.909143
304.000000	19.623411
303.000000	19.442026
302.000000	19.275134
301.000000	19.152017
300.000000	18.900307
299.000000	18.683698
298.000000	18.388481
297.000000	18.232232
296.000000	17.935122
295.000000	17.386188
294.000000	17.004400
293.000000	16.506635
292.000000	16.035986
291.000000	15.463077
290.000000	14.972128
289.000000	14.622150
288.000000	14.303282
287.000000	14.064614
286.000000	13.884454
285.000000	13.854846
284.000000	13.930526
283.000000	13.937997
282.000000	14.043311
281.000000	14.063071
280.000000	14.102813
279.000000	14.274204
278.000000	14.313516
277.000000	14.376358
276.000000	14.515709
275.000000	14.693040
274.000000	14.882730
273.000000	15.081113
272.000000	15.224388
271.000000	15.379558
270.000000	15.414357
269.000000	15.492786
268.000000	15.702196
267.000000	15.846353
266.000000	15.977120
265.000000	16.204283
264.000000	16.413378
263.000000	16.699003
262.000000	16.960786
261.000000	17.114334
260.000000	17.267275
259.000000	17.449210
258.000000	17.707145
257.000000	17.997418
256.000000	18.237590
255.000000	18.394066
254.000000	18.489881
253.000000	18.541821
252.000000	18.570573
251.000000	18.632725
250.000000	18.594646
249.000000	18.379671
248.000000	18.187275
247.000000	17.927148
246.000000	17.572696
245.000000	17.246781
244.000000	16.965480
243.000000	16.625499
242.000000	16.412323
241.000000	16.262310
240.000000	16.125885
239.000000	16.070615
238.000000	16.054379
237.000000	16.160434
236.000000	16.183728
235.000000	16.262711
234.000000	16.353058
233.000000	16.344396
232.000000	16.400746
231.000000	16.523013
230.000000	16.647173
229.000000	16.733172
228.000000	16.815282
227.000000	16.925674
226.000000	17.092343
225.000000	17.195153
224.000000	17.438254
223.000000	17.656503
222.000000	17.859267
221.000000	18.150540
220.000000	18.437861
219.000000	18.722324
218.000000	18.932844
217.000000	19.237427
216.000000	19.608680
215.000000	20.079577
214.000000	20.456349
213.000000	20.859521
212.000000	21.388647
211.000000	21.775787
210.000000	22.296365
209.000000	22.857942
208.000000	23.478861
207.000000	24.016652
206.000000	24.572761
205.000000	25.259558
204.000000	25.864412
203.000000	26.479370
202.000000	27.189366
201.000000	27.979288
200.000000	28.360054
