PE UV       SUBTECH     SPECTRUM    ASCII       PEDS        4.00        
   -1
RTgAgneauUK 52.Sample.asc
18/03/09
16:43:42.00
18/03/09
16:43:42.00
Administrator

200.000000
1
Lambda 750
750N8071901
PerkinElmer UV WinLab 6.0.4.0738 / 1.61.00 Lambda 900

0
0
3350/servo 860.8/2
0
0
UV/VIS
1
1
1
CommonBeamDepol,150mm sphere / downward view
0
0
0
0
Program
Program
3350/servo 860.8/2
3350/0.2 860.8/0.2
3350/0.2 860.8/0.2
0
1
 
 
 
0
 
860.8
319.2
860.8
Front
100
on
 
 
0
0
0
 
0
 
 
 
0
 
 
0
0
0
0
0
 
 
 
 
0
0


0
0
#HDR
-1
-1
#GR
nm
%R
1.0
0.0
2350.000000
-1.000000
2151
8
73.328143
15.581587
#DATA
2350.000000	26.873593
2349.000000	26.775799
2348.000000	26.880278
2347.000000	27.252640
2346.000000	26.927038
2345.000000	26.652310
2344.000000	27.012843
2343.000000	26.896127
2342.000000	26.957313
2341.000000	27.081920
2340.000000	27.320237
2339.000000	27.452945
2338.000000	27.359284
2337.000000	27.340895
2336.000000	27.260537
2335.000000	27.440366
2334.000000	27.407627
2333.000000	27.504509
2332.000000	27.770037
2331.000000	27.470461
2330.000000	27.394065
2329.000000	27.540142
2328.000000	27.558030
2327.000000	27.464210
2326.000000	27.438652
2325.000000	27.519864
2324.000000	27.524719
2323.000000	27.413491
2322.000000	27.160484
2321.000000	27.359390
2320.000000	27.315018
2319.000000	27.346494
2318.000000	27.390687
2317.000000	27.361609
2316.000000	26.935945
2315.000000	26.848073
2314.000000	26.967154
2313.000000	26.994890
2312.000000	26.857468
2311.000000	26.606621
2310.000000	26.490796
2309.000000	26.881943
2308.000000	26.515533
2307.000000	26.217268
2306.000000	26.353748
2305.000000	26.346040
2304.000000	26.316103
2303.000000	26.155654
2302.000000	26.006334
2301.000000	26.027613
2300.000000	25.771816
2299.000000	25.557824
2298.000000	25.458008
2297.000000	25.540837
2296.000000	25.308345
2295.000000	25.211261
2294.000000	25.060725
2293.000000	25.072235
2292.000000	25.002267
2291.000000	24.995715
2290.000000	24.958300
2289.000000	24.944323
2288.000000	24.971543
2287.000000	24.772478
2286.000000	24.633551
2285.000000	24.737665
2284.000000	24.678289
2283.000000	24.515282
2282.000000	24.417719
2281.000000	24.455713
2280.000000	24.428844
2279.000000	24.534844
2278.000000	24.542744
2277.000000	24.533167
2276.000000	24.531900
2275.000000	24.681057
2274.000000	24.777773
2273.000000	24.845118
2272.000000	24.863458
2271.000000	24.804433
2270.000000	24.858824
2269.000000	24.866819
2268.000000	24.865311
2267.000000	25.119211
2266.000000	25.257012
2265.000000	25.219594
2264.000000	25.358945
2263.000000	25.498416
2262.000000	25.614729
2261.000000	25.873951
2260.000000	26.027559
2259.000000	26.222696
2258.000000	26.447147
2257.000000	26.640592
2256.000000	26.815512
2255.000000	26.990688
2254.000000	27.236585
2253.000000	27.383197
2252.000000	27.607307
2251.000000	27.943891
2250.000000	28.232393
2249.000000	28.400139
2248.000000	28.595716
2247.000000	28.884841
2246.000000	29.216173
2245.000000	29.383592
2244.000000	29.615363
2243.000000	29.891239
2242.000000	30.016428
2241.000000	30.143431
2240.000000	30.282332
2239.000000	30.558993
2238.000000	30.722113
2237.000000	30.831459
2236.000000	31.026137
2235.000000	31.083993
2234.000000	31.176120
2233.000000	31.240544
2232.000000	31.272097
2231.000000	31.337358
2230.000000	31.451538
2229.000000	31.630883
2228.000000	31.797762
2227.000000	31.743295
2226.000000	31.634456
2225.000000	31.593678
2224.000000	31.560176
2223.000000	31.573225
2222.000000	31.528844
2221.000000	31.464378
2220.000000	31.463279
2219.000000	31.453653
2218.000000	31.442937
2217.000000	31.448476
2216.000000	31.468626
2215.000000	31.375980
2214.000000	31.244634
2213.000000	31.267930
2212.000000	31.248940
2211.000000	31.095404
2210.000000	30.974763
2209.000000	30.853628
2208.000000	30.762916
2207.000000	30.729453
2206.000000	30.536218
2205.000000	30.493901
2204.000000	30.459097
2203.000000	30.359061
2202.000000	30.274313
2201.000000	30.144644
2200.000000	30.049785
2199.000000	30.037589
2198.000000	29.964039
2197.000000	29.856731
2196.000000	29.764542
2195.000000	29.633563
2194.000000	29.605629
2193.000000	29.483871
2192.000000	29.463690
2191.000000	29.248942
2190.000000	29.200676
2189.000000	28.961276
2188.000000	28.860116
2187.000000	28.782698
2186.000000	28.811375
2185.000000	28.722751
2184.000000	28.687179
2183.000000	28.680071
2182.000000	28.577895
2181.000000	28.509474
2180.000000	28.516808
2179.000000	28.462890
2178.000000	28.205732
2177.000000	28.395798
2176.000000	28.477618
2175.000000	28.473930
2174.000000	28.554262
2173.000000	28.644054
2172.000000	28.386085
2171.000000	28.455441
2170.000000	28.658871
2169.000000	28.906032
2168.000000	28.940852
2167.000000	28.771935
2166.000000	28.979560
2165.000000	29.095960
2164.000000	29.213540
2163.000000	29.260648
2162.000000	29.463025
2161.000000	29.559432
2160.000000	29.759693
2159.000000	30.016988
2158.000000	30.083590
2157.000000	30.215798
2156.000000	30.291398
2155.000000	30.510427
2154.000000	30.766091
2153.000000	30.935474
2152.000000	30.885993
2151.000000	31.130777
2150.000000	31.322253
2149.000000	31.477805
2148.000000	31.792578
2147.000000	31.744076
2146.000000	31.829697
2145.000000	32.248883
2144.000000	32.330875
2143.000000	32.664067
2142.000000	32.756489
2141.000000	32.897609
2140.000000	33.006987
2139.000000	33.237601
2138.000000	33.359530
2137.000000	33.489269
2136.000000	33.516926
2135.000000	33.810334
2134.000000	33.861955
2133.000000	33.821100
2132.000000	34.127525
2131.000000	34.175794
2130.000000	34.381812
2129.000000	34.397486
2128.000000	34.399011
2127.000000	34.646836
2126.000000	34.477059
2125.000000	34.858683
2124.000000	34.890235
2123.000000	34.780281
2122.000000	34.866493
2121.000000	34.789503
2120.000000	34.964970
2119.000000	35.194326
2118.000000	35.209599
2117.000000	35.136986
2116.000000	35.278847
2115.000000	35.261169
2114.000000	35.380585
2113.000000	35.432031
2112.000000	35.460156
2111.000000	35.309831
2110.000000	35.398175
2109.000000	35.446561
2108.000000	35.470756
2107.000000	35.560811
2106.000000	35.632176
2105.000000	35.551815
2104.000000	35.608393
2103.000000	35.606455
2102.000000	35.680522
2101.000000	35.574276
2100.000000	35.508327
2099.000000	35.639899
2098.000000	35.717636
2097.000000	35.623258
2096.000000	35.626111
2095.000000	35.559121
2094.000000	35.591247
2093.000000	35.582917
2092.000000	35.673547
2091.000000	35.612220
2090.000000	35.508013
2089.000000	35.559177
2088.000000	35.490417
2087.000000	35.377628
2086.000000	35.466408
2085.000000	35.478953
2084.000000	35.423815
2083.000000	35.201461
2082.000000	35.143402
2081.000000	35.063519
2080.000000	35.005415
2079.000000	34.933581
2078.000000	34.827964
2077.000000	34.700766
2076.000000	34.544841
2075.000000	34.378283
2074.000000	34.234745
2073.000000	34.187472
2072.000000	34.030566
2071.000000	33.707297
2070.000000	33.615376
2069.000000	33.512167
2068.000000	33.370766
2067.000000	33.184579
2066.000000	32.993193
2065.000000	32.843335
2064.000000	32.661111
2063.000000	32.398191
2062.000000	32.234618
2061.000000	32.059700
2060.000000	31.816679
2059.000000	31.644929
2058.000000	31.481760
2057.000000	31.329617
2056.000000	31.171092
2055.000000	31.003185
2054.000000	30.747809
2053.000000	30.617140
2052.000000	30.478558
2051.000000	30.286067
2050.000000	30.130521
2049.000000	30.007507
2048.000000	29.899263
2047.000000	29.855215
2046.000000	29.762053
2045.000000	29.678209
2044.000000	29.597389
2043.000000	29.594485
2042.000000	29.567116
2041.000000	29.562422
2040.000000	29.594647
2039.000000	29.615359
2038.000000	29.702172
2037.000000	29.783526
2036.000000	29.801790
2035.000000	29.913537
2034.000000	30.071617
2033.000000	30.193435
2032.000000	30.329391
2031.000000	30.443851
2030.000000	30.555362
2029.000000	30.693947
2028.000000	30.803695
2027.000000	30.927291
2026.000000	31.111869
2025.000000	31.300115
2024.000000	31.470168
2023.000000	31.546982
2022.000000	31.602197
2021.000000	31.697805
2020.000000	31.730344
2019.000000	31.759330
2018.000000	31.816956
2017.000000	31.856107
2016.000000	31.891378
2015.000000	31.926340
2014.000000	31.920789
2013.000000	31.866729
2012.000000	31.845228
2011.000000	31.840766
2010.000000	31.821691
2009.000000	31.757597
2008.000000	31.664340
2007.000000	31.538740
2006.000000	31.486637
2005.000000	31.400051
2004.000000	31.294166
2003.000000	31.208261
2002.000000	31.111127
2001.000000	31.003653
2000.000000	30.890940
1999.000000	30.768927
1998.000000	30.661621
1997.000000	30.545447
1996.000000	30.433613
1995.000000	30.302442
1994.000000	30.144373
1993.000000	30.042185
1992.000000	29.885864
1991.000000	29.741910
1990.000000	29.650233
1989.000000	29.521751
1988.000000	29.387713
1987.000000	29.235923
1986.000000	29.058446
1985.000000	28.951225
1984.000000	28.876977
1983.000000	28.735986
1982.000000	28.593780
1981.000000	28.478876
1980.000000	28.326606
1979.000000	28.181756
1978.000000	28.077427
1977.000000	27.919068
1976.000000	27.797490
1975.000000	27.674302
1974.000000	27.548297
1973.000000	27.444299
1972.000000	27.318213
1971.000000	27.172948
1970.000000	27.061508
1969.000000	26.925112
1968.000000	26.840689
1967.000000	26.734726
1966.000000	26.599308
1965.000000	26.468148
1964.000000	26.375745
1963.000000	26.234123
1962.000000	26.069372
1961.000000	25.969289
1960.000000	25.883106
1959.000000	25.793448
1958.000000	25.692732
1957.000000	25.547487
1956.000000	25.448652
1955.000000	25.360668
1954.000000	25.345223
1953.000000	25.247898
1952.000000	25.132448
1951.000000	25.073406
1950.000000	25.005381
1949.000000	24.899354
1948.000000	24.929388
1947.000000	24.847582
1946.000000	24.844255
1945.000000	24.883330
1944.000000	24.854374
1943.000000	24.830720
1942.000000	24.883104
1941.000000	24.873799
1940.000000	24.886859
1939.000000	24.972519
1938.000000	25.076967
1937.000000	25.161219
1936.000000	25.229259
1935.000000	25.311186
1934.000000	25.355172
1933.000000	25.580677
1932.000000	25.664556
1931.000000	25.895282
1930.000000	26.134230
1929.000000	26.162785
1928.000000	26.448371
1927.000000	26.683209
1926.000000	26.973239
1925.000000	27.203505
1924.000000	27.400768
1923.000000	27.768206
1922.000000	28.110325
1921.000000	28.522135
1920.000000	28.858636
1919.000000	29.194640
1918.000000	29.571278
1917.000000	29.941299
1916.000000	30.241797
1915.000000	30.757907
1914.000000	31.205473
1913.000000	31.776819
1912.000000	32.115868
1911.000000	32.536807
1910.000000	33.147553
1909.000000	33.689731
1908.000000	34.237641
1907.000000	34.819052
1906.000000	35.384921
1905.000000	35.958328
1904.000000	36.660184
1903.000000	37.249088
1902.000000	37.911430
1901.000000	38.562481
1900.000000	39.260384
1899.000000	39.869440
1898.000000	40.573559
1897.000000	41.261954
1896.000000	41.940908
1895.000000	42.650330
1894.000000	43.278684
1893.000000	43.917988
1892.000000	44.634546
1891.000000	45.231162
1890.000000	45.873509
1889.000000	46.401339
1888.000000	47.053536
1887.000000	47.640685
1886.000000	48.235040
1885.000000	48.759270
1884.000000	49.276456
1883.000000	49.818649
1882.000000	50.244654
1881.000000	50.765675
1880.000000	51.215022
1879.000000	51.672453
1878.000000	52.115887
1877.000000	52.497072
1876.000000	52.831168
1875.000000	53.226312
1874.000000	53.578154
1873.000000	53.884773
1872.000000	54.171145
1871.000000	54.519301
1870.000000	54.793666
1869.000000	55.023496
1868.000000	55.229656
1867.000000	55.400174
1866.000000	55.559027
1865.000000	55.698827
1864.000000	55.825708
1863.000000	55.958807
1862.000000	56.083408
1861.000000	56.211811
1860.000000	56.308562
1859.000000	56.395410
1858.000000	56.420238
1857.000000	56.527175
1856.000000	56.577545
1855.000000	56.621565
1854.000000	56.657234
1853.000000	56.712553
1852.000000	56.715086
1851.000000	56.770532
1850.000000	56.799320
1849.000000	56.810159
1848.000000	56.818938
1847.000000	56.826022
1846.000000	56.804550
1845.000000	56.768234
1844.000000	56.770696
1843.000000	56.730495
1842.000000	56.708139
1841.000000	56.683406
1840.000000	56.619587
1839.000000	56.577613
1838.000000	56.548114
1837.000000	56.500979
1836.000000	56.462967
1835.000000	56.412530
1834.000000	56.327663
1833.000000	56.297834
1832.000000	56.254567
1831.000000	56.182068
1830.000000	56.137295
1829.000000	56.094446
1828.000000	56.031671
1827.000000	55.992121
1826.000000	55.940773
1825.000000	55.868674
1824.000000	55.836390
1823.000000	55.799203
1822.000000	55.723785
1821.000000	55.667563
1820.000000	55.614720
1819.000000	55.568310
1818.000000	55.537679
1817.000000	55.512520
1816.000000	55.445365
1815.000000	55.394830
1814.000000	55.361604
1813.000000	55.294254
1812.000000	55.250860
1811.000000	55.199123
1810.000000	55.143654
1809.000000	55.106427
1808.000000	55.061895
1807.000000	55.002872
1806.000000	54.962276
1805.000000	54.918874
1804.000000	54.874415
1803.000000	54.829527
1802.000000	54.783985
1801.000000	54.746799
1800.000000	54.693319
1799.000000	54.643689
1798.000000	54.616967
1797.000000	54.571739
1796.000000	54.543532
1795.000000	54.511856
1794.000000	54.487709
1793.000000	54.449383
1792.000000	54.404586
1791.000000	54.380788
1790.000000	54.332304
1789.000000	54.296777
1788.000000	54.282579
1787.000000	54.231880
1786.000000	54.183990
1785.000000	54.152019
1784.000000	54.110577
1783.000000	54.066070
1782.000000	54.039930
1781.000000	53.997194
1780.000000	53.918211
1779.000000	53.872823
1778.000000	53.835642
1777.000000	53.751255
1776.000000	53.666291
1775.000000	53.592890
1774.000000	53.525199
1773.000000	53.467509
1772.000000	53.393153
1771.000000	53.344530
1770.000000	53.281388
1769.000000	53.180649
1768.000000	53.079725
1767.000000	53.009629
1766.000000	52.956614
1765.000000	52.878353
1764.000000	52.817902
1763.000000	52.726207
1762.000000	52.661418
1761.000000	52.600843
1760.000000	52.488403
1759.000000	52.439238
1758.000000	52.371865
1757.000000	52.297743
1756.000000	52.256579
1755.000000	52.182483
1754.000000	52.090705
1753.000000	52.028751
1752.000000	51.961180
1751.000000	51.870451
1750.000000	51.787422
1749.000000	51.712360
1748.000000	51.608190
1747.000000	51.566609
1746.000000	51.474894
1745.000000	51.384035
1744.000000	51.307966
1743.000000	51.254305
1742.000000	51.161400
1741.000000	51.096401
1740.000000	51.022778
1739.000000	50.945558
1738.000000	50.889518
1737.000000	50.838924
1736.000000	50.775979
1735.000000	50.765661
1734.000000	50.750408
1733.000000	50.713883
1732.000000	50.712160
1731.000000	50.756299
1730.000000	50.773864
1729.000000	50.816886
1728.000000	50.853070
1727.000000	50.946611
1726.000000	51.020573
1725.000000	51.060228
1724.000000	51.182444
1723.000000	51.281273
1722.000000	51.431211
1721.000000	51.548162
1720.000000	51.721304
1719.000000	51.869379
1718.000000	51.952302
1717.000000	52.107021
1716.000000	52.239463
1715.000000	52.315891
1714.000000	52.469122
1713.000000	52.608381
1712.000000	52.709544
1711.000000	52.800009
1710.000000	52.894489
1709.000000	52.983027
1708.000000	53.077008
1707.000000	53.125009
1706.000000	53.212772
1705.000000	53.197476
1704.000000	53.282983
1703.000000	53.310710
1702.000000	53.332423
1701.000000	53.348538
1700.000000	53.359706
1699.000000	53.398779
1698.000000	53.416373
1697.000000	53.429568
1696.000000	53.504376
1695.000000	53.518203
1694.000000	53.547365
1693.000000	53.644204
1692.000000	53.668235
1691.000000	53.768957
1690.000000	53.873077
1689.000000	54.009817
1688.000000	54.111927
1687.000000	54.261481
1686.000000	54.396761
1685.000000	54.585237
1684.000000	54.752131
1683.000000	54.954961
1682.000000	55.174524
1681.000000	55.404838
1680.000000	55.615344
1679.000000	55.836210
1678.000000	56.058477
1677.000000	56.275458
1676.000000	56.531389
1675.000000	56.790288
1674.000000	57.014113
1673.000000	57.239692
1672.000000	57.467853
1671.000000	57.686360
1670.000000	57.893082
1669.000000	58.135822
1668.000000	58.316244
1667.000000	58.519755
1666.000000	58.656409
1665.000000	58.803619
1664.000000	58.940667
1663.000000	59.022925
1662.000000	59.141093
1661.000000	59.282062
1660.000000	59.373082
1659.000000	59.472447
1658.000000	59.537938
1657.000000	59.604919
1656.000000	59.628009
1655.000000	59.666673
1654.000000	59.709292
1653.000000	59.734261
1652.000000	59.773962
1651.000000	59.775785
1650.000000	59.782314
1649.000000	59.778340
1648.000000	59.765574
1647.000000	59.759103
1646.000000	59.763758
1645.000000	59.720221
1644.000000	59.694329
1643.000000	59.669703
1642.000000	59.627691
1641.000000	59.586931
1640.000000	59.570310
1639.000000	59.536181
1638.000000	59.487312
1637.000000	59.444956
1636.000000	59.385747
1635.000000	59.347198
1634.000000	59.284960
1633.000000	59.246162
1632.000000	59.196979
1631.000000	59.148151
1630.000000	59.101628
1629.000000	59.047728
1628.000000	58.984707
1627.000000	58.907551
1626.000000	58.851250
1625.000000	58.788118
1624.000000	58.732571
1623.000000	58.680473
1622.000000	58.615634
1621.000000	58.522252
1620.000000	58.456238
1619.000000	58.382022
1618.000000	58.310044
1617.000000	58.242905
1616.000000	58.177585
1615.000000	58.091517
1614.000000	58.014654
1613.000000	57.932450
1612.000000	57.840516
1611.000000	57.759560
1610.000000	57.690958
1609.000000	57.616219
1608.000000	57.530192
1607.000000	57.440250
1606.000000	57.340377
1605.000000	57.246772
1604.000000	57.168304
1603.000000	57.080075
1602.000000	57.011891
1601.000000	56.926275
1600.000000	56.818800
1599.000000	56.738967
1598.000000	56.652607
1597.000000	56.571418
1596.000000	56.494936
1595.000000	56.407195
1594.000000	56.321913
1593.000000	56.249122
1592.000000	56.184883
1591.000000	56.098057
1590.000000	56.022052
1589.000000	55.947591
1588.000000	55.869904
1587.000000	55.820347
1586.000000	55.741057
1585.000000	55.651682
1584.000000	55.595676
1583.000000	55.543189
1582.000000	55.474234
1581.000000	55.402241
1580.000000	55.333467
1579.000000	55.254911
1578.000000	55.205320
1577.000000	55.133080
1576.000000	55.057992
1575.000000	54.996412
1574.000000	54.928538
1573.000000	54.867558
1572.000000	54.805203
1571.000000	54.746145
1570.000000	54.682034
1569.000000	54.625063
1568.000000	54.570969
1567.000000	54.514832
1566.000000	54.470169
1565.000000	54.407114
1564.000000	54.363550
1563.000000	54.341220
1562.000000	54.289872
1561.000000	54.243646
1560.000000	54.216809
1559.000000	54.177825
1558.000000	54.145008
1557.000000	54.115411
1556.000000	54.085925
1555.000000	54.059082
1554.000000	54.018999
1553.000000	53.971774
1552.000000	53.930847
1551.000000	53.890803
1550.000000	53.837558
1549.000000	53.778303
1548.000000	53.722468
1547.000000	53.653909
1546.000000	53.580970
1545.000000	53.503304
1544.000000	53.407008
1543.000000	53.298189
1542.000000	53.202341
1541.000000	53.100144
1540.000000	52.990304
1539.000000	52.876268
1538.000000	52.761272
1537.000000	52.635338
1536.000000	52.504685
1535.000000	52.400718
1534.000000	52.272867
1533.000000	52.162462
1532.000000	52.030649
1531.000000	51.923120
1530.000000	51.787715
1529.000000	51.682815
1528.000000	51.589767
1527.000000	51.488614
1526.000000	51.381727
1525.000000	51.290560
1524.000000	51.195164
1523.000000	51.137399
1522.000000	51.057463
1521.000000	50.976178
1520.000000	50.909794
1519.000000	50.837346
1518.000000	50.782640
1517.000000	50.719780
1516.000000	50.650395
1515.000000	50.591317
1514.000000	50.546666
1513.000000	50.497322
1512.000000	50.506341
1511.000000	50.517475
1510.000000	50.488987
1509.000000	50.452439
1508.000000	50.407820
1507.000000	50.368912
1506.000000	50.333122
1505.000000	50.285880
1504.000000	50.274524
1503.000000	50.231485
1502.000000	50.216263
1501.000000	50.192083
1500.000000	50.178019
1499.000000	50.182667
1498.000000	50.183180
1497.000000	50.175682
1496.000000	50.201768
1495.000000	50.188004
1494.000000	50.230712
1493.000000	50.232668
1492.000000	50.260564
1491.000000	50.291330
1490.000000	50.346296
1489.000000	50.410347
1488.000000	50.455307
1487.000000	50.498744
1486.000000	50.552174
1485.000000	50.614035
1484.000000	50.703915
1483.000000	50.771352
1482.000000	50.811108
1481.000000	50.914509
1480.000000	50.955711
1479.000000	51.034275
1478.000000	51.120394
1477.000000	51.175809
1476.000000	51.254042
1475.000000	51.313039
1474.000000	51.389767
1473.000000	51.468521
1472.000000	51.523068
1471.000000	51.582031
1470.000000	51.659911
1469.000000	51.716152
1468.000000	51.777740
1467.000000	51.871084
1466.000000	51.941033
1465.000000	52.003252
1464.000000	52.046308
1463.000000	52.106873
1462.000000	52.178936
1461.000000	52.252456
1460.000000	52.319780
1459.000000	52.380717
1458.000000	52.454877
1457.000000	52.532911
1456.000000	52.618756
1455.000000	52.687248
1454.000000	52.766217
1453.000000	52.868401
1452.000000	52.954719
1451.000000	53.031522
1450.000000	53.132891
1449.000000	53.194493
1448.000000	53.304256
1447.000000	53.435242
1446.000000	53.535972
1445.000000	53.629506
1444.000000	53.735775
1443.000000	53.849881
1442.000000	53.972651
1441.000000	54.100460
1440.000000	54.200000
1439.000000	54.345388
1438.000000	54.490264
1437.000000	54.625011
1436.000000	54.763111
1435.000000	54.901391
1434.000000	55.031917
1433.000000	55.189232
1432.000000	55.356301
1431.000000	55.525880
1430.000000	55.707797
1429.000000	55.873798
1428.000000	56.056872
1427.000000	56.238420
1426.000000	56.437003
1425.000000	56.639797
1424.000000	56.833753
1423.000000	57.034300
1422.000000	57.256028
1421.000000	57.489113
1420.000000	57.723794
1419.000000	57.966683
1418.000000	58.202150
1417.000000	58.454168
1416.000000	58.699815
1415.000000	58.941949
1414.000000	59.203603
1413.000000	59.463492
1412.000000	59.723667
1411.000000	59.993715
1410.000000	60.257887
1409.000000	60.522720
1408.000000	60.785516
1407.000000	61.045757
1406.000000	61.300524
1405.000000	61.555392
1404.000000	61.803125
1403.000000	62.057523
1402.000000	62.306473
1401.000000	62.556561
1400.000000	62.799614
1399.000000	63.030400
1398.000000	63.248319
1397.000000	63.474823
1396.000000	63.699048
1395.000000	63.912776
1394.000000	64.113214
1393.000000	64.325429
1392.000000	64.516492
1391.000000	64.709193
1390.000000	64.900373
1389.000000	65.072605
1388.000000	65.246338
1387.000000	65.416956
1386.000000	65.579358
1385.000000	65.724893
1384.000000	65.865767
1383.000000	65.990348
1382.000000	66.124263
1381.000000	66.263002
1380.000000	66.382705
1379.000000	66.490620
1378.000000	66.580381
1377.000000	66.655311
1376.000000	66.748640
1375.000000	66.855112
1374.000000	66.946044
1373.000000	67.009180
1372.000000	67.075354
1371.000000	67.133079
1370.000000	67.192419
1369.000000	67.253456
1368.000000	67.309651
1367.000000	67.375721
1366.000000	67.434756
1365.000000	67.497946
1364.000000	67.596785
1363.000000	67.673280
1362.000000	67.712578
1361.000000	67.772446
1360.000000	67.839143
1359.000000	67.908069
1358.000000	67.984105
1357.000000	68.046635
1356.000000	68.121823
1355.000000	68.219501
1354.000000	68.307803
1353.000000	68.368545
1352.000000	68.425731
1351.000000	68.536402
1350.000000	68.624521
1349.000000	68.662886
1348.000000	68.734801
1347.000000	68.844054
1346.000000	68.905591
1345.000000	68.981899
1344.000000	69.060876
1343.000000	69.130243
1342.000000	69.199564
1341.000000	69.262772
1340.000000	69.325895
1339.000000	69.396465
1338.000000	69.460684
1337.000000	69.526397
1336.000000	69.586004
1335.000000	69.619997
1334.000000	69.669597
1333.000000	69.727018
1332.000000	69.754096
1331.000000	69.802199
1330.000000	69.844326
1329.000000	69.888172
1328.000000	69.919900
1327.000000	69.961300
1326.000000	69.996251
1325.000000	70.036082
1324.000000	70.052479
1323.000000	70.078448
1322.000000	70.108071
1321.000000	70.145764
1320.000000	70.155530
1319.000000	70.192822
1318.000000	70.201516
1317.000000	70.230954
1316.000000	70.253132
1315.000000	70.273434
1314.000000	70.269671
1313.000000	70.329396
1312.000000	70.341113
1311.000000	70.339902
1310.000000	70.383006
1309.000000	70.417023
1308.000000	70.414424
1307.000000	70.438491
1306.000000	70.449179
1305.000000	70.474201
1304.000000	70.476770
1303.000000	70.487738
1302.000000	70.491304
1301.000000	70.498250
1300.000000	70.541164
1299.000000	70.546291
1298.000000	70.534954
1297.000000	70.561419
1296.000000	70.552074
1295.000000	70.556428
1294.000000	70.564239
1293.000000	70.553665
1292.000000	70.557496
1291.000000	70.550550
1290.000000	70.532954
1289.000000	70.526720
1288.000000	70.492436
1287.000000	70.488455
1286.000000	70.477975
1285.000000	70.498016
1284.000000	70.501851
1283.000000	70.491904
1282.000000	70.513836
1281.000000	70.503289
1280.000000	70.497153
1279.000000	70.486179
1278.000000	70.452666
1277.000000	70.465398
1276.000000	70.473004
1275.000000	70.466711
1274.000000	70.467438
1273.000000	70.475788
1272.000000	70.474017
1271.000000	70.476870
1270.000000	70.485938
1269.000000	70.479307
1268.000000	70.495101
1267.000000	70.537526
1266.000000	70.527080
1265.000000	70.527271
1264.000000	70.549889
1263.000000	70.547729
1262.000000	70.553385
1261.000000	70.599730
1260.000000	70.601975
1259.000000	70.604912
1258.000000	70.609733
1257.000000	70.597177
1256.000000	70.622002
1255.000000	70.617705
1254.000000	70.669754
1253.000000	70.637708
1252.000000	70.665524
1251.000000	70.646150
1250.000000	70.654272
1249.000000	70.652577
1248.000000	70.655143
1247.000000	70.636510
1246.000000	70.630210
1245.000000	70.636957
1244.000000	70.623042
1243.000000	70.600778
1242.000000	70.569141
1241.000000	70.541802
1240.000000	70.519174
1239.000000	70.502010
1238.000000	70.506769
1237.000000	70.443336
1236.000000	70.414085
1235.000000	70.393374
1234.000000	70.344312
1233.000000	70.340029
1232.000000	70.325050
1231.000000	70.307103
1230.000000	70.296672
1229.000000	70.236027
1228.000000	70.224998
1227.000000	70.202349
1226.000000	70.190314
1225.000000	70.174844
1224.000000	70.136120
1223.000000	70.095831
1222.000000	70.080046
1221.000000	70.059295
1220.000000	70.038758
1219.000000	70.001908
1218.000000	69.969205
1217.000000	69.956173
1216.000000	69.936525
1215.000000	69.910012
1214.000000	69.883607
1213.000000	69.830036
1212.000000	69.796242
1211.000000	69.755061
1210.000000	69.726514
1209.000000	69.689444
1208.000000	69.667336
1207.000000	69.610466
1206.000000	69.568521
1205.000000	69.521385
1204.000000	69.496424
1203.000000	69.448953
1202.000000	69.395148
1201.000000	69.357690
1200.000000	69.327984
1199.000000	69.272105
1198.000000	69.228986
1197.000000	69.202695
1196.000000	69.176022
1195.000000	69.142618
1194.000000	69.114277
1193.000000	69.089165
1192.000000	69.043280
1191.000000	69.011594
1190.000000	68.982610
1189.000000	68.947193
1188.000000	68.945058
1187.000000	68.934758
1186.000000	68.924284
1185.000000	68.928279
1184.000000	68.931980
1183.000000	68.938552
1182.000000	68.954471
1181.000000	68.978804
1180.000000	68.999505
1179.000000	69.032306
1178.000000	69.081186
1177.000000	69.105260
1176.000000	69.142908
1175.000000	69.214219
1174.000000	69.277369
1173.000000	69.334651
1172.000000	69.397945
1171.000000	69.470821
1170.000000	69.548037
1169.000000	69.628771
1168.000000	69.712453
1167.000000	69.799613
1166.000000	69.883049
1165.000000	69.966609
1164.000000	70.050390
1163.000000	70.143253
1162.000000	70.234998
1161.000000	70.311097
1160.000000	70.395140
1159.000000	70.485486
1158.000000	70.571826
1157.000000	70.649775
1156.000000	70.728359
1155.000000	70.817028
1154.000000	70.894363
1153.000000	70.960219
1152.000000	71.029867
1151.000000	71.102603
1150.000000	71.156796
1149.000000	71.218472
1148.000000	71.276179
1147.000000	71.320861
1146.000000	71.374690
1145.000000	71.439464
1144.000000	71.500968
1143.000000	71.531476
1142.000000	71.570886
1141.000000	71.629678
1140.000000	71.687397
1139.000000	71.747416
1138.000000	71.794685
1137.000000	71.831097
1136.000000	71.882524
1135.000000	71.924474
1134.000000	71.977348
1133.000000	72.027742
1132.000000	72.058297
1131.000000	72.097352
1130.000000	72.136346
1129.000000	72.148027
1128.000000	72.172535
1127.000000	72.207831
1126.000000	72.224449
1125.000000	72.262956
1124.000000	72.291188
1123.000000	72.329417
1122.000000	72.336238
1121.000000	72.346588
1120.000000	72.350108
1119.000000	72.358198
1118.000000	72.376489
1117.000000	72.392454
1116.000000	72.397318
1115.000000	72.405396
1114.000000	72.422791
1113.000000	72.432339
1112.000000	72.425438
1111.000000	72.447557
1110.000000	72.444868
1109.000000	72.455126
1108.000000	72.461094
1107.000000	72.473176
1106.000000	72.462613
1105.000000	72.462410
1104.000000	72.465956
1103.000000	72.452753
1102.000000	72.460928
1101.000000	72.455576
1100.000000	72.480585
1099.000000	72.484760
1098.000000	72.477423
1097.000000	72.492958
1096.000000	72.504161
1095.000000	72.492372
1094.000000	72.478657
1093.000000	72.486377
1092.000000	72.492879
1091.000000	72.502023
1090.000000	72.498082
1089.000000	72.503448
1088.000000	72.508682
1087.000000	72.473562
1086.000000	72.487414
1085.000000	72.476402
1084.000000	72.484454
1083.000000	72.472324
1082.000000	72.463846
1081.000000	72.481365
1080.000000	72.453699
1079.000000	72.434103
1078.000000	72.446460
1077.000000	72.447595
1076.000000	72.451628
1075.000000	72.467068
1074.000000	72.422781
1073.000000	72.413629
1072.000000	72.396990
1071.000000	72.396325
1070.000000	72.390474
1069.000000	72.406829
1068.000000	72.399950
1067.000000	72.394710
1066.000000	72.365734
1065.000000	72.355191
1064.000000	72.360991
1063.000000	72.357903
1062.000000	72.372545
1061.000000	72.360267
1060.000000	72.346271
1059.000000	72.302076
1058.000000	72.304581
1057.000000	72.308580
1056.000000	72.313796
1055.000000	72.299204
1054.000000	72.279295
1053.000000	72.277838
1052.000000	72.273140
1051.000000	72.262500
1050.000000	72.247552
1049.000000	72.264766
1048.000000	72.194978
1047.000000	72.220873
1046.000000	72.235918
1045.000000	72.197583
1044.000000	72.207511
1043.000000	72.182993
1042.000000	72.189719
1041.000000	72.201798
1040.000000	72.213045
1039.000000	72.162472
1038.000000	72.161945
1037.000000	72.181432
1036.000000	72.165390
1035.000000	72.170867
1034.000000	72.151994
1033.000000	72.157812
1032.000000	72.158037
1031.000000	72.160445
1030.000000	72.143604
1029.000000	72.143052
1028.000000	72.118059
1027.000000	72.145036
1026.000000	72.153049
1025.000000	72.132782
1024.000000	72.137505
1023.000000	72.134061
1022.000000	72.146308
1021.000000	72.152727
1020.000000	72.128533
1019.000000	72.146821
1018.000000	72.131408
1017.000000	72.133669
1016.000000	72.150098
1015.000000	72.151791
1014.000000	72.148044
1013.000000	72.163743
1012.000000	72.171525
1011.000000	72.154725
1010.000000	72.173391
1009.000000	72.169757
1008.000000	72.173165
1007.000000	72.190141
1006.000000	72.199229
1005.000000	72.203458
1004.000000	72.207770
1003.000000	72.213338
1002.000000	72.213406
1001.000000	72.226041
1000.000000	72.237087
999.000000	72.230246
998.000000	72.229797
997.000000	72.238377
996.000000	72.235815
995.000000	72.252981
994.000000	72.261447
993.000000	72.275113
992.000000	72.268990
991.000000	72.284833
990.000000	72.299399
989.000000	72.288465
988.000000	72.309185
987.000000	72.313425
986.000000	72.326680
985.000000	72.346411
984.000000	72.356291
983.000000	72.354254
982.000000	72.360222
981.000000	72.370817
980.000000	72.371523
979.000000	72.367119
978.000000	72.379590
977.000000	72.405190
976.000000	72.428344
975.000000	72.435101
974.000000	72.437632
973.000000	72.447521
972.000000	72.477650
971.000000	72.488854
970.000000	72.490638
969.000000	72.498876
968.000000	72.501812
967.000000	72.514207
966.000000	72.515069
965.000000	72.524885
964.000000	72.539290
963.000000	72.548679
962.000000	72.574744
961.000000	72.586153
960.000000	72.572887
959.000000	72.590623
958.000000	72.619181
957.000000	72.622031
956.000000	72.614972
955.000000	72.632373
954.000000	72.643074
953.000000	72.658755
952.000000	72.669306
951.000000	72.657914
950.000000	72.665577
949.000000	72.679192
948.000000	72.664358
947.000000	72.692393
946.000000	72.705930
945.000000	72.711206
944.000000	72.732231
943.000000	72.734387
942.000000	72.723710
941.000000	72.729627
940.000000	72.753019
939.000000	72.753091
938.000000	72.732228
937.000000	72.740138
936.000000	72.727341
935.000000	72.725329
934.000000	72.754212
933.000000	72.743297
932.000000	72.744820
931.000000	72.745623
930.000000	72.759414
929.000000	72.772650
928.000000	72.773152
927.000000	72.781511
926.000000	72.789953
925.000000	72.774198
924.000000	72.752179
923.000000	72.752793
922.000000	72.759020
921.000000	72.752437
920.000000	72.762078
919.000000	72.753127
918.000000	72.759344
917.000000	72.775507
916.000000	72.756354
915.000000	72.779915
914.000000	72.764574
913.000000	72.770224
912.000000	72.790090
911.000000	72.786381
910.000000	72.786989
909.000000	72.791442
908.000000	72.778119
907.000000	72.799987
906.000000	72.782403
905.000000	72.794436
904.000000	72.814412
903.000000	72.816711
902.000000	72.822608
901.000000	72.814380
900.000000	72.855367
899.000000	72.860917
898.000000	72.883095
897.000000	72.893896
896.000000	72.877170
895.000000	72.904061
894.000000	72.834325
893.000000	72.856561
892.000000	72.894227
891.000000	72.895332
890.000000	72.871256
889.000000	72.914048
888.000000	72.929440
887.000000	72.987513
886.000000	72.957753
885.000000	72.981935
884.000000	72.971300
883.000000	73.012418
882.000000	73.003953
881.000000	72.973477
880.000000	72.921946
879.000000	72.996122
878.000000	73.047958
877.000000	73.051609
876.000000	72.995865
875.000000	73.000640
874.000000	73.051736
873.000000	73.066519
872.000000	73.126398
871.000000	73.017496
870.000000	73.102199
869.000000	73.077520
868.000000	73.104606
867.000000	73.097642
866.000000	73.007298
865.000000	73.114059
864.000000	73.121194
863.000000	73.109519
862.000000	73.087440
861.000000	73.034000
860.000000	73.053051
859.000000	72.848672
858.000000	73.233952
857.000000	73.218556
856.000000	73.103725
855.000000	73.080499
854.000000	72.915458
853.000000	73.090049
852.000000	73.248069
851.000000	73.265679
850.000000	73.212643
849.000000	73.177950
848.000000	72.933012
847.000000	72.892569
846.000000	73.021206
845.000000	73.304641
844.000000	73.175670
843.000000	72.865309
842.000000	73.242545
841.000000	73.290180
840.000000	73.057934
839.000000	73.212878
838.000000	73.048937
837.000000	72.696097
836.000000	73.149027
835.000000	73.157462
834.000000	73.154127
833.000000	73.266610
832.000000	72.841794
831.000000	73.192209
830.000000	73.111510
829.000000	73.140021
828.000000	73.059015
827.000000	73.078971
826.000000	73.047242
825.000000	72.916519
824.000000	73.288772
823.000000	72.996611
822.000000	72.993157
821.000000	73.015060
820.000000	73.024245
819.000000	73.041656
818.000000	73.095837
817.000000	73.097562
816.000000	72.978598
815.000000	72.975057
814.000000	73.019629
813.000000	73.045321
812.000000	72.948192
811.000000	73.142715
810.000000	73.128446
809.000000	73.007964
808.000000	73.270508
807.000000	73.188917
806.000000	73.246406
805.000000	73.204943
804.000000	73.055954
803.000000	72.985510
802.000000	73.138678
801.000000	73.203832
800.000000	73.165244
799.000000	73.007275
798.000000	73.132255
797.000000	72.986196
796.000000	73.085184
795.000000	73.175455
794.000000	73.009842
793.000000	72.991097
792.000000	73.031963
791.000000	73.135290
790.000000	73.107694
789.000000	73.313689
788.000000	73.328143
787.000000	73.202345
786.000000	73.216510
785.000000	73.205742
784.000000	73.270523
783.000000	73.164034
782.000000	73.164048
781.000000	73.048209
780.000000	73.086183
779.000000	73.107761
778.000000	73.109517
777.000000	73.256440
776.000000	73.248960
775.000000	73.037045
774.000000	73.160034
773.000000	73.280064
772.000000	73.150342
771.000000	73.187859
770.000000	73.154972
769.000000	73.072971
768.000000	73.125141
767.000000	73.173952
766.000000	73.168514
765.000000	73.189609
764.000000	73.121272
763.000000	73.082349
762.000000	73.109640
761.000000	73.121956
760.000000	73.192098
759.000000	73.060386
758.000000	73.143325
757.000000	73.070537
756.000000	73.157496
755.000000	73.153988
754.000000	73.163371
753.000000	73.125011
752.000000	73.151126
751.000000	73.177168
750.000000	73.125990
749.000000	73.099162
748.000000	73.079392
747.000000	73.099713
746.000000	73.128838
745.000000	73.184419
744.000000	73.181192
743.000000	73.158151
742.000000	73.044651
741.000000	73.072103
740.000000	73.142867
739.000000	73.141557
738.000000	73.157659
737.000000	73.185925
736.000000	73.189643
735.000000	73.118658
734.000000	73.139875
733.000000	73.112788
732.000000	73.137860
731.000000	73.131608
730.000000	73.141961
729.000000	73.189613
728.000000	73.169626
727.000000	73.134225
726.000000	73.148772
725.000000	73.154921
724.000000	73.152281
723.000000	73.159244
722.000000	73.125050
721.000000	73.086946
720.000000	73.086798
719.000000	73.113353
718.000000	73.148614
717.000000	73.154108
716.000000	73.161959
715.000000	73.133631
714.000000	73.082846
713.000000	73.076588
712.000000	73.075214
711.000000	73.113142
710.000000	73.153176
709.000000	73.102044
708.000000	73.088239
707.000000	73.094952
706.000000	73.156186
705.000000	73.164956
704.000000	73.115302
703.000000	73.175506
702.000000	73.208811
701.000000	73.164770
700.000000	73.122477
699.000000	73.100088
698.000000	73.147599
697.000000	73.177122
696.000000	73.134222
695.000000	73.119288
694.000000	73.144187
693.000000	73.103090
692.000000	73.126793
691.000000	73.192334
690.000000	73.173131
689.000000	73.136622
688.000000	73.078766
687.000000	73.095729
686.000000	73.109652
685.000000	73.078274
684.000000	73.099142
683.000000	73.132787
682.000000	73.180313
681.000000	73.177732
680.000000	73.151303
679.000000	73.187601
678.000000	73.213035
677.000000	73.173331
676.000000	73.195498
675.000000	73.174980
674.000000	73.120112
673.000000	73.142934
672.000000	73.149426
671.000000	73.128093
670.000000	73.177650
669.000000	73.160660
668.000000	73.154469
667.000000	73.212671
666.000000	73.184182
665.000000	73.175783
664.000000	73.145010
663.000000	73.153416
662.000000	73.131384
661.000000	73.075013
660.000000	73.114699
659.000000	73.183320
658.000000	73.149523
657.000000	73.165374
656.000000	73.177073
655.000000	73.208040
654.000000	73.217507
653.000000	73.125696
652.000000	73.129764
651.000000	73.172021
650.000000	73.189680
649.000000	73.157066
648.000000	73.129504
647.000000	73.103572
646.000000	73.089159
645.000000	73.134493
644.000000	73.102343
643.000000	73.177045
642.000000	73.216232
641.000000	73.152282
640.000000	73.162810
639.000000	73.157116
638.000000	73.150930
637.000000	73.167901
636.000000	73.147597
635.000000	73.126814
634.000000	73.106891
633.000000	73.111933
632.000000	73.062288
631.000000	73.108431
630.000000	73.124578
629.000000	73.094431
628.000000	73.059415
627.000000	73.079360
626.000000	73.063932
625.000000	73.080579
624.000000	73.023838
623.000000	73.072273
622.000000	73.049733
621.000000	73.051870
620.000000	73.043074
619.000000	73.108162
618.000000	73.075282
617.000000	73.046784
616.000000	73.037009
615.000000	73.010835
614.000000	73.072711
613.000000	73.045421
612.000000	73.080509
611.000000	73.084347
610.000000	73.041109
609.000000	72.972936
608.000000	72.983686
607.000000	72.965680
606.000000	73.001983
605.000000	73.000827
604.000000	72.973886
603.000000	72.960169
602.000000	72.987629
601.000000	72.946055
600.000000	72.915429
599.000000	72.956716
598.000000	72.964447
597.000000	72.956614
596.000000	72.901250
595.000000	72.931610
594.000000	72.959560
593.000000	72.938776
592.000000	72.957736
591.000000	72.854674
590.000000	72.819402
589.000000	72.822459
588.000000	72.839543
587.000000	72.854009
586.000000	72.786493
585.000000	72.813375
584.000000	72.777953
583.000000	72.764094
582.000000	72.775807
581.000000	72.775993
580.000000	72.727735
579.000000	72.700832
578.000000	72.704136
577.000000	72.718254
576.000000	72.695577
575.000000	72.651540
574.000000	72.582413
573.000000	72.635038
572.000000	72.645087
571.000000	72.597124
570.000000	72.631520
569.000000	72.572373
568.000000	72.620267
567.000000	72.538700
566.000000	72.513912
565.000000	72.525162
564.000000	72.525614
563.000000	72.491241
562.000000	72.446168
561.000000	72.378753
560.000000	72.288805
559.000000	72.299372
558.000000	72.312561
557.000000	72.278039
556.000000	72.274035
555.000000	72.213397
554.000000	72.242980
553.000000	72.174419
552.000000	72.153208
551.000000	72.163283
550.000000	72.131711
549.000000	72.123810
548.000000	72.119780
547.000000	72.055512
546.000000	72.030439
545.000000	72.040999
544.000000	72.029640
543.000000	71.943542
542.000000	71.903469
541.000000	71.952803
540.000000	71.877536
539.000000	71.828143
538.000000	71.861317
537.000000	71.777419
536.000000	71.756045
535.000000	71.755016
534.000000	71.672718
533.000000	71.672062
532.000000	71.650338
531.000000	71.647980
530.000000	71.594103
529.000000	71.554225
528.000000	71.552467
527.000000	71.475153
526.000000	71.498293
525.000000	71.446315
524.000000	71.446627
523.000000	71.426983
522.000000	71.348298
521.000000	71.330562
520.000000	71.322335
519.000000	71.245134
518.000000	71.212809
517.000000	71.219772
516.000000	71.176614
515.000000	71.151085
514.000000	71.062211
513.000000	71.028550
512.000000	71.002985
511.000000	70.960366
510.000000	70.941634
509.000000	70.889060
508.000000	70.866106
507.000000	70.828091
506.000000	70.767780
505.000000	70.673203
504.000000	70.648953
503.000000	70.571816
502.000000	70.539388
501.000000	70.465839
500.000000	70.436083
499.000000	70.424081
498.000000	70.368933
497.000000	70.365083
496.000000	70.291193
495.000000	70.244072
494.000000	70.187277
493.000000	70.130226
492.000000	70.059111
491.000000	70.037225
490.000000	69.948499
489.000000	69.864291
488.000000	69.786382
487.000000	69.752274
486.000000	69.777924
485.000000	69.759052
484.000000	69.661775
483.000000	69.615656
482.000000	69.596168
481.000000	69.547985
480.000000	69.492329
479.000000	69.424974
478.000000	69.349712
477.000000	69.282227
476.000000	69.185085
475.000000	69.090311
474.000000	69.023100
473.000000	68.950197
472.000000	68.900208
471.000000	68.833546
470.000000	68.733540
469.000000	68.646533
468.000000	68.570831
467.000000	68.477460
466.000000	68.392753
465.000000	68.313584
464.000000	68.228125
463.000000	68.130614
462.000000	68.084276
461.000000	68.016851
460.000000	67.915503
459.000000	67.813515
458.000000	67.651647
457.000000	67.567573
456.000000	67.514566
455.000000	67.405086
454.000000	67.313910
453.000000	67.200225
452.000000	67.017575
451.000000	66.915917
450.000000	66.864106
449.000000	66.806945
448.000000	66.718338
447.000000	66.553112
446.000000	66.367096
445.000000	66.305199
444.000000	66.207399
443.000000	66.030083
442.000000	65.856497
441.000000	65.777838
440.000000	65.628527
439.000000	65.486949
438.000000	65.387089
437.000000	65.275524
436.000000	65.089612
435.000000	64.913271
434.000000	64.813811
433.000000	64.637200
432.000000	64.427890
431.000000	64.240199
430.000000	64.081829
429.000000	63.887261
428.000000	63.729716
427.000000	63.533699
426.000000	63.385005
425.000000	63.257766
424.000000	63.038135
423.000000	62.878592
422.000000	62.656087
421.000000	62.426072
420.000000	62.225528
419.000000	62.046386
418.000000	61.836995
417.000000	61.630515
416.000000	61.486204
415.000000	61.252201
414.000000	61.065831
413.000000	60.803280
412.000000	60.568524
411.000000	60.294366
410.000000	60.006568
409.000000	59.801107
408.000000	59.598055
407.000000	59.358384
406.000000	59.076627
405.000000	58.812652
404.000000	58.617976
403.000000	58.338996
402.000000	58.095293
401.000000	57.768374
400.000000	57.499256
399.000000	57.274334
398.000000	57.005902
397.000000	56.766168
396.000000	56.443744
395.000000	56.249685
394.000000	55.891114
393.000000	55.586427
392.000000	55.378136
391.000000	55.121138
390.000000	54.726609
389.000000	54.489510
388.000000	54.272610
387.000000	53.848631
386.000000	53.535542
385.000000	53.262821
384.000000	52.958270
383.000000	52.626995
382.000000	52.350211
381.000000	52.019176
380.000000	51.576784
379.000000	51.406504
378.000000	50.866941
377.000000	50.651709
376.000000	50.382563
375.000000	49.967200
374.000000	49.603035
373.000000	49.105492
372.000000	49.129314
371.000000	48.502132
370.000000	48.051322
369.000000	47.899834
368.000000	47.547313
367.000000	47.129799
366.000000	46.783880
365.000000	46.377845
364.000000	46.177651
363.000000	45.566067
362.000000	45.365340
361.000000	45.005682
360.000000	44.638388
359.000000	44.161971
358.000000	43.916440
357.000000	43.527156
356.000000	43.179408
355.000000	42.852991
354.000000	42.472089
353.000000	42.178108
352.000000	41.847228
351.000000	41.467675
350.000000	41.035363
349.000000	40.968197
348.000000	40.498655
347.000000	40.055721
346.000000	39.754498
345.000000	39.283504
344.000000	38.852123
343.000000	38.524396
342.000000	38.156093
341.000000	37.664201
340.000000	37.221016
339.000000	36.642286
338.000000	36.070727
337.000000	35.626843
336.000000	35.073084
335.000000	34.469491
334.000000	33.869389
333.000000	33.211483
332.000000	32.590035
331.000000	31.882461
330.000000	31.166471
329.000000	30.690821
328.000000	30.190341
327.000000	29.631707
326.000000	28.942773
325.000000	28.525186
324.000000	27.879151
323.000000	27.557041
322.000000	27.095034
321.000000	26.763147
320.000000	26.364559
319.000000	26.062546
318.000000	25.737537
317.000000	25.511802
316.000000	25.257513
315.000000	24.998461
314.000000	24.792175
313.000000	24.471952
312.000000	24.346651
311.000000	24.140404
310.000000	24.030501
309.000000	23.808624
308.000000	23.480277
307.000000	23.365294
306.000000	23.250477
305.000000	23.108622
304.000000	22.832949
303.000000	22.664546
302.000000	22.469308
301.000000	22.238843
300.000000	21.989077
299.000000	21.725756
298.000000	21.444519
297.000000	21.291834
296.000000	20.944384
295.000000	20.389210
294.000000	19.934485
293.000000	19.295471
292.000000	18.744730
291.000000	18.082993
290.000000	17.413484
289.000000	16.728493
288.000000	16.287703
287.000000	15.959625
286.000000	15.722976
285.000000	15.593037
284.000000	15.581587
283.000000	15.655848
282.000000	15.689008
281.000000	15.755430
280.000000	15.787245
279.000000	15.994330
278.000000	16.035992
277.000000	16.183597
276.000000	16.339390
275.000000	16.562831
274.000000	16.767710
273.000000	16.893156
272.000000	17.060454
271.000000	17.212654
270.000000	17.269080
269.000000	17.327647
268.000000	17.544453
267.000000	17.788806
266.000000	17.986539
265.000000	18.162155
264.000000	18.415257
263.000000	18.709435
262.000000	18.987693
261.000000	19.206666
260.000000	19.363929
259.000000	19.600966
258.000000	19.914264
257.000000	20.221966
256.000000	20.502525
255.000000	20.734502
254.000000	20.855902
253.000000	20.902343
252.000000	20.920284
251.000000	20.898206
250.000000	20.830486
249.000000	20.500650
248.000000	20.139767
247.000000	19.702072
246.000000	19.125905
245.000000	18.642132
244.000000	18.194585
243.000000	17.689122
242.000000	17.298380
241.000000	16.962555
240.000000	16.745035
239.000000	16.655503
238.000000	16.554540
237.000000	16.542731
236.000000	16.594095
235.000000	16.621370
234.000000	16.743624
233.000000	16.819561
232.000000	16.878949
231.000000	16.916137
230.000000	17.020877
229.000000	17.109278
228.000000	17.197885
227.000000	17.264851
226.000000	17.425557
225.000000	17.539289
224.000000	17.666856
223.000000	17.905482
222.000000	18.155970
221.000000	18.461523
220.000000	18.707068
219.000000	19.011002
218.000000	19.378597
217.000000	19.669374
216.000000	19.996294
215.000000	20.474426
214.000000	20.939972
213.000000	21.330390
212.000000	21.756852
211.000000	22.248339
210.000000	22.836739
209.000000	23.309066
208.000000	23.804232
207.000000	24.421012
206.000000	25.046438
205.000000	25.524992
204.000000	26.002626
203.000000	26.795112
202.000000	27.602299
201.000000	28.211348
200.000000	28.748221
