PE UV       SUBTECH     SPECTRUM    ASCII       PEDS        4.00        
   -1
RTgAgneauUK 32.Sample.asc
18/03/09
16:17:00.00
18/03/09
16:17:00.00
Administrator

200.000000
1
Lambda 750
750N8071901
PerkinElmer UV WinLab 6.0.4.0738 / 1.61.00 Lambda 900

0
0
3350/servo 860.8/2
0
0
UV/VIS
1
1
1
CommonBeamDepol,150mm sphere / downward view
0
0
0
0
Program
Program
3350/servo 860.8/2
3350/0.2 860.8/0.2
3350/0.2 860.8/0.2
0
1
 
 
 
0
 
860.8
319.2
860.8
Front
100
on
 
 
0
0
0
 
0
 
 
 
0
 
 
0
0
0
0
0
 
 
 
 
0
0


0
0
#HDR
-1
-1
#GR
nm
%R
1.0
0.0
2350.000000
-1.000000
2151
8
73.424984
15.116068
#DATA
2350.000000	26.383467
2349.000000	26.641831
2348.000000	26.799967
2347.000000	27.176577
2346.000000	26.944119
2345.000000	26.441188
2344.000000	26.752601
2343.000000	26.297040
2342.000000	26.402571
2341.000000	26.765799
2340.000000	26.578438
2339.000000	26.986582
2338.000000	26.877009
2337.000000	27.339280
2336.000000	27.173291
2335.000000	27.482710
2334.000000	27.231150
2333.000000	27.193847
2332.000000	27.192664
2331.000000	27.200516
2330.000000	27.104672
2329.000000	27.132143
2328.000000	27.095203
2327.000000	27.119843
2326.000000	27.362292
2325.000000	27.060819
2324.000000	27.199940
2323.000000	27.084801
2322.000000	26.997616
2321.000000	27.034415
2320.000000	27.003109
2319.000000	27.227939
2318.000000	26.774025
2317.000000	26.860171
2316.000000	26.912652
2315.000000	26.732359
2314.000000	26.772749
2313.000000	26.465115
2312.000000	26.474255
2311.000000	26.328715
2310.000000	26.295948
2309.000000	26.441724
2308.000000	26.245518
2307.000000	26.117473
2306.000000	25.917360
2305.000000	25.962632
2304.000000	25.931900
2303.000000	25.887205
2302.000000	25.870589
2301.000000	25.682400
2300.000000	25.505765
2299.000000	25.463275
2298.000000	25.219951
2297.000000	25.191069
2296.000000	25.085104
2295.000000	25.009569
2294.000000	24.892269
2293.000000	24.747720
2292.000000	24.644682
2291.000000	24.512405
2290.000000	24.411988
2289.000000	24.634911
2288.000000	24.661368
2287.000000	24.458429
2286.000000	24.289416
2285.000000	24.444864
2284.000000	24.353750
2283.000000	24.388484
2282.000000	24.387167
2281.000000	24.435713
2280.000000	24.403188
2279.000000	24.391238
2278.000000	24.350103
2277.000000	24.265123
2276.000000	24.355830
2275.000000	24.308503
2274.000000	24.310420
2273.000000	24.496332
2272.000000	24.547292
2271.000000	24.658839
2270.000000	24.700340
2269.000000	24.629738
2268.000000	24.675127
2267.000000	24.660536
2266.000000	24.783173
2265.000000	24.936257
2264.000000	25.151108
2263.000000	25.415746
2262.000000	25.483672
2261.000000	25.616437
2260.000000	25.756104
2259.000000	25.894801
2258.000000	26.090836
2257.000000	26.342234
2256.000000	26.375568
2255.000000	26.495547
2254.000000	26.850551
2253.000000	27.020929
2252.000000	27.361841
2251.000000	27.701540
2250.000000	27.776447
2249.000000	28.013703
2248.000000	28.283455
2247.000000	28.405161
2246.000000	28.756475
2245.000000	29.034241
2244.000000	29.173508
2243.000000	29.401418
2242.000000	29.652939
2241.000000	29.802684
2240.000000	30.006386
2239.000000	30.247661
2238.000000	30.329208
2237.000000	30.489118
2236.000000	30.587902
2235.000000	30.690723
2234.000000	30.922659
2233.000000	30.919596
2232.000000	30.883224
2231.000000	31.092624
2230.000000	31.217894
2229.000000	31.176359
2228.000000	31.187309
2227.000000	31.241672
2226.000000	31.148726
2225.000000	31.108792
2224.000000	31.238551
2223.000000	31.177794
2222.000000	31.187050
2221.000000	31.091125
2220.000000	31.095596
2219.000000	31.226202
2218.000000	31.115004
2217.000000	30.950466
2216.000000	31.024398
2215.000000	30.976845
2214.000000	30.966461
2213.000000	30.799014
2212.000000	30.745232
2211.000000	30.581938
2210.000000	30.316210
2209.000000	30.309891
2208.000000	30.454761
2207.000000	30.387741
2206.000000	30.180770
2205.000000	30.054208
2204.000000	29.993621
2203.000000	29.956024
2202.000000	29.928990
2201.000000	29.877072
2200.000000	29.746314
2199.000000	29.709542
2198.000000	29.577570
2197.000000	29.511436
2196.000000	29.409035
2195.000000	29.249136
2194.000000	29.109113
2193.000000	29.037317
2192.000000	28.979421
2191.000000	28.879486
2190.000000	28.744590
2189.000000	28.631300
2188.000000	28.489992
2187.000000	28.366594
2186.000000	28.417847
2185.000000	28.492206
2184.000000	28.394528
2183.000000	28.289496
2182.000000	28.242165
2181.000000	28.178146
2180.000000	28.120669
2179.000000	28.152934
2178.000000	28.124921
2177.000000	28.037652
2176.000000	28.040878
2175.000000	28.076717
2174.000000	28.077013
2173.000000	28.155994
2172.000000	28.243871
2171.000000	28.236083
2170.000000	28.341111
2169.000000	28.443660
2168.000000	28.325414
2167.000000	28.398165
2166.000000	28.711733
2165.000000	28.731642
2164.000000	28.728606
2163.000000	28.851908
2162.000000	29.084580
2161.000000	29.269681
2160.000000	29.526175
2159.000000	29.476483
2158.000000	29.475310
2157.000000	29.913318
2156.000000	29.962316
2155.000000	30.014654
2154.000000	30.229085
2153.000000	30.678826
2152.000000	30.582933
2151.000000	30.780805
2150.000000	30.912579
2149.000000	31.119766
2148.000000	31.220557
2147.000000	31.425455
2146.000000	31.528641
2145.000000	31.709068
2144.000000	31.969893
2143.000000	32.134405
2142.000000	32.338681
2141.000000	32.510617
2140.000000	32.595257
2139.000000	32.808917
2138.000000	32.824753
2137.000000	33.163759
2136.000000	33.208317
2135.000000	33.242269
2134.000000	33.432963
2133.000000	33.488326
2132.000000	33.748963
2131.000000	33.867758
2130.000000	33.933483
2129.000000	33.836608
2128.000000	34.015287
2127.000000	34.005461
2126.000000	34.170474
2125.000000	34.393206
2124.000000	34.435177
2123.000000	34.311546
2122.000000	34.486396
2121.000000	34.437335
2120.000000	34.560550
2119.000000	34.627904
2118.000000	34.796327
2117.000000	34.868134
2116.000000	34.883015
2115.000000	34.959930
2114.000000	34.908630
2113.000000	34.984179
2112.000000	34.974197
2111.000000	34.946992
2110.000000	34.977465
2109.000000	35.019923
2108.000000	34.972797
2107.000000	35.083523
2106.000000	35.111288
2105.000000	35.071683
2104.000000	35.140882
2103.000000	35.065079
2102.000000	35.130550
2101.000000	35.175364
2100.000000	35.223788
2099.000000	35.185666
2098.000000	35.149998
2097.000000	35.176775
2096.000000	35.186093
2095.000000	35.223713
2094.000000	35.126169
2093.000000	35.155016
2092.000000	35.211797
2091.000000	35.170599
2090.000000	35.114435
2089.000000	35.067658
2088.000000	35.051837
2087.000000	35.017704
2086.000000	34.937242
2085.000000	34.925377
2084.000000	34.898784
2083.000000	34.831852
2082.000000	34.753255
2081.000000	34.618934
2080.000000	34.553537
2079.000000	34.463157
2078.000000	34.297769
2077.000000	34.199828
2076.000000	34.156201
2075.000000	34.000175
2074.000000	33.874536
2073.000000	33.749994
2072.000000	33.553180
2071.000000	33.377323
2070.000000	33.284059
2069.000000	33.124230
2068.000000	32.964316
2067.000000	32.792624
2066.000000	32.592421
2065.000000	32.407487
2064.000000	32.197704
2063.000000	31.978904
2062.000000	31.772463
2061.000000	31.684305
2060.000000	31.515599
2059.000000	31.277889
2058.000000	31.099684
2057.000000	30.899516
2056.000000	30.749709
2055.000000	30.605932
2054.000000	30.404495
2053.000000	30.250626
2052.000000	30.085551
2051.000000	29.878394
2050.000000	29.765267
2049.000000	29.683218
2048.000000	29.568115
2047.000000	29.440807
2046.000000	29.325632
2045.000000	29.281115
2044.000000	29.247034
2043.000000	29.214333
2042.000000	29.171202
2041.000000	29.181472
2040.000000	29.227180
2039.000000	29.184473
2038.000000	29.277367
2037.000000	29.366583
2036.000000	29.476080
2035.000000	29.626371
2034.000000	29.717718
2033.000000	29.827198
2032.000000	29.937204
2031.000000	30.067893
2030.000000	30.205113
2029.000000	30.334407
2028.000000	30.458965
2027.000000	30.605793
2026.000000	30.771801
2025.000000	30.873346
2024.000000	30.984305
2023.000000	31.105636
2022.000000	31.229839
2021.000000	31.290034
2020.000000	31.363670
2019.000000	31.446098
2018.000000	31.464443
2017.000000	31.521052
2016.000000	31.572306
2015.000000	31.584423
2014.000000	31.549898
2013.000000	31.491540
2012.000000	31.495428
2011.000000	31.486739
2010.000000	31.423057
2009.000000	31.333279
2008.000000	31.257033
2007.000000	31.188588
2006.000000	31.101431
2005.000000	31.039575
2004.000000	30.946903
2003.000000	30.822849
2002.000000	30.732054
2001.000000	30.629466
2000.000000	30.523161
1999.000000	30.415389
1998.000000	30.321722
1997.000000	30.178514
1996.000000	30.052013
1995.000000	29.898458
1994.000000	29.745168
1993.000000	29.637833
1992.000000	29.519165
1991.000000	29.406327
1990.000000	29.308609
1989.000000	29.182602
1988.000000	29.039550
1987.000000	28.890479
1986.000000	28.751625
1985.000000	28.643533
1984.000000	28.522460
1983.000000	28.383244
1982.000000	28.268725
1981.000000	28.165925
1980.000000	27.979525
1979.000000	27.856498
1978.000000	27.759907
1977.000000	27.599635
1976.000000	27.448132
1975.000000	27.371212
1974.000000	27.228998
1973.000000	27.143920
1972.000000	27.000542
1971.000000	26.887450
1970.000000	26.737728
1969.000000	26.629964
1968.000000	26.518366
1967.000000	26.398069
1966.000000	26.303456
1965.000000	26.153224
1964.000000	26.011841
1963.000000	25.930164
1962.000000	25.796440
1961.000000	25.644186
1960.000000	25.542466
1959.000000	25.486865
1958.000000	25.372947
1957.000000	25.263970
1956.000000	25.118343
1955.000000	25.010430
1954.000000	24.993049
1953.000000	24.885941
1952.000000	24.848746
1951.000000	24.782409
1950.000000	24.709285
1949.000000	24.624496
1948.000000	24.602375
1947.000000	24.574540
1946.000000	24.594516
1945.000000	24.607547
1944.000000	24.559937
1943.000000	24.503068
1942.000000	24.542216
1941.000000	24.627707
1940.000000	24.639841
1939.000000	24.647093
1938.000000	24.722769
1937.000000	24.764550
1936.000000	24.929769
1935.000000	25.021492
1934.000000	25.048628
1933.000000	25.230914
1932.000000	25.458968
1931.000000	25.584761
1930.000000	25.764901
1929.000000	25.914643
1928.000000	26.117448
1927.000000	26.402695
1926.000000	26.665369
1925.000000	26.896264
1924.000000	27.183378
1923.000000	27.388428
1922.000000	27.733627
1921.000000	28.038329
1920.000000	28.426017
1919.000000	28.794372
1918.000000	29.117794
1917.000000	29.565868
1916.000000	29.870252
1915.000000	30.405219
1914.000000	30.844266
1913.000000	31.255941
1912.000000	31.745737
1911.000000	32.159409
1910.000000	32.692701
1909.000000	33.170524
1908.000000	33.721206
1907.000000	34.332628
1906.000000	34.959867
1905.000000	35.493177
1904.000000	36.166758
1903.000000	36.775472
1902.000000	37.432631
1901.000000	38.010839
1900.000000	38.716631
1899.000000	39.383978
1898.000000	40.126400
1897.000000	40.769330
1896.000000	41.479340
1895.000000	42.183595
1894.000000	42.831408
1893.000000	43.452177
1892.000000	44.214497
1891.000000	44.781968
1890.000000	45.415588
1889.000000	45.966857
1888.000000	46.597352
1887.000000	47.221631
1886.000000	47.747350
1885.000000	48.302462
1884.000000	48.862988
1883.000000	49.392974
1882.000000	49.836024
1881.000000	50.386545
1880.000000	50.834531
1879.000000	51.243518
1878.000000	51.699673
1877.000000	52.199604
1876.000000	52.580028
1875.000000	52.936981
1874.000000	53.269853
1873.000000	53.587858
1872.000000	53.953671
1871.000000	54.229289
1870.000000	54.465588
1869.000000	54.769240
1868.000000	54.971191
1867.000000	55.174207
1866.000000	55.309587
1865.000000	55.489412
1864.000000	55.625445
1863.000000	55.753408
1862.000000	55.892946
1861.000000	56.001984
1860.000000	56.108397
1859.000000	56.181338
1858.000000	56.281538
1857.000000	56.342770
1856.000000	56.372997
1855.000000	56.408943
1854.000000	56.460545
1853.000000	56.494110
1852.000000	56.532731
1851.000000	56.580244
1850.000000	56.557756
1849.000000	56.590415
1848.000000	56.636438
1847.000000	56.657326
1846.000000	56.612413
1845.000000	56.593356
1844.000000	56.594581
1843.000000	56.529266
1842.000000	56.504289
1841.000000	56.455142
1840.000000	56.422095
1839.000000	56.462188
1838.000000	56.400793
1837.000000	56.297781
1836.000000	56.248027
1835.000000	56.209878
1834.000000	56.135407
1833.000000	56.072450
1832.000000	56.037065
1831.000000	56.012675
1830.000000	55.974728
1829.000000	55.908159
1828.000000	55.839154
1827.000000	55.778780
1826.000000	55.721678
1825.000000	55.654308
1824.000000	55.627574
1823.000000	55.583598
1822.000000	55.520724
1821.000000	55.483066
1820.000000	55.432748
1819.000000	55.369452
1818.000000	55.332523
1817.000000	55.292478
1816.000000	55.201708
1815.000000	55.156302
1814.000000	55.134233
1813.000000	55.080426
1812.000000	55.032273
1811.000000	54.977123
1810.000000	54.929912
1809.000000	54.896172
1808.000000	54.844976
1807.000000	54.780590
1806.000000	54.728215
1805.000000	54.675007
1804.000000	54.642685
1803.000000	54.596869
1802.000000	54.562129
1801.000000	54.509963
1800.000000	54.427242
1799.000000	54.388947
1798.000000	54.373540
1797.000000	54.322469
1796.000000	54.278280
1795.000000	54.262664
1794.000000	54.242513
1793.000000	54.197911
1792.000000	54.138957
1791.000000	54.105413
1790.000000	54.062487
1789.000000	54.027178
1788.000000	54.024921
1787.000000	53.979715
1786.000000	53.938400
1785.000000	53.893720
1784.000000	53.861838
1783.000000	53.789884
1782.000000	53.747604
1781.000000	53.691937
1780.000000	53.651870
1779.000000	53.616113
1778.000000	53.533888
1777.000000	53.458041
1776.000000	53.404543
1775.000000	53.323050
1774.000000	53.258016
1773.000000	53.201000
1772.000000	53.141396
1771.000000	53.063997
1770.000000	53.003640
1769.000000	52.901668
1768.000000	52.826400
1767.000000	52.775616
1766.000000	52.687394
1765.000000	52.612515
1764.000000	52.546705
1763.000000	52.461162
1762.000000	52.375265
1761.000000	52.301108
1760.000000	52.228532
1759.000000	52.165574
1758.000000	52.085246
1757.000000	51.999745
1756.000000	51.962214
1755.000000	51.872277
1754.000000	51.802140
1753.000000	51.709381
1752.000000	51.627494
1751.000000	51.576150
1750.000000	51.493863
1749.000000	51.409164
1748.000000	51.324981
1747.000000	51.245230
1746.000000	51.173003
1745.000000	51.061696
1744.000000	50.961866
1743.000000	50.940703
1742.000000	50.856842
1741.000000	50.795073
1740.000000	50.708155
1739.000000	50.624316
1738.000000	50.575808
1737.000000	50.522215
1736.000000	50.471678
1735.000000	50.438590
1734.000000	50.413757
1733.000000	50.405180
1732.000000	50.393272
1731.000000	50.418052
1730.000000	50.419288
1729.000000	50.512256
1728.000000	50.515060
1727.000000	50.596401
1726.000000	50.703896
1725.000000	50.763059
1724.000000	50.851107
1723.000000	50.985182
1722.000000	51.110781
1721.000000	51.239986
1720.000000	51.392011
1719.000000	51.516356
1718.000000	51.650929
1717.000000	51.778893
1716.000000	51.907196
1715.000000	52.042291
1714.000000	52.157915
1713.000000	52.297340
1712.000000	52.414189
1711.000000	52.536338
1710.000000	52.601363
1709.000000	52.676772
1708.000000	52.781941
1707.000000	52.834520
1706.000000	52.897996
1705.000000	52.941593
1704.000000	52.984746
1703.000000	53.012552
1702.000000	53.014466
1701.000000	53.064720
1700.000000	53.081176
1699.000000	53.085614
1698.000000	53.126647
1697.000000	53.167634
1696.000000	53.213605
1695.000000	53.228434
1694.000000	53.261463
1693.000000	53.321145
1692.000000	53.377006
1691.000000	53.452340
1690.000000	53.563453
1689.000000	53.686211
1688.000000	53.809090
1687.000000	53.959673
1686.000000	54.118053
1685.000000	54.277619
1684.000000	54.458771
1683.000000	54.685255
1682.000000	54.877100
1681.000000	55.103110
1680.000000	55.324643
1679.000000	55.557444
1678.000000	55.799849
1677.000000	56.026526
1676.000000	56.293466
1675.000000	56.538350
1674.000000	56.779071
1673.000000	57.027233
1672.000000	57.217697
1671.000000	57.429866
1670.000000	57.683144
1669.000000	57.933785
1668.000000	58.108335
1667.000000	58.310915
1666.000000	58.452249
1665.000000	58.608544
1664.000000	58.756179
1663.000000	58.857923
1662.000000	58.986420
1661.000000	59.108524
1660.000000	59.207230
1659.000000	59.295180
1658.000000	59.350687
1657.000000	59.426237
1656.000000	59.457350
1655.000000	59.512294
1654.000000	59.558326
1653.000000	59.577766
1652.000000	59.611076
1651.000000	59.604378
1650.000000	59.632141
1649.000000	59.642015
1648.000000	59.622281
1647.000000	59.610831
1646.000000	59.601429
1645.000000	59.582202
1644.000000	59.553687
1643.000000	59.511166
1642.000000	59.463836
1641.000000	59.430741
1640.000000	59.408957
1639.000000	59.384440
1638.000000	59.354070
1637.000000	59.306453
1636.000000	59.249173
1635.000000	59.206757
1634.000000	59.145851
1633.000000	59.082187
1632.000000	59.034818
1631.000000	58.984151
1630.000000	58.932150
1629.000000	58.868815
1628.000000	58.799761
1627.000000	58.744372
1626.000000	58.682706
1625.000000	58.617754
1624.000000	58.555031
1623.000000	58.488578
1622.000000	58.410897
1621.000000	58.324412
1620.000000	58.267698
1619.000000	58.210150
1618.000000	58.143212
1617.000000	58.056976
1616.000000	57.984670
1615.000000	57.899930
1614.000000	57.798932
1613.000000	57.720559
1612.000000	57.640562
1611.000000	57.563052
1610.000000	57.487739
1609.000000	57.394912
1608.000000	57.309908
1607.000000	57.236129
1606.000000	57.137399
1605.000000	57.047333
1604.000000	56.951962
1603.000000	56.860691
1602.000000	56.780351
1601.000000	56.685846
1600.000000	56.594689
1599.000000	56.507973
1598.000000	56.412198
1597.000000	56.329691
1596.000000	56.244926
1595.000000	56.160848
1594.000000	56.084674
1593.000000	56.010876
1592.000000	55.932375
1591.000000	55.840896
1590.000000	55.761360
1589.000000	55.687424
1588.000000	55.607941
1587.000000	55.539046
1586.000000	55.473284
1585.000000	55.387057
1584.000000	55.316676
1583.000000	55.260248
1582.000000	55.198094
1581.000000	55.136321
1580.000000	55.056963
1579.000000	54.986706
1578.000000	54.929073
1577.000000	54.849880
1576.000000	54.781473
1575.000000	54.723719
1574.000000	54.653122
1573.000000	54.591829
1572.000000	54.529991
1571.000000	54.458396
1570.000000	54.388431
1569.000000	54.323092
1568.000000	54.270705
1567.000000	54.216697
1566.000000	54.160334
1565.000000	54.099248
1564.000000	54.047674
1563.000000	54.023515
1562.000000	53.996928
1561.000000	53.964917
1560.000000	53.921336
1559.000000	53.873454
1558.000000	53.829527
1557.000000	53.814443
1556.000000	53.780408
1555.000000	53.741571
1554.000000	53.711875
1553.000000	53.674605
1552.000000	53.632784
1551.000000	53.584267
1550.000000	53.533047
1549.000000	53.476403
1548.000000	53.426813
1547.000000	53.347282
1546.000000	53.274919
1545.000000	53.185846
1544.000000	53.091879
1543.000000	52.999143
1542.000000	52.892978
1541.000000	52.774121
1540.000000	52.675880
1539.000000	52.555975
1538.000000	52.428210
1537.000000	52.309469
1536.000000	52.185267
1535.000000	52.067962
1534.000000	51.930733
1533.000000	51.820101
1532.000000	51.701433
1531.000000	51.576988
1530.000000	51.460692
1529.000000	51.337685
1528.000000	51.241459
1527.000000	51.143012
1526.000000	51.042901
1525.000000	50.944174
1524.000000	50.851062
1523.000000	50.776827
1522.000000	50.689312
1521.000000	50.607188
1520.000000	50.543755
1519.000000	50.459995
1518.000000	50.405946
1517.000000	50.340842
1516.000000	50.266140
1515.000000	50.209128
1514.000000	50.161170
1513.000000	50.132225
1512.000000	50.112891
1511.000000	50.106729
1510.000000	50.093634
1509.000000	50.068316
1508.000000	50.010105
1507.000000	49.986052
1506.000000	49.919511
1505.000000	49.895006
1504.000000	49.869409
1503.000000	49.829456
1502.000000	49.798694
1501.000000	49.793464
1500.000000	49.777312
1499.000000	49.765994
1498.000000	49.767096
1497.000000	49.770153
1496.000000	49.769328
1495.000000	49.779458
1494.000000	49.815471
1493.000000	49.833722
1492.000000	49.871385
1491.000000	49.899320
1490.000000	49.953069
1489.000000	49.990048
1488.000000	50.062547
1487.000000	50.097041
1486.000000	50.151998
1485.000000	50.234349
1484.000000	50.296914
1483.000000	50.358503
1482.000000	50.414064
1481.000000	50.514301
1480.000000	50.556017
1479.000000	50.646460
1478.000000	50.725270
1477.000000	50.772663
1476.000000	50.846597
1475.000000	50.927831
1474.000000	51.004652
1473.000000	51.075811
1472.000000	51.145268
1471.000000	51.219227
1470.000000	51.281862
1469.000000	51.343550
1468.000000	51.409527
1467.000000	51.470974
1466.000000	51.550170
1465.000000	51.629164
1464.000000	51.677006
1463.000000	51.726972
1462.000000	51.796197
1461.000000	51.883383
1460.000000	51.960856
1459.000000	52.004168
1458.000000	52.066747
1457.000000	52.154116
1456.000000	52.227901
1455.000000	52.328180
1454.000000	52.399731
1453.000000	52.485564
1452.000000	52.562224
1451.000000	52.662596
1450.000000	52.779585
1449.000000	52.847071
1448.000000	52.952395
1447.000000	53.052276
1446.000000	53.155268
1445.000000	53.270109
1444.000000	53.387343
1443.000000	53.483231
1442.000000	53.629319
1441.000000	53.750395
1440.000000	53.845432
1439.000000	53.976057
1438.000000	54.132650
1437.000000	54.272701
1436.000000	54.401222
1435.000000	54.550199
1434.000000	54.693424
1433.000000	54.843990
1432.000000	55.019283
1431.000000	55.169776
1430.000000	55.348574
1429.000000	55.538812
1428.000000	55.717368
1427.000000	55.913784
1426.000000	56.109172
1425.000000	56.312476
1424.000000	56.519186
1423.000000	56.735445
1422.000000	56.968599
1421.000000	57.196842
1420.000000	57.424696
1419.000000	57.668804
1418.000000	57.920476
1417.000000	58.182713
1416.000000	58.420544
1415.000000	58.667889
1414.000000	58.949570
1413.000000	59.220687
1412.000000	59.481639
1411.000000	59.759439
1410.000000	60.031803
1409.000000	60.303317
1408.000000	60.576910
1407.000000	60.860820
1406.000000	61.128910
1405.000000	61.380786
1404.000000	61.640196
1403.000000	61.899448
1402.000000	62.155051
1401.000000	62.428371
1400.000000	62.673048
1399.000000	62.922957
1398.000000	63.159499
1397.000000	63.371036
1396.000000	63.592959
1395.000000	63.831328
1394.000000	64.050876
1393.000000	64.259472
1392.000000	64.457683
1391.000000	64.643457
1390.000000	64.850113
1389.000000	65.044361
1388.000000	65.226839
1387.000000	65.406100
1386.000000	65.560360
1385.000000	65.702783
1384.000000	65.869988
1383.000000	66.014267
1382.000000	66.148486
1381.000000	66.281195
1380.000000	66.383408
1379.000000	66.496551
1378.000000	66.594455
1377.000000	66.679429
1376.000000	66.778387
1375.000000	66.881851
1374.000000	66.970772
1373.000000	67.032296
1372.000000	67.102188
1371.000000	67.167650
1370.000000	67.227992
1369.000000	67.290434
1368.000000	67.344413
1367.000000	67.402442
1366.000000	67.478252
1365.000000	67.554902
1364.000000	67.628936
1363.000000	67.709352
1362.000000	67.776780
1361.000000	67.842480
1360.000000	67.915721
1359.000000	67.982949
1358.000000	68.067161
1357.000000	68.140356
1356.000000	68.204788
1355.000000	68.285802
1354.000000	68.387221
1353.000000	68.474742
1352.000000	68.550961
1351.000000	68.627955
1350.000000	68.708950
1349.000000	68.783471
1348.000000	68.854178
1347.000000	68.936370
1346.000000	68.990750
1345.000000	69.085318
1344.000000	69.185078
1343.000000	69.253235
1342.000000	69.304004
1341.000000	69.366707
1340.000000	69.441946
1339.000000	69.515535
1338.000000	69.575696
1337.000000	69.655145
1336.000000	69.699224
1335.000000	69.735525
1334.000000	69.790990
1333.000000	69.864628
1332.000000	69.899635
1331.000000	69.945818
1330.000000	69.995716
1329.000000	70.025777
1328.000000	70.076431
1327.000000	70.110253
1326.000000	70.134629
1325.000000	70.181558
1324.000000	70.232417
1323.000000	70.233973
1322.000000	70.275420
1321.000000	70.312508
1320.000000	70.327277
1319.000000	70.348391
1318.000000	70.370747
1317.000000	70.392732
1316.000000	70.402460
1315.000000	70.411552
1314.000000	70.439110
1313.000000	70.465316
1312.000000	70.477812
1311.000000	70.515523
1310.000000	70.536600
1309.000000	70.554673
1308.000000	70.572518
1307.000000	70.595829
1306.000000	70.594677
1305.000000	70.626255
1304.000000	70.638594
1303.000000	70.657544
1302.000000	70.655059
1301.000000	70.661399
1300.000000	70.693580
1299.000000	70.719462
1298.000000	70.695076
1297.000000	70.723599
1296.000000	70.704651
1295.000000	70.717070
1294.000000	70.711176
1293.000000	70.709060
1292.000000	70.697669
1291.000000	70.697881
1290.000000	70.675116
1289.000000	70.679067
1288.000000	70.650617
1287.000000	70.636438
1286.000000	70.634807
1285.000000	70.648728
1284.000000	70.637920
1283.000000	70.648118
1282.000000	70.659498
1281.000000	70.664662
1280.000000	70.641783
1279.000000	70.634000
1278.000000	70.606607
1277.000000	70.610168
1276.000000	70.620088
1275.000000	70.602901
1274.000000	70.615595
1273.000000	70.635441
1272.000000	70.626292
1271.000000	70.643944
1270.000000	70.625505
1269.000000	70.624795
1268.000000	70.655343
1267.000000	70.665309
1266.000000	70.665316
1265.000000	70.678895
1264.000000	70.690636
1263.000000	70.682713
1262.000000	70.698252
1261.000000	70.752030
1260.000000	70.752391
1259.000000	70.773444
1258.000000	70.757222
1257.000000	70.750898
1256.000000	70.778043
1255.000000	70.770408
1254.000000	70.808940
1253.000000	70.810143
1252.000000	70.823899
1251.000000	70.822036
1250.000000	70.808278
1249.000000	70.791994
1248.000000	70.798605
1247.000000	70.791627
1246.000000	70.789152
1245.000000	70.784632
1244.000000	70.772531
1243.000000	70.763359
1242.000000	70.695056
1241.000000	70.664675
1240.000000	70.659339
1239.000000	70.644699
1238.000000	70.636477
1237.000000	70.590638
1236.000000	70.562163
1235.000000	70.547670
1234.000000	70.493759
1233.000000	70.487981
1232.000000	70.475794
1231.000000	70.447486
1230.000000	70.394099
1229.000000	70.366003
1228.000000	70.364931
1227.000000	70.347215
1226.000000	70.318463
1225.000000	70.309711
1224.000000	70.278189
1223.000000	70.239205
1222.000000	70.206609
1221.000000	70.213384
1220.000000	70.177761
1219.000000	70.142288
1218.000000	70.107367
1217.000000	70.111837
1216.000000	70.093908
1215.000000	70.034005
1214.000000	70.019258
1213.000000	69.981637
1212.000000	69.933787
1211.000000	69.918434
1210.000000	69.880709
1209.000000	69.821553
1208.000000	69.782598
1207.000000	69.723992
1206.000000	69.695294
1205.000000	69.635609
1204.000000	69.600033
1203.000000	69.561172
1202.000000	69.505557
1201.000000	69.455969
1200.000000	69.426557
1199.000000	69.364441
1198.000000	69.312186
1197.000000	69.271653
1196.000000	69.242174
1195.000000	69.205151
1194.000000	69.176804
1193.000000	69.148278
1192.000000	69.109716
1191.000000	69.082846
1190.000000	69.041922
1189.000000	69.012439
1188.000000	69.017428
1187.000000	68.998688
1186.000000	68.991128
1185.000000	69.000039
1184.000000	68.996604
1183.000000	68.994739
1182.000000	69.012358
1181.000000	69.041500
1180.000000	69.074739
1179.000000	69.107935
1178.000000	69.134943
1177.000000	69.175956
1176.000000	69.219008
1175.000000	69.286005
1174.000000	69.349759
1173.000000	69.403629
1172.000000	69.469315
1171.000000	69.543392
1170.000000	69.631338
1169.000000	69.709857
1168.000000	69.785806
1167.000000	69.885893
1166.000000	69.969620
1165.000000	70.058878
1164.000000	70.167500
1163.000000	70.267463
1162.000000	70.357684
1161.000000	70.437670
1160.000000	70.526112
1159.000000	70.609831
1158.000000	70.693540
1157.000000	70.779672
1156.000000	70.860937
1155.000000	70.953305
1154.000000	71.029737
1153.000000	71.100982
1152.000000	71.169408
1151.000000	71.245127
1150.000000	71.314098
1149.000000	71.371861
1148.000000	71.433142
1147.000000	71.478893
1146.000000	71.526497
1145.000000	71.599758
1144.000000	71.667863
1143.000000	71.705416
1142.000000	71.744976
1141.000000	71.808555
1140.000000	71.878274
1139.000000	71.925302
1138.000000	71.974132
1137.000000	72.019788
1136.000000	72.060902
1135.000000	72.103010
1134.000000	72.155569
1133.000000	72.204545
1132.000000	72.255639
1131.000000	72.298774
1130.000000	72.338944
1129.000000	72.357664
1128.000000	72.377056
1127.000000	72.419212
1126.000000	72.449041
1125.000000	72.476860
1124.000000	72.493718
1123.000000	72.523674
1122.000000	72.539823
1121.000000	72.553020
1120.000000	72.560109
1119.000000	72.571558
1118.000000	72.588450
1117.000000	72.596440
1116.000000	72.610156
1115.000000	72.625896
1114.000000	72.631929
1113.000000	72.642948
1112.000000	72.642476
1111.000000	72.656312
1110.000000	72.666750
1109.000000	72.668735
1108.000000	72.662415
1107.000000	72.683465
1106.000000	72.691745
1105.000000	72.685622
1104.000000	72.687063
1103.000000	72.680089
1102.000000	72.676300
1101.000000	72.680556
1100.000000	72.689244
1099.000000	72.690407
1098.000000	72.715338
1097.000000	72.717120
1096.000000	72.725529
1095.000000	72.701647
1094.000000	72.696335
1093.000000	72.693702
1092.000000	72.701758
1091.000000	72.705623
1090.000000	72.705411
1089.000000	72.715220
1088.000000	72.724900
1087.000000	72.690285
1086.000000	72.708086
1085.000000	72.688685
1084.000000	72.699098
1083.000000	72.694264
1082.000000	72.697326
1081.000000	72.677671
1080.000000	72.671976
1079.000000	72.666545
1078.000000	72.667898
1077.000000	72.664046
1076.000000	72.672576
1075.000000	72.665731
1074.000000	72.623559
1073.000000	72.635634
1072.000000	72.635643
1071.000000	72.617227
1070.000000	72.625879
1069.000000	72.612250
1068.000000	72.611445
1067.000000	72.607834
1066.000000	72.564976
1065.000000	72.563179
1064.000000	72.567259
1063.000000	72.573411
1062.000000	72.570152
1061.000000	72.547847
1060.000000	72.537045
1059.000000	72.495762
1058.000000	72.498356
1057.000000	72.514529
1056.000000	72.530496
1055.000000	72.484756
1054.000000	72.479121
1053.000000	72.464403
1052.000000	72.451873
1051.000000	72.461471
1050.000000	72.457901
1049.000000	72.443471
1048.000000	72.398477
1047.000000	72.424044
1046.000000	72.422952
1045.000000	72.402038
1044.000000	72.405774
1043.000000	72.393543
1042.000000	72.380971
1041.000000	72.395386
1040.000000	72.405533
1039.000000	72.370191
1038.000000	72.364460
1037.000000	72.383163
1036.000000	72.350369
1035.000000	72.350981
1034.000000	72.341262
1033.000000	72.328393
1032.000000	72.340649
1031.000000	72.337027
1030.000000	72.341863
1029.000000	72.343025
1028.000000	72.316579
1027.000000	72.333133
1026.000000	72.338663
1025.000000	72.327498
1024.000000	72.331601
1023.000000	72.332876
1022.000000	72.325331
1021.000000	72.335419
1020.000000	72.330769
1019.000000	72.333963
1018.000000	72.327169
1017.000000	72.325479
1016.000000	72.339793
1015.000000	72.340264
1014.000000	72.358759
1013.000000	72.346207
1012.000000	72.347415
1011.000000	72.350599
1010.000000	72.381190
1009.000000	72.389344
1008.000000	72.359490
1007.000000	72.376994
1006.000000	72.395141
1005.000000	72.386168
1004.000000	72.407922
1003.000000	72.412455
1002.000000	72.424767
1001.000000	72.423331
1000.000000	72.415200
999.000000	72.408957
998.000000	72.455043
997.000000	72.456376
996.000000	72.436472
995.000000	72.449109
994.000000	72.462636
993.000000	72.475822
992.000000	72.485069
991.000000	72.504903
990.000000	72.512415
989.000000	72.505137
988.000000	72.503706
987.000000	72.517874
986.000000	72.536657
985.000000	72.558554
984.000000	72.563701
983.000000	72.567821
982.000000	72.571095
981.000000	72.565248
980.000000	72.580392
979.000000	72.596458
978.000000	72.614306
977.000000	72.625986
976.000000	72.632370
975.000000	72.616080
974.000000	72.639630
973.000000	72.660754
972.000000	72.676143
971.000000	72.687161
970.000000	72.694953
969.000000	72.700206
968.000000	72.707927
967.000000	72.717839
966.000000	72.720413
965.000000	72.717303
964.000000	72.733126
963.000000	72.754363
962.000000	72.772925
961.000000	72.780621
960.000000	72.784739
959.000000	72.780170
958.000000	72.807520
957.000000	72.832134
956.000000	72.832906
955.000000	72.842596
954.000000	72.850064
953.000000	72.851020
952.000000	72.860207
951.000000	72.857982
950.000000	72.859639
949.000000	72.882988
948.000000	72.886095
947.000000	72.907059
946.000000	72.921331
945.000000	72.932877
944.000000	72.933777
943.000000	72.929175
942.000000	72.944550
941.000000	72.951271
940.000000	72.959918
939.000000	72.960166
938.000000	72.950813
937.000000	72.953768
936.000000	72.925110
935.000000	72.913776
934.000000	72.944833
933.000000	72.960205
932.000000	72.964232
931.000000	72.963007
930.000000	72.958201
929.000000	72.953479
928.000000	72.950305
927.000000	72.962353
926.000000	72.961090
925.000000	72.974914
924.000000	72.964079
923.000000	72.945085
922.000000	72.964296
921.000000	72.953285
920.000000	72.953045
919.000000	72.948783
918.000000	72.955890
917.000000	72.970701
916.000000	72.937990
915.000000	72.948568
914.000000	72.961327
913.000000	72.946511
912.000000	72.966666
911.000000	72.983301
910.000000	72.978390
909.000000	72.956916
908.000000	72.964738
907.000000	72.971325
906.000000	72.942105
905.000000	72.945642
904.000000	72.986042
903.000000	72.988518
902.000000	72.986679
901.000000	73.028173
900.000000	73.024449
899.000000	73.021788
898.000000	73.030740
897.000000	73.016038
896.000000	73.033308
895.000000	73.054874
894.000000	73.057549
893.000000	73.067747
892.000000	73.085097
891.000000	73.035162
890.000000	73.055632
889.000000	73.082994
888.000000	73.154965
887.000000	73.171256
886.000000	73.138380
885.000000	73.180644
884.000000	73.158447
883.000000	73.194422
882.000000	73.209359
881.000000	73.146603
880.000000	73.177332
879.000000	73.169931
878.000000	73.199183
877.000000	73.194395
876.000000	73.208910
875.000000	73.170645
874.000000	73.132291
873.000000	73.194026
872.000000	73.227648
871.000000	73.192345
870.000000	73.234702
869.000000	73.222685
868.000000	73.257792
867.000000	73.215520
866.000000	73.182657
865.000000	73.337853
864.000000	73.267172
863.000000	73.232642
862.000000	73.346062
861.000000	73.208409
860.000000	73.236257
859.000000	73.114067
858.000000	73.182478
857.000000	73.329367
856.000000	73.013117
855.000000	72.978314
854.000000	73.020623
853.000000	73.112452
852.000000	73.021040
851.000000	73.385818
850.000000	73.304009
849.000000	73.105664
848.000000	73.202480
847.000000	73.143930
846.000000	73.257084
845.000000	73.063437
844.000000	73.045848
843.000000	73.012442
842.000000	73.180975
841.000000	73.186691
840.000000	73.028005
839.000000	73.329896
838.000000	73.169697
837.000000	72.878370
836.000000	73.295045
835.000000	73.187887
834.000000	73.160007
833.000000	73.010266
832.000000	73.050642
831.000000	73.268934
830.000000	73.184348
829.000000	73.235139
828.000000	73.188247
827.000000	73.136416
826.000000	73.155112
825.000000	73.086959
824.000000	73.088323
823.000000	73.194867
822.000000	73.070937
821.000000	73.060072
820.000000	73.248203
819.000000	73.196548
818.000000	73.221637
817.000000	73.266345
816.000000	72.989156
815.000000	73.037400
814.000000	73.102091
813.000000	73.143654
812.000000	73.117493
811.000000	73.227252
810.000000	73.256734
809.000000	73.044071
808.000000	73.364026
807.000000	73.253963
806.000000	73.169756
805.000000	73.231691
804.000000	73.066118
803.000000	73.152244
802.000000	73.212976
801.000000	73.343042
800.000000	73.253340
799.000000	73.184451
798.000000	73.022542
797.000000	73.064724
796.000000	73.202729
795.000000	73.339660
794.000000	73.129668
793.000000	73.233274
792.000000	73.052004
791.000000	73.134322
790.000000	73.203936
789.000000	73.316159
788.000000	73.287448
787.000000	73.215220
786.000000	73.208653
785.000000	73.309161
784.000000	73.424984
783.000000	73.253266
782.000000	73.235099
781.000000	73.163955
780.000000	73.145402
779.000000	73.112978
778.000000	73.168121
777.000000	73.160263
776.000000	73.254458
775.000000	73.111142
774.000000	73.241965
773.000000	73.247658
772.000000	73.147325
771.000000	73.086045
770.000000	73.130459
769.000000	73.179369
768.000000	73.175846
767.000000	73.236133
766.000000	73.140760
765.000000	73.094432
764.000000	73.138023
763.000000	73.147012
762.000000	73.193937
761.000000	73.174639
760.000000	73.216647
759.000000	73.109289
758.000000	73.199772
757.000000	73.235868
756.000000	73.243156
755.000000	73.200404
754.000000	73.134474
753.000000	73.145605
752.000000	73.197236
751.000000	73.219563
750.000000	73.155389
749.000000	73.091097
748.000000	73.121432
747.000000	73.135069
746.000000	73.246478
745.000000	73.271274
744.000000	73.253107
743.000000	73.208051
742.000000	73.070530
741.000000	73.121904
740.000000	73.222768
739.000000	73.201397
738.000000	73.271305
737.000000	73.249633
736.000000	73.160435
735.000000	73.200854
734.000000	73.185486
733.000000	73.195766
732.000000	73.224846
731.000000	73.159042
730.000000	73.103415
729.000000	73.112481
728.000000	73.200159
727.000000	73.194374
726.000000	73.219553
725.000000	73.151213
724.000000	73.156261
723.000000	73.171639
722.000000	73.154182
721.000000	73.135357
720.000000	73.121563
719.000000	73.109912
718.000000	73.141364
717.000000	73.187293
716.000000	73.210568
715.000000	73.198296
714.000000	73.120095
713.000000	73.048859
712.000000	73.135260
711.000000	73.225268
710.000000	73.230368
709.000000	73.185130
708.000000	73.165334
707.000000	73.134553
706.000000	73.095215
705.000000	73.131778
704.000000	73.162482
703.000000	73.179781
702.000000	73.207719
701.000000	73.182613
700.000000	73.122932
699.000000	73.071689
698.000000	73.141772
697.000000	73.133513
696.000000	73.065773
695.000000	73.109088
694.000000	73.184928
693.000000	73.159132
692.000000	73.136269
691.000000	73.198079
690.000000	73.167387
689.000000	73.144368
688.000000	73.093163
687.000000	73.105848
686.000000	73.110382
685.000000	73.088399
684.000000	73.084912
683.000000	73.076667
682.000000	73.140756
681.000000	73.170422
680.000000	73.116676
679.000000	73.205249
678.000000	73.236998
677.000000	73.198197
676.000000	73.141458
675.000000	73.137564
674.000000	73.129534
673.000000	73.170832
672.000000	73.147047
671.000000	73.103027
670.000000	73.166941
669.000000	73.190691
668.000000	73.153462
667.000000	73.174570
666.000000	73.176945
665.000000	73.171751
664.000000	73.131356
663.000000	73.135912
662.000000	73.124235
661.000000	73.096269
660.000000	73.113691
659.000000	73.172407
658.000000	73.179156
657.000000	73.173724
656.000000	73.115696
655.000000	73.111588
654.000000	73.072518
653.000000	73.119637
652.000000	73.110207
651.000000	73.090787
650.000000	73.147423
649.000000	73.108492
648.000000	73.081121
647.000000	73.080706
646.000000	73.035510
645.000000	73.079157
644.000000	73.047197
643.000000	73.060550
642.000000	73.110099
641.000000	73.078525
640.000000	73.088648
639.000000	73.041931
638.000000	73.010525
637.000000	73.060938
636.000000	73.036461
635.000000	73.046954
634.000000	72.992151
633.000000	73.015632
632.000000	73.002277
631.000000	73.022994
630.000000	73.052674
629.000000	72.997845
628.000000	72.963988
627.000000	72.995172
626.000000	72.961164
625.000000	72.983125
624.000000	72.933653
623.000000	72.977543
622.000000	72.985650
621.000000	72.939051
620.000000	72.948485
619.000000	72.978341
618.000000	72.898680
617.000000	72.948036
616.000000	72.907024
615.000000	72.895709
614.000000	72.908841
613.000000	72.956712
612.000000	72.954152
611.000000	72.925395
610.000000	72.924137
609.000000	72.851929
608.000000	72.847255
607.000000	72.829287
606.000000	72.828720
605.000000	72.846633
604.000000	72.804276
603.000000	72.809607
602.000000	72.789655
601.000000	72.854247
600.000000	72.790008
599.000000	72.780477
598.000000	72.749186
597.000000	72.759840
596.000000	72.688180
595.000000	72.780130
594.000000	72.728668
593.000000	72.684113
592.000000	72.678618
591.000000	72.626910
590.000000	72.675909
589.000000	72.683672
588.000000	72.587946
587.000000	72.681665
586.000000	72.608748
585.000000	72.595768
584.000000	72.564689
583.000000	72.516970
582.000000	72.515481
581.000000	72.532037
580.000000	72.479067
579.000000	72.392788
578.000000	72.399969
577.000000	72.434417
576.000000	72.430176
575.000000	72.447161
574.000000	72.363681
573.000000	72.383983
572.000000	72.308185
571.000000	72.325467
570.000000	72.354753
569.000000	72.296503
568.000000	72.331534
567.000000	72.236448
566.000000	72.260440
565.000000	72.202600
564.000000	72.197853
563.000000	72.204497
562.000000	72.134657
561.000000	72.036951
560.000000	71.995723
559.000000	71.996927
558.000000	71.977207
557.000000	71.981714
556.000000	71.933359
555.000000	71.875537
554.000000	71.900699
553.000000	71.866603
552.000000	71.815741
551.000000	71.781972
550.000000	71.766288
549.000000	71.754770
548.000000	71.754133
547.000000	71.704884
546.000000	71.632704
545.000000	71.629270
544.000000	71.534931
543.000000	71.522963
542.000000	71.506146
541.000000	71.489646
540.000000	71.477129
539.000000	71.443160
538.000000	71.447619
537.000000	71.385821
536.000000	71.300006
535.000000	71.350775
534.000000	71.293911
533.000000	71.253403
532.000000	71.225990
531.000000	71.247764
530.000000	71.107014
529.000000	71.051928
528.000000	71.050271
527.000000	71.002605
526.000000	70.968303
525.000000	70.990058
524.000000	70.916327
523.000000	70.804953
522.000000	70.831867
521.000000	70.787322
520.000000	70.752066
519.000000	70.702229
518.000000	70.611582
517.000000	70.611777
516.000000	70.554583
515.000000	70.508248
514.000000	70.456665
513.000000	70.417091
512.000000	70.336329
511.000000	70.307028
510.000000	70.298225
509.000000	70.233630
508.000000	70.171764
507.000000	70.116967
506.000000	70.042561
505.000000	70.000176
504.000000	69.952236
503.000000	69.890361
502.000000	69.869925
501.000000	69.775103
500.000000	69.715177
499.000000	69.693428
498.000000	69.609316
497.000000	69.544966
496.000000	69.505925
495.000000	69.410205
494.000000	69.371757
493.000000	69.329318
492.000000	69.222888
491.000000	69.134242
490.000000	69.062341
489.000000	69.050055
488.000000	68.941485
487.000000	68.851746
486.000000	68.873406
485.000000	68.870379
484.000000	68.793236
483.000000	68.739234
482.000000	68.681497
481.000000	68.588525
480.000000	68.542790
479.000000	68.484967
478.000000	68.353932
477.000000	68.259861
476.000000	68.178727
475.000000	68.060508
474.000000	67.992756
473.000000	67.896967
472.000000	67.802414
471.000000	67.737890
470.000000	67.667159
469.000000	67.589508
468.000000	67.511637
467.000000	67.418356
466.000000	67.306945
465.000000	67.211034
464.000000	67.114471
463.000000	66.985074
462.000000	66.901809
461.000000	66.828908
460.000000	66.695792
459.000000	66.605703
458.000000	66.481886
457.000000	66.351456
456.000000	66.251731
455.000000	66.157417
454.000000	66.038857
453.000000	65.896178
452.000000	65.757076
451.000000	65.655129
450.000000	65.536182
449.000000	65.413121
448.000000	65.299207
447.000000	65.172132
446.000000	65.004477
445.000000	64.886211
444.000000	64.768943
443.000000	64.648750
442.000000	64.471661
441.000000	64.279632
440.000000	64.118591
439.000000	63.999512
438.000000	63.884377
437.000000	63.701819
436.000000	63.547754
435.000000	63.395295
434.000000	63.249170
433.000000	63.073920
432.000000	62.877008
431.000000	62.639853
430.000000	62.497474
429.000000	62.320423
428.000000	62.108899
427.000000	61.875738
426.000000	61.725700
425.000000	61.588859
424.000000	61.336285
423.000000	61.122195
422.000000	60.955729
421.000000	60.730599
420.000000	60.500769
419.000000	60.259157
418.000000	60.041348
417.000000	59.850856
416.000000	59.684377
415.000000	59.428538
414.000000	59.190117
413.000000	58.923138
412.000000	58.729440
411.000000	58.431877
410.000000	58.179151
409.000000	57.902924
408.000000	57.665944
407.000000	57.432285
406.000000	57.155802
405.000000	56.871493
404.000000	56.702839
403.000000	56.397897
402.000000	56.147051
401.000000	55.841770
400.000000	55.579797
399.000000	55.349782
398.000000	55.121486
397.000000	54.851533
396.000000	54.492703
395.000000	54.262091
394.000000	53.989414
393.000000	53.619426
392.000000	53.424308
391.000000	53.066336
390.000000	52.726263
389.000000	52.577501
388.000000	52.243307
387.000000	51.900930
386.000000	51.577961
385.000000	51.295055
384.000000	50.939509
383.000000	50.645490
382.000000	50.232532
381.000000	50.004903
380.000000	49.548419
379.000000	49.311967
378.000000	48.768800
377.000000	48.617514
376.000000	48.301012
375.000000	48.013615
374.000000	47.536679
373.000000	47.215313
372.000000	46.961032
371.000000	46.450376
370.000000	46.239771
369.000000	45.845320
368.000000	45.424424
367.000000	45.179825
366.000000	44.807993
365.000000	44.512185
364.000000	44.171061
363.000000	43.570715
362.000000	43.321449
361.000000	43.027321
360.000000	42.680550
359.000000	42.252332
358.000000	42.031774
357.000000	41.586175
356.000000	41.251177
355.000000	41.018289
354.000000	40.814401
353.000000	40.419852
352.000000	39.987387
351.000000	39.623416
350.000000	39.332640
349.000000	39.194067
348.000000	38.717825
347.000000	38.224457
346.000000	37.893101
345.000000	37.458394
344.000000	37.213859
343.000000	36.797664
342.000000	36.448861
341.000000	35.957123
340.000000	35.671855
339.000000	35.176931
338.000000	34.722012
337.000000	34.349010
336.000000	33.785434
335.000000	33.117525
334.000000	32.562777
333.000000	32.059021
332.000000	31.405165
331.000000	31.008298
330.000000	30.271805
329.000000	29.756869
328.000000	29.328955
327.000000	28.794676
326.000000	28.119751
325.000000	27.737820
324.000000	27.205985
323.000000	26.840703
322.000000	26.543387
321.000000	26.051916
320.000000	25.741549
319.000000	25.424604
318.000000	25.093500
317.000000	24.810144
316.000000	24.583428
315.000000	24.305259
314.000000	24.129779
313.000000	23.835324
312.000000	23.670404
311.000000	23.460285
310.000000	23.255454
309.000000	22.971636
308.000000	22.680382
307.000000	22.635161
306.000000	22.339279
305.000000	22.142774
304.000000	22.003243
303.000000	21.774290
302.000000	21.506805
301.000000	21.271101
300.000000	21.081744
299.000000	20.787547
298.000000	20.520342
297.000000	20.259600
296.000000	19.944673
295.000000	19.524738
294.000000	18.942379
293.000000	18.434087
292.000000	17.908557
291.000000	17.296138
290.000000	16.715365
289.000000	16.182869
288.000000	15.814610
287.000000	15.501715
286.000000	15.329562
285.000000	15.196436
284.000000	15.116068
283.000000	15.249105
282.000000	15.317627
281.000000	15.337013
280.000000	15.395549
279.000000	15.500820
278.000000	15.636499
277.000000	15.818294
276.000000	15.865938
275.000000	16.107730
274.000000	16.290303
273.000000	16.460733
272.000000	16.714483
271.000000	16.809971
270.000000	16.871330
269.000000	16.974253
268.000000	17.170431
267.000000	17.424015
266.000000	17.516950
265.000000	17.768220
264.000000	17.991204
263.000000	18.273324
262.000000	18.579806
261.000000	18.764306
260.000000	18.970728
259.000000	19.165408
258.000000	19.487633
257.000000	19.854401
256.000000	20.186755
255.000000	20.388431
254.000000	20.504857
253.000000	20.587309
252.000000	20.594367
251.000000	20.629207
250.000000	20.515753
249.000000	20.272816
248.000000	20.019606
247.000000	19.725718
246.000000	19.159049
245.000000	18.630623
244.000000	18.202852
243.000000	17.806292
242.000000	17.422990
241.000000	17.050494
240.000000	16.883861
239.000000	16.787633
238.000000	16.718576
237.000000	16.704652
236.000000	16.733827
235.000000	16.822572
234.000000	16.960909
233.000000	16.956073
232.000000	16.961527
231.000000	17.079812
230.000000	17.175610
229.000000	17.218352
228.000000	17.253843
227.000000	17.347266
226.000000	17.455674
225.000000	17.582066
224.000000	17.820409
223.000000	18.056255
222.000000	18.241618
221.000000	18.541657
220.000000	18.882350
219.000000	19.142858
218.000000	19.375491
217.000000	19.734373
216.000000	20.054181
215.000000	20.565884
214.000000	21.102232
213.000000	21.435929
212.000000	21.850948
211.000000	22.305582
210.000000	22.920844
209.000000	23.548833
208.000000	24.113065
207.000000	24.739593
206.000000	25.428661
205.000000	26.009844
204.000000	26.540184
203.000000	27.269999
202.000000	28.103217
201.000000	28.684527
200.000000	29.244337
