PE UV       SUBTECH     SPECTRUM    ASCII       PEDS        4.00        
   -1
RTgAgneauUK 12.Sample.asc
18/03/09
15:54:38.00
18/03/09
15:54:38.00
Administrator

200.000000
1
Lambda 750
750N8071901
PerkinElmer UV WinLab 6.0.4.0738 / 1.61.00 Lambda 900

0
0
3350/servo 860.8/2
0
0
UV/VIS
1
1
1
CommonBeamDepol,150mm sphere / downward view
0
0
0
0
Program
Program
3350/servo 860.8/2
3350/0.2 860.8/0.2
3350/0.2 860.8/0.2
0
1
 
 
 
0
 
860.8
319.2
860.8
Front
100
on
 
 
0
0
0
 
0
 
 
 
0
 
 
0
0
0
0
0
 
 
 
 
0
0


0
0
#HDR
-1
-1
#GR
nm
%R
1.0
0.0
2350.000000
-1.000000
2151
8
72.581779
16.377952
#DATA
2350.000000	31.015782
2349.000000	30.542478
2348.000000	30.607128
2347.000000	31.290035
2346.000000	30.774031
2345.000000	30.753370
2344.000000	31.035053
2343.000000	31.106875
2342.000000	30.723448
2341.000000	30.938861
2340.000000	30.852545
2339.000000	31.167320
2338.000000	31.137593
2337.000000	31.328306
2336.000000	31.528840
2335.000000	31.244694
2334.000000	31.166084
2333.000000	31.270528
2332.000000	31.296851
2331.000000	31.263083
2330.000000	31.289783
2329.000000	31.343766
2328.000000	31.282028
2327.000000	31.151770
2326.000000	31.150131
2325.000000	31.137720
2324.000000	31.096784
2323.000000	31.322994
2322.000000	31.013308
2321.000000	31.112352
2320.000000	31.092004
2319.000000	31.195990
2318.000000	31.181924
2317.000000	31.188376
2316.000000	30.992566
2315.000000	30.635591
2314.000000	30.529535
2313.000000	30.539958
2312.000000	30.608676
2311.000000	30.485833
2310.000000	30.267570
2309.000000	30.390660
2308.000000	30.119702
2307.000000	30.050593
2306.000000	29.924961
2305.000000	30.047681
2304.000000	29.977266
2303.000000	29.643989
2302.000000	29.716579
2301.000000	29.835651
2300.000000	29.522492
2299.000000	29.233012
2298.000000	29.244935
2297.000000	29.151739
2296.000000	29.077480
2295.000000	29.042091
2294.000000	28.914118
2293.000000	28.808092
2292.000000	28.621749
2291.000000	28.679618
2290.000000	28.644644
2289.000000	28.526608
2288.000000	28.440228
2287.000000	28.459808
2286.000000	28.377831
2285.000000	28.214225
2284.000000	28.252258
2283.000000	28.217138
2282.000000	28.225243
2281.000000	28.277593
2280.000000	28.208200
2279.000000	28.286566
2278.000000	28.212803
2277.000000	28.107226
2276.000000	28.329067
2275.000000	28.576621
2274.000000	28.414309
2273.000000	28.517713
2272.000000	28.624315
2271.000000	28.467043
2270.000000	28.575630
2269.000000	28.687272
2268.000000	28.759551
2267.000000	28.722393
2266.000000	28.867695
2265.000000	29.092148
2264.000000	29.334598
2263.000000	29.374506
2262.000000	29.392999
2261.000000	29.378426
2260.000000	29.575726
2259.000000	29.911738
2258.000000	30.116421
2257.000000	30.387765
2256.000000	30.576553
2255.000000	30.726008
2254.000000	30.989454
2253.000000	31.208169
2252.000000	31.417842
2251.000000	31.713277
2250.000000	31.929099
2249.000000	32.159910
2248.000000	32.336987
2247.000000	32.465057
2246.000000	32.824103
2245.000000	33.084982
2244.000000	33.323053
2243.000000	33.605355
2242.000000	33.811557
2241.000000	34.076922
2240.000000	34.189127
2239.000000	34.326187
2238.000000	34.591181
2237.000000	34.777368
2236.000000	34.768979
2235.000000	34.704239
2234.000000	34.877359
2233.000000	35.067798
2232.000000	35.157593
2231.000000	35.236860
2230.000000	35.285074
2229.000000	35.296419
2228.000000	35.363667
2227.000000	35.377515
2226.000000	35.425978
2225.000000	35.453973
2224.000000	35.353221
2223.000000	35.401852
2222.000000	35.422819
2221.000000	35.324418
2220.000000	35.310144
2219.000000	35.279965
2218.000000	35.155107
2217.000000	35.136534
2216.000000	35.154042
2215.000000	35.188824
2214.000000	35.052482
2213.000000	34.974455
2212.000000	34.881408
2211.000000	34.775799
2210.000000	34.815581
2209.000000	34.795445
2208.000000	34.584465
2207.000000	34.396348
2206.000000	34.357078
2205.000000	34.313860
2204.000000	34.172307
2203.000000	34.039969
2202.000000	33.889116
2201.000000	33.926650
2200.000000	33.909528
2199.000000	33.788326
2198.000000	33.750064
2197.000000	33.577341
2196.000000	33.463975
2195.000000	33.390203
2194.000000	33.219636
2193.000000	33.097955
2192.000000	33.149263
2191.000000	33.068701
2190.000000	32.955093
2189.000000	32.851223
2188.000000	32.641514
2187.000000	32.618228
2186.000000	32.599017
2185.000000	32.418610
2184.000000	32.661797
2183.000000	32.636100
2182.000000	32.586292
2181.000000	32.357480
2180.000000	32.352603
2179.000000	32.188422
2178.000000	32.141905
2177.000000	32.121063
2176.000000	32.225440
2175.000000	32.263864
2174.000000	32.315847
2173.000000	32.284789
2172.000000	32.311575
2171.000000	32.405391
2170.000000	32.432492
2169.000000	32.692273
2168.000000	32.788468
2167.000000	32.785841
2166.000000	32.930838
2165.000000	32.975917
2164.000000	32.957714
2163.000000	33.070325
2162.000000	33.308352
2161.000000	33.420802
2160.000000	33.574618
2159.000000	33.827163
2158.000000	33.872967
2157.000000	33.998702
2156.000000	34.322553
2155.000000	34.489266
2154.000000	34.475582
2153.000000	34.888858
2152.000000	34.836114
2151.000000	35.041787
2150.000000	35.285616
2149.000000	35.437031
2148.000000	35.601401
2147.000000	35.777867
2146.000000	35.864806
2145.000000	36.221217
2144.000000	36.239350
2143.000000	36.447917
2142.000000	36.685716
2141.000000	36.581345
2140.000000	36.999929
2139.000000	37.132438
2138.000000	37.150847
2137.000000	37.367116
2136.000000	37.342572
2135.000000	37.720753
2134.000000	37.880316
2133.000000	37.749931
2132.000000	37.971660
2131.000000	38.154891
2130.000000	38.196781
2129.000000	38.139781
2128.000000	38.337563
2127.000000	38.569940
2126.000000	38.525422
2125.000000	38.690271
2124.000000	38.665010
2123.000000	38.519212
2122.000000	38.780089
2121.000000	38.911282
2120.000000	38.743205
2119.000000	38.918558
2118.000000	39.070791
2117.000000	38.970374
2116.000000	39.111795
2115.000000	39.058754
2114.000000	39.050681
2113.000000	39.219449
2112.000000	39.207107
2111.000000	39.093153
2110.000000	39.193216
2109.000000	39.235776
2108.000000	39.265090
2107.000000	39.350208
2106.000000	39.323813
2105.000000	39.349306
2104.000000	39.414364
2103.000000	39.412988
2102.000000	39.393381
2101.000000	39.461147
2100.000000	39.457162
2099.000000	39.331592
2098.000000	39.395559
2097.000000	39.396357
2096.000000	39.384539
2095.000000	39.477017
2094.000000	39.373307
2093.000000	39.379755
2092.000000	39.373192
2091.000000	39.364485
2090.000000	39.338003
2089.000000	39.351211
2088.000000	39.283098
2087.000000	39.296434
2086.000000	39.285948
2085.000000	39.228540
2084.000000	39.152351
2083.000000	39.067132
2082.000000	39.012917
2081.000000	38.866020
2080.000000	38.852384
2079.000000	38.749409
2078.000000	38.553729
2077.000000	38.513260
2076.000000	38.415912
2075.000000	38.246685
2074.000000	38.086170
2073.000000	38.052854
2072.000000	37.846737
2071.000000	37.724869
2070.000000	37.592389
2069.000000	37.375916
2068.000000	37.188194
2067.000000	36.988859
2066.000000	36.805817
2065.000000	36.581254
2064.000000	36.464355
2063.000000	36.223068
2062.000000	36.079265
2061.000000	35.897741
2060.000000	35.669633
2059.000000	35.495675
2058.000000	35.302924
2057.000000	35.128179
2056.000000	34.958492
2055.000000	34.821957
2054.000000	34.648479
2053.000000	34.536479
2052.000000	34.347389
2051.000000	34.138700
2050.000000	34.010058
2049.000000	33.907548
2048.000000	33.772947
2047.000000	33.661166
2046.000000	33.592764
2045.000000	33.542003
2044.000000	33.475189
2043.000000	33.421004
2042.000000	33.365587
2041.000000	33.385733
2040.000000	33.394494
2039.000000	33.416680
2038.000000	33.536419
2037.000000	33.606251
2036.000000	33.668023
2035.000000	33.824187
2034.000000	33.964404
2033.000000	34.060120
2032.000000	34.187953
2031.000000	34.297324
2030.000000	34.396496
2029.000000	34.606292
2028.000000	34.759571
2027.000000	34.874750
2026.000000	35.017256
2025.000000	35.122155
2024.000000	35.203532
2023.000000	35.329369
2022.000000	35.442213
2021.000000	35.498015
2020.000000	35.589354
2019.000000	35.621544
2018.000000	35.638538
2017.000000	35.719798
2016.000000	35.772988
2015.000000	35.767222
2014.000000	35.767436
2013.000000	35.711986
2012.000000	35.665064
2011.000000	35.674554
2010.000000	35.641502
2009.000000	35.560196
2008.000000	35.472332
2007.000000	35.352743
2006.000000	35.279000
2005.000000	35.245085
2004.000000	35.110932
2003.000000	34.991423
2002.000000	34.911757
2001.000000	34.797796
2000.000000	34.718150
1999.000000	34.610128
1998.000000	34.469365
1997.000000	34.330928
1996.000000	34.235464
1995.000000	34.095707
1994.000000	33.975352
1993.000000	33.857332
1992.000000	33.718303
1991.000000	33.578160
1990.000000	33.443195
1989.000000	33.298022
1988.000000	33.162675
1987.000000	33.017300
1986.000000	32.860777
1985.000000	32.757531
1984.000000	32.649086
1983.000000	32.477055
1982.000000	32.352540
1981.000000	32.257470
1980.000000	32.140552
1979.000000	31.991465
1978.000000	31.849214
1977.000000	31.709772
1976.000000	31.554550
1975.000000	31.394973
1974.000000	31.285162
1973.000000	31.163513
1972.000000	31.064574
1971.000000	30.936517
1970.000000	30.802128
1969.000000	30.664123
1968.000000	30.545633
1967.000000	30.446961
1966.000000	30.349457
1965.000000	30.196360
1964.000000	30.069928
1963.000000	29.969452
1962.000000	29.816373
1961.000000	29.704078
1960.000000	29.582614
1959.000000	29.485801
1958.000000	29.346025
1957.000000	29.254147
1956.000000	29.146151
1955.000000	29.055692
1954.000000	29.027127
1953.000000	28.938309
1952.000000	28.828771
1951.000000	28.785320
1950.000000	28.699915
1949.000000	28.631655
1948.000000	28.547450
1947.000000	28.535426
1946.000000	28.522613
1945.000000	28.518230
1944.000000	28.502181
1943.000000	28.487308
1942.000000	28.459194
1941.000000	28.501752
1940.000000	28.532897
1939.000000	28.637298
1938.000000	28.744310
1937.000000	28.838857
1936.000000	28.893362
1935.000000	28.956519
1934.000000	29.101354
1933.000000	29.216463
1932.000000	29.373318
1931.000000	29.570303
1930.000000	29.874858
1929.000000	29.962779
1928.000000	30.209299
1927.000000	30.426218
1926.000000	30.736276
1925.000000	30.955511
1924.000000	31.230750
1923.000000	31.498835
1922.000000	31.829634
1921.000000	32.235276
1920.000000	32.507718
1919.000000	32.864571
1918.000000	33.257147
1917.000000	33.686837
1916.000000	33.952911
1915.000000	34.455390
1914.000000	34.986546
1913.000000	35.429528
1912.000000	35.831600
1911.000000	36.382914
1910.000000	36.901665
1909.000000	37.317924
1908.000000	37.875485
1907.000000	38.531178
1906.000000	39.093829
1905.000000	39.597810
1904.000000	40.277931
1903.000000	40.911164
1902.000000	41.443079
1901.000000	42.025204
1900.000000	42.665195
1899.000000	43.308145
1898.000000	44.003863
1897.000000	44.598204
1896.000000	45.253827
1895.000000	45.854843
1894.000000	46.433259
1893.000000	47.095344
1892.000000	47.721711
1891.000000	48.295461
1890.000000	48.871811
1889.000000	49.370800
1888.000000	49.957886
1887.000000	50.504511
1886.000000	51.010258
1885.000000	51.517681
1884.000000	51.949415
1883.000000	52.446271
1882.000000	52.885723
1881.000000	53.312443
1880.000000	53.745986
1879.000000	54.128650
1878.000000	54.521964
1877.000000	54.877112
1876.000000	55.243803
1875.000000	55.580249
1874.000000	55.881040
1873.000000	56.177169
1872.000000	56.414988
1871.000000	56.692824
1870.000000	56.940385
1869.000000	57.170513
1868.000000	57.372748
1867.000000	57.520553
1866.000000	57.648475
1865.000000	57.742277
1864.000000	57.892132
1863.000000	58.005245
1862.000000	58.107010
1861.000000	58.200574
1860.000000	58.300124
1859.000000	58.377625
1858.000000	58.410025
1857.000000	58.450372
1856.000000	58.500841
1855.000000	58.562480
1854.000000	58.613740
1853.000000	58.650211
1852.000000	58.697607
1851.000000	58.706770
1850.000000	58.689406
1849.000000	58.705403
1848.000000	58.738311
1847.000000	58.712327
1846.000000	58.708082
1845.000000	58.718804
1844.000000	58.689108
1843.000000	58.639300
1842.000000	58.636294
1841.000000	58.594880
1840.000000	58.547863
1839.000000	58.560000
1838.000000	58.521467
1837.000000	58.462067
1836.000000	58.420420
1835.000000	58.330711
1834.000000	58.254765
1833.000000	58.230243
1832.000000	58.208451
1831.000000	58.174196
1830.000000	58.156858
1829.000000	58.097455
1828.000000	58.018117
1827.000000	57.986701
1826.000000	57.950093
1825.000000	57.910558
1824.000000	57.891414
1823.000000	57.854924
1822.000000	57.782275
1821.000000	57.722689
1820.000000	57.671179
1819.000000	57.646107
1818.000000	57.603078
1817.000000	57.551218
1816.000000	57.501248
1815.000000	57.487813
1814.000000	57.466777
1813.000000	57.410298
1812.000000	57.372133
1811.000000	57.314600
1810.000000	57.270253
1809.000000	57.230813
1808.000000	57.173239
1807.000000	57.126691
1806.000000	57.099276
1805.000000	57.066751
1804.000000	57.030178
1803.000000	56.970690
1802.000000	56.931030
1801.000000	56.907263
1800.000000	56.870494
1799.000000	56.825896
1798.000000	56.784134
1797.000000	56.750627
1796.000000	56.721899
1795.000000	56.692055
1794.000000	56.672921
1793.000000	56.628637
1792.000000	56.598834
1791.000000	56.572851
1790.000000	56.530513
1789.000000	56.495563
1788.000000	56.497521
1787.000000	56.453074
1786.000000	56.416572
1785.000000	56.394186
1784.000000	56.367049
1783.000000	56.310166
1782.000000	56.276608
1781.000000	56.211830
1780.000000	56.156409
1779.000000	56.154670
1778.000000	56.098339
1777.000000	56.025510
1776.000000	55.967161
1775.000000	55.910315
1774.000000	55.842609
1773.000000	55.765281
1772.000000	55.702900
1771.000000	55.653487
1770.000000	55.606150
1769.000000	55.527898
1768.000000	55.450838
1767.000000	55.380023
1766.000000	55.312796
1765.000000	55.265524
1764.000000	55.224048
1763.000000	55.129836
1762.000000	55.068466
1761.000000	55.007329
1760.000000	54.920035
1759.000000	54.845938
1758.000000	54.826192
1757.000000	54.745598
1756.000000	54.688330
1755.000000	54.642877
1754.000000	54.547203
1753.000000	54.482723
1752.000000	54.432505
1751.000000	54.353590
1750.000000	54.309098
1749.000000	54.227593
1748.000000	54.136329
1747.000000	54.107983
1746.000000	54.011972
1745.000000	53.938562
1744.000000	53.871493
1743.000000	53.828509
1742.000000	53.726813
1741.000000	53.675655
1740.000000	53.608497
1739.000000	53.544134
1738.000000	53.467297
1737.000000	53.436238
1736.000000	53.392285
1735.000000	53.374939
1734.000000	53.372081
1733.000000	53.341556
1732.000000	53.332692
1731.000000	53.356612
1730.000000	53.345753
1729.000000	53.380037
1728.000000	53.457770
1727.000000	53.495429
1726.000000	53.570489
1725.000000	53.650267
1724.000000	53.761107
1723.000000	53.852721
1722.000000	53.954181
1721.000000	54.072347
1720.000000	54.219546
1719.000000	54.357128
1718.000000	54.453430
1717.000000	54.578302
1716.000000	54.694636
1715.000000	54.801670
1714.000000	54.886444
1713.000000	55.014242
1712.000000	55.124390
1711.000000	55.200262
1710.000000	55.283924
1709.000000	55.346563
1708.000000	55.444427
1707.000000	55.506090
1706.000000	55.562818
1705.000000	55.594116
1704.000000	55.640845
1703.000000	55.685754
1702.000000	55.678643
1701.000000	55.704980
1700.000000	55.730394
1699.000000	55.728547
1698.000000	55.766354
1697.000000	55.802954
1696.000000	55.813749
1695.000000	55.845459
1694.000000	55.894368
1693.000000	55.932733
1692.000000	55.969544
1691.000000	56.083397
1690.000000	56.172790
1689.000000	56.263022
1688.000000	56.356443
1687.000000	56.476425
1686.000000	56.607914
1685.000000	56.753331
1684.000000	56.909845
1683.000000	57.093084
1682.000000	57.261755
1681.000000	57.464416
1680.000000	57.649036
1679.000000	57.860824
1678.000000	58.059098
1677.000000	58.245779
1676.000000	58.465723
1675.000000	58.684681
1674.000000	58.881797
1673.000000	59.087175
1672.000000	59.276501
1671.000000	59.474128
1670.000000	59.644077
1669.000000	59.846662
1668.000000	60.009040
1667.000000	60.193913
1666.000000	60.309910
1665.000000	60.414179
1664.000000	60.552110
1663.000000	60.640295
1662.000000	60.729973
1661.000000	60.856344
1660.000000	60.924500
1659.000000	60.987456
1658.000000	61.047071
1657.000000	61.105055
1656.000000	61.143514
1655.000000	61.175489
1654.000000	61.223602
1653.000000	61.241692
1652.000000	61.260662
1651.000000	61.278103
1650.000000	61.268880
1649.000000	61.279736
1648.000000	61.254224
1647.000000	61.253860
1646.000000	61.252937
1645.000000	61.207185
1644.000000	61.213079
1643.000000	61.189548
1642.000000	61.133018
1641.000000	61.122243
1640.000000	61.100844
1639.000000	61.070584
1638.000000	61.041429
1637.000000	61.008222
1636.000000	60.954082
1635.000000	60.925210
1634.000000	60.861266
1633.000000	60.829901
1632.000000	60.781487
1631.000000	60.744471
1630.000000	60.700035
1629.000000	60.652176
1628.000000	60.591181
1627.000000	60.538834
1626.000000	60.497160
1625.000000	60.431704
1624.000000	60.369053
1623.000000	60.332611
1622.000000	60.274863
1621.000000	60.207384
1620.000000	60.149659
1619.000000	60.091233
1618.000000	60.026086
1617.000000	59.962875
1616.000000	59.913815
1615.000000	59.834599
1614.000000	59.760644
1613.000000	59.699148
1612.000000	59.626961
1611.000000	59.560282
1610.000000	59.504973
1609.000000	59.426504
1608.000000	59.348166
1607.000000	59.274911
1606.000000	59.184670
1605.000000	59.107528
1604.000000	59.034204
1603.000000	58.956260
1602.000000	58.894550
1601.000000	58.821698
1600.000000	58.743100
1599.000000	58.666784
1598.000000	58.585184
1597.000000	58.520400
1596.000000	58.450832
1595.000000	58.370491
1594.000000	58.306151
1593.000000	58.243532
1592.000000	58.174522
1591.000000	58.096104
1590.000000	58.029757
1589.000000	57.962515
1588.000000	57.900115
1587.000000	57.857279
1586.000000	57.790854
1585.000000	57.724307
1584.000000	57.679687
1583.000000	57.623351
1582.000000	57.562265
1581.000000	57.513127
1580.000000	57.442620
1579.000000	57.376299
1578.000000	57.332509
1577.000000	57.267694
1576.000000	57.206472
1575.000000	57.156228
1574.000000	57.095686
1573.000000	57.029727
1572.000000	56.978807
1571.000000	56.933120
1570.000000	56.877539
1569.000000	56.824558
1568.000000	56.769436
1567.000000	56.723966
1566.000000	56.681151
1565.000000	56.630879
1564.000000	56.607318
1563.000000	56.579207
1562.000000	56.524489
1561.000000	56.499756
1560.000000	56.465700
1559.000000	56.445044
1558.000000	56.418250
1557.000000	56.399246
1556.000000	56.370481
1555.000000	56.334513
1554.000000	56.301162
1553.000000	56.268194
1552.000000	56.236139
1551.000000	56.193358
1550.000000	56.157663
1549.000000	56.110151
1548.000000	56.057700
1547.000000	55.986393
1546.000000	55.928237
1545.000000	55.846553
1544.000000	55.766888
1543.000000	55.683885
1542.000000	55.594902
1541.000000	55.502930
1540.000000	55.412534
1539.000000	55.305036
1538.000000	55.190897
1537.000000	55.086629
1536.000000	54.983256
1535.000000	54.876898
1534.000000	54.768218
1533.000000	54.668499
1532.000000	54.546584
1531.000000	54.454141
1530.000000	54.337220
1529.000000	54.245431
1528.000000	54.147459
1527.000000	54.067997
1526.000000	53.959751
1525.000000	53.877136
1524.000000	53.795127
1523.000000	53.753974
1522.000000	53.687478
1521.000000	53.596901
1520.000000	53.542086
1519.000000	53.461831
1518.000000	53.398783
1517.000000	53.356481
1516.000000	53.317349
1515.000000	53.268460
1514.000000	53.237655
1513.000000	53.237820
1512.000000	53.219156
1511.000000	53.206222
1510.000000	53.170658
1509.000000	53.109671
1508.000000	53.055923
1507.000000	53.028818
1506.000000	52.995270
1505.000000	52.962885
1504.000000	52.946076
1503.000000	52.921689
1502.000000	52.888930
1501.000000	52.896307
1500.000000	52.884642
1499.000000	52.875630
1498.000000	52.908491
1497.000000	52.901605
1496.000000	52.913236
1495.000000	52.893724
1494.000000	52.917505
1493.000000	52.952126
1492.000000	52.960670
1491.000000	52.984579
1490.000000	53.017446
1489.000000	53.063587
1488.000000	53.125309
1487.000000	53.160326
1486.000000	53.187414
1485.000000	53.261431
1484.000000	53.320016
1483.000000	53.358958
1482.000000	53.460227
1481.000000	53.512326
1480.000000	53.553013
1479.000000	53.646474
1478.000000	53.705112
1477.000000	53.769799
1476.000000	53.841089
1475.000000	53.899032
1474.000000	53.982652
1473.000000	54.047093
1472.000000	54.097889
1471.000000	54.149328
1470.000000	54.214243
1469.000000	54.289521
1468.000000	54.352195
1467.000000	54.408985
1466.000000	54.458109
1465.000000	54.503909
1464.000000	54.543563
1463.000000	54.604300
1462.000000	54.683099
1461.000000	54.744885
1460.000000	54.807712
1459.000000	54.863472
1458.000000	54.938993
1457.000000	54.986246
1456.000000	55.035269
1455.000000	55.139208
1454.000000	55.205587
1453.000000	55.296101
1452.000000	55.340386
1451.000000	55.404602
1450.000000	55.516849
1449.000000	55.584140
1448.000000	55.687011
1447.000000	55.766666
1446.000000	55.836852
1445.000000	55.938430
1444.000000	56.038698
1443.000000	56.118834
1442.000000	56.243790
1441.000000	56.359774
1440.000000	56.444523
1439.000000	56.574597
1438.000000	56.676736
1437.000000	56.784605
1436.000000	56.915874
1435.000000	57.031456
1434.000000	57.150470
1433.000000	57.296008
1432.000000	57.454007
1431.000000	57.594679
1430.000000	57.730305
1429.000000	57.882801
1428.000000	58.043332
1427.000000	58.208033
1426.000000	58.362418
1425.000000	58.538237
1424.000000	58.724784
1423.000000	58.912460
1422.000000	59.093357
1421.000000	59.303451
1420.000000	59.505572
1419.000000	59.698693
1418.000000	59.887452
1417.000000	60.097615
1416.000000	60.300757
1415.000000	60.509731
1414.000000	60.751274
1413.000000	60.971501
1412.000000	61.180165
1411.000000	61.416496
1410.000000	61.651655
1409.000000	61.875485
1408.000000	62.086286
1407.000000	62.298036
1406.000000	62.519338
1405.000000	62.735768
1404.000000	62.959426
1403.000000	63.167162
1402.000000	63.369641
1401.000000	63.582587
1400.000000	63.793735
1399.000000	63.991252
1398.000000	64.180175
1397.000000	64.356708
1396.000000	64.536299
1395.000000	64.712377
1394.000000	64.890933
1393.000000	65.065535
1392.000000	65.228336
1391.000000	65.380927
1390.000000	65.533557
1389.000000	65.685229
1388.000000	65.835221
1387.000000	65.973943
1386.000000	66.102255
1385.000000	66.233818
1384.000000	66.361321
1383.000000	66.454549
1382.000000	66.569738
1381.000000	66.686367
1380.000000	66.760360
1379.000000	66.862047
1378.000000	66.969219
1377.000000	67.024827
1376.000000	67.078675
1375.000000	67.163513
1374.000000	67.242376
1373.000000	67.293402
1372.000000	67.352346
1371.000000	67.403620
1370.000000	67.437811
1369.000000	67.493109
1368.000000	67.538715
1367.000000	67.575629
1366.000000	67.630839
1365.000000	67.699956
1364.000000	67.778938
1363.000000	67.827814
1362.000000	67.865999
1361.000000	67.922160
1360.000000	67.976520
1359.000000	68.021043
1358.000000	68.087674
1357.000000	68.154535
1356.000000	68.223593
1355.000000	68.301497
1354.000000	68.370211
1353.000000	68.402971
1352.000000	68.456435
1351.000000	68.561078
1350.000000	68.624924
1349.000000	68.653718
1348.000000	68.711630
1347.000000	68.803540
1346.000000	68.853992
1345.000000	68.917388
1344.000000	68.977907
1343.000000	69.031345
1342.000000	69.082019
1341.000000	69.133031
1340.000000	69.197140
1339.000000	69.260760
1338.000000	69.307268
1337.000000	69.355003
1336.000000	69.393741
1335.000000	69.431079
1334.000000	69.483979
1333.000000	69.529324
1332.000000	69.545261
1331.000000	69.571904
1330.000000	69.617643
1329.000000	69.665786
1328.000000	69.693421
1327.000000	69.711769
1326.000000	69.725742
1325.000000	69.771643
1324.000000	69.802381
1323.000000	69.819004
1322.000000	69.839103
1321.000000	69.882241
1320.000000	69.888637
1319.000000	69.909815
1318.000000	69.921109
1317.000000	69.940359
1316.000000	69.967684
1315.000000	69.983385
1314.000000	69.981796
1313.000000	70.038296
1312.000000	70.027592
1311.000000	70.034630
1310.000000	70.065431
1309.000000	70.084244
1308.000000	70.087749
1307.000000	70.113526
1306.000000	70.116035
1305.000000	70.137726
1304.000000	70.137898
1303.000000	70.155084
1302.000000	70.150182
1301.000000	70.160154
1300.000000	70.193158
1299.000000	70.215581
1298.000000	70.188596
1297.000000	70.223745
1296.000000	70.206782
1295.000000	70.211547
1294.000000	70.215000
1293.000000	70.211513
1292.000000	70.216441
1291.000000	70.216963
1290.000000	70.184306
1289.000000	70.179781
1288.000000	70.169926
1287.000000	70.166683
1286.000000	70.156046
1285.000000	70.163828
1284.000000	70.160067
1283.000000	70.149744
1282.000000	70.169491
1281.000000	70.171170
1280.000000	70.177557
1279.000000	70.160810
1278.000000	70.121410
1277.000000	70.129618
1276.000000	70.122019
1275.000000	70.142657
1274.000000	70.135971
1273.000000	70.149933
1272.000000	70.153051
1271.000000	70.138694
1270.000000	70.154743
1269.000000	70.147955
1268.000000	70.182169
1267.000000	70.177839
1266.000000	70.170263
1265.000000	70.189389
1264.000000	70.201244
1263.000000	70.193407
1262.000000	70.205865
1261.000000	70.263704
1260.000000	70.260268
1259.000000	70.260197
1258.000000	70.261898
1257.000000	70.259333
1256.000000	70.275489
1255.000000	70.267506
1254.000000	70.338508
1253.000000	70.299985
1252.000000	70.311322
1251.000000	70.316224
1250.000000	70.309823
1249.000000	70.307605
1248.000000	70.295129
1247.000000	70.267895
1246.000000	70.281424
1245.000000	70.288455
1244.000000	70.281281
1243.000000	70.271688
1242.000000	70.218272
1241.000000	70.206893
1240.000000	70.180987
1239.000000	70.182518
1238.000000	70.173189
1237.000000	70.133437
1236.000000	70.099822
1235.000000	70.087096
1234.000000	70.057285
1233.000000	70.037587
1232.000000	70.026679
1231.000000	70.015577
1230.000000	69.971215
1229.000000	69.938380
1228.000000	69.952572
1227.000000	69.946095
1226.000000	69.922457
1225.000000	69.901593
1224.000000	69.873585
1223.000000	69.848266
1222.000000	69.810748
1221.000000	69.804657
1220.000000	69.785962
1219.000000	69.765130
1218.000000	69.733245
1217.000000	69.734226
1216.000000	69.723199
1215.000000	69.696060
1214.000000	69.663312
1213.000000	69.635566
1212.000000	69.601972
1211.000000	69.582449
1210.000000	69.555253
1209.000000	69.515574
1208.000000	69.494743
1207.000000	69.464015
1206.000000	69.420469
1205.000000	69.371028
1204.000000	69.361091
1203.000000	69.325492
1202.000000	69.285040
1201.000000	69.266940
1200.000000	69.240753
1199.000000	69.185689
1198.000000	69.148294
1197.000000	69.123699
1196.000000	69.093306
1195.000000	69.074464
1194.000000	69.060482
1193.000000	69.027742
1192.000000	68.999324
1191.000000	68.972957
1190.000000	68.951297
1189.000000	68.924006
1188.000000	68.908422
1187.000000	68.901639
1186.000000	68.903810
1185.000000	68.916536
1184.000000	68.906091
1183.000000	68.896813
1182.000000	68.912837
1181.000000	68.927443
1180.000000	68.952660
1179.000000	68.985865
1178.000000	69.009878
1177.000000	69.047099
1176.000000	69.076734
1175.000000	69.125889
1174.000000	69.184224
1173.000000	69.241512
1172.000000	69.288784
1171.000000	69.347028
1170.000000	69.414514
1169.000000	69.466400
1168.000000	69.521958
1167.000000	69.601101
1166.000000	69.675339
1165.000000	69.747405
1164.000000	69.817173
1163.000000	69.892929
1162.000000	69.960079
1161.000000	70.018195
1160.000000	70.088136
1159.000000	70.155501
1158.000000	70.224200
1157.000000	70.289006
1156.000000	70.354839
1155.000000	70.428911
1154.000000	70.491241
1153.000000	70.554138
1152.000000	70.615243
1151.000000	70.670931
1150.000000	70.714290
1149.000000	70.762405
1148.000000	70.802691
1147.000000	70.832571
1146.000000	70.883390
1145.000000	70.936698
1144.000000	70.978899
1143.000000	70.998768
1142.000000	71.029039
1141.000000	71.080363
1140.000000	71.125854
1139.000000	71.178501
1138.000000	71.213103
1137.000000	71.247654
1136.000000	71.283804
1135.000000	71.311225
1134.000000	71.350580
1133.000000	71.386380
1132.000000	71.421474
1131.000000	71.453583
1130.000000	71.484162
1129.000000	71.494381
1128.000000	71.513502
1127.000000	71.536099
1126.000000	71.554660
1125.000000	71.581275
1124.000000	71.606953
1123.000000	71.626146
1122.000000	71.629522
1121.000000	71.640911
1120.000000	71.654455
1119.000000	71.662536
1118.000000	71.673772
1117.000000	71.680694
1116.000000	71.701338
1115.000000	71.711928
1114.000000	71.706640
1113.000000	71.715671
1112.000000	71.717078
1111.000000	71.724233
1110.000000	71.737611
1109.000000	71.746511
1108.000000	71.741692
1107.000000	71.761499
1106.000000	71.751937
1105.000000	71.746820
1104.000000	71.722968
1103.000000	71.735239
1102.000000	71.734669
1101.000000	71.741365
1100.000000	71.743370
1099.000000	71.748847
1098.000000	71.773518
1097.000000	71.756979
1096.000000	71.776664
1095.000000	71.753800
1094.000000	71.761273
1093.000000	71.756865
1092.000000	71.761802
1091.000000	71.769319
1090.000000	71.773869
1089.000000	71.757485
1088.000000	71.781440
1087.000000	71.752176
1086.000000	71.760238
1085.000000	71.755374
1084.000000	71.748816
1083.000000	71.744949
1082.000000	71.732682
1081.000000	71.736571
1080.000000	71.748237
1079.000000	71.731429
1078.000000	71.725005
1077.000000	71.744675
1076.000000	71.734934
1075.000000	71.743882
1074.000000	71.689528
1073.000000	71.703194
1072.000000	71.689831
1071.000000	71.687839
1070.000000	71.681787
1069.000000	71.702189
1068.000000	71.678101
1067.000000	71.696942
1066.000000	71.669724
1065.000000	71.660121
1064.000000	71.658651
1063.000000	71.648494
1062.000000	71.652787
1061.000000	71.652872
1060.000000	71.633184
1059.000000	71.606324
1058.000000	71.594566
1057.000000	71.608311
1056.000000	71.613019
1055.000000	71.595034
1054.000000	71.572613
1053.000000	71.570683
1052.000000	71.568350
1051.000000	71.563394
1050.000000	71.558628
1049.000000	71.558411
1048.000000	71.524188
1047.000000	71.539373
1046.000000	71.539803
1045.000000	71.516982
1044.000000	71.528286
1043.000000	71.507424
1042.000000	71.498089
1041.000000	71.511720
1040.000000	71.499660
1039.000000	71.508689
1038.000000	71.476593
1037.000000	71.499707
1036.000000	71.504920
1035.000000	71.485706
1034.000000	71.470788
1033.000000	71.456187
1032.000000	71.466583
1031.000000	71.469887
1030.000000	71.472657
1029.000000	71.471681
1028.000000	71.472991
1027.000000	71.448400
1026.000000	71.463400
1025.000000	71.462127
1024.000000	71.456020
1023.000000	71.441677
1022.000000	71.457467
1021.000000	71.464044
1020.000000	71.446377
1019.000000	71.474946
1018.000000	71.450002
1017.000000	71.456043
1016.000000	71.462188
1015.000000	71.470796
1014.000000	71.467093
1013.000000	71.460758
1012.000000	71.466992
1011.000000	71.457151
1010.000000	71.468180
1009.000000	71.477154
1008.000000	71.462174
1007.000000	71.476544
1006.000000	71.491151
1005.000000	71.475532
1004.000000	71.496754
1003.000000	71.513810
1002.000000	71.506185
1001.000000	71.499122
1000.000000	71.495077
999.000000	71.507943
998.000000	71.516293
997.000000	71.516910
996.000000	71.502944
995.000000	71.520017
994.000000	71.534228
993.000000	71.548135
992.000000	71.553329
991.000000	71.559443
990.000000	71.557464
989.000000	71.572849
988.000000	71.595620
987.000000	71.578530
986.000000	71.604435
985.000000	71.621350
984.000000	71.607535
983.000000	71.608453
982.000000	71.627460
981.000000	71.621944
980.000000	71.627073
979.000000	71.644802
978.000000	71.661806
977.000000	71.670035
976.000000	71.671067
975.000000	71.662560
974.000000	71.683805
973.000000	71.693104
972.000000	71.715581
971.000000	71.732207
970.000000	71.727066
969.000000	71.722060
968.000000	71.731653
967.000000	71.737807
966.000000	71.753384
965.000000	71.738510
964.000000	71.735993
963.000000	71.772576
962.000000	71.795559
961.000000	71.795131
960.000000	71.798983
959.000000	71.799320
958.000000	71.810086
957.000000	71.813561
956.000000	71.826739
955.000000	71.844746
954.000000	71.856206
953.000000	71.867693
952.000000	71.871010
951.000000	71.871187
950.000000	71.864338
949.000000	71.877537
948.000000	71.872722
947.000000	71.889217
946.000000	71.917826
945.000000	71.932808
944.000000	71.945107
943.000000	71.934681
942.000000	71.932395
941.000000	71.935416
940.000000	71.956753
939.000000	71.961372
938.000000	71.932598
937.000000	71.928528
936.000000	71.914216
935.000000	71.927479
934.000000	71.958367
933.000000	71.954520
932.000000	71.949823
931.000000	71.952321
930.000000	71.967816
929.000000	71.966109
928.000000	71.936576
927.000000	71.936150
926.000000	71.949837
925.000000	71.954291
924.000000	71.956414
923.000000	71.935550
922.000000	71.956410
921.000000	71.957680
920.000000	71.923884
919.000000	71.955387
918.000000	71.968063
917.000000	71.952139
916.000000	71.923735
915.000000	71.946164
914.000000	71.948375
913.000000	71.946568
912.000000	71.948707
911.000000	71.980365
910.000000	71.985756
909.000000	71.961129
908.000000	71.946923
907.000000	71.981309
906.000000	71.973435
905.000000	71.989198
904.000000	72.021376
903.000000	72.006711
902.000000	72.008193
901.000000	71.984234
900.000000	72.009596
899.000000	72.025557
898.000000	72.035139
897.000000	72.031895
896.000000	72.082654
895.000000	72.046062
894.000000	72.078051
893.000000	72.080097
892.000000	72.073315
891.000000	72.051465
890.000000	72.063078
889.000000	72.074466
888.000000	72.132697
887.000000	72.169423
886.000000	72.127081
885.000000	72.162338
884.000000	72.186182
883.000000	72.178970
882.000000	72.154137
881.000000	72.126494
880.000000	72.155162
879.000000	72.154734
878.000000	72.122633
877.000000	72.171926
876.000000	72.099238
875.000000	72.122090
874.000000	72.182564
873.000000	72.239417
872.000000	72.273471
871.000000	72.135958
870.000000	72.088269
869.000000	72.131376
868.000000	72.192313
867.000000	72.132225
866.000000	72.182384
865.000000	72.228517
864.000000	72.191952
863.000000	72.140674
862.000000	72.228892
861.000000	72.173927
860.000000	72.360637
859.000000	71.973471
858.000000	72.474547
857.000000	72.338295
856.000000	72.330037
855.000000	72.344559
854.000000	72.165684
853.000000	72.570256
852.000000	71.906277
851.000000	72.156117
850.000000	72.319749
849.000000	72.444924
848.000000	72.328210
847.000000	72.307350
846.000000	72.279673
845.000000	72.238503
844.000000	72.160047
843.000000	72.288903
842.000000	72.309416
841.000000	72.503071
840.000000	72.422128
839.000000	72.473376
838.000000	72.451988
837.000000	72.367165
836.000000	72.245369
835.000000	72.260831
834.000000	72.399602
833.000000	72.263311
832.000000	72.237552
831.000000	72.373634
830.000000	72.414560
829.000000	72.398263
828.000000	72.342106
827.000000	72.348883
826.000000	72.380947
825.000000	72.251007
824.000000	72.223821
823.000000	72.429655
822.000000	72.242421
821.000000	72.260178
820.000000	72.273088
819.000000	72.443681
818.000000	72.369883
817.000000	72.313289
816.000000	72.203404
815.000000	72.177871
814.000000	72.254388
813.000000	72.343603
812.000000	72.307718
811.000000	72.304265
810.000000	72.383307
809.000000	72.211692
808.000000	72.445865
807.000000	72.428261
806.000000	72.372656
805.000000	72.423987
804.000000	72.275303
803.000000	72.216817
802.000000	72.342622
801.000000	72.471752
800.000000	72.359313
799.000000	72.281213
798.000000	72.166328
797.000000	72.148359
796.000000	72.298833
795.000000	72.328575
794.000000	72.157369
793.000000	72.368773
792.000000	72.265395
791.000000	72.321072
790.000000	72.336701
789.000000	72.455017
788.000000	72.405495
787.000000	72.356394
786.000000	72.424505
785.000000	72.581779
784.000000	72.555899
783.000000	72.356531
782.000000	72.288192
781.000000	72.212824
780.000000	72.313515
779.000000	72.253887
778.000000	72.290126
777.000000	72.368693
776.000000	72.451248
775.000000	72.282352
774.000000	72.388489
773.000000	72.408399
772.000000	72.325915
771.000000	72.325062
770.000000	72.292298
769.000000	72.448805
768.000000	72.441781
767.000000	72.361238
766.000000	72.300563
765.000000	72.343165
764.000000	72.362974
763.000000	72.269794
762.000000	72.315054
761.000000	72.353116
760.000000	72.339041
759.000000	72.335050
758.000000	72.399244
757.000000	72.306138
756.000000	72.362151
755.000000	72.379666
754.000000	72.281772
753.000000	72.372544
752.000000	72.381672
751.000000	72.378024
750.000000	72.332744
749.000000	72.255559
748.000000	72.234363
747.000000	72.305274
746.000000	72.334189
745.000000	72.366886
744.000000	72.361007
743.000000	72.349401
742.000000	72.264434
741.000000	72.262255
740.000000	72.313535
739.000000	72.290206
738.000000	72.351148
737.000000	72.403679
736.000000	72.405353
735.000000	72.340508
734.000000	72.319874
733.000000	72.377900
732.000000	72.399916
731.000000	72.335564
730.000000	72.310639
729.000000	72.335562
728.000000	72.346390
727.000000	72.389034
726.000000	72.419264
725.000000	72.327318
724.000000	72.278738
723.000000	72.316693
722.000000	72.304838
721.000000	72.305220
720.000000	72.337723
719.000000	72.318766
718.000000	72.384161
717.000000	72.349136
716.000000	72.335258
715.000000	72.335071
714.000000	72.254925
713.000000	72.220883
712.000000	72.248899
711.000000	72.336064
710.000000	72.361728
709.000000	72.338476
708.000000	72.305845
707.000000	72.281770
706.000000	72.299317
705.000000	72.324677
704.000000	72.356432
703.000000	72.377061
702.000000	72.358868
701.000000	72.324989
700.000000	72.324232
699.000000	72.322492
698.000000	72.307526
697.000000	72.309942
696.000000	72.304179
695.000000	72.288294
694.000000	72.308130
693.000000	72.258632
692.000000	72.290288
691.000000	72.373403
690.000000	72.326991
689.000000	72.261662
688.000000	72.208585
687.000000	72.263010
686.000000	72.335969
685.000000	72.296749
684.000000	72.283019
683.000000	72.293728
682.000000	72.313075
681.000000	72.271772
680.000000	72.291673
679.000000	72.388959
678.000000	72.456541
677.000000	72.357172
676.000000	72.394950
675.000000	72.372876
674.000000	72.291832
673.000000	72.318355
672.000000	72.345775
671.000000	72.320956
670.000000	72.302973
669.000000	72.318231
668.000000	72.300460
667.000000	72.329552
666.000000	72.373844
665.000000	72.357058
664.000000	72.339924
663.000000	72.357781
662.000000	72.364131
661.000000	72.321895
660.000000	72.293329
659.000000	72.332500
658.000000	72.341085
657.000000	72.370906
656.000000	72.328524
655.000000	72.390812
654.000000	72.381802
653.000000	72.355640
652.000000	72.345466
651.000000	72.298179
650.000000	72.325720
649.000000	72.314967
648.000000	72.321603
647.000000	72.321979
646.000000	72.274233
645.000000	72.310342
644.000000	72.329099
643.000000	72.343743
642.000000	72.365791
641.000000	72.354567
640.000000	72.323012
639.000000	72.329111
638.000000	72.309145
637.000000	72.397256
636.000000	72.327046
635.000000	72.336129
634.000000	72.263229
633.000000	72.296320
632.000000	72.276527
631.000000	72.318972
630.000000	72.336312
629.000000	72.305355
628.000000	72.281173
627.000000	72.228905
626.000000	72.229814
625.000000	72.261707
624.000000	72.257222
623.000000	72.258406
622.000000	72.298072
621.000000	72.221951
620.000000	72.256303
619.000000	72.265614
618.000000	72.235408
617.000000	72.242880
616.000000	72.256177
615.000000	72.206340
614.000000	72.283535
613.000000	72.282762
612.000000	72.260342
611.000000	72.258206
610.000000	72.232552
609.000000	72.209239
608.000000	72.215412
607.000000	72.247169
606.000000	72.174345
605.000000	72.204741
604.000000	72.141254
603.000000	72.140394
602.000000	72.196289
601.000000	72.194313
600.000000	72.146187
599.000000	72.153295
598.000000	72.179285
597.000000	72.103620
596.000000	72.116052
595.000000	72.148423
594.000000	72.122504
593.000000	72.092611
592.000000	72.132959
591.000000	72.088223
590.000000	72.031021
589.000000	72.097182
588.000000	72.050830
587.000000	72.097326
586.000000	72.090589
585.000000	72.034540
584.000000	72.000085
583.000000	71.977604
582.000000	71.995476
581.000000	71.970300
580.000000	71.953608
579.000000	71.903911
578.000000	71.892716
577.000000	71.929427
576.000000	71.917599
575.000000	71.921642
574.000000	71.794794
573.000000	71.819226
572.000000	71.851397
571.000000	71.808976
570.000000	71.826954
569.000000	71.813523
568.000000	71.846484
567.000000	71.805282
566.000000	71.785251
565.000000	71.788407
564.000000	71.725695
563.000000	71.704245
562.000000	71.740731
561.000000	71.629581
560.000000	71.570656
559.000000	71.572338
558.000000	71.595252
557.000000	71.555805
556.000000	71.527783
555.000000	71.487933
554.000000	71.542603
553.000000	71.475544
552.000000	71.412907
551.000000	71.425996
550.000000	71.400403
549.000000	71.406253
548.000000	71.423376
547.000000	71.392835
546.000000	71.344274
545.000000	71.300405
544.000000	71.311114
543.000000	71.249050
542.000000	71.224273
541.000000	71.245943
540.000000	71.201525
539.000000	71.185179
538.000000	71.156430
537.000000	71.124510
536.000000	71.110947
535.000000	71.070853
534.000000	71.051061
533.000000	71.018717
532.000000	71.014418
531.000000	70.998485
530.000000	70.903498
529.000000	70.888320
528.000000	70.905093
527.000000	70.860849
526.000000	70.860824
525.000000	70.825561
524.000000	70.802446
523.000000	70.786331
522.000000	70.767950
521.000000	70.752681
520.000000	70.737247
519.000000	70.683247
518.000000	70.618900
517.000000	70.622898
516.000000	70.598782
515.000000	70.560683
514.000000	70.494726
513.000000	70.453032
512.000000	70.433233
511.000000	70.398840
510.000000	70.379114
509.000000	70.324417
508.000000	70.317064
507.000000	70.249556
506.000000	70.192274
505.000000	70.124979
504.000000	70.152781
503.000000	70.089814
502.000000	70.043105
501.000000	69.975672
500.000000	69.949673
499.000000	69.946835
498.000000	69.913163
497.000000	69.841961
496.000000	69.793254
495.000000	69.831401
494.000000	69.743938
493.000000	69.673160
492.000000	69.620851
491.000000	69.600785
490.000000	69.515326
489.000000	69.488283
488.000000	69.420183
487.000000	69.368158
486.000000	69.380651
485.000000	69.354351
484.000000	69.347005
483.000000	69.308611
482.000000	69.236664
481.000000	69.176315
480.000000	69.161554
479.000000	69.136120
478.000000	69.067511
477.000000	68.972731
476.000000	68.897660
475.000000	68.812546
474.000000	68.727416
473.000000	68.638025
472.000000	68.621511
471.000000	68.579466
470.000000	68.491362
469.000000	68.412362
468.000000	68.333349
467.000000	68.271846
466.000000	68.210267
465.000000	68.122422
464.000000	68.068541
463.000000	67.986945
462.000000	67.883774
461.000000	67.829878
460.000000	67.755348
459.000000	67.683529
458.000000	67.598100
457.000000	67.466570
456.000000	67.415881
455.000000	67.369948
454.000000	67.255424
453.000000	67.122488
452.000000	66.994892
451.000000	66.929307
450.000000	66.859084
449.000000	66.773464
448.000000	66.648740
447.000000	66.515436
446.000000	66.381416
445.000000	66.303711
444.000000	66.237260
443.000000	66.118184
442.000000	65.930636
441.000000	65.846243
440.000000	65.776767
439.000000	65.649076
438.000000	65.501479
437.000000	65.409025
436.000000	65.269227
435.000000	65.130058
434.000000	64.995704
433.000000	64.843104
432.000000	64.695888
431.000000	64.518625
430.000000	64.377895
429.000000	64.212627
428.000000	64.074060
427.000000	63.871420
426.000000	63.687264
425.000000	63.592759
424.000000	63.432733
423.000000	63.265131
422.000000	63.068589
421.000000	62.845441
420.000000	62.661195
419.000000	62.503799
418.000000	62.272012
417.000000	62.099029
416.000000	61.937547
415.000000	61.684426
414.000000	61.512626
413.000000	61.321669
412.000000	61.126707
411.000000	60.908539
410.000000	60.688608
409.000000	60.445275
408.000000	60.223435
407.000000	60.025656
406.000000	59.783533
405.000000	59.521437
404.000000	59.301754
403.000000	59.044086
402.000000	58.859817
401.000000	58.625400
400.000000	58.356287
399.000000	58.063673
398.000000	57.887195
397.000000	57.675489
396.000000	57.372091
395.000000	57.120763
394.000000	56.878391
393.000000	56.620295
392.000000	56.295261
391.000000	56.078391
390.000000	55.726876
389.000000	55.486463
388.000000	55.256562
387.000000	54.956589
386.000000	54.646175
385.000000	54.377549
384.000000	54.173952
383.000000	53.798034
382.000000	53.482661
381.000000	53.214365
380.000000	52.823768
379.000000	52.578280
378.000000	51.945490
377.000000	51.839315
376.000000	51.736629
375.000000	51.284602
374.000000	50.911045
373.000000	50.594371
372.000000	50.338957
371.000000	49.925125
370.000000	49.632357
369.000000	49.347208
368.000000	48.871713
367.000000	48.764796
366.000000	48.199468
365.000000	47.964870
364.000000	47.613472
363.000000	47.149108
362.000000	46.863562
361.000000	46.581389
360.000000	46.257870
359.000000	45.852364
358.000000	45.528948
357.000000	45.150564
356.000000	44.931197
355.000000	44.591956
354.000000	44.189142
353.000000	43.912616
352.000000	43.601432
351.000000	43.302106
350.000000	42.835730
349.000000	42.579971
348.000000	42.193932
347.000000	41.746618
346.000000	41.287984
345.000000	41.032073
344.000000	40.737145
343.000000	40.355609
342.000000	39.706342
341.000000	39.400621
340.000000	38.976899
339.000000	38.634638
338.000000	37.980707
337.000000	37.452357
336.000000	36.996211
335.000000	36.096786
334.000000	35.665575
333.000000	35.096066
332.000000	34.301710
331.000000	33.679649
330.000000	32.973338
329.000000	32.530328
328.000000	32.003342
327.000000	31.245986
326.000000	30.699698
325.000000	30.237665
324.000000	29.700918
323.000000	29.337025
322.000000	28.820510
321.000000	28.522901
320.000000	28.213564
319.000000	27.884132
318.000000	27.612392
317.000000	27.389289
316.000000	27.112486
315.000000	26.907225
314.000000	26.695874
313.000000	26.492711
312.000000	26.295926
311.000000	26.305163
310.000000	26.057236
309.000000	25.862822
308.000000	25.701444
307.000000	25.485059
306.000000	25.440254
305.000000	25.253713
304.000000	25.246880
303.000000	25.057648
302.000000	24.962654
301.000000	24.820376
300.000000	24.608840
299.000000	24.415181
298.000000	24.120067
297.000000	23.926502
296.000000	23.630508
295.000000	23.127208
294.000000	22.610982
293.000000	22.041843
292.000000	21.313133
291.000000	20.492586
290.000000	19.737983
289.000000	19.012800
288.000000	18.380324
287.000000	17.895907
286.000000	17.633186
285.000000	17.487688
284.000000	17.435406
283.000000	17.468993
282.000000	17.435480
281.000000	17.445304
280.000000	17.473886
279.000000	17.631019
278.000000	17.676516
277.000000	17.840525
276.000000	18.005749
275.000000	18.266199
274.000000	18.520476
273.000000	18.756200
272.000000	18.894548
271.000000	19.059673
270.000000	19.120508
269.000000	19.135730
268.000000	19.408973
267.000000	19.626329
266.000000	19.832721
265.000000	20.077569
264.000000	20.281740
263.000000	20.609232
262.000000	20.943680
261.000000	21.097890
260.000000	21.306516
259.000000	21.537273
258.000000	21.913331
257.000000	22.255842
256.000000	22.617276
255.000000	22.826196
254.000000	22.938040
253.000000	23.005851
252.000000	22.977676
251.000000	22.942523
250.000000	22.741059
249.000000	22.363330
248.000000	21.913078
247.000000	21.248851
246.000000	20.513290
245.000000	19.795164
244.000000	19.120368
243.000000	18.463140
242.000000	17.832261
241.000000	17.252213
240.000000	16.930239
239.000000	16.667960
238.000000	16.468393
237.000000	16.416758
236.000000	16.377952
235.000000	16.410650
234.000000	16.517518
233.000000	16.548154
232.000000	16.594773
231.000000	16.720535
230.000000	16.794837
229.000000	16.754280
228.000000	16.842806
227.000000	17.021149
226.000000	17.178131
225.000000	17.222015
224.000000	17.372141
223.000000	17.681971
222.000000	17.902500
221.000000	18.162560
220.000000	18.366697
219.000000	18.595214
218.000000	18.976539
217.000000	19.216245
216.000000	19.484369
215.000000	19.930920
214.000000	20.306190
213.000000	20.650655
212.000000	21.241449
211.000000	21.696477
210.000000	22.007559
209.000000	22.430171
208.000000	22.822496
207.000000	23.389698
206.000000	24.090224
205.000000	24.475448
204.000000	24.656144
203.000000	25.218727
202.000000	25.666877
201.000000	26.234196
200.000000	26.720689
