PE UV       SUBTECH     SPECTRUM    ASCII       PEDS        4.00        
   -1
RTgChevreUK 12.Sample.asc
18/03/09
14:13:56.00
18/03/09
14:13:56.00
Administrator

200.000000
1
Lambda 750
750N8071901
PerkinElmer UV WinLab 6.0.4.0738 / 1.61.00 Lambda 900

0
0
3350/servo 860.8/2
0
0
UV/VIS
1
1
1
CommonBeamDepol,150mm sphere / downward view
0
0
0
0
Program
Program
3350/servo 860.8/2
3350/0.2 860.8/0.2
3350/0.2 860.8/0.2
0
1
 
 
 
0
 
860.8
319.2
860.8
Front
100
on
 
 
0
0
0
 
0
 
 
 
0
 
 
0
0
0
0
0
 
 
 
 
0
0


0
0
#HDR
-1
-1
#GR
nm
%R
1.0
0.0
2350.000000
-1.000000
2151
8
63.478388
8.602080
#DATA
2350.000000	31.702402
2349.000000	31.415781
2348.000000	31.798189
2347.000000	31.996612
2346.000000	31.644268
2345.000000	31.445660
2344.000000	31.664851
2343.000000	31.580963
2342.000000	31.412954
2341.000000	31.458843
2340.000000	31.490589
2339.000000	31.780569
2338.000000	32.034675
2337.000000	31.875875
2336.000000	31.961946
2335.000000	31.943522
2334.000000	32.091554
2333.000000	32.023169
2332.000000	31.886095
2331.000000	32.012606
2330.000000	32.118361
2329.000000	32.196150
2328.000000	32.191646
2327.000000	31.833954
2326.000000	32.014098
2325.000000	31.954047
2324.000000	31.889289
2323.000000	31.934008
2322.000000	31.682171
2321.000000	31.847446
2320.000000	31.881778
2319.000000	31.913165
2318.000000	31.901144
2317.000000	31.870914
2316.000000	31.698013
2315.000000	31.459196
2314.000000	31.588807
2313.000000	31.666892
2312.000000	31.580803
2311.000000	31.472602
2310.000000	31.407494
2309.000000	31.380622
2308.000000	31.222449
2307.000000	31.012150
2306.000000	31.079737
2305.000000	31.190644
2304.000000	31.252564
2303.000000	31.051561
2302.000000	30.905085
2301.000000	30.934375
2300.000000	30.815476
2299.000000	30.795292
2298.000000	30.743485
2297.000000	30.770691
2296.000000	30.815425
2295.000000	30.502613
2294.000000	30.541781
2293.000000	30.397410
2292.000000	30.341565
2291.000000	30.399935
2290.000000	30.246849
2289.000000	30.152004
2288.000000	30.472272
2287.000000	30.444720
2286.000000	30.177588
2285.000000	30.171955
2284.000000	30.186158
2283.000000	30.182316
2282.000000	30.125627
2281.000000	30.283027
2280.000000	30.232220
2279.000000	30.170501
2278.000000	30.163931
2277.000000	30.273573
2276.000000	30.371584
2275.000000	30.360237
2274.000000	30.287453
2273.000000	30.384663
2272.000000	30.584947
2271.000000	30.540954
2270.000000	30.463598
2269.000000	30.466185
2268.000000	30.419224
2267.000000	30.396596
2266.000000	30.466104
2265.000000	30.688510
2264.000000	30.801167
2263.000000	30.703379
2262.000000	30.871860
2261.000000	31.026257
2260.000000	31.102708
2259.000000	31.184687
2258.000000	31.369760
2257.000000	31.464940
2256.000000	31.471963
2255.000000	31.568546
2254.000000	31.698937
2253.000000	31.777072
2252.000000	32.006496
2251.000000	32.216489
2250.000000	32.319838
2249.000000	32.430234
2248.000000	32.491552
2247.000000	32.632678
2246.000000	32.815937
2245.000000	32.978675
2244.000000	33.220148
2243.000000	33.370838
2242.000000	33.424744
2241.000000	33.515947
2240.000000	33.673711
2239.000000	33.760901
2238.000000	33.699546
2237.000000	33.825928
2236.000000	33.948716
2235.000000	34.004980
2234.000000	34.038009
2233.000000	34.039553
2232.000000	34.239559
2231.000000	34.349999
2230.000000	34.247699
2229.000000	34.169283
2228.000000	34.268749
2227.000000	34.327629
2226.000000	34.290420
2225.000000	34.258985
2224.000000	34.218498
2223.000000	34.178912
2222.000000	34.268151
2221.000000	34.244338
2220.000000	34.269270
2219.000000	34.225944
2218.000000	34.164643
2217.000000	34.173103
2216.000000	34.159020
2215.000000	34.181541
2214.000000	34.109298
2213.000000	34.131072
2212.000000	34.110753
2211.000000	33.957541
2210.000000	33.826340
2209.000000	33.745014
2208.000000	33.680294
2207.000000	33.716355
2206.000000	33.676744
2205.000000	33.667887
2204.000000	33.642944
2203.000000	33.594761
2202.000000	33.501157
2201.000000	33.571265
2200.000000	33.594552
2199.000000	33.587158
2198.000000	33.483363
2197.000000	33.338509
2196.000000	33.327482
2195.000000	33.270070
2194.000000	33.128921
2193.000000	33.062557
2192.000000	33.155724
2191.000000	33.008874
2190.000000	33.004985
2189.000000	33.071006
2188.000000	32.906882
2187.000000	32.875408
2186.000000	32.824351
2185.000000	32.691556
2184.000000	32.785003
2183.000000	32.904576
2182.000000	32.876955
2181.000000	33.011172
2180.000000	32.921280
2179.000000	32.858046
2178.000000	32.677690
2177.000000	32.817330
2176.000000	32.875460
2175.000000	32.872669
2174.000000	32.987904
2173.000000	32.951596
2172.000000	33.003144
2171.000000	33.127675
2170.000000	33.122699
2169.000000	33.202903
2168.000000	33.260884
2167.000000	33.295353
2166.000000	33.358194
2165.000000	33.400435
2164.000000	33.439434
2163.000000	33.547641
2162.000000	33.770080
2161.000000	33.578948
2160.000000	33.844293
2159.000000	34.025392
2158.000000	33.895046
2157.000000	34.004920
2156.000000	34.141357
2155.000000	34.201706
2154.000000	34.441179
2153.000000	34.579775
2152.000000	34.703261
2151.000000	34.703272
2150.000000	34.938760
2149.000000	34.970897
2148.000000	34.973342
2147.000000	35.174745
2146.000000	35.229836
2145.000000	35.275662
2144.000000	35.480556
2143.000000	35.462594
2142.000000	35.903871
2141.000000	35.849548
2140.000000	35.768752
2139.000000	35.983552
2138.000000	36.024181
2137.000000	36.022054
2136.000000	36.083247
2135.000000	36.201428
2134.000000	36.369399
2133.000000	36.211746
2132.000000	36.511304
2131.000000	36.490431
2130.000000	36.664628
2129.000000	36.719874
2128.000000	36.611507
2127.000000	36.657183
2126.000000	36.742350
2125.000000	36.909294
2124.000000	36.890859
2123.000000	36.847455
2122.000000	36.937320
2121.000000	36.950811
2120.000000	36.871306
2119.000000	36.942363
2118.000000	37.054658
2117.000000	37.047656
2116.000000	37.110313
2115.000000	37.242968
2114.000000	37.088572
2113.000000	37.150474
2112.000000	37.098000
2111.000000	37.199330
2110.000000	37.205083
2109.000000	37.353497
2108.000000	37.264496
2107.000000	37.266216
2106.000000	37.309350
2105.000000	37.250690
2104.000000	37.229695
2103.000000	37.303423
2102.000000	37.372695
2101.000000	37.266731
2100.000000	37.327647
2099.000000	37.263355
2098.000000	37.204831
2097.000000	37.275839
2096.000000	37.264116
2095.000000	37.255993
2094.000000	37.253459
2093.000000	37.182460
2092.000000	37.258347
2091.000000	37.280990
2090.000000	37.112927
2089.000000	37.207069
2088.000000	37.201375
2087.000000	37.156113
2086.000000	37.142604
2085.000000	37.220189
2084.000000	37.145460
2083.000000	37.030457
2082.000000	37.028106
2081.000000	36.959732
2080.000000	36.960262
2079.000000	36.907243
2078.000000	36.790006
2077.000000	36.747937
2076.000000	36.679534
2075.000000	36.524653
2074.000000	36.455211
2073.000000	36.421200
2072.000000	36.378026
2071.000000	36.328972
2070.000000	36.214522
2069.000000	36.130365
2068.000000	36.007452
2067.000000	35.928465
2066.000000	35.802224
2065.000000	35.664309
2064.000000	35.571520
2063.000000	35.420063
2062.000000	35.315353
2061.000000	35.205837
2060.000000	35.116662
2059.000000	35.041988
2058.000000	34.907339
2057.000000	34.819912
2056.000000	34.787963
2055.000000	34.700462
2054.000000	34.608451
2053.000000	34.527901
2052.000000	34.429097
2051.000000	34.338201
2050.000000	34.284856
2049.000000	34.201063
2048.000000	34.131135
2047.000000	34.135410
2046.000000	34.083169
2045.000000	33.985807
2044.000000	33.973853
2043.000000	33.978177
2042.000000	33.938694
2041.000000	33.940117
2040.000000	33.962791
2039.000000	33.961138
2038.000000	33.990184
2037.000000	34.025515
2036.000000	34.087873
2035.000000	34.144953
2034.000000	34.163201
2033.000000	34.210027
2032.000000	34.322957
2031.000000	34.448152
2030.000000	34.505003
2029.000000	34.569652
2028.000000	34.624686
2027.000000	34.695086
2026.000000	34.782670
2025.000000	34.814219
2024.000000	34.848194
2023.000000	34.908217
2022.000000	34.989366
2021.000000	35.050153
2020.000000	35.063933
2019.000000	35.046091
2018.000000	35.056235
2017.000000	35.056960
2016.000000	35.031786
2015.000000	35.035308
2014.000000	35.044334
2013.000000	34.999056
2012.000000	34.948302
2011.000000	34.954179
2010.000000	34.951851
2009.000000	34.889470
2008.000000	34.823692
2007.000000	34.764241
2006.000000	34.700331
2005.000000	34.664443
2004.000000	34.629616
2003.000000	34.560122
2002.000000	34.502359
2001.000000	34.405511
2000.000000	34.340363
1999.000000	34.292884
1998.000000	34.221871
1997.000000	34.144428
1996.000000	34.073076
1995.000000	33.982175
1994.000000	33.935613
1993.000000	33.877560
1992.000000	33.773318
1991.000000	33.691943
1990.000000	33.634694
1989.000000	33.556330
1988.000000	33.499405
1987.000000	33.404837
1986.000000	33.295769
1985.000000	33.245975
1984.000000	33.194218
1983.000000	33.101510
1982.000000	33.032282
1981.000000	33.039140
1980.000000	32.917160
1979.000000	32.802636
1978.000000	32.754519
1977.000000	32.682432
1976.000000	32.573998
1975.000000	32.547829
1974.000000	32.492630
1973.000000	32.429497
1972.000000	32.387373
1971.000000	32.276898
1970.000000	32.228340
1969.000000	32.194381
1968.000000	32.115883
1967.000000	32.087660
1966.000000	32.050906
1965.000000	31.943874
1964.000000	31.883482
1963.000000	31.856140
1962.000000	31.777782
1961.000000	31.728055
1960.000000	31.676117
1959.000000	31.645845
1958.000000	31.608594
1957.000000	31.549796
1956.000000	31.465088
1955.000000	31.409467
1954.000000	31.440780
1953.000000	31.372377
1952.000000	31.378758
1951.000000	31.316262
1950.000000	31.354777
1949.000000	31.283220
1948.000000	31.260567
1947.000000	31.255137
1946.000000	31.277010
1945.000000	31.273837
1944.000000	31.278406
1943.000000	31.260630
1942.000000	31.340274
1941.000000	31.376687
1940.000000	31.356450
1939.000000	31.443796
1938.000000	31.448788
1937.000000	31.494615
1936.000000	31.574136
1935.000000	31.632373
1934.000000	31.631950
1933.000000	31.758152
1932.000000	31.862976
1931.000000	31.963302
1930.000000	32.138776
1929.000000	32.206139
1928.000000	32.328119
1927.000000	32.573596
1926.000000	32.641601
1925.000000	32.732628
1924.000000	32.918373
1923.000000	33.107167
1922.000000	33.256711
1921.000000	33.498736
1920.000000	33.609480
1919.000000	33.857672
1918.000000	34.139404
1917.000000	34.350224
1916.000000	34.516381
1915.000000	34.785292
1914.000000	35.101769
1913.000000	35.406118
1912.000000	35.599234
1911.000000	35.795481
1910.000000	36.142772
1909.000000	36.384058
1908.000000	36.701778
1907.000000	37.117328
1906.000000	37.372514
1905.000000	37.732160
1904.000000	38.075701
1903.000000	38.463355
1902.000000	38.838750
1901.000000	39.181527
1900.000000	39.579288
1899.000000	39.978139
1898.000000	40.417200
1897.000000	40.734179
1896.000000	41.144683
1895.000000	41.562998
1894.000000	41.966156
1893.000000	42.296839
1892.000000	42.678796
1891.000000	43.070505
1890.000000	43.451194
1889.000000	43.807580
1888.000000	44.133230
1887.000000	44.510243
1886.000000	44.842210
1885.000000	45.215122
1884.000000	45.576640
1883.000000	45.891496
1882.000000	46.161379
1881.000000	46.466919
1880.000000	46.728066
1879.000000	46.969488
1878.000000	47.259894
1877.000000	47.540528
1876.000000	47.738230
1875.000000	47.991457
1874.000000	48.167776
1873.000000	48.331960
1872.000000	48.563249
1871.000000	48.747985
1870.000000	48.934198
1869.000000	49.080980
1868.000000	49.251208
1867.000000	49.335555
1866.000000	49.364660
1865.000000	49.478379
1864.000000	49.567374
1863.000000	49.672953
1862.000000	49.754687
1861.000000	49.837664
1860.000000	49.883431
1859.000000	49.905165
1858.000000	49.931053
1857.000000	50.035187
1856.000000	50.036746
1855.000000	50.079695
1854.000000	50.104797
1853.000000	50.143444
1852.000000	50.176509
1851.000000	50.193009
1850.000000	50.191125
1849.000000	50.194947
1848.000000	50.199842
1847.000000	50.233784
1846.000000	50.218448
1845.000000	50.218824
1844.000000	50.208072
1843.000000	50.131147
1842.000000	50.130643
1841.000000	50.104457
1840.000000	50.056477
1839.000000	50.048993
1838.000000	50.056922
1837.000000	49.990370
1836.000000	49.931363
1835.000000	49.885409
1834.000000	49.844611
1833.000000	49.812348
1832.000000	49.782700
1831.000000	49.728901
1830.000000	49.714802
1829.000000	49.678921
1828.000000	49.617238
1827.000000	49.581497
1826.000000	49.542676
1825.000000	49.518862
1824.000000	49.518875
1823.000000	49.511202
1822.000000	49.474164
1821.000000	49.427313
1820.000000	49.379465
1819.000000	49.330574
1818.000000	49.306009
1817.000000	49.310310
1816.000000	49.263872
1815.000000	49.234335
1814.000000	49.196722
1813.000000	49.149741
1812.000000	49.146881
1811.000000	49.127262
1810.000000	49.086694
1809.000000	49.049608
1808.000000	49.014258
1807.000000	48.987088
1806.000000	48.977523
1805.000000	48.965307
1804.000000	48.928035
1803.000000	48.880864
1802.000000	48.860214
1801.000000	48.825782
1800.000000	48.821220
1799.000000	48.818806
1798.000000	48.801127
1797.000000	48.763665
1796.000000	48.743390
1795.000000	48.744532
1794.000000	48.737082
1793.000000	48.712687
1792.000000	48.690879
1791.000000	48.678690
1790.000000	48.670498
1789.000000	48.643001
1788.000000	48.651273
1787.000000	48.625546
1786.000000	48.613064
1785.000000	48.602190
1784.000000	48.579695
1783.000000	48.546307
1782.000000	48.537358
1781.000000	48.525735
1780.000000	48.474002
1779.000000	48.457815
1778.000000	48.425131
1777.000000	48.370978
1776.000000	48.348944
1775.000000	48.305302
1774.000000	48.267155
1773.000000	48.223961
1772.000000	48.191894
1771.000000	48.155021
1770.000000	48.107454
1769.000000	48.045309
1768.000000	47.981649
1767.000000	47.945149
1766.000000	47.914910
1765.000000	47.871783
1764.000000	47.850624
1763.000000	47.787692
1762.000000	47.720187
1761.000000	47.675002
1760.000000	47.603179
1759.000000	47.567442
1758.000000	47.565466
1757.000000	47.504570
1756.000000	47.468187
1755.000000	47.446362
1754.000000	47.385404
1753.000000	47.354264
1752.000000	47.318008
1751.000000	47.281157
1750.000000	47.265393
1749.000000	47.205302
1748.000000	47.125818
1747.000000	47.090583
1746.000000	47.051781
1745.000000	47.002446
1744.000000	46.947877
1743.000000	46.923001
1742.000000	46.873599
1741.000000	46.818292
1740.000000	46.796828
1739.000000	46.747756
1738.000000	46.727708
1737.000000	46.683261
1736.000000	46.647776
1735.000000	46.650259
1734.000000	46.619722
1733.000000	46.616454
1732.000000	46.613873
1731.000000	46.642781
1730.000000	46.630366
1729.000000	46.652451
1728.000000	46.709009
1727.000000	46.757945
1726.000000	46.808127
1725.000000	46.858068
1724.000000	46.897115
1723.000000	46.984567
1722.000000	47.097158
1721.000000	47.135162
1720.000000	47.263086
1719.000000	47.327443
1718.000000	47.392243
1717.000000	47.497950
1716.000000	47.571740
1715.000000	47.654968
1714.000000	47.706008
1713.000000	47.804046
1712.000000	47.890778
1711.000000	47.926350
1710.000000	48.007354
1709.000000	48.039847
1708.000000	48.071083
1707.000000	48.147031
1706.000000	48.184041
1705.000000	48.199308
1704.000000	48.242812
1703.000000	48.257809
1702.000000	48.273147
1701.000000	48.297198
1700.000000	48.278691
1699.000000	48.276832
1698.000000	48.325020
1697.000000	48.363498
1696.000000	48.388164
1695.000000	48.401617
1694.000000	48.444234
1693.000000	48.487197
1692.000000	48.509966
1691.000000	48.548822
1690.000000	48.653593
1689.000000	48.733755
1688.000000	48.821232
1687.000000	48.924247
1686.000000	49.006109
1685.000000	49.139459
1684.000000	49.266296
1683.000000	49.403531
1682.000000	49.525993
1681.000000	49.671408
1680.000000	49.823080
1679.000000	49.971820
1678.000000	50.131894
1677.000000	50.262841
1676.000000	50.427846
1675.000000	50.611835
1674.000000	50.744787
1673.000000	50.922376
1672.000000	51.063339
1671.000000	51.185928
1670.000000	51.334053
1669.000000	51.506327
1668.000000	51.645674
1667.000000	51.775998
1666.000000	51.867773
1665.000000	51.941399
1664.000000	52.028313
1663.000000	52.094937
1662.000000	52.172542
1661.000000	52.275816
1660.000000	52.330869
1659.000000	52.378034
1658.000000	52.398020
1657.000000	52.469992
1656.000000	52.485115
1655.000000	52.525882
1654.000000	52.550090
1653.000000	52.559934
1652.000000	52.580796
1651.000000	52.591943
1650.000000	52.613727
1649.000000	52.596295
1648.000000	52.576546
1647.000000	52.582574
1646.000000	52.556757
1645.000000	52.529993
1644.000000	52.506731
1643.000000	52.504024
1642.000000	52.483354
1641.000000	52.455569
1640.000000	52.450735
1639.000000	52.399260
1638.000000	52.384351
1637.000000	52.356829
1636.000000	52.316210
1635.000000	52.300792
1634.000000	52.256285
1633.000000	52.200817
1632.000000	52.170977
1631.000000	52.128713
1630.000000	52.090054
1629.000000	52.058911
1628.000000	52.012668
1627.000000	51.971137
1626.000000	51.938612
1625.000000	51.885685
1624.000000	51.851784
1623.000000	51.804400
1622.000000	51.755480
1621.000000	51.708130
1620.000000	51.658898
1619.000000	51.609880
1618.000000	51.565186
1617.000000	51.512152
1616.000000	51.469457
1615.000000	51.416930
1614.000000	51.359632
1613.000000	51.314813
1612.000000	51.261844
1611.000000	51.205434
1610.000000	51.144956
1609.000000	51.085302
1608.000000	51.038236
1607.000000	50.987443
1606.000000	50.921995
1605.000000	50.873620
1604.000000	50.811991
1603.000000	50.743731
1602.000000	50.703772
1601.000000	50.651169
1600.000000	50.583628
1599.000000	50.534471
1598.000000	50.474955
1597.000000	50.413797
1596.000000	50.369454
1595.000000	50.320494
1594.000000	50.269434
1593.000000	50.220607
1592.000000	50.170377
1591.000000	50.123728
1590.000000	50.081422
1589.000000	50.026431
1588.000000	49.974127
1587.000000	49.939606
1586.000000	49.898056
1585.000000	49.858641
1584.000000	49.820368
1583.000000	49.773161
1582.000000	49.724719
1581.000000	49.683696
1580.000000	49.641383
1579.000000	49.597035
1578.000000	49.574562
1577.000000	49.534266
1576.000000	49.484357
1575.000000	49.444708
1574.000000	49.390193
1573.000000	49.351764
1572.000000	49.317527
1571.000000	49.270520
1570.000000	49.228900
1569.000000	49.187367
1568.000000	49.153884
1567.000000	49.124442
1566.000000	49.094547
1565.000000	49.064279
1564.000000	49.043178
1563.000000	49.025915
1562.000000	48.989299
1561.000000	48.959819
1560.000000	48.929516
1559.000000	48.904285
1558.000000	48.878234
1557.000000	48.860912
1556.000000	48.849990
1555.000000	48.827926
1554.000000	48.800303
1553.000000	48.770652
1552.000000	48.741517
1551.000000	48.722936
1550.000000	48.684813
1549.000000	48.646196
1548.000000	48.610440
1547.000000	48.546529
1546.000000	48.503795
1545.000000	48.453882
1544.000000	48.397481
1543.000000	48.342217
1542.000000	48.284561
1541.000000	48.204755
1540.000000	48.133517
1539.000000	48.064503
1538.000000	47.988294
1537.000000	47.895387
1536.000000	47.829583
1535.000000	47.757477
1534.000000	47.686222
1533.000000	47.612361
1532.000000	47.543564
1531.000000	47.477869
1530.000000	47.395587
1529.000000	47.322509
1528.000000	47.262444
1527.000000	47.215177
1526.000000	47.167174
1525.000000	47.101090
1524.000000	47.045529
1523.000000	47.008402
1522.000000	46.958480
1521.000000	46.905460
1520.000000	46.874369
1519.000000	46.839342
1518.000000	46.822504
1517.000000	46.776299
1516.000000	46.724381
1515.000000	46.699817
1514.000000	46.668775
1513.000000	46.658603
1512.000000	46.676645
1511.000000	46.696448
1510.000000	46.700287
1509.000000	46.682048
1508.000000	46.649630
1507.000000	46.617937
1506.000000	46.585966
1505.000000	46.579242
1504.000000	46.577147
1503.000000	46.543181
1502.000000	46.527564
1501.000000	46.524664
1500.000000	46.520209
1499.000000	46.515480
1498.000000	46.526052
1497.000000	46.507736
1496.000000	46.533657
1495.000000	46.533119
1494.000000	46.542044
1493.000000	46.573849
1492.000000	46.581348
1491.000000	46.615530
1490.000000	46.642371
1489.000000	46.671705
1488.000000	46.699782
1487.000000	46.736520
1486.000000	46.776216
1485.000000	46.798280
1484.000000	46.861558
1483.000000	46.907723
1482.000000	46.910758
1481.000000	46.977176
1480.000000	47.018353
1479.000000	47.053007
1478.000000	47.086551
1477.000000	47.134452
1476.000000	47.158388
1475.000000	47.201663
1474.000000	47.250463
1473.000000	47.283555
1472.000000	47.321110
1471.000000	47.352074
1470.000000	47.402794
1469.000000	47.448145
1468.000000	47.472505
1467.000000	47.494112
1466.000000	47.556905
1465.000000	47.599531
1464.000000	47.627612
1463.000000	47.673184
1462.000000	47.708565
1461.000000	47.760974
1460.000000	47.804945
1459.000000	47.843253
1458.000000	47.889421
1457.000000	47.934146
1456.000000	48.000089
1455.000000	48.050078
1454.000000	48.086729
1453.000000	48.137720
1452.000000	48.180962
1451.000000	48.268805
1450.000000	48.338814
1449.000000	48.376932
1448.000000	48.437276
1447.000000	48.487770
1446.000000	48.566026
1445.000000	48.645295
1444.000000	48.718394
1443.000000	48.775123
1442.000000	48.852868
1441.000000	48.936024
1440.000000	48.994548
1439.000000	49.087629
1438.000000	49.179669
1437.000000	49.281700
1436.000000	49.369394
1435.000000	49.475332
1434.000000	49.560636
1433.000000	49.660712
1432.000000	49.780419
1431.000000	49.899770
1430.000000	50.007671
1429.000000	50.116574
1428.000000	50.235352
1427.000000	50.356625
1426.000000	50.491747
1425.000000	50.641373
1424.000000	50.773856
1423.000000	50.910032
1422.000000	51.049268
1421.000000	51.185220
1420.000000	51.353703
1419.000000	51.519643
1418.000000	51.680009
1417.000000	51.847215
1416.000000	52.020604
1415.000000	52.195046
1414.000000	52.392800
1413.000000	52.568038
1412.000000	52.738500
1411.000000	52.942255
1410.000000	53.126410
1409.000000	53.316162
1408.000000	53.491641
1407.000000	53.662556
1406.000000	53.842801
1405.000000	54.034756
1404.000000	54.222360
1403.000000	54.399921
1402.000000	54.586404
1401.000000	54.784044
1400.000000	54.940520
1399.000000	55.089164
1398.000000	55.255823
1397.000000	55.422805
1396.000000	55.577634
1395.000000	55.742406
1394.000000	55.905387
1393.000000	56.061304
1392.000000	56.198347
1391.000000	56.339709
1390.000000	56.478799
1389.000000	56.615181
1388.000000	56.759745
1387.000000	56.898404
1386.000000	57.023427
1385.000000	57.116268
1384.000000	57.217240
1383.000000	57.328922
1382.000000	57.445833
1381.000000	57.544096
1380.000000	57.604569
1379.000000	57.696615
1378.000000	57.793337
1377.000000	57.847822
1376.000000	57.914768
1375.000000	58.008480
1374.000000	58.078106
1373.000000	58.122227
1372.000000	58.173321
1371.000000	58.226629
1370.000000	58.273417
1369.000000	58.327212
1368.000000	58.382612
1367.000000	58.436418
1366.000000	58.490306
1365.000000	58.539278
1364.000000	58.602903
1363.000000	58.659273
1362.000000	58.702668
1361.000000	58.750977
1360.000000	58.796591
1359.000000	58.861339
1358.000000	58.961434
1357.000000	59.016656
1356.000000	59.072401
1355.000000	59.145567
1354.000000	59.202116
1353.000000	59.262838
1352.000000	59.329514
1351.000000	59.399437
1350.000000	59.454395
1349.000000	59.502045
1348.000000	59.558354
1347.000000	59.645813
1346.000000	59.714672
1345.000000	59.770160
1344.000000	59.824585
1343.000000	59.880516
1342.000000	59.928425
1341.000000	59.987923
1340.000000	60.053801
1339.000000	60.102777
1338.000000	60.133337
1337.000000	60.183997
1336.000000	60.245758
1335.000000	60.292853
1334.000000	60.346333
1333.000000	60.378110
1332.000000	60.403820
1331.000000	60.430777
1330.000000	60.468989
1329.000000	60.528202
1328.000000	60.548652
1327.000000	60.561244
1326.000000	60.591147
1325.000000	60.656025
1324.000000	60.663581
1323.000000	60.664072
1322.000000	60.712341
1321.000000	60.722239
1320.000000	60.725470
1319.000000	60.775726
1318.000000	60.775039
1317.000000	60.779699
1316.000000	60.832749
1315.000000	60.822822
1314.000000	60.842679
1313.000000	60.879591
1312.000000	60.858765
1311.000000	60.870547
1310.000000	60.926041
1309.000000	60.932710
1308.000000	60.915235
1307.000000	60.962670
1306.000000	60.962767
1305.000000	60.975767
1304.000000	60.986732
1303.000000	60.985258
1302.000000	61.020562
1301.000000	61.025419
1300.000000	61.046257
1299.000000	61.041145
1298.000000	61.043733
1297.000000	61.049453
1296.000000	61.057456
1295.000000	61.034885
1294.000000	61.060950
1293.000000	61.036640
1292.000000	61.045490
1291.000000	61.038174
1290.000000	61.032737
1289.000000	61.042007
1288.000000	61.038204
1287.000000	61.033866
1286.000000	61.011305
1285.000000	61.008895
1284.000000	61.000840
1283.000000	61.016543
1282.000000	61.030435
1281.000000	61.019197
1280.000000	61.020632
1279.000000	61.012401
1278.000000	61.005232
1277.000000	61.020217
1276.000000	61.032364
1275.000000	61.028936
1274.000000	61.018472
1273.000000	61.033970
1272.000000	61.019257
1271.000000	61.032817
1270.000000	61.034128
1269.000000	61.039564
1268.000000	61.056897
1267.000000	61.059806
1266.000000	61.053918
1265.000000	61.052286
1264.000000	61.075354
1263.000000	61.072849
1262.000000	61.112246
1261.000000	61.145370
1260.000000	61.131521
1259.000000	61.126263
1258.000000	61.131615
1257.000000	61.134315
1256.000000	61.151889
1255.000000	61.142702
1254.000000	61.168456
1253.000000	61.168472
1252.000000	61.180588
1251.000000	61.172732
1250.000000	61.150513
1249.000000	61.158467
1248.000000	61.160380
1247.000000	61.146029
1246.000000	61.142025
1245.000000	61.147076
1244.000000	61.142116
1243.000000	61.139120
1242.000000	61.111670
1241.000000	61.087669
1240.000000	61.074491
1239.000000	61.055218
1238.000000	61.031006
1237.000000	61.013267
1236.000000	60.977636
1235.000000	60.957782
1234.000000	60.945137
1233.000000	60.939472
1232.000000	60.904102
1231.000000	60.894710
1230.000000	60.870562
1229.000000	60.854142
1228.000000	60.824175
1227.000000	60.801777
1226.000000	60.794323
1225.000000	60.790649
1224.000000	60.755393
1223.000000	60.751073
1222.000000	60.707968
1221.000000	60.699767
1220.000000	60.679869
1219.000000	60.640746
1218.000000	60.612834
1217.000000	60.604661
1216.000000	60.591266
1215.000000	60.544729
1214.000000	60.536018
1213.000000	60.492331
1212.000000	60.472775
1211.000000	60.465077
1210.000000	60.404020
1209.000000	60.358501
1208.000000	60.360908
1207.000000	60.305589
1206.000000	60.259307
1205.000000	60.238665
1204.000000	60.216634
1203.000000	60.153854
1202.000000	60.124983
1201.000000	60.108579
1200.000000	60.067596
1199.000000	60.020956
1198.000000	59.984905
1197.000000	59.987092
1196.000000	59.953281
1195.000000	59.918376
1194.000000	59.887512
1193.000000	59.869608
1192.000000	59.847297
1191.000000	59.830219
1190.000000	59.813712
1189.000000	59.789186
1188.000000	59.787127
1187.000000	59.783943
1186.000000	59.784817
1185.000000	59.794213
1184.000000	59.799345
1183.000000	59.808202
1182.000000	59.824555
1181.000000	59.852739
1180.000000	59.884823
1179.000000	59.909245
1178.000000	59.952622
1177.000000	59.986683
1176.000000	60.022339
1175.000000	60.074173
1174.000000	60.139026
1173.000000	60.194479
1172.000000	60.242217
1171.000000	60.307286
1170.000000	60.374245
1169.000000	60.431246
1168.000000	60.495027
1167.000000	60.582752
1166.000000	60.658841
1165.000000	60.726397
1164.000000	60.800333
1163.000000	60.875662
1162.000000	60.947762
1161.000000	61.013149
1160.000000	61.100909
1159.000000	61.172027
1158.000000	61.226870
1157.000000	61.298990
1156.000000	61.365945
1155.000000	61.418756
1154.000000	61.478775
1153.000000	61.546911
1152.000000	61.602358
1151.000000	61.658935
1150.000000	61.720064
1149.000000	61.778652
1148.000000	61.824609
1147.000000	61.873233
1146.000000	61.919867
1145.000000	61.974649
1144.000000	62.020079
1143.000000	62.055822
1142.000000	62.091118
1141.000000	62.135317
1140.000000	62.204383
1139.000000	62.261837
1138.000000	62.281170
1137.000000	62.307416
1136.000000	62.349921
1135.000000	62.381741
1134.000000	62.428739
1133.000000	62.467585
1132.000000	62.499264
1131.000000	62.546764
1130.000000	62.594790
1129.000000	62.610317
1128.000000	62.653503
1127.000000	62.682141
1126.000000	62.682624
1125.000000	62.688811
1124.000000	62.707102
1123.000000	62.739868
1122.000000	62.747044
1121.000000	62.745575
1120.000000	62.772849
1119.000000	62.794242
1118.000000	62.800510
1117.000000	62.815865
1116.000000	62.823701
1115.000000	62.833289
1114.000000	62.844842
1113.000000	62.863524
1112.000000	62.855561
1111.000000	62.853499
1110.000000	62.862214
1109.000000	62.872261
1108.000000	62.868334
1107.000000	62.886280
1106.000000	62.893009
1105.000000	62.887189
1104.000000	62.895726
1103.000000	62.899630
1102.000000	62.908993
1101.000000	62.909672
1100.000000	62.896492
1099.000000	62.898110
1098.000000	62.905481
1097.000000	62.912715
1096.000000	62.932144
1095.000000	62.924212
1094.000000	62.912553
1093.000000	62.918523
1092.000000	62.917696
1091.000000	62.913244
1090.000000	62.921345
1089.000000	62.924411
1088.000000	62.942309
1087.000000	62.931388
1086.000000	62.934749
1085.000000	62.917823
1084.000000	62.903610
1083.000000	62.907104
1082.000000	62.913038
1081.000000	62.926081
1080.000000	62.923624
1079.000000	62.891113
1078.000000	62.904141
1077.000000	62.910202
1076.000000	62.897523
1075.000000	62.908165
1074.000000	62.903759
1073.000000	62.891563
1072.000000	62.878342
1071.000000	62.855343
1070.000000	62.851180
1069.000000	62.859092
1068.000000	62.844741
1067.000000	62.851144
1066.000000	62.862612
1065.000000	62.860041
1064.000000	62.827707
1063.000000	62.825693
1062.000000	62.844937
1061.000000	62.827549
1060.000000	62.809811
1059.000000	62.814703
1058.000000	62.782588
1057.000000	62.797821
1056.000000	62.793268
1055.000000	62.775962
1054.000000	62.779589
1053.000000	62.785573
1052.000000	62.756566
1051.000000	62.753144
1050.000000	62.760992
1049.000000	62.746285
1048.000000	62.736842
1047.000000	62.711543
1046.000000	62.729158
1045.000000	62.721166
1044.000000	62.729521
1043.000000	62.719823
1042.000000	62.705028
1041.000000	62.716411
1040.000000	62.717973
1039.000000	62.708038
1038.000000	62.681714
1037.000000	62.703117
1036.000000	62.701260
1035.000000	62.692542
1034.000000	62.677444
1033.000000	62.669074
1032.000000	62.668908
1031.000000	62.696340
1030.000000	62.681125
1029.000000	62.666240
1028.000000	62.687819
1027.000000	62.674917
1026.000000	62.679478
1025.000000	62.662385
1024.000000	62.677835
1023.000000	62.665879
1022.000000	62.676666
1021.000000	62.671206
1020.000000	62.675175
1019.000000	62.668945
1018.000000	62.676387
1017.000000	62.657534
1016.000000	62.660987
1015.000000	62.687924
1014.000000	62.698805
1013.000000	62.696911
1012.000000	62.693520
1011.000000	62.698501
1010.000000	62.706692
1009.000000	62.714202
1008.000000	62.698949
1007.000000	62.707100
1006.000000	62.722731
1005.000000	62.709638
1004.000000	62.729564
1003.000000	62.715613
1002.000000	62.725232
1001.000000	62.737996
1000.000000	62.761222
999.000000	62.757400
998.000000	62.754079
997.000000	62.756889
996.000000	62.774367
995.000000	62.781414
994.000000	62.798798
993.000000	62.805750
992.000000	62.818674
991.000000	62.833907
990.000000	62.838308
989.000000	62.817604
988.000000	62.839580
987.000000	62.836132
986.000000	62.836887
985.000000	62.869359
984.000000	62.874354
983.000000	62.870386
982.000000	62.886066
981.000000	62.892586
980.000000	62.880912
979.000000	62.890054
978.000000	62.891365
977.000000	62.907789
976.000000	62.920876
975.000000	62.932510
974.000000	62.939876
973.000000	62.947360
972.000000	62.961313
971.000000	62.969386
970.000000	62.975127
969.000000	62.977285
968.000000	62.967941
967.000000	62.977438
966.000000	63.001411
965.000000	63.008784
964.000000	63.005137
963.000000	63.019167
962.000000	63.043114
961.000000	63.057584
960.000000	63.046579
959.000000	63.042177
958.000000	63.068892
957.000000	63.088099
956.000000	63.089678
955.000000	63.104702
954.000000	63.113344
953.000000	63.113085
952.000000	63.106246
951.000000	63.108730
950.000000	63.112620
949.000000	63.115055
948.000000	63.116882
947.000000	63.135194
946.000000	63.146274
945.000000	63.154322
944.000000	63.172575
943.000000	63.183267
942.000000	63.187513
941.000000	63.187237
940.000000	63.178644
939.000000	63.175262
938.000000	63.169651
937.000000	63.154450
936.000000	63.144064
935.000000	63.146062
934.000000	63.158526
933.000000	63.170933
932.000000	63.189327
931.000000	63.187931
930.000000	63.177251
929.000000	63.179722
928.000000	63.158548
927.000000	63.155273
926.000000	63.175085
925.000000	63.182596
924.000000	63.185127
923.000000	63.188110
922.000000	63.151952
921.000000	63.128625
920.000000	63.153143
919.000000	63.161882
918.000000	63.166030
917.000000	63.165468
916.000000	63.143180
915.000000	63.151859
914.000000	63.162319
913.000000	63.186492
912.000000	63.195282
911.000000	63.174360
910.000000	63.154886
909.000000	63.165897
908.000000	63.148160
907.000000	63.147374
906.000000	63.139645
905.000000	63.130379
904.000000	63.150163
903.000000	63.130748
902.000000	63.155393
901.000000	63.195636
900.000000	63.183055
899.000000	63.200013
898.000000	63.237416
897.000000	63.170972
896.000000	63.232678
895.000000	63.248115
894.000000	63.227804
893.000000	63.209013
892.000000	63.214946
891.000000	63.253215
890.000000	63.204930
889.000000	63.217229
888.000000	63.260460
887.000000	63.345875
886.000000	63.353025
885.000000	63.304336
884.000000	63.268180
883.000000	63.291833
882.000000	63.325969
881.000000	63.344304
880.000000	63.267165
879.000000	63.355741
878.000000	63.327434
877.000000	63.312913
876.000000	63.348509
875.000000	63.333642
874.000000	63.356909
873.000000	63.405213
872.000000	63.478388
871.000000	63.465740
870.000000	63.394416
869.000000	63.391231
868.000000	63.436749
867.000000	63.379408
866.000000	63.376057
865.000000	63.331118
864.000000	63.424249
863.000000	63.297422
862.000000	63.258567
861.000000	63.418334
860.000000	63.412420
859.000000	62.794494
858.000000	62.796268
857.000000	63.089060
856.000000	63.208410
855.000000	63.080082
854.000000	62.670705
853.000000	62.894582
852.000000	62.711908
851.000000	63.065264
850.000000	62.976744
849.000000	63.022243
848.000000	63.014487
847.000000	62.723474
846.000000	62.730518
845.000000	62.892561
844.000000	62.807998
843.000000	62.817893
842.000000	62.934768
841.000000	63.100322
840.000000	62.825528
839.000000	62.798440
838.000000	62.939972
837.000000	62.774755
836.000000	63.024772
835.000000	62.968000
834.000000	62.998895
833.000000	62.736523
832.000000	62.739250
831.000000	62.891081
830.000000	62.913150
829.000000	63.039447
828.000000	63.010649
827.000000	62.807457
826.000000	62.917561
825.000000	62.800094
824.000000	62.873032
823.000000	62.732898
822.000000	62.805237
821.000000	62.802352
820.000000	62.915309
819.000000	62.816120
818.000000	62.953644
817.000000	62.874558
816.000000	62.658939
815.000000	62.712667
814.000000	62.792015
813.000000	62.922772
812.000000	62.833442
811.000000	62.762415
810.000000	62.828202
809.000000	62.693232
808.000000	62.872285
807.000000	62.884865
806.000000	62.881208
805.000000	62.881949
804.000000	62.790520
803.000000	62.781987
802.000000	62.927677
801.000000	63.047160
800.000000	62.815452
799.000000	62.740801
798.000000	62.852334
797.000000	62.784488
796.000000	62.893802
795.000000	62.859324
794.000000	62.715203
793.000000	62.780385
792.000000	62.795242
791.000000	62.741093
790.000000	62.739615
789.000000	62.829038
788.000000	62.899807
787.000000	62.837800
786.000000	62.784500
785.000000	62.898463
784.000000	62.874065
783.000000	62.844779
782.000000	62.785276
781.000000	62.698075
780.000000	62.776780
779.000000	62.791146
778.000000	62.739738
777.000000	62.834124
776.000000	62.817433
775.000000	62.755865
774.000000	62.873590
773.000000	62.834998
772.000000	62.715825
771.000000	62.667855
770.000000	62.735119
769.000000	62.773261
768.000000	62.749399
767.000000	62.751360
766.000000	62.695727
765.000000	62.760635
764.000000	62.752254
763.000000	62.682030
762.000000	62.755966
761.000000	62.702718
760.000000	62.677791
759.000000	62.615386
758.000000	62.601596
757.000000	62.735972
756.000000	62.801384
755.000000	62.688930
754.000000	62.665412
753.000000	62.686281
752.000000	62.697333
751.000000	62.711404
750.000000	62.664912
749.000000	62.624603
748.000000	62.609001
747.000000	62.609041
746.000000	62.666659
745.000000	62.656005
744.000000	62.648863
743.000000	62.650432
742.000000	62.552206
741.000000	62.519889
740.000000	62.572826
739.000000	62.611301
738.000000	62.590976
737.000000	62.618889
736.000000	62.618590
735.000000	62.566491
734.000000	62.562602
733.000000	62.550699
732.000000	62.598379
731.000000	62.576380
730.000000	62.511352
729.000000	62.512261
728.000000	62.520224
727.000000	62.476495
726.000000	62.502475
725.000000	62.491057
724.000000	62.459995
723.000000	62.461482
722.000000	62.480379
721.000000	62.509343
720.000000	62.523516
719.000000	62.475175
718.000000	62.461403
717.000000	62.445926
716.000000	62.466355
715.000000	62.473461
714.000000	62.407340
713.000000	62.365999
712.000000	62.396439
711.000000	62.428979
710.000000	62.450427
709.000000	62.449502
708.000000	62.408512
707.000000	62.348828
706.000000	62.341552
705.000000	62.342766
704.000000	62.344951
703.000000	62.374214
702.000000	62.392494
701.000000	62.356486
700.000000	62.322912
699.000000	62.310596
698.000000	62.333085
697.000000	62.314649
696.000000	62.288951
695.000000	62.291045
694.000000	62.277542
693.000000	62.262277
692.000000	62.204670
691.000000	62.236903
690.000000	62.224088
689.000000	62.218174
688.000000	62.166415
687.000000	62.154879
686.000000	62.219049
685.000000	62.234076
684.000000	62.191719
683.000000	62.149286
682.000000	62.226699
681.000000	62.196106
680.000000	62.202786
679.000000	62.261912
678.000000	62.250419
677.000000	62.154357
676.000000	62.184696
675.000000	62.167730
674.000000	62.104589
673.000000	62.092192
672.000000	62.133993
671.000000	62.093744
670.000000	62.115956
669.000000	62.129429
668.000000	62.109846
667.000000	62.105712
666.000000	62.097132
665.000000	62.114061
664.000000	62.053508
663.000000	62.061539
662.000000	62.074452
661.000000	62.057772
660.000000	61.994191
659.000000	62.014548
658.000000	62.058728
657.000000	62.026581
656.000000	62.021711
655.000000	62.027754
654.000000	62.013622
653.000000	62.051225
652.000000	62.012419
651.000000	61.896789
650.000000	61.973540
649.000000	61.901539
648.000000	61.897024
647.000000	61.912944
646.000000	61.872098
645.000000	61.908728
644.000000	61.895952
643.000000	61.913825
642.000000	61.943551
641.000000	61.982333
640.000000	61.914927
639.000000	61.871142
638.000000	61.878610
637.000000	61.870848
636.000000	61.828248
635.000000	61.870449
634.000000	61.816325
633.000000	61.786799
632.000000	61.748869
631.000000	61.793354
630.000000	61.759263
629.000000	61.724367
628.000000	61.727423
627.000000	61.725006
626.000000	61.689618
625.000000	61.682049
624.000000	61.676513
623.000000	61.716842
622.000000	61.678643
621.000000	61.695878
620.000000	61.663652
619.000000	61.656219
618.000000	61.640574
617.000000	61.653188
616.000000	61.650081
615.000000	61.605760
614.000000	61.612177
613.000000	61.576734
612.000000	61.589957
611.000000	61.572196
610.000000	61.545435
609.000000	61.509266
608.000000	61.501674
607.000000	61.502358
606.000000	61.511330
605.000000	61.453417
604.000000	61.412040
603.000000	61.445538
602.000000	61.462567
601.000000	61.425992
600.000000	61.435341
599.000000	61.424877
598.000000	61.424642
597.000000	61.384033
596.000000	61.353722
595.000000	61.354321
594.000000	61.334317
593.000000	61.335470
592.000000	61.329667
591.000000	61.260141
590.000000	61.247115
589.000000	61.276465
588.000000	61.227446
587.000000	61.226114
586.000000	61.195827
585.000000	61.253243
584.000000	61.167366
583.000000	61.167373
582.000000	61.137611
581.000000	61.156946
580.000000	61.112494
579.000000	61.070685
578.000000	61.048780
577.000000	61.053008
576.000000	61.084377
575.000000	61.027760
574.000000	60.954114
573.000000	60.994910
572.000000	60.961567
571.000000	60.939174
570.000000	60.950040
569.000000	60.931517
568.000000	60.933984
567.000000	60.834921
566.000000	60.859692
565.000000	60.811874
564.000000	60.802289
563.000000	60.793144
562.000000	60.807651
561.000000	60.670454
560.000000	60.606738
559.000000	60.643060
558.000000	60.614161
557.000000	60.561020
556.000000	60.562537
555.000000	60.594223
554.000000	60.562058
553.000000	60.545503
552.000000	60.471474
551.000000	60.451008
550.000000	60.436603
549.000000	60.419921
548.000000	60.417972
547.000000	60.358418
546.000000	60.338995
545.000000	60.289708
544.000000	60.305612
543.000000	60.255455
542.000000	60.263427
541.000000	60.244851
540.000000	60.182385
539.000000	60.149424
538.000000	60.152581
537.000000	60.110373
536.000000	60.064501
535.000000	60.045006
534.000000	59.994040
533.000000	59.933796
532.000000	59.947875
531.000000	59.945959
530.000000	59.879167
529.000000	59.836578
528.000000	59.836675
527.000000	59.786719
526.000000	59.763064
525.000000	59.735804
524.000000	59.758247
523.000000	59.711516
522.000000	59.649901
521.000000	59.654939
520.000000	59.600376
519.000000	59.526155
518.000000	59.500697
517.000000	59.513085
516.000000	59.453840
515.000000	59.413081
514.000000	59.344113
513.000000	59.345616
512.000000	59.317521
511.000000	59.268840
510.000000	59.247886
509.000000	59.204423
508.000000	59.178688
507.000000	59.124341
506.000000	59.057271
505.000000	59.017533
504.000000	58.985953
503.000000	58.915657
502.000000	58.905195
501.000000	58.867845
500.000000	58.843307
499.000000	58.838834
498.000000	58.730310
497.000000	58.692148
496.000000	58.668482
495.000000	58.656583
494.000000	58.588025
493.000000	58.558013
492.000000	58.476309
491.000000	58.446079
490.000000	58.380772
489.000000	58.332770
488.000000	58.273465
487.000000	58.211590
486.000000	58.220612
485.000000	58.229477
484.000000	58.185833
483.000000	58.153799
482.000000	58.104194
481.000000	58.030286
480.000000	58.007462
479.000000	57.961232
478.000000	57.859300
477.000000	57.815109
476.000000	57.763346
475.000000	57.673048
474.000000	57.624405
473.000000	57.543968
472.000000	57.500453
471.000000	57.459034
470.000000	57.399054
469.000000	57.330088
468.000000	57.248790
467.000000	57.179637
466.000000	57.137933
465.000000	57.071737
464.000000	56.989712
463.000000	56.908927
462.000000	56.864460
461.000000	56.811122
460.000000	56.725425
459.000000	56.667702
458.000000	56.594558
457.000000	56.514277
456.000000	56.454305
455.000000	56.417381
454.000000	56.355133
453.000000	56.257079
452.000000	56.156960
451.000000	56.082149
450.000000	56.002857
449.000000	55.934891
448.000000	55.870804
447.000000	55.780721
446.000000	55.665507
445.000000	55.624327
444.000000	55.561261
443.000000	55.470907
442.000000	55.365716
441.000000	55.308264
440.000000	55.197722
439.000000	55.108119
438.000000	55.033130
437.000000	54.960141
436.000000	54.874651
435.000000	54.811194
434.000000	54.743867
433.000000	54.633846
432.000000	54.508821
431.000000	54.427676
430.000000	54.334486
429.000000	54.242275
428.000000	54.168596
427.000000	54.080125
426.000000	53.970819
425.000000	53.894271
424.000000	53.790005
423.000000	53.705316
422.000000	53.623564
421.000000	53.549574
420.000000	53.441869
419.000000	53.336429
418.000000	53.284637
417.000000	53.125831
416.000000	52.999966
415.000000	52.930807
414.000000	52.900757
413.000000	52.767216
412.000000	52.655407
411.000000	52.571713
410.000000	52.501059
409.000000	52.404601
408.000000	52.328851
407.000000	52.294279
406.000000	52.178810
405.000000	52.074482
404.000000	52.029535
403.000000	51.933632
402.000000	51.841365
401.000000	51.723568
400.000000	51.633797
399.000000	51.505064
398.000000	51.503799
397.000000	51.413892
396.000000	51.298641
395.000000	51.264637
394.000000	51.156011
393.000000	51.001146
392.000000	50.868772
391.000000	50.774530
390.000000	50.608363
389.000000	50.607034
388.000000	50.512956
387.000000	50.371466
386.000000	50.169959
385.000000	50.085192
384.000000	49.967188
383.000000	49.872638
382.000000	49.694557
381.000000	49.643461
380.000000	49.369613
379.000000	49.365654
378.000000	49.145335
377.000000	48.923183
376.000000	49.048902
375.000000	48.987569
374.000000	48.673082
373.000000	48.496384
372.000000	48.541962
371.000000	48.336570
370.000000	48.193149
369.000000	47.982491
368.000000	47.903188
367.000000	47.830007
366.000000	47.757033
365.000000	47.610016
364.000000	47.591114
363.000000	47.152724
362.000000	47.207741
361.000000	47.150786
360.000000	47.010134
359.000000	46.740094
358.000000	46.737539
357.000000	46.607761
356.000000	46.659491
355.000000	46.400379
354.000000	46.262388
353.000000	46.301855
352.000000	45.969895
351.000000	45.847336
350.000000	45.733232
349.000000	45.876430
348.000000	45.542266
347.000000	45.451673
346.000000	45.346277
345.000000	45.261627
344.000000	45.009404
343.000000	45.017099
342.000000	44.785074
341.000000	44.843037
340.000000	44.660864
339.000000	44.548089
338.000000	44.311379
337.000000	44.325104
336.000000	44.393246
335.000000	43.852104
334.000000	43.988252
333.000000	43.873206
332.000000	43.516489
331.000000	43.425953
330.000000	43.209021
329.000000	43.309854
328.000000	43.064306
327.000000	43.106831
326.000000	42.821892
325.000000	42.878159
324.000000	42.696532
323.000000	42.707240
322.000000	42.432101
321.000000	42.498752
320.000000	42.504868
319.000000	42.271238
318.000000	42.228337
317.000000	42.057439
316.000000	42.005370
315.000000	41.905182
314.000000	41.749122
313.000000	41.600668
312.000000	41.631335
311.000000	41.461690
310.000000	41.361904
309.000000	41.194928
308.000000	41.074302
307.000000	40.880803
306.000000	40.783460
305.000000	40.774480
304.000000	40.552089
303.000000	40.279813
302.000000	40.101952
301.000000	40.084969
300.000000	39.762154
299.000000	39.468214
298.000000	39.069817
297.000000	38.778497
296.000000	38.412618
295.000000	37.834149
294.000000	37.255708
293.000000	36.364322
292.000000	35.454504
291.000000	34.377005
290.000000	33.363365
289.000000	32.254396
288.000000	31.408596
287.000000	30.590551
286.000000	29.985827
285.000000	29.664653
284.000000	29.560463
283.000000	29.563123
282.000000	29.433670
281.000000	29.347425
280.000000	29.365158
279.000000	29.518150
278.000000	29.549688
277.000000	29.704431
276.000000	29.926468
275.000000	30.247641
274.000000	30.572282
273.000000	30.886239
272.000000	31.191992
271.000000	31.345785
270.000000	31.410280
269.000000	31.511987
268.000000	31.821519
267.000000	32.130171
266.000000	32.373435
265.000000	32.593729
264.000000	32.886093
263.000000	33.204563
262.000000	33.627677
261.000000	33.904329
260.000000	34.049509
259.000000	34.198264
258.000000	34.412612
257.000000	34.720817
256.000000	34.899270
255.000000	35.011772
254.000000	34.967556
253.000000	34.831410
252.000000	34.555945
251.000000	34.201778
250.000000	33.700840
249.000000	32.858329
248.000000	31.932431
247.000000	30.743664
246.000000	29.376246
245.000000	27.862309
244.000000	26.153300
243.000000	24.465277
242.000000	22.865778
241.000000	21.172706
240.000000	19.631677
239.000000	18.198694
238.000000	16.966923
237.000000	15.989755
236.000000	15.029849
235.000000	14.271350
234.000000	13.638972
233.000000	12.996602
232.000000	12.383011
231.000000	11.802094
230.000000	11.369471
229.000000	10.929084
228.000000	10.454934
227.000000	10.044012
226.000000	9.697360
225.000000	9.396692
224.000000	9.181054
223.000000	8.963438
222.000000	8.831465
221.000000	8.776153
220.000000	8.700085
219.000000	8.672532
218.000000	8.649985
217.000000	8.602080
216.000000	8.639417
215.000000	8.779917
214.000000	8.813186
213.000000	8.867858
212.000000	9.034477
211.000000	9.158115
210.000000	9.206902
209.000000	9.299370
208.000000	9.498474
207.000000	9.634067
206.000000	9.991402
205.000000	10.246808
204.000000	10.382299
203.000000	10.705552
202.000000	11.179642
201.000000	11.474280
200.000000	11.767404
