PE UV       SUBTECH     SPECTRUM    ASCII       PEDS        4.00        
   -1
RTgChevreUK 62.Sample.asc
18/03/09
10:34:19.00
18/03/09
10:34:19.00
Administrator

200.000000
1
Lambda 750
750N8071901
PerkinElmer UV WinLab 6.0.4.0738 / 1.61.00 Lambda 900

0
0
3350/servo 860.8/2
0
0
UV/VIS
1
1
1
CommonBeamDepol,150mm sphere / downward view
0
0
0
0
Program
Program
3350/servo 860.8/2
3350/0.2 860.8/0.2
3350/0.2 860.8/0.2
0
1
 
 
 
0
 
860.8
319.2
860.8
Front
100
on
 
 
0
0
0
 
0
 
 
 
0
 
 
0
0
0
0
0
 
 
 
 
0
0


0
0
#HDR
-1
-1
#GR
nm
%R
1.0
0.0
2350.000000
-1.000000
2151
8
58.849964
11.193048
#DATA
2350.000000	27.439128
2349.000000	27.829056
2348.000000	27.615499
2347.000000	28.424425
2346.000000	27.892745
2345.000000	27.562849
2344.000000	27.653234
2343.000000	27.788465
2342.000000	27.834706
2341.000000	27.768644
2340.000000	27.926140
2339.000000	27.736323
2338.000000	27.955629
2337.000000	28.271570
2336.000000	28.104438
2335.000000	28.399064
2334.000000	28.528609
2333.000000	28.622728
2332.000000	28.702703
2331.000000	28.473094
2330.000000	28.075901
2329.000000	28.548772
2328.000000	28.385522
2327.000000	28.293498
2326.000000	28.437566
2325.000000	28.324911
2324.000000	28.235963
2323.000000	27.790026
2322.000000	27.995747
2321.000000	28.298361
2320.000000	28.272520
2319.000000	27.954933
2318.000000	27.939178
2317.000000	28.189255
2316.000000	28.178124
2315.000000	28.140926
2314.000000	28.094631
2313.000000	27.682346
2312.000000	27.587558
2311.000000	27.536898
2310.000000	27.534286
2309.000000	27.524151
2308.000000	27.404189
2307.000000	27.478294
2306.000000	27.694891
2305.000000	27.614771
2304.000000	27.519662
2303.000000	27.581675
2302.000000	27.596644
2301.000000	27.423553
2300.000000	27.273233
2299.000000	27.200259
2298.000000	26.961741
2297.000000	26.836686
2296.000000	26.765855
2295.000000	26.900257
2294.000000	26.792293
2293.000000	26.725689
2292.000000	26.717854
2291.000000	26.704815
2290.000000	26.590998
2289.000000	26.612885
2288.000000	26.721263
2287.000000	26.796344
2286.000000	26.584542
2285.000000	26.456363
2284.000000	26.257735
2283.000000	26.298911
2282.000000	26.426821
2281.000000	26.470207
2280.000000	26.386214
2279.000000	26.362922
2278.000000	26.298640
2277.000000	26.410409
2276.000000	26.496056
2275.000000	26.649485
2274.000000	26.711678
2273.000000	26.741418
2272.000000	26.723746
2271.000000	26.523014
2270.000000	26.624144
2269.000000	26.656240
2268.000000	26.730226
2267.000000	26.825092
2266.000000	26.764933
2265.000000	26.762060
2264.000000	26.879647
2263.000000	26.914315
2262.000000	27.061234
2261.000000	27.311414
2260.000000	27.411035
2259.000000	27.512062
2258.000000	27.648846
2257.000000	27.752889
2256.000000	27.775550
2255.000000	27.905172
2254.000000	28.018361
2253.000000	28.114310
2252.000000	28.294485
2251.000000	28.430467
2250.000000	28.559260
2249.000000	28.707759
2248.000000	28.796404
2247.000000	28.956537
2246.000000	29.026290
2245.000000	29.188735
2244.000000	29.410563
2243.000000	29.650977
2242.000000	29.812065
2241.000000	29.740049
2240.000000	29.720632
2239.000000	29.808015
2238.000000	29.985760
2237.000000	30.184371
2236.000000	30.228389
2235.000000	30.186081
2234.000000	30.217709
2233.000000	30.239728
2232.000000	30.263609
2231.000000	30.320663
2230.000000	30.394133
2229.000000	30.460062
2228.000000	30.435218
2227.000000	30.380726
2226.000000	30.384776
2225.000000	30.381178
2224.000000	30.381173
2223.000000	30.408831
2222.000000	30.362543
2221.000000	30.353285
2220.000000	30.460012
2219.000000	30.374148
2218.000000	30.253409
2217.000000	30.208166
2216.000000	30.230155
2215.000000	30.319956
2214.000000	30.291794
2213.000000	30.174818
2212.000000	30.163183
2211.000000	30.228638
2210.000000	30.213567
2209.000000	30.070437
2208.000000	30.046437
2207.000000	30.047173
2206.000000	29.925598
2205.000000	29.768704
2204.000000	29.821199
2203.000000	29.761878
2202.000000	29.745758
2201.000000	29.655707
2200.000000	29.675824
2199.000000	29.582851
2198.000000	29.588731
2197.000000	29.497432
2196.000000	29.463192
2195.000000	29.310347
2194.000000	29.299362
2193.000000	29.223070
2192.000000	29.226671
2191.000000	29.143002
2190.000000	29.173197
2189.000000	29.156945
2188.000000	29.127999
2187.000000	29.181922
2186.000000	29.077059
2185.000000	29.093800
2184.000000	29.132064
2183.000000	29.129248
2182.000000	29.129124
2181.000000	29.029849
2180.000000	29.013479
2179.000000	29.016494
2178.000000	28.914463
2177.000000	28.962372
2176.000000	29.013610
2175.000000	29.035506
2174.000000	29.155207
2173.000000	29.134597
2172.000000	29.245671
2171.000000	29.192125
2170.000000	29.334600
2169.000000	29.364955
2168.000000	29.597674
2167.000000	29.476540
2166.000000	29.415862
2165.000000	29.370429
2164.000000	29.500314
2163.000000	29.628839
2162.000000	29.782622
2161.000000	29.674605
2160.000000	30.085997
2159.000000	30.142808
2158.000000	30.004525
2157.000000	30.092828
2156.000000	30.323079
2155.000000	30.416620
2154.000000	30.452596
2153.000000	30.772786
2152.000000	30.756985
2151.000000	30.812954
2150.000000	31.034146
2149.000000	31.098282
2148.000000	31.164184
2147.000000	31.243983
2146.000000	31.270408
2145.000000	31.336096
2144.000000	31.446728
2143.000000	31.649394
2142.000000	31.617486
2141.000000	31.803686
2140.000000	31.844272
2139.000000	31.916360
2138.000000	32.305550
2137.000000	32.414150
2136.000000	32.397912
2135.000000	32.243409
2134.000000	32.236567
2133.000000	32.417663
2132.000000	32.649166
2131.000000	32.728085
2130.000000	32.594014
2129.000000	32.669220
2128.000000	32.796235
2127.000000	32.666084
2126.000000	32.656797
2125.000000	32.763173
2124.000000	32.870745
2123.000000	32.720790
2122.000000	32.929502
2121.000000	32.986799
2120.000000	33.024718
2119.000000	33.027502
2118.000000	32.873683
2117.000000	33.048605
2116.000000	33.246558
2115.000000	33.241171
2114.000000	33.238181
2113.000000	33.129038
2112.000000	33.253327
2111.000000	33.166071
2110.000000	33.094626
2109.000000	33.127901
2108.000000	33.199542
2107.000000	33.016729
2106.000000	33.191143
2105.000000	33.209537
2104.000000	33.234699
2103.000000	33.196424
2102.000000	33.254329
2101.000000	33.353000
2100.000000	33.275736
2099.000000	33.142771
2098.000000	33.188141
2097.000000	33.379264
2096.000000	33.211193
2095.000000	33.283465
2094.000000	33.277181
2093.000000	33.181306
2092.000000	33.117002
2091.000000	33.177974
2090.000000	33.153949
2089.000000	33.154778
2088.000000	33.072516
2087.000000	33.093298
2086.000000	33.142503
2085.000000	33.160056
2084.000000	33.037233
2083.000000	33.051328
2082.000000	32.963187
2081.000000	32.903036
2080.000000	32.837287
2079.000000	32.778678
2078.000000	32.673392
2077.000000	32.618395
2076.000000	32.502170
2075.000000	32.450706
2074.000000	32.417424
2073.000000	32.322797
2072.000000	32.260436
2071.000000	32.138065
2070.000000	32.065329
2069.000000	31.941967
2068.000000	31.866168
2067.000000	31.829352
2066.000000	31.693405
2065.000000	31.569451
2064.000000	31.529011
2063.000000	31.364004
2062.000000	31.265774
2061.000000	31.180168
2060.000000	31.085872
2059.000000	30.943556
2058.000000	30.860325
2057.000000	30.798968
2056.000000	30.758455
2055.000000	30.640483
2054.000000	30.527881
2053.000000	30.481252
2052.000000	30.357195
2051.000000	30.218995
2050.000000	30.129890
2049.000000	30.052218
2048.000000	30.005515
2047.000000	29.999605
2046.000000	29.935801
2045.000000	29.912175
2044.000000	29.844233
2043.000000	29.854636
2042.000000	29.862731
2041.000000	29.880429
2040.000000	29.874003
2039.000000	29.858819
2038.000000	29.916525
2037.000000	29.953486
2036.000000	29.971550
2035.000000	30.088811
2034.000000	30.163953
2033.000000	30.201036
2032.000000	30.238540
2031.000000	30.284138
2030.000000	30.359289
2029.000000	30.463425
2028.000000	30.570829
2027.000000	30.586101
2026.000000	30.648727
2025.000000	30.732810
2024.000000	30.776892
2023.000000	30.827017
2022.000000	30.850222
2021.000000	30.873882
2020.000000	30.878244
2019.000000	30.889305
2018.000000	30.890912
2017.000000	30.881769
2016.000000	30.894130
2015.000000	30.906528
2014.000000	30.868746
2013.000000	30.803156
2012.000000	30.788684
2011.000000	30.772902
2010.000000	30.714677
2009.000000	30.659409
2008.000000	30.628739
2007.000000	30.578321
2006.000000	30.507820
2005.000000	30.453441
2004.000000	30.380378
2003.000000	30.307221
2002.000000	30.250761
2001.000000	30.173201
2000.000000	30.099481
1999.000000	30.046108
1998.000000	30.008376
1997.000000	29.912171
1996.000000	29.807897
1995.000000	29.744348
1994.000000	29.658363
1993.000000	29.555765
1992.000000	29.463233
1991.000000	29.418514
1990.000000	29.359924
1989.000000	29.285839
1988.000000	29.232744
1987.000000	29.156561
1986.000000	29.067745
1985.000000	28.998369
1984.000000	28.942420
1983.000000	28.891235
1982.000000	28.791093
1981.000000	28.734630
1980.000000	28.670463
1979.000000	28.598247
1978.000000	28.478219
1977.000000	28.362587
1976.000000	28.319136
1975.000000	28.277369
1974.000000	28.224876
1973.000000	28.142202
1972.000000	28.102103
1971.000000	28.056100
1970.000000	27.969598
1969.000000	27.881943
1968.000000	27.852801
1967.000000	27.814014
1966.000000	27.763439
1965.000000	27.724935
1964.000000	27.620223
1963.000000	27.557495
1962.000000	27.492968
1961.000000	27.490566
1960.000000	27.423420
1959.000000	27.366633
1958.000000	27.342995
1957.000000	27.243921
1956.000000	27.220167
1955.000000	27.164712
1954.000000	27.171306
1953.000000	27.121557
1952.000000	27.103706
1951.000000	27.085613
1950.000000	27.049074
1949.000000	27.107199
1948.000000	27.020208
1947.000000	27.035485
1946.000000	27.065193
1945.000000	27.062205
1944.000000	27.034978
1943.000000	27.024081
1942.000000	27.063903
1941.000000	27.129955
1940.000000	27.156330
1939.000000	27.227600
1938.000000	27.296059
1937.000000	27.366750
1936.000000	27.418487
1935.000000	27.501905
1934.000000	27.551187
1933.000000	27.631688
1932.000000	27.755441
1931.000000	27.861827
1930.000000	27.903953
1929.000000	28.033389
1928.000000	28.251665
1927.000000	28.353375
1926.000000	28.478049
1925.000000	28.662509
1924.000000	28.872918
1923.000000	28.978244
1922.000000	29.190421
1921.000000	29.502636
1920.000000	29.637445
1919.000000	29.771612
1918.000000	29.988773
1917.000000	30.286079
1916.000000	30.385073
1915.000000	30.756601
1914.000000	31.035994
1913.000000	31.391969
1912.000000	31.659132
1911.000000	31.887278
1910.000000	32.135410
1909.000000	32.461513
1908.000000	32.830343
1907.000000	33.091510
1906.000000	33.399111
1905.000000	33.765697
1904.000000	34.125209
1903.000000	34.504980
1902.000000	34.900430
1901.000000	35.276907
1900.000000	35.644641
1899.000000	36.122261
1898.000000	36.516680
1897.000000	36.834483
1896.000000	37.194161
1895.000000	37.666706
1894.000000	38.050301
1893.000000	38.448413
1892.000000	38.874081
1891.000000	39.221558
1890.000000	39.599410
1889.000000	39.995237
1888.000000	40.325153
1887.000000	40.633326
1886.000000	41.029768
1885.000000	41.327691
1884.000000	41.645940
1883.000000	41.986668
1882.000000	42.298913
1881.000000	42.581426
1880.000000	42.858053
1879.000000	43.115076
1878.000000	43.382424
1877.000000	43.666817
1876.000000	43.908623
1875.000000	44.059217
1874.000000	44.288147
1873.000000	44.538380
1872.000000	44.706023
1871.000000	44.866018
1870.000000	45.042638
1869.000000	45.136178
1868.000000	45.321020
1867.000000	45.404950
1866.000000	45.499183
1865.000000	45.625738
1864.000000	45.679553
1863.000000	45.735378
1862.000000	45.811878
1861.000000	45.921499
1860.000000	45.942621
1859.000000	45.976729
1858.000000	46.051987
1857.000000	46.109920
1856.000000	46.112445
1855.000000	46.141972
1854.000000	46.211274
1853.000000	46.248376
1852.000000	46.235281
1851.000000	46.253124
1850.000000	46.316666
1849.000000	46.302476
1848.000000	46.289047
1847.000000	46.312084
1846.000000	46.305351
1845.000000	46.276644
1844.000000	46.247234
1843.000000	46.200303
1842.000000	46.195229
1841.000000	46.182826
1840.000000	46.179487
1839.000000	46.128367
1838.000000	46.087120
1837.000000	46.033174
1836.000000	45.998799
1835.000000	45.948701
1834.000000	45.895714
1833.000000	45.881061
1832.000000	45.847059
1831.000000	45.803468
1830.000000	45.767995
1829.000000	45.742150
1828.000000	45.701242
1827.000000	45.656324
1826.000000	45.622000
1825.000000	45.616906
1824.000000	45.596172
1823.000000	45.559602
1822.000000	45.497811
1821.000000	45.463990
1820.000000	45.411017
1819.000000	45.389649
1818.000000	45.388351
1817.000000	45.351529
1816.000000	45.318263
1815.000000	45.290225
1814.000000	45.241474
1813.000000	45.209943
1812.000000	45.190482
1811.000000	45.159229
1810.000000	45.147598
1809.000000	45.121401
1808.000000	45.079565
1807.000000	45.053938
1806.000000	45.030098
1805.000000	45.005054
1804.000000	44.970922
1803.000000	44.940484
1802.000000	44.935874
1801.000000	44.927588
1800.000000	44.876012
1799.000000	44.832636
1798.000000	44.850428
1797.000000	44.850717
1796.000000	44.827425
1795.000000	44.809649
1794.000000	44.794441
1793.000000	44.781915
1792.000000	44.769056
1791.000000	44.746714
1790.000000	44.725532
1789.000000	44.724349
1788.000000	44.714935
1787.000000	44.696033
1786.000000	44.683614
1785.000000	44.675916
1784.000000	44.647329
1783.000000	44.627013
1782.000000	44.609064
1781.000000	44.572904
1780.000000	44.560055
1779.000000	44.544885
1778.000000	44.501431
1777.000000	44.458308
1776.000000	44.447479
1775.000000	44.395194
1774.000000	44.327202
1773.000000	44.291046
1772.000000	44.250947
1771.000000	44.223468
1770.000000	44.190949
1769.000000	44.115136
1768.000000	44.070449
1767.000000	44.058416
1766.000000	44.029238
1765.000000	43.964345
1764.000000	43.919162
1763.000000	43.864076
1762.000000	43.814356
1761.000000	43.800052
1760.000000	43.764532
1759.000000	43.715681
1758.000000	43.682349
1757.000000	43.650029
1756.000000	43.600239
1755.000000	43.538863
1754.000000	43.496100
1753.000000	43.452875
1752.000000	43.417570
1751.000000	43.352060
1750.000000	43.327659
1749.000000	43.306403
1748.000000	43.263956
1747.000000	43.211223
1746.000000	43.167013
1745.000000	43.089860
1744.000000	43.025834
1743.000000	43.001178
1742.000000	42.952617
1741.000000	42.918294
1740.000000	42.874633
1739.000000	42.846745
1738.000000	42.810992
1737.000000	42.760387
1736.000000	42.747947
1735.000000	42.745913
1734.000000	42.730534
1733.000000	42.714193
1732.000000	42.741407
1731.000000	42.730039
1730.000000	42.736202
1729.000000	42.781446
1728.000000	42.838041
1727.000000	42.849281
1726.000000	42.908054
1725.000000	42.976096
1724.000000	43.045114
1723.000000	43.095720
1722.000000	43.190153
1721.000000	43.266999
1720.000000	43.353433
1719.000000	43.435389
1718.000000	43.524240
1717.000000	43.600527
1716.000000	43.665254
1715.000000	43.720477
1714.000000	43.833380
1713.000000	43.889710
1712.000000	43.978149
1711.000000	44.021504
1710.000000	44.080674
1709.000000	44.138285
1708.000000	44.212373
1707.000000	44.228237
1706.000000	44.267351
1705.000000	44.286681
1704.000000	44.308960
1703.000000	44.341612
1702.000000	44.347038
1701.000000	44.372811
1700.000000	44.386390
1699.000000	44.392531
1698.000000	44.416359
1697.000000	44.441039
1696.000000	44.466103
1695.000000	44.495111
1694.000000	44.534453
1693.000000	44.603624
1692.000000	44.609845
1691.000000	44.697107
1690.000000	44.752633
1689.000000	44.811793
1688.000000	44.932194
1687.000000	45.013456
1686.000000	45.116260
1685.000000	45.228502
1684.000000	45.357494
1683.000000	45.492695
1682.000000	45.630699
1681.000000	45.763092
1680.000000	45.888028
1679.000000	46.057855
1678.000000	46.204356
1677.000000	46.354704
1676.000000	46.509865
1675.000000	46.658264
1674.000000	46.820445
1673.000000	46.981533
1672.000000	47.109113
1671.000000	47.247414
1670.000000	47.403457
1669.000000	47.556844
1668.000000	47.662832
1667.000000	47.796715
1666.000000	47.857113
1665.000000	47.936958
1664.000000	47.997866
1663.000000	48.089939
1662.000000	48.182693
1661.000000	48.254072
1660.000000	48.314355
1659.000000	48.376415
1658.000000	48.397787
1657.000000	48.412249
1656.000000	48.454164
1655.000000	48.482728
1654.000000	48.501479
1653.000000	48.522272
1652.000000	48.540769
1651.000000	48.539982
1650.000000	48.550837
1649.000000	48.536011
1648.000000	48.525290
1647.000000	48.507651
1646.000000	48.508079
1645.000000	48.493706
1644.000000	48.494110
1643.000000	48.459069
1642.000000	48.447109
1641.000000	48.415881
1640.000000	48.392440
1639.000000	48.359957
1638.000000	48.329985
1637.000000	48.303599
1636.000000	48.264852
1635.000000	48.233152
1634.000000	48.203814
1633.000000	48.168964
1632.000000	48.126293
1631.000000	48.072659
1630.000000	48.033121
1629.000000	47.996174
1628.000000	47.963541
1627.000000	47.918843
1626.000000	47.874385
1625.000000	47.826444
1624.000000	47.779275
1623.000000	47.749733
1622.000000	47.708025
1621.000000	47.653817
1620.000000	47.594382
1619.000000	47.547839
1618.000000	47.513599
1617.000000	47.457015
1616.000000	47.386653
1615.000000	47.342183
1614.000000	47.313425
1613.000000	47.269918
1612.000000	47.210131
1611.000000	47.155957
1610.000000	47.102238
1609.000000	47.043641
1608.000000	46.993249
1607.000000	46.944521
1606.000000	46.881742
1605.000000	46.807449
1604.000000	46.746327
1603.000000	46.702055
1602.000000	46.644037
1601.000000	46.592426
1600.000000	46.536934
1599.000000	46.482002
1598.000000	46.433332
1597.000000	46.380855
1596.000000	46.332786
1595.000000	46.282452
1594.000000	46.237573
1593.000000	46.206973
1592.000000	46.151334
1591.000000	46.092008
1590.000000	46.054148
1589.000000	46.001327
1588.000000	45.950187
1587.000000	45.913212
1586.000000	45.871465
1585.000000	45.826648
1584.000000	45.791322
1583.000000	45.748270
1582.000000	45.703023
1581.000000	45.657776
1580.000000	45.624765
1579.000000	45.591986
1578.000000	45.557252
1577.000000	45.507309
1576.000000	45.452564
1575.000000	45.404020
1574.000000	45.369611
1573.000000	45.329498
1572.000000	45.292962
1571.000000	45.248752
1570.000000	45.203556
1569.000000	45.162409
1568.000000	45.137828
1567.000000	45.114940
1566.000000	45.078149
1565.000000	45.034484
1564.000000	44.997790
1563.000000	44.990916
1562.000000	44.966993
1561.000000	44.934958
1560.000000	44.923220
1559.000000	44.890121
1558.000000	44.857670
1557.000000	44.832415
1556.000000	44.814487
1555.000000	44.795543
1554.000000	44.773600
1553.000000	44.738661
1552.000000	44.705853
1551.000000	44.671595
1550.000000	44.634461
1549.000000	44.600664
1548.000000	44.562241
1547.000000	44.520260
1546.000000	44.461623
1545.000000	44.397968
1544.000000	44.338761
1543.000000	44.273412
1542.000000	44.209882
1541.000000	44.129231
1540.000000	44.068393
1539.000000	43.992470
1538.000000	43.925175
1537.000000	43.857581
1536.000000	43.773340
1535.000000	43.692830
1534.000000	43.615739
1533.000000	43.559157
1532.000000	43.487163
1531.000000	43.424182
1530.000000	43.354656
1529.000000	43.280360
1528.000000	43.215682
1527.000000	43.171803
1526.000000	43.108675
1525.000000	43.041161
1524.000000	43.003654
1523.000000	42.967705
1522.000000	42.913952
1521.000000	42.870887
1520.000000	42.836533
1519.000000	42.805936
1518.000000	42.776670
1517.000000	42.712583
1516.000000	42.695931
1515.000000	42.669909
1514.000000	42.652964
1513.000000	42.621877
1512.000000	42.622650
1511.000000	42.640681
1510.000000	42.659235
1509.000000	42.667846
1508.000000	42.627632
1507.000000	42.601317
1506.000000	42.559705
1505.000000	42.537580
1504.000000	42.511305
1503.000000	42.506508
1502.000000	42.490526
1501.000000	42.495376
1500.000000	42.474061
1499.000000	42.482057
1498.000000	42.478576
1497.000000	42.468388
1496.000000	42.476732
1495.000000	42.490807
1494.000000	42.505060
1493.000000	42.512562
1492.000000	42.539031
1491.000000	42.556960
1490.000000	42.583419
1489.000000	42.608048
1488.000000	42.614392
1487.000000	42.659988
1486.000000	42.686598
1485.000000	42.709478
1484.000000	42.757714
1483.000000	42.790615
1482.000000	42.824069
1481.000000	42.866683
1480.000000	42.897928
1479.000000	42.933951
1478.000000	42.974967
1477.000000	42.997107
1476.000000	43.039029
1475.000000	43.070767
1474.000000	43.113224
1473.000000	43.150593
1472.000000	43.185750
1471.000000	43.224929
1470.000000	43.249198
1469.000000	43.262148
1468.000000	43.319832
1467.000000	43.352150
1466.000000	43.410453
1465.000000	43.460649
1464.000000	43.487493
1463.000000	43.510429
1462.000000	43.571794
1461.000000	43.616972
1460.000000	43.657020
1459.000000	43.682310
1458.000000	43.758046
1457.000000	43.775309
1456.000000	43.846735
1455.000000	43.874171
1454.000000	43.917536
1453.000000	43.979511
1452.000000	44.061166
1451.000000	44.133978
1450.000000	44.178078
1449.000000	44.220664
1448.000000	44.296576
1447.000000	44.365554
1446.000000	44.432827
1445.000000	44.521061
1444.000000	44.591557
1443.000000	44.646448
1442.000000	44.720465
1441.000000	44.799822
1440.000000	44.875869
1439.000000	44.975055
1438.000000	45.072317
1437.000000	45.171041
1436.000000	45.252794
1435.000000	45.360556
1434.000000	45.468212
1433.000000	45.567465
1432.000000	45.693310
1431.000000	45.796612
1430.000000	45.908055
1429.000000	46.025693
1428.000000	46.150909
1427.000000	46.282243
1426.000000	46.400146
1425.000000	46.544208
1424.000000	46.710217
1423.000000	46.844816
1422.000000	46.993254
1421.000000	47.136144
1420.000000	47.302943
1419.000000	47.458339
1418.000000	47.630177
1417.000000	47.807264
1416.000000	47.969635
1415.000000	48.158405
1414.000000	48.344072
1413.000000	48.519704
1412.000000	48.691544
1411.000000	48.903647
1410.000000	49.087468
1409.000000	49.266646
1408.000000	49.448926
1407.000000	49.625459
1406.000000	49.802543
1405.000000	49.974185
1404.000000	50.143571
1403.000000	50.328626
1402.000000	50.511281
1401.000000	50.704843
1400.000000	50.858333
1399.000000	51.015334
1398.000000	51.178884
1397.000000	51.340836
1396.000000	51.487711
1395.000000	51.647432
1394.000000	51.801857
1393.000000	51.938595
1392.000000	52.077697
1391.000000	52.219901
1390.000000	52.352069
1389.000000	52.472354
1388.000000	52.588948
1387.000000	52.705071
1386.000000	52.834037
1385.000000	52.953811
1384.000000	53.054134
1383.000000	53.139447
1382.000000	53.239439
1381.000000	53.334894
1380.000000	53.407644
1379.000000	53.472435
1378.000000	53.540467
1377.000000	53.618264
1376.000000	53.684760
1375.000000	53.741394
1374.000000	53.806336
1373.000000	53.874992
1372.000000	53.921925
1371.000000	53.965989
1370.000000	54.015461
1369.000000	54.057656
1368.000000	54.101643
1367.000000	54.148580
1366.000000	54.192229
1365.000000	54.247628
1364.000000	54.309446
1363.000000	54.376383
1362.000000	54.417650
1361.000000	54.462689
1360.000000	54.502477
1359.000000	54.542207
1358.000000	54.596343
1357.000000	54.671527
1356.000000	54.741374
1355.000000	54.813487
1354.000000	54.845452
1353.000000	54.877131
1352.000000	54.953881
1351.000000	55.035497
1350.000000	55.068562
1349.000000	55.104187
1348.000000	55.158715
1347.000000	55.226027
1346.000000	55.300247
1345.000000	55.355945
1344.000000	55.403410
1343.000000	55.440807
1342.000000	55.485025
1341.000000	55.547577
1340.000000	55.588793
1339.000000	55.630801
1338.000000	55.690024
1337.000000	55.733728
1336.000000	55.785996
1335.000000	55.837701
1334.000000	55.869004
1333.000000	55.902079
1332.000000	55.920278
1331.000000	55.947277
1330.000000	55.979998
1329.000000	56.026881
1328.000000	56.048058
1327.000000	56.072071
1326.000000	56.080849
1325.000000	56.122531
1324.000000	56.135432
1323.000000	56.185575
1322.000000	56.195781
1321.000000	56.215076
1320.000000	56.212087
1319.000000	56.235881
1318.000000	56.245488
1317.000000	56.269535
1316.000000	56.311067
1315.000000	56.311489
1314.000000	56.314028
1313.000000	56.330402
1312.000000	56.342936
1311.000000	56.356980
1310.000000	56.399668
1309.000000	56.401346
1308.000000	56.389885
1307.000000	56.426433
1306.000000	56.440773
1305.000000	56.433774
1304.000000	56.452806
1303.000000	56.477741
1302.000000	56.505395
1301.000000	56.501258
1300.000000	56.504816
1299.000000	56.493941
1298.000000	56.506805
1297.000000	56.504509
1296.000000	56.515889
1295.000000	56.530030
1294.000000	56.515546
1293.000000	56.516399
1292.000000	56.533961
1291.000000	56.519545
1290.000000	56.519505
1289.000000	56.534297
1288.000000	56.529053
1287.000000	56.482737
1286.000000	56.470519
1285.000000	56.491473
1284.000000	56.483156
1283.000000	56.498716
1282.000000	56.496005
1281.000000	56.494014
1280.000000	56.484280
1279.000000	56.498385
1278.000000	56.496574
1277.000000	56.504418
1276.000000	56.504251
1275.000000	56.509734
1274.000000	56.515122
1273.000000	56.501742
1272.000000	56.494236
1271.000000	56.521388
1270.000000	56.507266
1269.000000	56.499772
1268.000000	56.528491
1267.000000	56.514105
1266.000000	56.530664
1265.000000	56.527690
1264.000000	56.545742
1263.000000	56.539492
1262.000000	56.574011
1261.000000	56.588344
1260.000000	56.570342
1259.000000	56.604645
1258.000000	56.597612
1257.000000	56.593228
1256.000000	56.625789
1255.000000	56.625912
1254.000000	56.625369
1253.000000	56.639286
1252.000000	56.629553
1251.000000	56.643885
1250.000000	56.634172
1249.000000	56.620155
1248.000000	56.635323
1247.000000	56.621060
1246.000000	56.620607
1245.000000	56.606060
1244.000000	56.607282
1243.000000	56.597455
1242.000000	56.585424
1241.000000	56.566498
1240.000000	56.549174
1239.000000	56.537318
1238.000000	56.517218
1237.000000	56.490731
1236.000000	56.466137
1235.000000	56.465810
1234.000000	56.437350
1233.000000	56.404130
1232.000000	56.399903
1231.000000	56.388010
1230.000000	56.377351
1229.000000	56.346224
1228.000000	56.331461
1227.000000	56.321815
1226.000000	56.290098
1225.000000	56.288716
1224.000000	56.262248
1223.000000	56.242075
1222.000000	56.229425
1221.000000	56.213503
1220.000000	56.186116
1219.000000	56.176142
1218.000000	56.151545
1217.000000	56.112886
1216.000000	56.085510
1215.000000	56.060643
1214.000000	56.027485
1213.000000	56.005663
1212.000000	55.982857
1211.000000	55.971060
1210.000000	55.940598
1209.000000	55.924459
1208.000000	55.902661
1207.000000	55.866860
1206.000000	55.823393
1205.000000	55.797666
1204.000000	55.751743
1203.000000	55.732515
1202.000000	55.698178
1201.000000	55.681403
1200.000000	55.637938
1199.000000	55.614442
1198.000000	55.599205
1197.000000	55.583938
1196.000000	55.556003
1195.000000	55.534504
1194.000000	55.509324
1193.000000	55.496047
1192.000000	55.477484
1191.000000	55.457688
1190.000000	55.439348
1189.000000	55.410270
1188.000000	55.415015
1187.000000	55.429496
1186.000000	55.420425
1185.000000	55.419941
1184.000000	55.436789
1183.000000	55.446862
1182.000000	55.482307
1181.000000	55.494057
1180.000000	55.516520
1179.000000	55.562200
1178.000000	55.596446
1177.000000	55.619462
1176.000000	55.658444
1175.000000	55.712079
1174.000000	55.757928
1173.000000	55.811696
1172.000000	55.859556
1171.000000	55.899355
1170.000000	55.964989
1169.000000	56.032365
1168.000000	56.095049
1167.000000	56.170919
1166.000000	56.230512
1165.000000	56.292078
1164.000000	56.369045
1163.000000	56.438487
1162.000000	56.497058
1161.000000	56.559852
1160.000000	56.632853
1159.000000	56.693172
1158.000000	56.760376
1157.000000	56.830428
1156.000000	56.887606
1155.000000	56.923180
1154.000000	56.958460
1153.000000	57.031310
1152.000000	57.094549
1151.000000	57.145797
1150.000000	57.199981
1149.000000	57.251459
1148.000000	57.286901
1147.000000	57.334362
1146.000000	57.391515
1145.000000	57.423195
1144.000000	57.464862
1143.000000	57.513711
1142.000000	57.553862
1141.000000	57.590784
1140.000000	57.615377
1139.000000	57.645204
1138.000000	57.682466
1137.000000	57.709609
1136.000000	57.749016
1135.000000	57.797165
1134.000000	57.833599
1133.000000	57.867741
1132.000000	57.893303
1131.000000	57.929180
1130.000000	57.967085
1129.000000	57.987086
1128.000000	58.019622
1127.000000	58.029509
1126.000000	58.045819
1125.000000	58.072154
1124.000000	58.070457
1123.000000	58.073377
1122.000000	58.094816
1121.000000	58.111470
1120.000000	58.132377
1119.000000	58.150992
1118.000000	58.147913
1117.000000	58.152402
1116.000000	58.159886
1115.000000	58.173090
1114.000000	58.178067
1113.000000	58.182251
1112.000000	58.188860
1111.000000	58.206639
1110.000000	58.203536
1109.000000	58.219336
1108.000000	58.213075
1107.000000	58.233583
1106.000000	58.230409
1105.000000	58.244395
1104.000000	58.245501
1103.000000	58.247388
1102.000000	58.248641
1101.000000	58.232668
1100.000000	58.233196
1099.000000	58.214911
1098.000000	58.235746
1097.000000	58.260696
1096.000000	58.258693
1095.000000	58.266190
1094.000000	58.268160
1093.000000	58.246487
1092.000000	58.244424
1091.000000	58.251643
1090.000000	58.259367
1089.000000	58.272842
1088.000000	58.277584
1087.000000	58.267503
1086.000000	58.246217
1085.000000	58.257486
1084.000000	58.274290
1083.000000	58.277322
1082.000000	58.255487
1081.000000	58.271121
1080.000000	58.258815
1079.000000	58.238726
1078.000000	58.235609
1077.000000	58.230229
1076.000000	58.252104
1075.000000	58.250917
1074.000000	58.256137
1073.000000	58.245685
1072.000000	58.228907
1071.000000	58.227622
1070.000000	58.218670
1069.000000	58.207730
1068.000000	58.221183
1067.000000	58.215957
1066.000000	58.216294
1065.000000	58.202169
1064.000000	58.193970
1063.000000	58.202681
1062.000000	58.200677
1061.000000	58.189793
1060.000000	58.183596
1059.000000	58.189090
1058.000000	58.172089
1057.000000	58.159087
1056.000000	58.160857
1055.000000	58.162482
1054.000000	58.162536
1053.000000	58.175308
1052.000000	58.131886
1051.000000	58.138231
1050.000000	58.136254
1049.000000	58.154524
1048.000000	58.106119
1047.000000	58.117912
1046.000000	58.107525
1045.000000	58.100031
1044.000000	58.112986
1043.000000	58.095573
1042.000000	58.085686
1041.000000	58.105611
1040.000000	58.115496
1039.000000	58.084622
1038.000000	58.092101
1037.000000	58.085419
1036.000000	58.078785
1035.000000	58.082522
1034.000000	58.092951
1033.000000	58.096149
1032.000000	58.094541
1031.000000	58.081573
1030.000000	58.094264
1029.000000	58.084429
1028.000000	58.095276
1027.000000	58.099185
1026.000000	58.091009
1025.000000	58.093212
1024.000000	58.092143
1023.000000	58.088538
1022.000000	58.100544
1021.000000	58.103494
1020.000000	58.103205
1019.000000	58.119211
1018.000000	58.122519
1017.000000	58.135239
1016.000000	58.138424
1015.000000	58.114171
1014.000000	58.114516
1013.000000	58.133368
1012.000000	58.150114
1011.000000	58.154850
1010.000000	58.150778
1009.000000	58.147871
1008.000000	58.150050
1007.000000	58.171167
1006.000000	58.179630
1005.000000	58.192645
1004.000000	58.169739
1003.000000	58.161264
1002.000000	58.203127
1001.000000	58.211835
1000.000000	58.207080
999.000000	58.216563
998.000000	58.221926
997.000000	58.236441
996.000000	58.242961
995.000000	58.244545
994.000000	58.267772
993.000000	58.287509
992.000000	58.276563
991.000000	58.282937
990.000000	58.281561
989.000000	58.287386
988.000000	58.308620
987.000000	58.321338
986.000000	58.322875
985.000000	58.321355
984.000000	58.328359
983.000000	58.326193
982.000000	58.345329
981.000000	58.333607
980.000000	58.338404
979.000000	58.360573
978.000000	58.379890
977.000000	58.390134
976.000000	58.389744
975.000000	58.395033
974.000000	58.400728
973.000000	58.402631
972.000000	58.413958
971.000000	58.410639
970.000000	58.400925
969.000000	58.412155
968.000000	58.436330
967.000000	58.437192
966.000000	58.442819
965.000000	58.453059
964.000000	58.461422
963.000000	58.480553
962.000000	58.495184
961.000000	58.484504
960.000000	58.489932
959.000000	58.503939
958.000000	58.495551
957.000000	58.486958
956.000000	58.517507
955.000000	58.535310
954.000000	58.546342
953.000000	58.537757
952.000000	58.530008
951.000000	58.527153
950.000000	58.531630
949.000000	58.552999
948.000000	58.574236
947.000000	58.588120
946.000000	58.591269
945.000000	58.593357
944.000000	58.585804
943.000000	58.580762
942.000000	58.593376
941.000000	58.601472
940.000000	58.597777
939.000000	58.598548
938.000000	58.598454
937.000000	58.576164
936.000000	58.580461
935.000000	58.594675
934.000000	58.594392
933.000000	58.603657
932.000000	58.615137
931.000000	58.606903
930.000000	58.605519
929.000000	58.608017
928.000000	58.615004
927.000000	58.607534
926.000000	58.611642
925.000000	58.601745
924.000000	58.615275
923.000000	58.614083
922.000000	58.592544
921.000000	58.608774
920.000000	58.622635
919.000000	58.610381
918.000000	58.631100
917.000000	58.645103
916.000000	58.629600
915.000000	58.636698
914.000000	58.631396
913.000000	58.625621
912.000000	58.618088
911.000000	58.622536
910.000000	58.635724
909.000000	58.635229
908.000000	58.616951
907.000000	58.627718
906.000000	58.622683
905.000000	58.632863
904.000000	58.616535
903.000000	58.623040
902.000000	58.647842
901.000000	58.674112
900.000000	58.658489
899.000000	58.650137
898.000000	58.685421
897.000000	58.697301
896.000000	58.668505
895.000000	58.670236
894.000000	58.725077
893.000000	58.729632
892.000000	58.716264
891.000000	58.723817
890.000000	58.737111
889.000000	58.757704
888.000000	58.791954
887.000000	58.767167
886.000000	58.769936
885.000000	58.800106
884.000000	58.841913
883.000000	58.774825
882.000000	58.788329
881.000000	58.779439
880.000000	58.775457
879.000000	58.781207
878.000000	58.771583
877.000000	58.729483
876.000000	58.783540
875.000000	58.822174
874.000000	58.849964
873.000000	58.839936
872.000000	58.805612
871.000000	58.807714
870.000000	58.759554
869.000000	58.754537
868.000000	58.817974
867.000000	58.828278
866.000000	58.785962
865.000000	58.776134
864.000000	58.819498
863.000000	58.779711
862.000000	58.829120
861.000000	58.843280
860.000000	58.729768
859.000000	58.178017
858.000000	58.422234
857.000000	58.006224
856.000000	58.427843
855.000000	58.339731
854.000000	58.353907
853.000000	58.233074
852.000000	58.262548
851.000000	58.599585
850.000000	58.265284
849.000000	58.505116
848.000000	58.254052
847.000000	58.425669
846.000000	58.258264
845.000000	58.458938
844.000000	58.228885
843.000000	58.386189
842.000000	58.439264
841.000000	58.436397
840.000000	58.214897
839.000000	58.307798
838.000000	58.221481
837.000000	58.445885
836.000000	58.473031
835.000000	58.365487
834.000000	58.354727
833.000000	58.333458
832.000000	58.551885
831.000000	58.426962
830.000000	58.348430
829.000000	58.541855
828.000000	58.289837
827.000000	58.203165
826.000000	58.377395
825.000000	58.418478
824.000000	58.236740
823.000000	58.187414
822.000000	58.441975
821.000000	58.351840
820.000000	58.344108
819.000000	58.291587
818.000000	58.280656
817.000000	58.199549
816.000000	58.350336
815.000000	58.237639
814.000000	58.338384
813.000000	58.297446
812.000000	58.271826
811.000000	58.253070
810.000000	58.345756
809.000000	58.304219
808.000000	58.354834
807.000000	58.348788
806.000000	58.231592
805.000000	58.235926
804.000000	58.231105
803.000000	58.298232
802.000000	58.279963
801.000000	58.395737
800.000000	58.318230
799.000000	58.264516
798.000000	58.335490
797.000000	58.163166
796.000000	58.289392
795.000000	58.208141
794.000000	58.289801
793.000000	58.369914
792.000000	58.282062
791.000000	58.242194
790.000000	58.376759
789.000000	58.235157
788.000000	58.296574
787.000000	58.332744
786.000000	58.334984
785.000000	58.340472
784.000000	58.318240
783.000000	58.346335
782.000000	58.325668
781.000000	58.199329
780.000000	58.223611
779.000000	58.281592
778.000000	58.194802
777.000000	58.281943
776.000000	58.227950
775.000000	58.205328
774.000000	58.255398
773.000000	58.321876
772.000000	58.210389
771.000000	58.292051
770.000000	58.330598
769.000000	58.303691
768.000000	58.234529
767.000000	58.318782
766.000000	58.253716
765.000000	58.273258
764.000000	58.242211
763.000000	58.278607
762.000000	58.183691
761.000000	58.174354
760.000000	58.208554
759.000000	58.208206
758.000000	58.216544
757.000000	58.170319
756.000000	58.114727
755.000000	58.173241
754.000000	58.140082
753.000000	58.135382
752.000000	58.134038
751.000000	58.160581
750.000000	58.098695
749.000000	58.003731
748.000000	58.132816
747.000000	58.149676
746.000000	58.090913
745.000000	58.122636
744.000000	58.132523
743.000000	58.155653
742.000000	58.129284
741.000000	58.110636
740.000000	58.060779
739.000000	58.082161
738.000000	58.026493
737.000000	58.078021
736.000000	58.077306
735.000000	58.081682
734.000000	58.019492
733.000000	58.024536
732.000000	58.056771
731.000000	58.038765
730.000000	58.046727
729.000000	58.040076
728.000000	57.990798
727.000000	57.954102
726.000000	57.947104
725.000000	57.958763
724.000000	57.955598
723.000000	58.010520
722.000000	57.986822
721.000000	57.972559
720.000000	57.910513
719.000000	57.889969
718.000000	57.937692
717.000000	57.923526
716.000000	57.906320
715.000000	57.906774
714.000000	57.937790
713.000000	57.936125
712.000000	57.941770
711.000000	57.947249
710.000000	57.944972
709.000000	57.935099
708.000000	57.889138
707.000000	57.818410
706.000000	57.780259
705.000000	57.823784
704.000000	57.838532
703.000000	57.859375
702.000000	57.896994
701.000000	57.867803
700.000000	57.853597
699.000000	57.853362
698.000000	57.853945
697.000000	57.824332
696.000000	57.844031
695.000000	57.869184
694.000000	57.801798
693.000000	57.776572
692.000000	57.798545
691.000000	57.801900
690.000000	57.779810
689.000000	57.765991
688.000000	57.756586
687.000000	57.724047
686.000000	57.699378
685.000000	57.684828
684.000000	57.698909
683.000000	57.692096
682.000000	57.686058
681.000000	57.728180
680.000000	57.662472
679.000000	57.670592
678.000000	57.728866
677.000000	57.708485
676.000000	57.657664
675.000000	57.664687
674.000000	57.662806
673.000000	57.665385
672.000000	57.629466
671.000000	57.571443
670.000000	57.585266
669.000000	57.621326
668.000000	57.638302
667.000000	57.656938
666.000000	57.632400
665.000000	57.630611
664.000000	57.588125
663.000000	57.600001
662.000000	57.587707
661.000000	57.609313
660.000000	57.586722
659.000000	57.494708
658.000000	57.534234
657.000000	57.531453
656.000000	57.558060
655.000000	57.566497
654.000000	57.590434
653.000000	57.563889
652.000000	57.499396
651.000000	57.493967
650.000000	57.478215
649.000000	57.462232
648.000000	57.475894
647.000000	57.446752
646.000000	57.445785
645.000000	57.453055
644.000000	57.387962
643.000000	57.417513
642.000000	57.434649
641.000000	57.393762
640.000000	57.411071
639.000000	57.387032
638.000000	57.352544
637.000000	57.430203
636.000000	57.410835
635.000000	57.391965
634.000000	57.383764
633.000000	57.338093
632.000000	57.317730
631.000000	57.333780
630.000000	57.282716
629.000000	57.314967
628.000000	57.305294
627.000000	57.274991
626.000000	57.279865
625.000000	57.262526
624.000000	57.267305
623.000000	57.205488
622.000000	57.151395
621.000000	57.252854
620.000000	57.197970
619.000000	57.204063
618.000000	57.193317
617.000000	57.253900
616.000000	57.162380
615.000000	57.153236
614.000000	57.119659
613.000000	57.093575
612.000000	57.109337
611.000000	57.134451
610.000000	57.099661
609.000000	57.116271
608.000000	57.018968
607.000000	57.021369
606.000000	57.011912
605.000000	56.998081
604.000000	56.974337
603.000000	56.987698
602.000000	56.983765
601.000000	56.934757
600.000000	56.961231
599.000000	56.979408
598.000000	56.951652
597.000000	56.966763
596.000000	56.890381
595.000000	56.883435
594.000000	56.934129
593.000000	56.854746
592.000000	56.833018
591.000000	56.808210
590.000000	56.834080
589.000000	56.764442
588.000000	56.796135
587.000000	56.792995
586.000000	56.734031
585.000000	56.708539
584.000000	56.733138
583.000000	56.730963
582.000000	56.739963
581.000000	56.674476
580.000000	56.616706
579.000000	56.737370
578.000000	56.627356
577.000000	56.601178
576.000000	56.561272
575.000000	56.584919
574.000000	56.575264
573.000000	56.544415
572.000000	56.536639
571.000000	56.519909
570.000000	56.502729
569.000000	56.487280
568.000000	56.483293
567.000000	56.448460
566.000000	56.434107
565.000000	56.433118
564.000000	56.373664
563.000000	56.373865
562.000000	56.395011
561.000000	56.372223
560.000000	56.278642
559.000000	56.278296
558.000000	56.267618
557.000000	56.258696
556.000000	56.236998
555.000000	56.225805
554.000000	56.176081
553.000000	56.184503
552.000000	56.159851
551.000000	56.128733
550.000000	56.149630
549.000000	56.114961
548.000000	56.063521
547.000000	56.076072
546.000000	56.031713
545.000000	56.043600
544.000000	56.017789
543.000000	55.979620
542.000000	55.941263
541.000000	55.917778
540.000000	55.911588
539.000000	55.871340
538.000000	55.880002
537.000000	55.835884
536.000000	55.792174
535.000000	55.770427
534.000000	55.768342
533.000000	55.741324
532.000000	55.690297
531.000000	55.659815
530.000000	55.619517
529.000000	55.607522
528.000000	55.596871
527.000000	55.538420
526.000000	55.540193
525.000000	55.528062
524.000000	55.450115
523.000000	55.460551
522.000000	55.426978
521.000000	55.378037
520.000000	55.327226
519.000000	55.350060
518.000000	55.280041
517.000000	55.245494
516.000000	55.221042
515.000000	55.169304
514.000000	55.158332
513.000000	55.127988
512.000000	55.081078
511.000000	55.070528
510.000000	55.022877
509.000000	55.023181
508.000000	54.996582
507.000000	54.931186
506.000000	54.884970
505.000000	54.887229
504.000000	54.818592
503.000000	54.808695
502.000000	54.802466
501.000000	54.757977
500.000000	54.688407
499.000000	54.611752
498.000000	54.564777
497.000000	54.534891
496.000000	54.454365
495.000000	54.417668
494.000000	54.379462
493.000000	54.321127
492.000000	54.251644
491.000000	54.240886
490.000000	54.197741
489.000000	54.168822
488.000000	54.116163
487.000000	54.064819
486.000000	53.972029
485.000000	53.884140
484.000000	53.880151
483.000000	53.861038
482.000000	53.781626
481.000000	53.729353
480.000000	53.666567
479.000000	53.622704
478.000000	53.578788
477.000000	53.553467
476.000000	53.482995
475.000000	53.419557
474.000000	53.333071
473.000000	53.276320
472.000000	53.226508
471.000000	53.154030
470.000000	53.146897
469.000000	53.090713
468.000000	53.021458
467.000000	52.967671
466.000000	52.918012
465.000000	52.850085
464.000000	52.770392
463.000000	52.729723
462.000000	52.670245
461.000000	52.589661
460.000000	52.512337
459.000000	52.423135
458.000000	52.365843
457.000000	52.305221
456.000000	52.204594
455.000000	52.118812
454.000000	52.065795
453.000000	51.986775
452.000000	51.881484
451.000000	51.802995
450.000000	51.707090
449.000000	51.632187
448.000000	51.528023
447.000000	51.423277
446.000000	51.410116
445.000000	51.302989
444.000000	51.197214
443.000000	51.145729
442.000000	51.053584
441.000000	50.969920
440.000000	50.868314
439.000000	50.760438
438.000000	50.718441
437.000000	50.616496
436.000000	50.518484
435.000000	50.448447
434.000000	50.332457
433.000000	50.227918
432.000000	50.099201
431.000000	50.030895
430.000000	49.926900
429.000000	49.812346
428.000000	49.746198
427.000000	49.679523
426.000000	49.582753
425.000000	49.490612
424.000000	49.387343
423.000000	49.307326
422.000000	49.141806
421.000000	49.072199
420.000000	49.010741
419.000000	48.894849
418.000000	48.798907
417.000000	48.765463
416.000000	48.676066
415.000000	48.551740
414.000000	48.399258
413.000000	48.318519
412.000000	48.274668
411.000000	48.234199
410.000000	48.132060
409.000000	48.048359
408.000000	47.953286
407.000000	47.943506
406.000000	47.904823
405.000000	47.804139
404.000000	47.692702
403.000000	47.645909
402.000000	47.622519
401.000000	47.468842
400.000000	47.403823
399.000000	47.280534
398.000000	47.221537
397.000000	47.163643
396.000000	47.051862
395.000000	47.028086
394.000000	46.891156
393.000000	46.792540
392.000000	46.772247
391.000000	46.697645
390.000000	46.627684
389.000000	46.428541
388.000000	46.356052
387.000000	46.217958
386.000000	46.158308
385.000000	46.031530
384.000000	45.961082
383.000000	45.799546
382.000000	45.659981
381.000000	45.537882
380.000000	45.441868
379.000000	45.301180
378.000000	45.111261
377.000000	44.991259
376.000000	44.813013
375.000000	44.779985
374.000000	44.580550
373.000000	44.398964
372.000000	44.274679
371.000000	44.098853
370.000000	43.920610
369.000000	43.760102
368.000000	43.605264
367.000000	43.507711
366.000000	43.466801
365.000000	43.439060
364.000000	43.287561
363.000000	43.263742
362.000000	43.019726
361.000000	43.065259
360.000000	42.773324
359.000000	42.811595
358.000000	42.674813
357.000000	42.608447
356.000000	42.370444
355.000000	42.425083
354.000000	42.298779
353.000000	42.192465
352.000000	41.992740
351.000000	41.881443
350.000000	41.739008
349.000000	41.688337
348.000000	41.716266
347.000000	41.537682
346.000000	41.447099
345.000000	41.409517
344.000000	41.252788
343.000000	41.051693
342.000000	40.977873
341.000000	40.988179
340.000000	40.721987
339.000000	40.702966
338.000000	40.544909
337.000000	40.284484
336.000000	40.356478
335.000000	40.087940
334.000000	39.959662
333.000000	39.935491
332.000000	39.932292
331.000000	39.792121
330.000000	39.518032
329.000000	39.227471
328.000000	39.435442
327.000000	39.423502
326.000000	39.234116
325.000000	39.304467
324.000000	39.027816
323.000000	39.003149
322.000000	38.826788
321.000000	38.861208
320.000000	38.864918
319.000000	38.524909
318.000000	38.537022
317.000000	38.525484
316.000000	38.424839
315.000000	38.358480
314.000000	38.175620
313.000000	38.216459
312.000000	38.226569
311.000000	38.087791
310.000000	38.155457
309.000000	37.920957
308.000000	37.869042
307.000000	37.868235
306.000000	37.657281
305.000000	37.633267
304.000000	37.522871
303.000000	37.420511
302.000000	37.314085
301.000000	37.381334
300.000000	36.968822
299.000000	36.687511
298.000000	36.527731
297.000000	36.174226
296.000000	35.860486
295.000000	35.509116
294.000000	34.968753
293.000000	34.052373
292.000000	33.327419
291.000000	32.355641
290.000000	31.507584
289.000000	30.584183
288.000000	29.699958
287.000000	29.077030
286.000000	28.719906
285.000000	28.319405
284.000000	28.177269
283.000000	28.127393
282.000000	28.191519
281.000000	28.195128
280.000000	28.195510
279.000000	28.194937
278.000000	28.401210
277.000000	28.576487
276.000000	28.873818
275.000000	29.101924
274.000000	29.501991
273.000000	29.788548
272.000000	30.054040
271.000000	30.179993
270.000000	30.265413
269.000000	30.461860
268.000000	30.775491
267.000000	31.071311
266.000000	31.379731
265.000000	31.619196
264.000000	31.927408
263.000000	32.295413
262.000000	32.536799
261.000000	32.713444
260.000000	32.968229
259.000000	33.223258
258.000000	33.567757
257.000000	34.028021
256.000000	34.320248
255.000000	34.383891
254.000000	34.373499
253.000000	34.404990
252.000000	34.296942
251.000000	34.017597
250.000000	33.610303
249.000000	33.049919
248.000000	32.351192
247.000000	31.325910
246.000000	30.067893
245.000000	28.778793
244.000000	27.261722
243.000000	25.728132
242.000000	24.229948
241.000000	22.716865
240.000000	21.286338
239.000000	20.054615
238.000000	18.964747
237.000000	17.958221
236.000000	17.116519
235.000000	16.397070
234.000000	15.791233
233.000000	15.202167
232.000000	14.676225
231.000000	14.191845
230.000000	13.670775
229.000000	13.196981
228.000000	12.802048
227.000000	12.419896
226.000000	12.139611
225.000000	11.867057
224.000000	11.612923
223.000000	11.419753
222.000000	11.296011
221.000000	11.193048
220.000000	11.204282
219.000000	11.280283
218.000000	11.332324
217.000000	11.379266
216.000000	11.373593
215.000000	11.456031
214.000000	11.646081
213.000000	11.737560
212.000000	11.875943
211.000000	12.135689
210.000000	12.363708
209.000000	12.543717
208.000000	12.781427
207.000000	13.122375
206.000000	13.421381
205.000000	13.657891
204.000000	13.936959
203.000000	14.529150
202.000000	15.142972
201.000000	15.242702
200.000000	15.813916
