PE UV       SUBTECH     SPECTRUM    ASCII       PEDS        4.00        
   -1
RTgVeauAl 22.Sample.asc
18/03/09
17:14:16.00
18/03/09
17:14:16.00
Administrator

200.000000
1
Lambda 750
750N8071901
PerkinElmer UV WinLab 6.0.4.0738 / 1.61.00 Lambda 900

0
0
3350/servo 860.8/2
0
0
UV/VIS
1
1
1
CommonBeamDepol,150mm sphere / downward view
0
0
0
0
Program
Program
3350/servo 860.8/2
3350/0.2 860.8/0.2
3350/0.2 860.8/0.2
0
1
 
 
 
0
 
860.8
319.2
860.8
Front
100
on
 
 
0
0
0
 
0
 
 
 
0
 
 
0
0
0
0
0
 
 
 
 
0
0


0
0
#HDR
-1
-1
#GR
nm
%R
1.0
0.0
2350.000000
-1.000000
2151
8
67.547021
9.541997
#DATA
2350.000000	19.525735
2349.000000	19.312642
2348.000000	19.287218
2347.000000	20.189184
2346.000000	19.393617
2345.000000	19.480314
2344.000000	19.539786
2343.000000	19.494984
2342.000000	19.561516
2341.000000	19.886813
2340.000000	19.711964
2339.000000	20.091640
2338.000000	20.256358
2337.000000	20.139128
2336.000000	20.156841
2335.000000	20.408535
2334.000000	20.353799
2333.000000	20.290869
2332.000000	20.369623
2331.000000	20.361269
2330.000000	20.248926
2329.000000	20.398343
2328.000000	20.558337
2327.000000	20.423984
2326.000000	20.254157
2325.000000	20.106117
2324.000000	19.902687
2323.000000	20.066806
2322.000000	19.948968
2321.000000	19.941627
2320.000000	20.088537
2319.000000	19.931388
2318.000000	19.927917
2317.000000	19.837202
2316.000000	20.010043
2315.000000	19.795968
2314.000000	19.907599
2313.000000	19.666638
2312.000000	19.458207
2311.000000	19.597841
2310.000000	19.271748
2309.000000	19.627678
2308.000000	19.361038
2307.000000	19.291922
2306.000000	19.064685
2305.000000	19.124526
2304.000000	18.984500
2303.000000	19.059025
2302.000000	18.991668
2301.000000	18.979927
2300.000000	18.935997
2299.000000	18.577664
2298.000000	18.523984
2297.000000	18.660317
2296.000000	18.503539
2295.000000	18.472516
2294.000000	18.378591
2293.000000	18.439222
2292.000000	18.227488
2291.000000	18.270508
2290.000000	18.520114
2289.000000	18.187766
2288.000000	18.042960
2287.000000	18.004442
2286.000000	17.965433
2285.000000	18.016262
2284.000000	18.041050
2283.000000	17.873169
2282.000000	17.986845
2281.000000	17.895577
2280.000000	17.801032
2279.000000	17.956615
2278.000000	17.966528
2277.000000	18.000533
2276.000000	17.976129
2275.000000	18.023948
2274.000000	18.241490
2273.000000	18.218274
2272.000000	18.270543
2271.000000	18.322449
2270.000000	18.307086
2269.000000	18.279549
2268.000000	18.284463
2267.000000	18.317519
2266.000000	18.473439
2265.000000	18.516388
2264.000000	18.617111
2263.000000	18.839616
2262.000000	19.014032
2261.000000	19.162947
2260.000000	19.181805
2259.000000	19.227375
2258.000000	19.403608
2257.000000	19.573970
2256.000000	19.671589
2255.000000	19.972875
2254.000000	20.253481
2253.000000	20.064919
2252.000000	20.192189
2251.000000	20.577475
2250.000000	20.829985
2249.000000	21.098979
2248.000000	21.227256
2247.000000	21.369816
2246.000000	21.535777
2245.000000	21.649700
2244.000000	21.790883
2243.000000	22.035952
2242.000000	22.283095
2241.000000	22.368581
2240.000000	22.505825
2239.000000	22.551748
2238.000000	22.583903
2237.000000	22.741189
2236.000000	22.883658
2235.000000	23.021199
2234.000000	23.085460
2233.000000	23.158814
2232.000000	23.187423
2231.000000	23.205783
2230.000000	23.237784
2229.000000	23.302239
2228.000000	23.428894
2227.000000	23.401751
2226.000000	23.367654
2225.000000	23.510458
2224.000000	23.484024
2223.000000	23.382235
2222.000000	23.426876
2221.000000	23.398103
2220.000000	23.416625
2219.000000	23.345925
2218.000000	23.200884
2217.000000	23.118514
2216.000000	23.140515
2215.000000	23.229628
2214.000000	23.146953
2213.000000	23.068913
2212.000000	23.050090
2211.000000	22.915854
2210.000000	22.776024
2209.000000	22.739862
2208.000000	22.639614
2207.000000	22.567724
2206.000000	22.505966
2205.000000	22.578003
2204.000000	22.490599
2203.000000	22.402325
2202.000000	22.312938
2201.000000	22.195203
2200.000000	22.250873
2199.000000	22.241176
2198.000000	22.136396
2197.000000	21.981295
2196.000000	21.940157
2195.000000	21.880218
2194.000000	21.652495
2193.000000	21.650415
2192.000000	21.600097
2191.000000	21.563921
2190.000000	21.505174
2189.000000	21.470224
2188.000000	21.367191
2187.000000	21.331330
2186.000000	21.280331
2185.000000	21.276544
2184.000000	21.276302
2183.000000	21.207652
2182.000000	21.173886
2181.000000	21.225886
2180.000000	21.155543
2179.000000	21.170737
2178.000000	21.034416
2177.000000	21.028591
2176.000000	21.092546
2175.000000	21.021500
2174.000000	21.058490
2173.000000	21.099543
2172.000000	21.099837
2171.000000	21.253707
2170.000000	21.291168
2169.000000	21.383014
2168.000000	21.512755
2167.000000	21.525925
2166.000000	21.579444
2165.000000	21.481873
2164.000000	21.514665
2163.000000	21.769396
2162.000000	21.890716
2161.000000	21.909381
2160.000000	22.192615
2159.000000	22.247163
2158.000000	22.350482
2157.000000	22.457228
2156.000000	22.510414
2155.000000	22.693465
2154.000000	22.877002
2153.000000	23.152561
2152.000000	23.409313
2151.000000	23.319815
2150.000000	23.478850
2149.000000	23.410373
2148.000000	23.528295
2147.000000	23.713022
2146.000000	24.041842
2145.000000	24.015780
2144.000000	24.051382
2143.000000	24.162455
2142.000000	24.498419
2141.000000	24.576183
2140.000000	24.625734
2139.000000	24.783598
2138.000000	24.927959
2137.000000	25.053675
2136.000000	25.214295
2135.000000	25.175036
2134.000000	25.382074
2133.000000	25.207143
2132.000000	25.376229
2131.000000	25.579361
2130.000000	25.882627
2129.000000	25.761334
2128.000000	25.948532
2127.000000	26.008946
2126.000000	25.806027
2125.000000	25.900215
2124.000000	26.022396
2123.000000	26.053197
2122.000000	26.116511
2121.000000	26.138545
2120.000000	26.071141
2119.000000	26.240866
2118.000000	26.460767
2117.000000	26.296218
2116.000000	26.327426
2115.000000	26.497165
2114.000000	26.411419
2113.000000	26.533666
2112.000000	26.610341
2111.000000	26.622598
2110.000000	26.580579
2109.000000	26.617102
2108.000000	26.653044
2107.000000	26.751180
2106.000000	26.662168
2105.000000	26.603367
2104.000000	26.742681
2103.000000	26.825320
2102.000000	26.634469
2101.000000	26.769340
2100.000000	26.764686
2099.000000	26.648646
2098.000000	26.793160
2097.000000	26.823021
2096.000000	26.752038
2095.000000	26.738446
2094.000000	26.668698
2093.000000	26.650363
2092.000000	26.687444
2091.000000	26.715637
2090.000000	26.650085
2089.000000	26.671773
2088.000000	26.662763
2087.000000	26.636131
2086.000000	26.640631
2085.000000	26.705668
2084.000000	26.623977
2083.000000	26.538943
2082.000000	26.494531
2081.000000	26.383071
2080.000000	26.357401
2079.000000	26.239968
2078.000000	26.161337
2077.000000	26.132930
2076.000000	26.059082
2075.000000	25.925251
2074.000000	25.830812
2073.000000	25.694873
2072.000000	25.526223
2071.000000	25.411436
2070.000000	25.234708
2069.000000	25.100713
2068.000000	25.003251
2067.000000	24.861027
2066.000000	24.720583
2065.000000	24.528150
2064.000000	24.433421
2063.000000	24.261435
2062.000000	24.092741
2061.000000	23.953372
2060.000000	23.835193
2059.000000	23.683598
2058.000000	23.574397
2057.000000	23.375151
2056.000000	23.234272
2055.000000	23.128802
2054.000000	23.000714
2053.000000	22.859697
2052.000000	22.726168
2051.000000	22.598846
2050.000000	22.473400
2049.000000	22.437271
2048.000000	22.290429
2047.000000	22.194878
2046.000000	22.151285
2045.000000	22.104980
2044.000000	22.065310
2043.000000	22.085402
2042.000000	22.083666
2041.000000	22.104460
2040.000000	22.151804
2039.000000	22.112674
2038.000000	22.145378
2037.000000	22.234746
2036.000000	22.325814
2035.000000	22.428544
2034.000000	22.485244
2033.000000	22.582817
2032.000000	22.709506
2031.000000	22.816862
2030.000000	22.889344
2029.000000	23.028838
2028.000000	23.186230
2027.000000	23.298994
2026.000000	23.452406
2025.000000	23.558204
2024.000000	23.589654
2023.000000	23.657485
2022.000000	23.749063
2021.000000	23.822608
2020.000000	23.897707
2019.000000	23.931467
2018.000000	23.983799
2017.000000	24.018117
2016.000000	24.046521
2015.000000	24.098718
2014.000000	24.085621
2013.000000	24.052969
2012.000000	24.024749
2011.000000	23.976429
2010.000000	23.961481
2009.000000	23.901950
2008.000000	23.802275
2007.000000	23.732479
2006.000000	23.673194
2005.000000	23.598787
2004.000000	23.538611
2003.000000	23.456356
2002.000000	23.388462
2001.000000	23.305364
2000.000000	23.205180
1999.000000	23.132021
1998.000000	23.038653
1997.000000	22.954169
1996.000000	22.848618
1995.000000	22.711768
1994.000000	22.604261
1993.000000	22.526177
1992.000000	22.431944
1991.000000	22.291413
1990.000000	22.209172
1989.000000	22.147485
1988.000000	22.011215
1987.000000	21.900027
1986.000000	21.848107
1985.000000	21.760200
1984.000000	21.650651
1983.000000	21.522931
1982.000000	21.407484
1981.000000	21.320468
1980.000000	21.213216
1979.000000	21.103386
1978.000000	21.025109
1977.000000	20.902179
1976.000000	20.823792
1975.000000	20.756865
1974.000000	20.659528
1973.000000	20.563919
1972.000000	20.498375
1971.000000	20.409935
1970.000000	20.327968
1969.000000	20.232902
1968.000000	20.190036
1967.000000	20.084529
1966.000000	19.981201
1965.000000	19.871420
1964.000000	19.793899
1963.000000	19.704379
1962.000000	19.618947
1961.000000	19.520855
1960.000000	19.474657
1959.000000	19.367650
1958.000000	19.325266
1957.000000	19.261864
1956.000000	19.212415
1955.000000	19.133871
1954.000000	19.096784
1953.000000	18.972453
1952.000000	18.968843
1951.000000	18.885334
1950.000000	18.857796
1949.000000	18.869265
1948.000000	18.807494
1947.000000	18.792426
1946.000000	18.767358
1945.000000	18.748598
1944.000000	18.784030
1943.000000	18.768963
1942.000000	18.764498
1941.000000	18.748984
1940.000000	18.803840
1939.000000	18.908530
1938.000000	18.889865
1937.000000	18.954903
1936.000000	19.030292
1935.000000	19.102102
1934.000000	19.129518
1933.000000	19.296941
1932.000000	19.456553
1931.000000	19.569990
1930.000000	19.708171
1929.000000	19.786760
1928.000000	19.973062
1927.000000	20.134558
1926.000000	20.459949
1925.000000	20.617385
1924.000000	20.832997
1923.000000	21.075475
1922.000000	21.177296
1921.000000	21.562819
1920.000000	21.782781
1919.000000	22.011816
1918.000000	22.330057
1917.000000	22.682585
1916.000000	22.849420
1915.000000	23.235600
1914.000000	23.669158
1913.000000	24.060209
1912.000000	24.342211
1911.000000	24.757430
1910.000000	25.223214
1909.000000	25.551954
1908.000000	26.034610
1907.000000	26.530763
1906.000000	26.979215
1905.000000	27.412961
1904.000000	28.037765
1903.000000	28.538197
1902.000000	29.151948
1901.000000	29.677884
1900.000000	30.238613
1899.000000	30.837326
1898.000000	31.524632
1897.000000	32.077850
1896.000000	32.659844
1895.000000	33.255510
1894.000000	33.822538
1893.000000	34.391678
1892.000000	35.022725
1891.000000	35.653256
1890.000000	36.148696
1889.000000	36.729129
1888.000000	37.256835
1887.000000	37.816575
1886.000000	38.355665
1885.000000	38.879054
1884.000000	39.450714
1883.000000	39.946069
1882.000000	40.388017
1881.000000	40.873996
1880.000000	41.296434
1879.000000	41.687621
1878.000000	42.146110
1877.000000	42.518563
1876.000000	42.945813
1875.000000	43.299702
1874.000000	43.639884
1873.000000	43.941012
1872.000000	44.290519
1871.000000	44.635043
1870.000000	44.862536
1869.000000	45.092194
1868.000000	45.316093
1867.000000	45.501274
1866.000000	45.694017
1865.000000	45.822097
1864.000000	45.983005
1863.000000	46.144675
1862.000000	46.243280
1861.000000	46.349968
1860.000000	46.444029
1859.000000	46.533141
1858.000000	46.603149
1857.000000	46.683833
1856.000000	46.738270
1855.000000	46.827260
1854.000000	46.898493
1853.000000	46.947044
1852.000000	46.929497
1851.000000	46.939372
1850.000000	46.967750
1849.000000	46.998373
1848.000000	47.035639
1847.000000	47.013341
1846.000000	46.996365
1845.000000	46.972745
1844.000000	46.951609
1843.000000	46.928207
1842.000000	46.897468
1841.000000	46.864113
1840.000000	46.808626
1839.000000	46.799148
1838.000000	46.778554
1837.000000	46.690593
1836.000000	46.614372
1835.000000	46.551088
1834.000000	46.479118
1833.000000	46.418778
1832.000000	46.393506
1831.000000	46.334289
1830.000000	46.293531
1829.000000	46.236306
1828.000000	46.167180
1827.000000	46.115945
1826.000000	46.076320
1825.000000	46.020033
1824.000000	45.964559
1823.000000	45.913107
1822.000000	45.850895
1821.000000	45.800226
1820.000000	45.749517
1819.000000	45.702437
1818.000000	45.676477
1817.000000	45.616496
1816.000000	45.537755
1815.000000	45.500965
1814.000000	45.458507
1813.000000	45.423461
1812.000000	45.376392
1811.000000	45.293403
1810.000000	45.247330
1809.000000	45.215174
1808.000000	45.156642
1807.000000	45.098358
1806.000000	45.061899
1805.000000	45.000005
1804.000000	44.939574
1803.000000	44.908277
1802.000000	44.872050
1801.000000	44.814937
1800.000000	44.758543
1799.000000	44.725828
1798.000000	44.693627
1797.000000	44.648179
1796.000000	44.619638
1795.000000	44.577174
1794.000000	44.558424
1793.000000	44.520544
1792.000000	44.458420
1791.000000	44.450719
1790.000000	44.426092
1789.000000	44.369905
1788.000000	44.345712
1787.000000	44.296030
1786.000000	44.256827
1785.000000	44.233488
1784.000000	44.185098
1783.000000	44.134322
1782.000000	44.094974
1781.000000	44.026323
1780.000000	43.963809
1779.000000	43.936940
1778.000000	43.872812
1777.000000	43.792914
1776.000000	43.723924
1775.000000	43.650613
1774.000000	43.553496
1773.000000	43.484686
1772.000000	43.420556
1771.000000	43.343538
1770.000000	43.295716
1769.000000	43.202919
1768.000000	43.091151
1767.000000	43.027028
1766.000000	42.964397
1765.000000	42.902466
1764.000000	42.824937
1763.000000	42.725003
1762.000000	42.653948
1761.000000	42.586995
1760.000000	42.509087
1759.000000	42.442122
1758.000000	42.390240
1757.000000	42.301751
1756.000000	42.234907
1755.000000	42.173453
1754.000000	42.104086
1753.000000	41.998939
1752.000000	41.941171
1751.000000	41.887089
1750.000000	41.813387
1749.000000	41.745746
1748.000000	41.634963
1747.000000	41.567722
1746.000000	41.485267
1745.000000	41.380078
1744.000000	41.285233
1743.000000	41.223511
1742.000000	41.126976
1741.000000	41.064314
1740.000000	40.988653
1739.000000	40.933423
1738.000000	40.839284
1737.000000	40.782665
1736.000000	40.726641
1735.000000	40.711682
1734.000000	40.677776
1733.000000	40.645050
1732.000000	40.636967
1731.000000	40.654329
1730.000000	40.658232
1729.000000	40.704962
1728.000000	40.771776
1727.000000	40.805070
1726.000000	40.885988
1725.000000	40.988744
1724.000000	41.084601
1723.000000	41.159357
1722.000000	41.322738
1721.000000	41.444337
1720.000000	41.590508
1719.000000	41.727350
1718.000000	41.863418
1717.000000	41.997713
1716.000000	42.134157
1715.000000	42.257427
1714.000000	42.377540
1713.000000	42.532442
1712.000000	42.646233
1711.000000	42.763220
1710.000000	42.841055
1709.000000	42.932359
1708.000000	43.047855
1707.000000	43.100554
1706.000000	43.175851
1705.000000	43.212775
1704.000000	43.297262
1703.000000	43.323118
1702.000000	43.344009
1701.000000	43.376788
1700.000000	43.427340
1699.000000	43.405417
1698.000000	43.489301
1697.000000	43.526986
1696.000000	43.563532
1695.000000	43.598881
1694.000000	43.662110
1693.000000	43.720431
1692.000000	43.790412
1691.000000	43.882008
1690.000000	44.003776
1689.000000	44.114216
1688.000000	44.253582
1687.000000	44.407043
1686.000000	44.627204
1685.000000	44.783443
1684.000000	44.977978
1683.000000	45.205992
1682.000000	45.418301
1681.000000	45.665779
1680.000000	45.911316
1679.000000	46.170293
1678.000000	46.416296
1677.000000	46.648716
1676.000000	46.932549
1675.000000	47.198934
1674.000000	47.446314
1673.000000	47.714852
1672.000000	47.971543
1671.000000	48.224420
1670.000000	48.451256
1669.000000	48.707238
1668.000000	48.920109
1667.000000	49.122569
1666.000000	49.292570
1665.000000	49.458916
1664.000000	49.613980
1663.000000	49.738695
1662.000000	49.856397
1661.000000	50.002023
1660.000000	50.133136
1659.000000	50.229193
1658.000000	50.288814
1657.000000	50.352206
1656.000000	50.416587
1655.000000	50.479214
1654.000000	50.514730
1653.000000	50.551374
1652.000000	50.588654
1651.000000	50.602909
1650.000000	50.614549
1649.000000	50.591972
1648.000000	50.599667
1647.000000	50.597589
1646.000000	50.579277
1645.000000	50.556777
1644.000000	50.531072
1643.000000	50.505436
1642.000000	50.467761
1641.000000	50.432682
1640.000000	50.394588
1639.000000	50.360905
1638.000000	50.321731
1637.000000	50.270789
1636.000000	50.219065
1635.000000	50.178104
1634.000000	50.097255
1633.000000	50.031642
1632.000000	49.992923
1631.000000	49.935543
1630.000000	49.871881
1629.000000	49.814362
1628.000000	49.722631
1627.000000	49.649226
1626.000000	49.597597
1625.000000	49.527580
1624.000000	49.455298
1623.000000	49.381143
1622.000000	49.296817
1621.000000	49.209801
1620.000000	49.137721
1619.000000	49.068810
1618.000000	49.004267
1617.000000	48.906112
1616.000000	48.818196
1615.000000	48.724308
1614.000000	48.631472
1613.000000	48.542949
1612.000000	48.450457
1611.000000	48.366776
1610.000000	48.296543
1609.000000	48.199117
1608.000000	48.097612
1607.000000	48.000546
1606.000000	47.891876
1605.000000	47.791463
1604.000000	47.713850
1603.000000	47.616655
1602.000000	47.517307
1601.000000	47.427828
1600.000000	47.325682
1599.000000	47.229686
1598.000000	47.136115
1597.000000	47.043671
1596.000000	46.957074
1595.000000	46.871231
1594.000000	46.783726
1593.000000	46.698271
1592.000000	46.613934
1591.000000	46.531267
1590.000000	46.449521
1589.000000	46.362978
1588.000000	46.278554
1587.000000	46.212845
1586.000000	46.137299
1585.000000	46.044323
1584.000000	45.983608
1583.000000	45.926106
1582.000000	45.852997
1581.000000	45.776661
1580.000000	45.706455
1579.000000	45.640555
1578.000000	45.576317
1577.000000	45.490931
1576.000000	45.416517
1575.000000	45.351378
1574.000000	45.277645
1573.000000	45.221185
1572.000000	45.158513
1571.000000	45.083449
1570.000000	45.021937
1569.000000	44.956847
1568.000000	44.896216
1567.000000	44.829370
1566.000000	44.772828
1565.000000	44.717990
1564.000000	44.686095
1563.000000	44.642909
1562.000000	44.591102
1561.000000	44.555332
1560.000000	44.517224
1559.000000	44.488481
1558.000000	44.450889
1557.000000	44.432609
1556.000000	44.399123
1555.000000	44.364578
1554.000000	44.327337
1553.000000	44.279362
1552.000000	44.234700
1551.000000	44.185821
1550.000000	44.141191
1549.000000	44.091217
1548.000000	44.040414
1547.000000	43.958545
1546.000000	43.878473
1545.000000	43.782338
1544.000000	43.686310
1543.000000	43.593658
1542.000000	43.488426
1541.000000	43.373419
1540.000000	43.251471
1539.000000	43.140686
1538.000000	43.010144
1537.000000	42.883305
1536.000000	42.759502
1535.000000	42.643386
1534.000000	42.504200
1533.000000	42.392084
1532.000000	42.255917
1531.000000	42.141225
1530.000000	42.016833
1529.000000	41.904786
1528.000000	41.808654
1527.000000	41.699391
1526.000000	41.605404
1525.000000	41.508698
1524.000000	41.406233
1523.000000	41.343233
1522.000000	41.266631
1521.000000	41.187823
1520.000000	41.115637
1519.000000	41.069051
1518.000000	41.021843
1517.000000	40.966120
1516.000000	40.900732
1515.000000	40.823318
1514.000000	40.784490
1513.000000	40.744603
1512.000000	40.708493
1511.000000	40.696772
1510.000000	40.653566
1509.000000	40.645117
1508.000000	40.677127
1507.000000	40.671177
1506.000000	40.646660
1505.000000	40.619821
1504.000000	40.599990
1503.000000	40.546692
1502.000000	40.516262
1501.000000	40.515961
1500.000000	40.486650
1499.000000	40.490245
1498.000000	40.482281
1497.000000	40.493021
1496.000000	40.480707
1495.000000	40.501027
1494.000000	40.515935
1493.000000	40.564001
1492.000000	40.567765
1491.000000	40.614041
1490.000000	40.653956
1489.000000	40.692847
1488.000000	40.736534
1487.000000	40.793322
1486.000000	40.826215
1485.000000	40.886574
1484.000000	40.954997
1483.000000	41.004394
1482.000000	41.064476
1481.000000	41.160927
1480.000000	41.224913
1479.000000	41.303544
1478.000000	41.354571
1477.000000	41.432441
1476.000000	41.495560
1475.000000	41.560663
1474.000000	41.638774
1473.000000	41.711783
1472.000000	41.760545
1471.000000	41.822059
1470.000000	41.910224
1469.000000	41.976680
1468.000000	42.057989
1467.000000	42.115149
1466.000000	42.183096
1465.000000	42.232917
1464.000000	42.284400
1463.000000	42.368916
1462.000000	42.427979
1461.000000	42.492974
1460.000000	42.556000
1459.000000	42.626104
1458.000000	42.729396
1457.000000	42.785616
1456.000000	42.849512
1455.000000	42.938797
1454.000000	43.035603
1453.000000	43.121351
1452.000000	43.212118
1451.000000	43.281239
1450.000000	43.387982
1449.000000	43.491926
1448.000000	43.606038
1447.000000	43.689729
1446.000000	43.794559
1445.000000	43.893077
1444.000000	44.027838
1443.000000	44.131926
1442.000000	44.283325
1441.000000	44.418304
1440.000000	44.533569
1439.000000	44.669698
1438.000000	44.798850
1437.000000	44.918095
1436.000000	45.056802
1435.000000	45.215101
1434.000000	45.362688
1433.000000	45.527592
1432.000000	45.702494
1431.000000	45.872699
1430.000000	46.059349
1429.000000	46.246631
1428.000000	46.445000
1427.000000	46.651718
1426.000000	46.868451
1425.000000	47.084737
1424.000000	47.314834
1423.000000	47.542536
1422.000000	47.785685
1421.000000	48.037307
1420.000000	48.284778
1419.000000	48.543986
1418.000000	48.788875
1417.000000	49.082163
1416.000000	49.371314
1415.000000	49.644781
1414.000000	49.950725
1413.000000	50.253031
1412.000000	50.521171
1411.000000	50.824903
1410.000000	51.135659
1409.000000	51.444040
1408.000000	51.750401
1407.000000	52.047651
1406.000000	52.351317
1405.000000	52.658338
1404.000000	52.967940
1403.000000	53.261202
1402.000000	53.550501
1401.000000	53.842740
1400.000000	54.122969
1399.000000	54.402252
1398.000000	54.681862
1397.000000	54.949731
1396.000000	55.217433
1395.000000	55.480062
1394.000000	55.731845
1393.000000	55.981974
1392.000000	56.212823
1391.000000	56.446153
1390.000000	56.683159
1389.000000	56.902948
1388.000000	57.117658
1387.000000	57.331047
1386.000000	57.533156
1385.000000	57.714336
1384.000000	57.888162
1383.000000	58.046277
1382.000000	58.225516
1381.000000	58.383289
1380.000000	58.502481
1379.000000	58.641515
1378.000000	58.775484
1377.000000	58.888336
1376.000000	59.009693
1375.000000	59.130103
1374.000000	59.218802
1373.000000	59.316401
1372.000000	59.401392
1371.000000	59.474917
1370.000000	59.559160
1369.000000	59.641334
1368.000000	59.734387
1367.000000	59.819601
1366.000000	59.898744
1365.000000	59.986399
1364.000000	60.075895
1363.000000	60.156584
1362.000000	60.232251
1361.000000	60.319365
1360.000000	60.414563
1359.000000	60.501767
1358.000000	60.618739
1357.000000	60.709060
1356.000000	60.804509
1355.000000	60.917293
1354.000000	61.020375
1353.000000	61.110776
1352.000000	61.219446
1351.000000	61.327488
1350.000000	61.412686
1349.000000	61.498902
1348.000000	61.608523
1347.000000	61.717582
1346.000000	61.791543
1345.000000	61.893069
1344.000000	62.003155
1343.000000	62.107786
1342.000000	62.196056
1341.000000	62.265908
1340.000000	62.348206
1339.000000	62.433458
1338.000000	62.508770
1337.000000	62.595212
1336.000000	62.688218
1335.000000	62.757658
1334.000000	62.826723
1333.000000	62.871623
1332.000000	62.923338
1331.000000	62.969055
1330.000000	63.047972
1329.000000	63.112355
1328.000000	63.138707
1327.000000	63.177897
1326.000000	63.232232
1325.000000	63.292648
1324.000000	63.326351
1323.000000	63.364952
1322.000000	63.407767
1321.000000	63.416345
1320.000000	63.435323
1319.000000	63.503168
1318.000000	63.517015
1317.000000	63.545244
1316.000000	63.576819
1315.000000	63.574096
1314.000000	63.609341
1313.000000	63.659206
1312.000000	63.651018
1311.000000	63.686946
1310.000000	63.738130
1309.000000	63.739452
1308.000000	63.765375
1307.000000	63.817358
1306.000000	63.798819
1305.000000	63.815385
1304.000000	63.820616
1303.000000	63.869943
1302.000000	63.883141
1301.000000	63.897569
1300.000000	63.920784
1299.000000	63.904569
1298.000000	63.911195
1297.000000	63.932796
1296.000000	63.931930
1295.000000	63.931080
1294.000000	63.926368
1293.000000	63.925923
1292.000000	63.916013
1291.000000	63.927716
1290.000000	63.909339
1289.000000	63.892533
1288.000000	63.901180
1287.000000	63.870444
1286.000000	63.858976
1285.000000	63.876862
1284.000000	63.850216
1283.000000	63.823464
1282.000000	63.844871
1281.000000	63.834600
1280.000000	63.842373
1279.000000	63.828467
1278.000000	63.812039
1277.000000	63.839849
1276.000000	63.831180
1275.000000	63.820621
1274.000000	63.813730
1273.000000	63.832590
1272.000000	63.840377
1271.000000	63.841249
1270.000000	63.849340
1269.000000	63.836368
1268.000000	63.876503
1267.000000	63.866711
1266.000000	63.864655
1265.000000	63.884009
1264.000000	63.925728
1263.000000	63.922118
1262.000000	63.944658
1261.000000	63.991116
1260.000000	63.973412
1259.000000	63.968045
1258.000000	63.992316
1257.000000	64.022501
1256.000000	64.016913
1255.000000	64.011334
1254.000000	64.070713
1253.000000	64.041485
1252.000000	64.054683
1251.000000	64.045112
1250.000000	64.031526
1249.000000	64.044569
1248.000000	64.054888
1247.000000	64.022274
1246.000000	64.014853
1245.000000	63.998309
1244.000000	63.998514
1243.000000	63.979922
1242.000000	63.934529
1241.000000	63.914570
1240.000000	63.880305
1239.000000	63.840381
1238.000000	63.812745
1237.000000	63.783538
1236.000000	63.733576
1235.000000	63.663896
1234.000000	63.627541
1233.000000	63.608750
1232.000000	63.558564
1231.000000	63.542376
1230.000000	63.518463
1229.000000	63.466626
1228.000000	63.442183
1227.000000	63.397894
1226.000000	63.365144
1225.000000	63.342365
1224.000000	63.315838
1223.000000	63.291724
1222.000000	63.257205
1221.000000	63.230075
1220.000000	63.181619
1219.000000	63.134345
1218.000000	63.102263
1217.000000	63.075205
1216.000000	63.036980
1215.000000	62.981630
1214.000000	62.931253
1213.000000	62.884110
1212.000000	62.863353
1211.000000	62.817872
1210.000000	62.746163
1209.000000	62.707750
1208.000000	62.655210
1207.000000	62.563175
1206.000000	62.501368
1205.000000	62.451269
1204.000000	62.402051
1203.000000	62.338409
1202.000000	62.298240
1201.000000	62.248341
1200.000000	62.174881
1199.000000	62.112085
1198.000000	62.060802
1197.000000	62.026126
1196.000000	61.985145
1195.000000	61.928058
1194.000000	61.884756
1193.000000	61.846460
1192.000000	61.815693
1191.000000	61.780518
1190.000000	61.733399
1189.000000	61.701090
1188.000000	61.692428
1187.000000	61.683977
1186.000000	61.675800
1185.000000	61.684677
1184.000000	61.691399
1183.000000	61.703803
1182.000000	61.735712
1181.000000	61.763921
1180.000000	61.783213
1179.000000	61.827762
1178.000000	61.887172
1177.000000	61.941803
1176.000000	62.004849
1175.000000	62.093218
1174.000000	62.177489
1173.000000	62.266200
1172.000000	62.342725
1171.000000	62.430298
1170.000000	62.547402
1169.000000	62.642801
1168.000000	62.744795
1167.000000	62.880428
1166.000000	62.996756
1165.000000	63.107481
1164.000000	63.230583
1163.000000	63.354559
1162.000000	63.471203
1161.000000	63.586577
1160.000000	63.709041
1159.000000	63.824319
1158.000000	63.931304
1157.000000	64.029530
1156.000000	64.132274
1155.000000	64.248143
1154.000000	64.361663
1153.000000	64.449809
1152.000000	64.542034
1151.000000	64.633429
1150.000000	64.713406
1149.000000	64.804734
1148.000000	64.881388
1147.000000	64.950606
1146.000000	65.032865
1145.000000	65.114764
1144.000000	65.199164
1143.000000	65.269057
1142.000000	65.327715
1141.000000	65.391057
1140.000000	65.469766
1139.000000	65.556070
1138.000000	65.631057
1137.000000	65.685076
1136.000000	65.726030
1135.000000	65.785997
1134.000000	65.850069
1133.000000	65.906671
1132.000000	65.957944
1131.000000	66.017311
1130.000000	66.076562
1129.000000	66.137054
1128.000000	66.181508
1127.000000	66.214890
1126.000000	66.252472
1125.000000	66.292086
1124.000000	66.330712
1123.000000	66.354201
1122.000000	66.361340
1121.000000	66.377674
1120.000000	66.395565
1119.000000	66.413397
1118.000000	66.431830
1117.000000	66.451359
1116.000000	66.460867
1115.000000	66.482087
1114.000000	66.497696
1113.000000	66.506511
1112.000000	66.493634
1111.000000	66.498395
1110.000000	66.511677
1109.000000	66.527412
1108.000000	66.536500
1107.000000	66.555733
1106.000000	66.543893
1105.000000	66.538151
1104.000000	66.560639
1103.000000	66.582667
1102.000000	66.591794
1101.000000	66.599328
1100.000000	66.594496
1099.000000	66.597058
1098.000000	66.590973
1097.000000	66.590025
1096.000000	66.601422
1095.000000	66.608628
1094.000000	66.605130
1093.000000	66.607686
1092.000000	66.618451
1091.000000	66.619051
1090.000000	66.598186
1089.000000	66.604313
1088.000000	66.595189
1087.000000	66.590491
1086.000000	66.599787
1085.000000	66.600202
1084.000000	66.597069
1083.000000	66.567972
1082.000000	66.571035
1081.000000	66.590001
1080.000000	66.579541
1079.000000	66.557989
1078.000000	66.566181
1077.000000	66.544018
1076.000000	66.549494
1075.000000	66.553890
1074.000000	66.524502
1073.000000	66.512793
1072.000000	66.512345
1071.000000	66.511093
1070.000000	66.499118
1069.000000	66.485597
1068.000000	66.485018
1067.000000	66.486807
1066.000000	66.476118
1065.000000	66.464571
1064.000000	66.456119
1063.000000	66.452014
1062.000000	66.410362
1061.000000	66.409522
1060.000000	66.401976
1059.000000	66.383402
1058.000000	66.379308
1057.000000	66.370049
1056.000000	66.361334
1055.000000	66.337213
1054.000000	66.338320
1053.000000	66.337009
1052.000000	66.318523
1051.000000	66.317196
1050.000000	66.285440
1049.000000	66.277866
1048.000000	66.256816
1047.000000	66.268224
1046.000000	66.262345
1045.000000	66.239079
1044.000000	66.255102
1043.000000	66.253099
1042.000000	66.244806
1041.000000	66.217189
1040.000000	66.245517
1039.000000	66.230909
1038.000000	66.211008
1037.000000	66.215159
1036.000000	66.201833
1035.000000	66.210710
1034.000000	66.189920
1033.000000	66.172495
1032.000000	66.193484
1031.000000	66.185662
1030.000000	66.188887
1029.000000	66.192625
1028.000000	66.177623
1027.000000	66.164258
1026.000000	66.170847
1025.000000	66.160230
1024.000000	66.163347
1023.000000	66.165510
1022.000000	66.177228
1021.000000	66.175550
1020.000000	66.181899
1019.000000	66.178778
1018.000000	66.180468
1017.000000	66.187255
1016.000000	66.198702
1015.000000	66.224461
1014.000000	66.221142
1013.000000	66.203170
1012.000000	66.224752
1011.000000	66.240669
1010.000000	66.248313
1009.000000	66.255987
1008.000000	66.264598
1007.000000	66.283342
1006.000000	66.270020
1005.000000	66.284905
1004.000000	66.305124
1003.000000	66.325620
1002.000000	66.339715
1001.000000	66.319171
1000.000000	66.334828
999.000000	66.333170
998.000000	66.350458
997.000000	66.370710
996.000000	66.365778
995.000000	66.383855
994.000000	66.410629
993.000000	66.414548
992.000000	66.414075
991.000000	66.444344
990.000000	66.453973
989.000000	66.454336
988.000000	66.476068
987.000000	66.485064
986.000000	66.504005
985.000000	66.517692
984.000000	66.520401
983.000000	66.531828
982.000000	66.529099
981.000000	66.530316
980.000000	66.552027
979.000000	66.576673
978.000000	66.588716
977.000000	66.595180
976.000000	66.618683
975.000000	66.619608
974.000000	66.639695
973.000000	66.652834
972.000000	66.672894
971.000000	66.695840
970.000000	66.681117
969.000000	66.691215
968.000000	66.698852
967.000000	66.725562
966.000000	66.738394
965.000000	66.740414
964.000000	66.749753
963.000000	66.766854
962.000000	66.803204
961.000000	66.818703
960.000000	66.824786
959.000000	66.854818
958.000000	66.883224
957.000000	66.899713
956.000000	66.898979
955.000000	66.901166
954.000000	66.914340
953.000000	66.931808
952.000000	66.934693
951.000000	66.959948
950.000000	66.969624
949.000000	66.977155
948.000000	66.987500
947.000000	67.012974
946.000000	67.025385
945.000000	67.023940
944.000000	67.036954
943.000000	67.042163
942.000000	67.052793
941.000000	67.051045
940.000000	67.042265
939.000000	67.064830
938.000000	67.052777
937.000000	67.048823
936.000000	67.059109
935.000000	67.053466
934.000000	67.063996
933.000000	67.080816
932.000000	67.085866
931.000000	67.078861
930.000000	67.068976
929.000000	67.079978
928.000000	67.093153
927.000000	67.091181
926.000000	67.087362
925.000000	67.076481
924.000000	67.080106
923.000000	67.073289
922.000000	67.071611
921.000000	67.078453
920.000000	67.081789
919.000000	67.089476
918.000000	67.078693
917.000000	67.067116
916.000000	67.051486
915.000000	67.058067
914.000000	67.086097
913.000000	67.102738
912.000000	67.109995
911.000000	67.133948
910.000000	67.098263
909.000000	67.081348
908.000000	67.093168
907.000000	67.098441
906.000000	67.108530
905.000000	67.087935
904.000000	67.080815
903.000000	67.103259
902.000000	67.156442
901.000000	67.132030
900.000000	67.142552
899.000000	67.189223
898.000000	67.208153
897.000000	67.219308
896.000000	67.251269
895.000000	67.234578
894.000000	67.247829
893.000000	67.207856
892.000000	67.205456
891.000000	67.269731
890.000000	67.232807
889.000000	67.217840
888.000000	67.291843
887.000000	67.356094
886.000000	67.348197
885.000000	67.374319
884.000000	67.388112
883.000000	67.373954
882.000000	67.389569
881.000000	67.314642
880.000000	67.328443
879.000000	67.402295
878.000000	67.398795
877.000000	67.418514
876.000000	67.407876
875.000000	67.396103
874.000000	67.439452
873.000000	67.462100
872.000000	67.547021
871.000000	67.484262
870.000000	67.448184
869.000000	67.428338
868.000000	67.468709
867.000000	67.433023
866.000000	67.351252
865.000000	67.459462
864.000000	67.479826
863.000000	67.376888
862.000000	67.378450
861.000000	67.346021
860.000000	67.446825
859.000000	66.529511
858.000000	66.941524
857.000000	66.870680
856.000000	67.064403
855.000000	67.420922
854.000000	67.030217
853.000000	67.201779
852.000000	67.164431
851.000000	67.232359
850.000000	67.125322
849.000000	67.232262
848.000000	67.199252
847.000000	67.176404
846.000000	67.144322
845.000000	67.523850
844.000000	67.190207
843.000000	67.285793
842.000000	67.483077
841.000000	67.271682
840.000000	66.980386
839.000000	67.309181
838.000000	67.240518
837.000000	67.087363
836.000000	67.341500
835.000000	67.017831
834.000000	67.246683
833.000000	67.149743
832.000000	67.133893
831.000000	67.242864
830.000000	67.206823
829.000000	67.194221
828.000000	67.301681
827.000000	67.289413
826.000000	67.256615
825.000000	67.224812
824.000000	67.090157
823.000000	67.303089
822.000000	67.018785
821.000000	67.236812
820.000000	67.160970
819.000000	67.138567
818.000000	67.238553
817.000000	67.240267
816.000000	67.070493
815.000000	67.147830
814.000000	67.200001
813.000000	67.257395
812.000000	67.109069
811.000000	67.306028
810.000000	67.275583
809.000000	67.138648
808.000000	67.324831
807.000000	67.314061
806.000000	67.355458
805.000000	67.283363
804.000000	67.289008
803.000000	67.210508
802.000000	67.326464
801.000000	67.384627
800.000000	67.283568
799.000000	67.131450
798.000000	67.185938
797.000000	67.147749
796.000000	67.160270
795.000000	67.260747
794.000000	67.212129
793.000000	67.185637
792.000000	67.213487
791.000000	67.339652
790.000000	67.278753
789.000000	67.371625
788.000000	67.432009
787.000000	67.198329
786.000000	67.257934
785.000000	67.436360
784.000000	67.474091
783.000000	67.294882
782.000000	67.246829
781.000000	67.158139
780.000000	67.264832
779.000000	67.274320
778.000000	67.232846
777.000000	67.344392
776.000000	67.356006
775.000000	67.279067
774.000000	67.376461
773.000000	67.345053
772.000000	67.233532
771.000000	67.268287
770.000000	67.243263
769.000000	67.295573
768.000000	67.309285
767.000000	67.273859
766.000000	67.228873
765.000000	67.270464
764.000000	67.292776
763.000000	67.277249
762.000000	67.254816
761.000000	67.182406
760.000000	67.321486
759.000000	67.218968
758.000000	67.372253
757.000000	67.292441
756.000000	67.306638
755.000000	67.246499
754.000000	67.273098
753.000000	67.330462
752.000000	67.237057
751.000000	67.316516
750.000000	67.321491
749.000000	67.259354
748.000000	67.248186
747.000000	67.287735
746.000000	67.306140
745.000000	67.303783
744.000000	67.315845
743.000000	67.282467
742.000000	67.155242
741.000000	67.241804
740.000000	67.328728
739.000000	67.329768
738.000000	67.313154
737.000000	67.298939
736.000000	67.282319
735.000000	67.235934
734.000000	67.205432
733.000000	67.220509
732.000000	67.234216
731.000000	67.264384
730.000000	67.301675
729.000000	67.254248
728.000000	67.242110
727.000000	67.244864
726.000000	67.281882
725.000000	67.273967
724.000000	67.272397
723.000000	67.267269
722.000000	67.274815
721.000000	67.272907
720.000000	67.251182
719.000000	67.269414
718.000000	67.308227
717.000000	67.306407
716.000000	67.316377
715.000000	67.338014
714.000000	67.281059
713.000000	67.235898
712.000000	67.231239
711.000000	67.234805
710.000000	67.275396
709.000000	67.273810
708.000000	67.251252
707.000000	67.253809
706.000000	67.248877
705.000000	67.276454
704.000000	67.260696
703.000000	67.272216
702.000000	67.355700
701.000000	67.341284
700.000000	67.300177
699.000000	67.278998
698.000000	67.316344
697.000000	67.291310
696.000000	67.272762
695.000000	67.271909
694.000000	67.255969
693.000000	67.216213
692.000000	67.204930
691.000000	67.289650
690.000000	67.257625
689.000000	67.232536
688.000000	67.239529
687.000000	67.235790
686.000000	67.281113
685.000000	67.274124
684.000000	67.295429
683.000000	67.290402
682.000000	67.321229
681.000000	67.314438
680.000000	67.297616
679.000000	67.336042
678.000000	67.337154
677.000000	67.303804
676.000000	67.291469
675.000000	67.316455
674.000000	67.319411
673.000000	67.319196
672.000000	67.321493
671.000000	67.291330
670.000000	67.287587
669.000000	67.307789
668.000000	67.267043
667.000000	67.321542
666.000000	67.373033
665.000000	67.348586
664.000000	67.348139
663.000000	67.323617
662.000000	67.325704
661.000000	67.304954
660.000000	67.314173
659.000000	67.320019
658.000000	67.331833
657.000000	67.349645
656.000000	67.327139
655.000000	67.317023
654.000000	67.333800
653.000000	67.309237
652.000000	67.316025
651.000000	67.267984
650.000000	67.316497
649.000000	67.290566
648.000000	67.252854
647.000000	67.282256
646.000000	67.293088
645.000000	67.300360
644.000000	67.317762
643.000000	67.363889
642.000000	67.350336
641.000000	67.325574
640.000000	67.297382
639.000000	67.318122
638.000000	67.303886
637.000000	67.356675
636.000000	67.283774
635.000000	67.252704
634.000000	67.257202
633.000000	67.271264
632.000000	67.255643
631.000000	67.266624
630.000000	67.302717
629.000000	67.243021
628.000000	67.220619
627.000000	67.233115
626.000000	67.252827
625.000000	67.230021
624.000000	67.184591
623.000000	67.248500
622.000000	67.207115
621.000000	67.189990
620.000000	67.184605
619.000000	67.198430
618.000000	67.150264
617.000000	67.129026
616.000000	67.177351
615.000000	67.184362
614.000000	67.171931
613.000000	67.208799
612.000000	67.163603
611.000000	67.164289
610.000000	67.147911
609.000000	67.060699
608.000000	67.093649
607.000000	67.102886
606.000000	67.075039
605.000000	67.111430
604.000000	67.095601
603.000000	67.076169
602.000000	67.079551
601.000000	67.042307
600.000000	67.033756
599.000000	67.006059
598.000000	67.019581
597.000000	66.990741
596.000000	66.986487
595.000000	66.971753
594.000000	66.953388
593.000000	66.985573
592.000000	66.965391
591.000000	66.859535
590.000000	66.936641
589.000000	66.915206
588.000000	66.854825
587.000000	66.907984
586.000000	66.834639
585.000000	66.900311
584.000000	66.840965
583.000000	66.745097
582.000000	66.764539
581.000000	66.804017
580.000000	66.721032
579.000000	66.696651
578.000000	66.707543
577.000000	66.672522
576.000000	66.659821
575.000000	66.662195
574.000000	66.576399
573.000000	66.593161
572.000000	66.585386
571.000000	66.534276
570.000000	66.581539
569.000000	66.552376
568.000000	66.552519
567.000000	66.461649
566.000000	66.504289
565.000000	66.434904
564.000000	66.398947
563.000000	66.350171
562.000000	66.361977
561.000000	66.251929
560.000000	66.188887
559.000000	66.170388
558.000000	66.181217
557.000000	66.131939
556.000000	66.122817
555.000000	66.084212
554.000000	66.047984
553.000000	66.055660
552.000000	65.970806
551.000000	65.939797
550.000000	65.855920
549.000000	65.860486
548.000000	65.897399
547.000000	65.809340
546.000000	65.754708
545.000000	65.783404
544.000000	65.737981
543.000000	65.656586
542.000000	65.575901
541.000000	65.610495
540.000000	65.575016
539.000000	65.511347
538.000000	65.475970
537.000000	65.463005
536.000000	65.377241
535.000000	65.333269
534.000000	65.342032
533.000000	65.293718
532.000000	65.226075
531.000000	65.215072
530.000000	65.109611
529.000000	65.075164
528.000000	65.060390
527.000000	64.958940
526.000000	64.907810
525.000000	64.915704
524.000000	64.882969
523.000000	64.781891
522.000000	64.764841
521.000000	64.688311
520.000000	64.633229
519.000000	64.560824
518.000000	64.501781
517.000000	64.510786
516.000000	64.392281
515.000000	64.325841
514.000000	64.290166
513.000000	64.219873
512.000000	64.142065
511.000000	64.100687
510.000000	64.075953
509.000000	63.965397
508.000000	63.929919
507.000000	63.835824
506.000000	63.770176
505.000000	63.709172
504.000000	63.634990
503.000000	63.543733
502.000000	63.514989
501.000000	63.430261
500.000000	63.370906
499.000000	63.320814
498.000000	63.191019
497.000000	63.082410
496.000000	63.019748
495.000000	62.932862
494.000000	62.852876
493.000000	62.800584
492.000000	62.709299
491.000000	62.607825
490.000000	62.474298
489.000000	62.388394
488.000000	62.322028
487.000000	62.216890
486.000000	62.159613
485.000000	62.143627
484.000000	62.076500
483.000000	61.986013
482.000000	61.880888
481.000000	61.734282
480.000000	61.670580
479.000000	61.596564
478.000000	61.456529
477.000000	61.367760
476.000000	61.257683
475.000000	61.121946
474.000000	61.037123
473.000000	60.935789
472.000000	60.825227
471.000000	60.698808
470.000000	60.587322
469.000000	60.473566
468.000000	60.344517
467.000000	60.211728
466.000000	60.093380
465.000000	59.969834
464.000000	59.836865
463.000000	59.691976
462.000000	59.569977
461.000000	59.463422
460.000000	59.297490
459.000000	59.154643
458.000000	58.962619
457.000000	58.772288
456.000000	58.607629
455.000000	58.476286
454.000000	58.293607
453.000000	58.066508
452.000000	57.895759
451.000000	57.725227
450.000000	57.508197
449.000000	57.344619
448.000000	57.203403
447.000000	56.978718
446.000000	56.709648
445.000000	56.492556
444.000000	56.294024
443.000000	56.113197
442.000000	55.891390
441.000000	55.700545
440.000000	55.482103
439.000000	55.294723
438.000000	55.101076
437.000000	54.913499
436.000000	54.742058
435.000000	54.565340
434.000000	54.392753
433.000000	54.168841
432.000000	53.931373
431.000000	53.708703
430.000000	53.493973
429.000000	53.277451
428.000000	53.069976
427.000000	52.814837
426.000000	52.613401
425.000000	52.454938
424.000000	52.200245
423.000000	51.978941
422.000000	51.741851
421.000000	51.503274
420.000000	51.264189
419.000000	50.984006
418.000000	50.778415
417.000000	50.507082
416.000000	50.280060
415.000000	50.001213
414.000000	49.751926
413.000000	49.474473
412.000000	49.202062
411.000000	48.935487
410.000000	48.665965
409.000000	48.382259
408.000000	48.108188
407.000000	47.841658
406.000000	47.589474
405.000000	47.299489
404.000000	46.995720
403.000000	46.711818
402.000000	46.486245
401.000000	46.175623
400.000000	45.896875
399.000000	45.586789
398.000000	45.309638
397.000000	45.063306
396.000000	44.776321
395.000000	44.561902
394.000000	44.259827
393.000000	43.944813
392.000000	43.643037
391.000000	43.388142
390.000000	43.045024
389.000000	42.880555
388.000000	42.663111
387.000000	42.354083
386.000000	41.998225
385.000000	41.744055
384.000000	41.463765
383.000000	41.112720
382.000000	40.847258
381.000000	40.625698
380.000000	40.238477
379.000000	40.074732
378.000000	39.550074
377.000000	39.433685
376.000000	39.243967
375.000000	38.975575
374.000000	38.577299
373.000000	38.322205
372.000000	38.033452
371.000000	37.585013
370.000000	37.373261
369.000000	37.018820
368.000000	36.786727
367.000000	36.482082
366.000000	36.133903
365.000000	35.799320
364.000000	35.513381
363.000000	35.041727
362.000000	34.805606
361.000000	34.504560
360.000000	34.189028
359.000000	33.767098
358.000000	33.532613
357.000000	33.190911
356.000000	32.866103
355.000000	32.512896
354.000000	32.105674
353.000000	31.775974
352.000000	31.500728
351.000000	31.143147
350.000000	30.789284
349.000000	30.558775
348.000000	30.138536
347.000000	29.841408
346.000000	29.382154
345.000000	29.103902
344.000000	28.798366
343.000000	28.482362
342.000000	27.988742
341.000000	27.724772
340.000000	27.361292
339.000000	27.111788
338.000000	26.743320
337.000000	26.415818
336.000000	26.001455
335.000000	25.633099
334.000000	25.318719
333.000000	24.857735
332.000000	24.547758
331.000000	24.278797
330.000000	23.690557
329.000000	23.384500
328.000000	23.155053
327.000000	22.680052
326.000000	22.284243
325.000000	21.790122
324.000000	21.414882
323.000000	21.181906
322.000000	20.691502
321.000000	20.469699
320.000000	20.020856
319.000000	19.583340
318.000000	19.383141
317.000000	19.033952
316.000000	18.688538
315.000000	18.348971
314.000000	17.982320
313.000000	17.574136
312.000000	17.291758
311.000000	16.950471
310.000000	16.660425
309.000000	16.200664
308.000000	15.878706
307.000000	15.502984
306.000000	15.092629
305.000000	14.751307
304.000000	14.345629
303.000000	13.942846
302.000000	13.510948
301.000000	13.068833
300.000000	12.649653
299.000000	12.191929
298.000000	11.790945
297.000000	11.366170
296.000000	11.056400
295.000000	10.665855
294.000000	10.366741
293.000000	10.146625
292.000000	9.934513
291.000000	9.770340
290.000000	9.645267
289.000000	9.602576
288.000000	9.572904
287.000000	9.552004
286.000000	9.543633
285.000000	9.541997
284.000000	9.561858
283.000000	9.606668
282.000000	9.576356
281.000000	9.631525
280.000000	9.614923
279.000000	9.675711
278.000000	9.696721
277.000000	9.730193
276.000000	9.778960
275.000000	9.807691
274.000000	9.826955
273.000000	9.885105
272.000000	9.967309
271.000000	10.004901
270.000000	10.079465
269.000000	10.091545
268.000000	10.158656
267.000000	10.225155
266.000000	10.236047
265.000000	10.363700
264.000000	10.499280
263.000000	10.604953
262.000000	10.745933
261.000000	10.785228
260.000000	10.898440
259.000000	11.074761
258.000000	11.209643
257.000000	11.355243
256.000000	11.488203
255.000000	11.669770
254.000000	11.804091
253.000000	12.037470
252.000000	12.237878
251.000000	12.449738
250.000000	12.640398
249.000000	12.846726
248.000000	13.114739
247.000000	13.354504
246.000000	13.537018
245.000000	13.771390
244.000000	14.034531
243.000000	14.273514
242.000000	14.511821
241.000000	14.710454
240.000000	14.947754
239.000000	15.168676
238.000000	15.335335
237.000000	15.493197
236.000000	15.699182
235.000000	15.916708
234.000000	16.140742
233.000000	16.271185
232.000000	16.341286
231.000000	16.504423
230.000000	16.696563
229.000000	16.866687
228.000000	16.989735
227.000000	17.144165
226.000000	17.371407
225.000000	17.527734
224.000000	17.752772
223.000000	17.994010
222.000000	18.187449
221.000000	18.471488
220.000000	18.845893
219.000000	19.096430
218.000000	19.370728
217.000000	19.760851
216.000000	20.126123
215.000000	20.502922
214.000000	21.014894
213.000000	21.405880
212.000000	21.879092
211.000000	22.359948
210.000000	22.781952
209.000000	23.437989
208.000000	24.192732
207.000000	24.826676
206.000000	25.394420
205.000000	25.995128
204.000000	26.585301
203.000000	27.168111
202.000000	27.884539
201.000000	28.711703
200.000000	29.304968
