PE UV       SUBTECH     SPECTRUM    ASCII       PEDS        4.00        
   -1
GGRAG1_1.Sample.asc
23/09/07
15:29:15.00
23/09/07
15:29:15.00
Administrator

250.000000
1
Lambda 750
750N8071901
PerkinElmer UV WinLab 6.0.4.0738 / 1.61.00 Lambda 900

0
0
3350/servo 860.8/2
0
0
UV/VIS
1
1
1
CommonBeamDepol,150mm sphere / downward view
0
0
0
0
Program
Program
3350/servo 860.8/2
3350/0.2 860.8/0.2
3350/0.2 860.8/0.2
0
1
 
 
 
0
 
860.8
319.2
860.8
Front
100
on
 
 
0
0
0
 
0
 
 
 
0
 
 
0
0
0
0
0
 
 
 
 
0
0


0
0
#HDR
-1
-1
#GR
nm
%R
1.0
0.0
2500.000000
-10.000000
226
8
70.925735
-0.672200
#DATA
2500.000000	2.162992
2490.000000	0.538227
2480.000000	2.122256
2470.000000	2.058313
2460.000000	-0.672200
2450.000000	1.474552
2440.000000	3.328385
2430.000000	1.829924
2420.000000	1.296107
2410.000000	2.032930
2400.000000	4.884768
2390.000000	2.832582
2380.000000	3.309983
2370.000000	2.673167
2360.000000	3.998709
2350.000000	3.681602
2340.000000	3.113181
2330.000000	3.095242
2320.000000	3.174696
2310.000000	2.880780
2300.000000	2.796051
2290.000000	3.774481
2280.000000	3.643058
2270.000000	3.971174
2260.000000	4.871697
2250.000000	6.551842
2240.000000	6.951597
2230.000000	6.149727
2220.000000	6.504668
2210.000000	6.009952
2200.000000	4.887318
2190.000000	5.187443
2180.000000	6.327219
2170.000000	7.315970
2160.000000	7.238899
2150.000000	8.056183
2140.000000	7.877008
2130.000000	8.684521
2120.000000	8.852743
2110.000000	8.948114
2100.000000	8.317144
2090.000000	7.684599
2080.000000	6.949666
2070.000000	5.881976
2060.000000	5.821599
2050.000000	5.969638
2040.000000	6.552226
2030.000000	6.636559
2020.000000	5.941563
2010.000000	5.527188
2000.000000	4.927620
1990.000000	4.482281
1980.000000	3.818817
1970.000000	3.467118
1960.000000	3.398266
1950.000000	3.837835
1940.000000	4.236736
1930.000000	5.949701
1920.000000	9.371970
1910.000000	14.833707
1900.000000	20.752533
1890.000000	26.076046
1880.000000	29.928803
1870.000000	31.451275
1860.000000	31.569150
1850.000000	31.056541
1840.000000	30.718617
1830.000000	30.009990
1820.000000	29.399229
1810.000000	28.887529
1800.000000	28.419117
1790.000000	27.661088
1780.000000	26.714369
1770.000000	26.188154
1760.000000	25.450479
1750.000000	24.736263
1740.000000	25.215490
1730.000000	26.810582
1720.000000	28.159308
1710.000000	28.933807
1700.000000	30.688704
1690.000000	33.909286
1680.000000	36.462796
1670.000000	37.537018
1660.000000	37.791008
1650.000000	37.174337
1640.000000	36.305461
1630.000000	35.183532
1620.000000	33.940390
1610.000000	32.576105
1600.000000	31.513509
1590.000000	30.643215
1580.000000	29.706895
1570.000000	29.168269
1560.000000	28.245877
1550.000000	26.880278
1540.000000	25.614476
1530.000000	24.893057
1520.000000	24.398321
1510.000000	24.056691
1500.000000	23.987389
1490.000000	24.115862
1480.000000	24.388716
1470.000000	24.965516
1460.000000	26.010942
1450.000000	27.691029
1440.000000	30.080647
1430.000000	33.668595
1420.000000	38.586337
1410.000000	43.934449
1400.000000	48.627026
1390.000000	51.795558
1380.000000	53.757416
1370.000000	55.805314
1360.000000	57.833540
1350.000000	59.603166
1340.000000	60.791248
1330.000000	61.798978
1320.000000	62.680548
1310.000000	63.158047
1300.000000	63.133942
1290.000000	63.132466
1280.000000	63.248391
1270.000000	63.260100
1260.000000	62.998680
1250.000000	62.300306
1240.000000	61.534015
1230.000000	60.530673
1220.000000	59.486392
1210.000000	58.655251
1200.000000	58.664020
1190.000000	59.710749
1180.000000	61.750728
1170.000000	64.065658
1160.000000	65.968525
1150.000000	67.641055
1140.000000	68.814714
1130.000000	69.294148
1120.000000	69.569493
1110.000000	69.717547
1100.000000	69.843258
1090.000000	69.674684
1080.000000	69.470411
1070.000000	69.128531
1060.000000	69.020570
1050.000000	68.887685
1040.000000	68.783195
1030.000000	68.641855
1020.000000	68.798696
1010.000000	69.046845
1000.000000	69.296069
990.000000	69.467104
980.000000	69.755231
970.000000	70.031466
960.000000	70.415965
950.000000	70.434568
940.000000	70.469634
930.000000	70.408342
920.000000	70.335976
910.000000	70.561474
900.000000	70.796579
890.000000	70.511661
880.000000	70.925735
870.000000	70.487162
860.000000	70.510720
850.000000	69.698019
840.000000	69.728519
830.000000	69.850964
820.000000	69.230536
810.000000	68.890588
800.000000	68.806891
790.000000	68.039103
780.000000	67.676777
770.000000	67.009571
760.000000	66.098418
750.000000	65.297348
740.000000	64.709201
730.000000	63.821125
720.000000	62.939680
710.000000	61.731264
700.000000	60.510906
690.000000	59.268892
680.000000	57.774682
670.000000	56.356850
660.000000	54.807972
650.000000	53.303213
640.000000	51.727111
630.000000	50.172550
620.000000	48.493253
610.000000	46.826007
600.000000	45.223364
590.000000	43.692499
580.000000	42.167539
570.000000	40.587484
560.000000	39.184615
550.000000	37.694040
540.000000	36.256560
530.000000	34.901638
520.000000	33.607140
510.000000	32.319508
500.000000	31.088239
490.000000	29.619825
480.000000	28.228295
470.000000	27.072023
460.000000	25.823881
450.000000	24.425357
440.000000	23.196264
430.000000	21.890304
420.000000	20.880198
410.000000	20.134122
400.000000	19.532995
390.000000	19.169557
380.000000	18.760251
370.000000	18.463012
360.000000	17.658975
350.000000	17.177859
340.000000	17.028764
330.000000	16.397024
320.000000	15.964299
310.000000	14.877822
300.000000	13.710277
290.000000	11.200350
280.000000	8.622018
270.000000	7.298516
260.000000	6.994363
250.000000	7.050268
