PE UV       SUBTECH     SPECTRUM    ASCII       PEDS        4.00        
   -1
Empty Chamber.Sample.asc
18/03/15
08:54:11.00
18/03/15
08:54:11.00
Administrator

200.000000
1
Lambda 750
750N8071901
PerkinElmer UV WinLab 6.0.4.0738 / 1.61.00 Lambda 900

0
0
3350/servo 860.8/2
0
0
UV/VIS
1
1
1
CommonBeamDepol,150mm sphere / downward view
0
0
0
0
Program
Program
3350/servo 860.8/2
3350/0.2 860.8/0.2
3350/0.2 860.8/0.2
0
1
 
 
 
0
 
860.8
319.2
860.8
Front
100
on
 
 
0
0
0
 
0
 
 
 
0
 
 
0
0
0
0
0
 
 
 
 
0
0


0
0
#HDR
-1
-1
#GR
nm
%T
1.0
0.0
2350.000000
-1.000000
2151
8
100.642562
98.814826
#DATA
2350.000000	99.843733
2349.000000	100.068889
2348.000000	99.806314
2347.000000	99.814826
2346.000000	99.912365
2345.000000	99.848628
2344.000000	99.941314
2343.000000	100.044763
2342.000000	100.147414
2341.000000	100.279904
2340.000000	100.206743
2339.000000	99.961942
2338.000000	100.177473
2337.000000	99.531639
2336.000000	99.758801
2335.000000	99.720834
2334.000000	100.315986
2333.000000	100.444171
2332.000000	100.008557
2331.000000	99.897711
2330.000000	100.077029
2329.000000	100.045351
2328.000000	99.878567
2327.000000	100.197740
2326.000000	100.246155
2325.000000	100.034163
2324.000000	100.151934
2323.000000	99.744237
2322.000000	99.848310
2321.000000	99.935893
2320.000000	100.048373
2319.000000	100.021687
2318.000000	100.077945
2317.000000	100.311190
2316.000000	100.105276
2315.000000	100.020713
2314.000000	100.019440
2313.000000	99.756871
2312.000000	100.080547
2311.000000	100.223369
2310.000000	100.096064
2309.000000	100.177175
2308.000000	100.017082
2307.000000	99.722572
2306.000000	100.002424
2305.000000	100.072408
2304.000000	99.968581
2303.000000	99.994135
2302.000000	100.009103
2301.000000	99.627031
2300.000000	99.922064
2299.000000	100.220680
2298.000000	99.990001
2297.000000	99.953681
2296.000000	100.134730
2295.000000	100.128388
2294.000000	100.236167
2293.000000	100.109247
2292.000000	100.111479
2291.000000	99.974357
2290.000000	100.046943
2289.000000	99.952683
2288.000000	100.173201
2287.000000	100.249208
2286.000000	100.032460
2285.000000	100.113605
2284.000000	100.118948
2283.000000	100.113656
2282.000000	100.019707
2281.000000	99.950670
2280.000000	99.960881
2279.000000	99.900600
2278.000000	99.859012
2277.000000	99.889099
2276.000000	99.899627
2275.000000	99.977880
2274.000000	100.151460
2273.000000	99.959624
2272.000000	99.963363
2271.000000	99.995249
2270.000000	100.178282
2269.000000	100.146034
2268.000000	99.924221
2267.000000	99.990703
2266.000000	99.962894
2265.000000	99.925054
2264.000000	100.069714
2263.000000	99.940076
2262.000000	99.952316
2261.000000	99.974248
2260.000000	99.960844
2259.000000	100.036053
2258.000000	100.282157
2257.000000	100.085050
2256.000000	99.890954
2255.000000	100.070635
2254.000000	100.015377
2253.000000	99.951280
2252.000000	100.107102
2251.000000	100.064810
2250.000000	99.966136
2249.000000	99.844288
2248.000000	99.857951
2247.000000	99.782281
2246.000000	99.786571
2245.000000	99.922417
2244.000000	100.059042
2243.000000	100.211567
2242.000000	99.941800
2241.000000	99.886803
2240.000000	100.028240
2239.000000	99.923457
2238.000000	100.009402
2237.000000	99.978265
2236.000000	99.956412
2235.000000	99.945676
2234.000000	99.989683
2233.000000	100.070686
2232.000000	99.885224
2231.000000	99.728618
2230.000000	99.681748
2229.000000	99.781025
2228.000000	100.014747
2227.000000	99.988479
2226.000000	99.903663
2225.000000	99.975228
2224.000000	100.013246
2223.000000	100.065268
2222.000000	100.091178
2221.000000	100.047614
2220.000000	100.055267
2219.000000	99.972005
2218.000000	99.933783
2217.000000	99.875008
2216.000000	100.012331
2215.000000	100.076716
2214.000000	100.043361
2213.000000	100.078556
2212.000000	99.970792
2211.000000	99.951085
2210.000000	100.021750
2209.000000	99.969765
2208.000000	99.955307
2207.000000	100.056135
2206.000000	100.064926
2205.000000	100.021633
2204.000000	100.049950
2203.000000	100.070277
2202.000000	100.163417
2201.000000	100.161751
2200.000000	100.083470
2199.000000	100.034849
2198.000000	100.067165
2197.000000	99.960114
2196.000000	100.111940
2195.000000	100.083496
2194.000000	99.790851
2193.000000	99.930830
2192.000000	100.121093
2191.000000	100.166872
2190.000000	100.030412
2189.000000	99.960552
2188.000000	99.961289
2187.000000	99.954009
2186.000000	99.969851
2185.000000	100.196373
2184.000000	100.112165
2183.000000	100.137590
2182.000000	99.780992
2181.000000	100.035606
2180.000000	100.099600
2179.000000	99.873138
2178.000000	99.817365
2177.000000	99.956311
2176.000000	100.031781
2175.000000	100.030960
2174.000000	100.067290
2173.000000	99.811415
2172.000000	99.849850
2171.000000	99.929916
2170.000000	99.875194
2169.000000	100.066993
2168.000000	100.166422
2167.000000	99.793649
2166.000000	100.058207
2165.000000	100.109441
2164.000000	99.807798
2163.000000	100.130035
2162.000000	99.941583
2161.000000	100.068453
2160.000000	100.121024
2159.000000	100.044364
2158.000000	100.013781
2157.000000	99.839539
2156.000000	99.844406
2155.000000	99.765251
2154.000000	100.031390
2153.000000	100.066632
2152.000000	99.913331
2151.000000	100.064130
2150.000000	100.154676
2149.000000	100.028976
2148.000000	100.003217
2147.000000	100.137876
2146.000000	99.985825
2145.000000	100.039831
2144.000000	100.020840
2143.000000	100.110395
2142.000000	99.737634
2141.000000	99.722964
2140.000000	99.958777
2139.000000	100.240200
2138.000000	100.105262
2137.000000	99.816437
2136.000000	100.124426
2135.000000	100.124648
2134.000000	99.967015
2133.000000	100.074813
2132.000000	100.032854
2131.000000	99.921243
2130.000000	100.085358
2129.000000	100.003118
2128.000000	99.890903
2127.000000	99.975639
2126.000000	99.878388
2125.000000	100.038744
2124.000000	100.097793
2123.000000	100.021543
2122.000000	99.804261
2121.000000	99.954424
2120.000000	99.919065
2119.000000	99.798375
2118.000000	99.704132
2117.000000	99.914364
2116.000000	100.048555
2115.000000	100.271316
2114.000000	100.061460
2113.000000	100.052180
2112.000000	100.259044
2111.000000	99.964942
2110.000000	99.978751
2109.000000	100.116682
2108.000000	100.022473
2107.000000	99.957464
2106.000000	100.112796
2105.000000	100.030250
2104.000000	99.853509
2103.000000	99.938766
2102.000000	100.008970
2101.000000	100.149793
2100.000000	100.177420
2099.000000	99.977834
2098.000000	99.975621
2097.000000	100.132725
2096.000000	100.026026
2095.000000	100.065689
2094.000000	100.102773
2093.000000	99.955722
2092.000000	99.903249
2091.000000	100.046799
2090.000000	100.024815
2089.000000	99.980529
2088.000000	99.947279
2087.000000	99.822153
2086.000000	100.010794
2085.000000	100.144857
2084.000000	99.894131
2083.000000	99.933214
2082.000000	99.991827
2081.000000	100.005249
2080.000000	100.072304
2079.000000	100.021410
2078.000000	100.052744
2077.000000	99.975977
2076.000000	100.025647
2075.000000	100.024021
2074.000000	99.991725
2073.000000	99.987791
2072.000000	99.973662
2071.000000	100.004745
2070.000000	99.986774
2069.000000	99.863289
2068.000000	99.963959
2067.000000	100.144288
2066.000000	99.989191
2065.000000	99.904547
2064.000000	99.996667
2063.000000	100.001212
2062.000000	99.968595
2061.000000	99.997374
2060.000000	99.937390
2059.000000	99.895711
2058.000000	99.991317
2057.000000	100.027070
2056.000000	100.007476
2055.000000	100.074500
2054.000000	99.956453
2053.000000	99.963020
2052.000000	99.952100
2051.000000	99.917873
2050.000000	100.023750
2049.000000	100.072885
2048.000000	100.037090
2047.000000	100.019912
2046.000000	100.002628
2045.000000	100.034560
2044.000000	100.022337
2043.000000	100.062675
2042.000000	100.020011
2041.000000	100.004145
2040.000000	100.015571
2039.000000	100.003740
2038.000000	100.023657
2037.000000	99.998079
2036.000000	100.044811
2035.000000	100.075477
2034.000000	100.085625
2033.000000	100.047759
2032.000000	99.983513
2031.000000	99.974101
2030.000000	99.980578
2029.000000	100.031164
2028.000000	100.055755
2027.000000	100.039358
2026.000000	100.000000
2025.000000	99.983308
2024.000000	99.985526
2023.000000	100.050008
2022.000000	100.005567
2021.000000	100.018930
2020.000000	100.096908
2019.000000	100.033812
2018.000000	100.008199
2017.000000	100.022978
2016.000000	99.988462
2015.000000	99.964486
2014.000000	99.986239
2013.000000	99.992816
2012.000000	100.017106
2011.000000	100.020453
2010.000000	99.996153
2009.000000	99.980264
2008.000000	100.021569
2007.000000	100.002025
2006.000000	99.989573
2005.000000	100.046396
2004.000000	100.089781
2003.000000	100.036978
2002.000000	100.054819
2001.000000	100.038904
2000.000000	99.965769
1999.000000	99.969920
1998.000000	99.958685
1997.000000	99.976604
1996.000000	99.967792
1995.000000	99.978722
1994.000000	100.011552
1993.000000	100.051598
1992.000000	100.016520
1991.000000	100.018648
1990.000000	100.026759
1989.000000	100.060121
1988.000000	100.032844
1987.000000	100.031534
1986.000000	99.985707
1985.000000	99.933003
1984.000000	99.977393
1983.000000	99.943655
1982.000000	100.000000
1981.000000	100.015209
1980.000000	99.982872
1979.000000	99.964430
1978.000000	100.018652
1977.000000	99.997567
1976.000000	100.007198
1975.000000	100.049989
1974.000000	99.994424
1973.000000	99.993005
1972.000000	100.028698
1971.000000	100.000101
1970.000000	99.990067
1969.000000	99.981856
1968.000000	99.992499
1967.000000	99.992196
1966.000000	100.049476
1965.000000	100.013176
1964.000000	99.999088
1963.000000	100.001622
1962.000000	99.986418
1961.000000	100.010645
1960.000000	100.048865
1959.000000	100.007601
1958.000000	100.046425
1957.000000	99.999189
1956.000000	100.028991
1955.000000	100.016619
1954.000000	99.999189
1953.000000	99.988246
1952.000000	100.028774
1951.000000	100.013877
1950.000000	99.994530
1949.000000	100.012763
1948.000000	100.029177
1947.000000	99.929020
1946.000000	99.953228
1945.000000	100.090651
1944.000000	100.107355
1943.000000	100.005163
1942.000000	100.052360
1941.000000	99.949720
1940.000000	99.939414
1939.000000	99.982501
1938.000000	99.984526
1937.000000	100.000101
1936.000000	100.075829
1935.000000	99.969661
1934.000000	100.030465
1933.000000	99.971275
1932.000000	99.997573
1931.000000	100.110069
1930.000000	100.025692
1929.000000	100.078104
1928.000000	99.975733
1927.000000	99.995046
1926.000000	99.994135
1925.000000	99.936489
1924.000000	99.916807
1923.000000	99.995653
1922.000000	100.088008
1921.000000	100.074659
1920.000000	99.947729
1919.000000	100.017001
1918.000000	99.957325
1917.000000	99.976539
1916.000000	100.045399
1915.000000	99.962690
1914.000000	100.050474
1913.000000	100.038945
1912.000000	100.053019
1911.000000	99.950838
1910.000000	100.051625
1909.000000	99.922160
1908.000000	100.001113
1907.000000	100.036033
1906.000000	100.106696
1905.000000	100.055339
1904.000000	100.066132
1903.000000	100.024185
1902.000000	100.037255
1901.000000	99.966820
1900.000000	99.983806
1899.000000	99.954175
1898.000000	99.968226
1897.000000	99.974906
1896.000000	99.967331
1895.000000	100.023884
1894.000000	100.011133
1893.000000	100.039175
1892.000000	100.008100
1891.000000	100.017712
1890.000000	100.000202
1889.000000	100.001113
1888.000000	99.952152
1887.000000	99.983711
1886.000000	99.907986
1885.000000	99.986646
1884.000000	99.954925
1883.000000	100.030829
1882.000000	99.966749
1881.000000	100.002830
1880.000000	100.009099
1879.000000	99.957368
1878.000000	100.037083
1877.000000	100.030018
1876.000000	100.020411
1875.000000	100.045165
1874.000000	100.015254
1873.000000	100.000404
1872.000000	100.003534
1871.000000	99.997172
1870.000000	100.017172
1869.000000	100.053649
1868.000000	100.023947
1867.000000	99.985351
1866.000000	99.971112
1865.000000	100.021524
1864.000000	99.999798
1863.000000	100.029207
1862.000000	100.051654
1861.000000	100.056926
1860.000000	100.017894
1859.000000	100.027601
1858.000000	99.984229
1857.000000	99.992924
1856.000000	99.981304
1855.000000	99.965236
1854.000000	99.965235
1853.000000	99.993431
1852.000000	100.005963
1851.000000	99.995856
1850.000000	100.016070
1849.000000	100.017182
1848.000000	100.011519
1847.000000	100.012634
1846.000000	100.060263
1845.000000	100.073098
1844.000000	100.023651
1843.000000	100.000606
1842.000000	100.000909
1841.000000	99.972218
1840.000000	100.006266
1839.000000	99.987366
1838.000000	100.024368
1837.000000	100.028415
1836.000000	99.990700
1835.000000	99.963912
1834.000000	99.970270
1833.000000	99.994033
1832.000000	100.020537
1831.000000	100.035421
1830.000000	100.053237
1829.000000	100.013156
1828.000000	99.999089
1827.000000	100.014881
1826.000000	100.008301
1825.000000	100.006984
1824.000000	99.996153
1823.000000	100.001620
1822.000000	100.008507
1821.000000	100.014585
1820.000000	99.980355
1819.000000	99.982275
1818.000000	100.012564
1817.000000	99.996453
1816.000000	99.987132
1815.000000	100.000811
1814.000000	99.974766
1813.000000	99.953491
1812.000000	99.954803
1811.000000	99.984897
1810.000000	99.993918
1809.000000	99.983682
1808.000000	100.037112
1807.000000	100.039954
1806.000000	100.007402
1805.000000	99.996451
1804.000000	100.007808
1803.000000	100.020081
1802.000000	100.025664
1801.000000	100.024854
1800.000000	100.018359
1799.000000	100.015112
1798.000000	100.000406
1797.000000	100.000913
1796.000000	100.008115
1795.000000	99.981846
1794.000000	99.984076
1793.000000	100.001927
1792.000000	99.980120
1791.000000	100.002638
1790.000000	100.002536
1789.000000	99.981233
1788.000000	99.988029
1787.000000	99.991072
1786.000000	99.991782
1785.000000	100.016539
1784.000000	99.990768
1783.000000	99.993305
1782.000000	99.992595
1781.000000	100.006390
1780.000000	99.996348
1779.000000	100.000609
1778.000000	100.026992
1777.000000	99.998377
1776.000000	99.985596
1775.000000	99.989246
1774.000000	100.005884
1773.000000	100.031350
1772.000000	100.010655
1771.000000	100.008828
1770.000000	100.014205
1769.000000	100.016537
1768.000000	99.977685
1767.000000	99.977683
1766.000000	100.002739
1765.000000	100.000609
1764.000000	99.980727
1763.000000	99.989856
1762.000000	99.998681
1761.000000	99.986203
1760.000000	99.970789
1759.000000	99.996145
1758.000000	100.025871
1757.000000	99.986610
1756.000000	99.997971
1755.000000	100.031656
1754.000000	100.011768
1753.000000	100.002840
1752.000000	99.972818
1751.000000	99.994523
1750.000000	100.017955
1749.000000	99.985088
1748.000000	99.962982
1747.000000	99.996957
1746.000000	100.024751
1745.000000	99.985195
1744.000000	99.988540
1743.000000	99.998073
1742.000000	100.014100
1741.000000	99.984687
1740.000000	99.986108
1739.000000	100.000304
1738.000000	99.975565
1737.000000	99.982053
1736.000000	99.966444
1735.000000	100.009329
1734.000000	100.030220
1733.000000	100.001014
1732.000000	99.979921
1731.000000	99.974041
1730.000000	99.996349
1729.000000	99.997262
1728.000000	100.009333
1727.000000	100.027089
1726.000000	100.009938
1725.000000	100.006796
1724.000000	100.000609
1723.000000	99.996754
1722.000000	100.012679
1721.000000	100.004259
1720.000000	99.996450
1719.000000	99.992495
1718.000000	100.047873
1717.000000	99.997363
1716.000000	100.015516
1715.000000	100.030830
1714.000000	100.034887
1713.000000	99.981547
1712.000000	99.972119
1711.000000	99.969480
1710.000000	100.018255
1709.000000	100.000406
1708.000000	99.978914
1707.000000	99.979012
1706.000000	99.986009
1705.000000	100.012372
1704.000000	99.993917
1703.000000	99.980230
1702.000000	100.056500
1701.000000	99.973739
1700.000000	100.012474
1699.000000	100.019165
1698.000000	100.006794
1697.000000	100.003549
1696.000000	100.003347
1695.000000	100.003042
1694.000000	100.003650
1693.000000	100.019672
1692.000000	99.969991
1691.000000	100.005780
1690.000000	99.994829
1689.000000	100.016024
1688.000000	100.023226
1687.000000	99.993409
1686.000000	99.982763
1685.000000	99.995337
1684.000000	99.969483
1683.000000	99.968272
1682.000000	100.012065
1681.000000	100.005375
1680.000000	99.971207
1679.000000	99.984591
1678.000000	100.005374
1677.000000	99.980537
1676.000000	99.992194
1675.000000	100.004360
1674.000000	100.031039
1673.000000	99.983474
1672.000000	99.974145
1671.000000	99.988745
1670.000000	99.986820
1669.000000	99.991892
1668.000000	99.995338
1667.000000	99.996453
1666.000000	99.985710
1665.000000	100.025438
1664.000000	99.990068
1663.000000	99.993819
1662.000000	100.029494
1661.000000	100.005777
1660.000000	99.995440
1659.000000	100.009425
1658.000000	100.032534
1657.000000	100.008208
1656.000000	99.983282
1655.000000	100.007601
1654.000000	100.014897
1653.000000	100.018646
1652.000000	100.018139
1651.000000	100.008411
1650.000000	100.039121
1649.000000	99.981557
1648.000000	99.977508
1647.000000	100.009424
1646.000000	99.987942
1645.000000	99.957246
1644.000000	100.010945
1643.000000	100.000912
1642.000000	100.011452
1641.000000	100.003445
1640.000000	99.989868
1639.000000	100.008207
1638.000000	99.993718
1637.000000	100.014389
1636.000000	99.998379
1635.000000	100.001824
1634.000000	99.991793
1633.000000	100.027262
1632.000000	100.023005
1631.000000	99.995339
1630.000000	99.973859
1629.000000	99.985915
1628.000000	99.983888
1627.000000	99.980649
1626.000000	100.002837
1625.000000	99.998987
1624.000000	100.007600
1623.000000	100.008310
1622.000000	100.002533
1621.000000	100.002027
1620.000000	100.016113
1619.000000	100.009931
1618.000000	100.001216
1617.000000	100.005066
1616.000000	99.995846
1615.000000	99.986727
1614.000000	99.982572
1613.000000	99.997568
1612.000000	99.997568
1611.000000	99.998176
1610.000000	99.995947
1609.000000	100.001722
1608.000000	100.004559
1607.000000	100.006687
1606.000000	100.009018
1605.000000	100.006789
1604.000000	100.009524
1603.000000	100.014997
1602.000000	100.013680
1601.000000	100.003344
1600.000000	99.994529
1599.000000	99.992199
1598.000000	99.991592
1597.000000	100.000709
1596.000000	99.999899
1595.000000	99.995035
1594.000000	99.993820
1593.000000	99.993819
1592.000000	100.010031
1591.000000	100.009726
1590.000000	100.008004
1589.000000	100.001418
1588.000000	99.981258
1587.000000	99.983486
1586.000000	100.000608
1585.000000	100.008512
1584.000000	99.998480
1583.000000	99.992097
1582.000000	99.998075
1581.000000	100.000709
1580.000000	99.995543
1579.000000	99.991998
1578.000000	99.998379
1577.000000	100.004154
1576.000000	100.001519
1575.000000	100.012563
1574.000000	100.010232
1573.000000	100.003444
1572.000000	99.996353
1571.000000	99.987743
1570.000000	99.979235
1569.000000	99.999493
1568.000000	100.003242
1567.000000	99.995644
1566.000000	100.001216
1565.000000	100.007293
1564.000000	99.991999
1563.000000	99.995037
1562.000000	100.003849
1561.000000	100.000101
1560.000000	99.993315
1559.000000	99.997974
1558.000000	100.000304
1557.000000	100.013168
1556.000000	100.025932
1555.000000	100.022690
1554.000000	100.003545
1553.000000	99.998481
1552.000000	99.992608
1551.000000	99.985925
1550.000000	99.990887
1549.000000	99.987545
1548.000000	99.981875
1547.000000	99.982482
1546.000000	100.021168
1545.000000	100.009823
1544.000000	100.004557
1543.000000	100.008101
1542.000000	100.008608
1541.000000	100.009722
1540.000000	99.999696
1539.000000	100.017417
1538.000000	100.004557
1537.000000	99.987142
1536.000000	99.978131
1535.000000	99.980662
1534.000000	100.008000
1533.000000	100.000608
1532.000000	100.000912
1531.000000	100.001722
1530.000000	100.010939
1529.000000	100.010432
1528.000000	99.997265
1527.000000	100.010027
1526.000000	100.014182
1525.000000	100.014281
1524.000000	99.994734
1523.000000	99.998380
1522.000000	100.001418
1521.000000	99.990074
1520.000000	99.985619
1519.000000	100.005368
1518.000000	100.014992
1517.000000	99.990580
1516.000000	100.006685
1515.000000	99.993518
1514.000000	100.005875
1513.000000	100.002431
1512.000000	99.998480
1511.000000	99.992910
1510.000000	100.016714
1509.000000	99.981160
1508.000000	99.984907
1507.000000	100.001925
1506.000000	99.995340
1505.000000	99.986529
1504.000000	99.985617
1503.000000	99.987643
1502.000000	100.011652
1501.000000	100.001216
1500.000000	99.981161
1499.000000	99.989567
1498.000000	100.010534
1497.000000	100.010028
1496.000000	99.998481
1495.000000	100.012967
1494.000000	100.019552
1493.000000	100.008205
1492.000000	100.021979
1491.000000	100.010736
1490.000000	100.018232
1489.000000	99.992708
1488.000000	99.988150
1487.000000	100.010129
1486.000000	99.996151
1485.000000	100.000000
1484.000000	100.024204
1483.000000	100.011949
1482.000000	99.991495
1481.000000	99.971248
1480.000000	99.991395
1479.000000	99.970542
1478.000000	100.007695
1477.000000	99.984007
1476.000000	99.989169
1475.000000	99.976718
1474.000000	100.004454
1473.000000	100.012757
1472.000000	99.988763
1471.000000	100.006885
1470.000000	100.028450
1469.000000	100.009617
1468.000000	100.010631
1467.000000	99.999899
1466.000000	100.003949
1465.000000	100.006783
1464.000000	99.983906
1463.000000	99.990688
1462.000000	99.987247
1461.000000	100.005772
1460.000000	100.011034
1459.000000	100.019741
1458.000000	99.991396
1457.000000	99.990586
1456.000000	99.985524
1455.000000	99.984616
1454.000000	99.982491
1453.000000	100.008198
1452.000000	99.982086
1451.000000	100.007187
1450.000000	100.009211
1449.000000	100.017509
1448.000000	100.008198
1447.000000	99.995649
1446.000000	100.004251
1445.000000	100.022980
1444.000000	99.998178
1443.000000	100.001619
1442.000000	100.033710
1441.000000	100.014474
1440.000000	99.997773
1439.000000	99.987250
1438.000000	99.998583
1437.000000	99.989981
1436.000000	100.012650
1435.000000	99.991095
1434.000000	100.018419
1433.000000	100.006376
1432.000000	99.980166
1431.000000	100.003744
1430.000000	99.991803
1429.000000	99.993524
1428.000000	99.979865
1427.000000	99.983509
1426.000000	100.014267
1425.000000	100.028229
1424.000000	100.014264
1423.000000	100.008596
1422.000000	100.010214
1421.000000	99.997169
1420.000000	100.001820
1419.000000	99.992519
1418.000000	99.998989
1417.000000	99.998989
1416.000000	100.006366
1415.000000	100.002829
1414.000000	100.005152
1413.000000	100.008789
1412.000000	100.018486
1411.000000	99.998788
1410.000000	99.992023
1409.000000	100.009290
1408.000000	100.021709
1407.000000	100.014841
1406.000000	100.004037
1405.000000	100.005046
1404.000000	100.000404
1403.000000	99.987388
1402.000000	99.990112
1401.000000	100.004843
1400.000000	100.007869
1399.000000	100.017857
1398.000000	100.001614
1397.000000	99.994958
1396.000000	99.995563
1395.000000	99.995664
1394.000000	100.010991
1393.000000	100.007864
1392.000000	99.991230
1391.000000	100.000706
1390.000000	99.989114
1389.000000	99.996875
1388.000000	100.004335
1387.000000	99.986998
1386.000000	99.987502
1385.000000	99.987301
1384.000000	100.005443
1383.000000	100.001512
1382.000000	99.976214
1381.000000	99.997178
1380.000000	100.000202
1379.000000	100.006452
1378.000000	100.012299
1377.000000	100.006049
1376.000000	100.005041
1375.000000	99.996775
1374.000000	99.999899
1373.000000	100.004737
1372.000000	100.004637
1371.000000	100.009476
1370.000000	99.985687
1369.000000	99.994759
1368.000000	100.004535
1367.000000	99.998690
1366.000000	100.016529
1365.000000	100.009674
1364.000000	100.001108
1363.000000	100.003023
1362.000000	100.008667
1361.000000	100.002923
1360.000000	99.991735
1359.000000	100.014520
1358.000000	99.990520
1357.000000	99.958348
1356.000000	99.990013
1355.000000	99.997579
1354.000000	100.020488
1353.000000	100.005653
1352.000000	99.995759
1351.000000	100.009898
1350.000000	100.000303
1349.000000	99.981820
1348.000000	100.002829
1347.000000	100.020105
1346.000000	100.018796
1345.000000	100.015056
1344.000000	100.009497
1343.000000	100.000909
1342.000000	99.997878
1341.000000	100.012530
1340.000000	100.011822
1339.000000	99.999697
1338.000000	100.007678
1337.000000	100.009295
1336.000000	99.979995
1335.000000	100.000606
1334.000000	100.017175
1333.000000	100.009495
1332.000000	100.008586
1331.000000	99.996970
1330.000000	100.017173
1329.000000	100.002020
1328.000000	100.004545
1327.000000	100.002424
1326.000000	99.986767
1325.000000	100.012324
1324.000000	100.004545
1323.000000	99.999394
1322.000000	99.993838
1321.000000	99.976461
1320.000000	99.954959
1319.000000	99.983032
1318.000000	99.995152
1317.000000	100.018688
1316.000000	100.021218
1315.000000	99.990300
1314.000000	99.981818
1313.000000	100.002222
1312.000000	100.007374
1311.000000	100.026068
1310.000000	99.983733
1309.000000	99.955142
1308.000000	99.967569
1307.000000	100.000808
1306.000000	99.989493
1305.000000	99.986864
1304.000000	99.989088
1303.000000	100.012834
1302.000000	100.025569
1301.000000	100.018196
1300.000000	99.980191
1299.000000	100.002931
1298.000000	99.999798
1297.000000	100.001516
1296.000000	100.007378
1295.000000	99.980093
1294.000000	99.984843
1293.000000	99.985549
1292.000000	100.003436
1291.000000	99.996363
1290.000000	100.010207
1289.000000	100.011519
1288.000000	100.018893
1287.000000	99.988686
1286.000000	99.976367
1285.000000	100.019798
1284.000000	99.982730
1283.000000	100.024647
1282.000000	100.005454
1281.000000	100.007878
1280.000000	100.004342
1279.000000	99.996466
1278.000000	99.987785
1277.000000	100.016356
1276.000000	100.010196
1275.000000	100.005956
1274.000000	100.001918
1273.000000	99.992129
1272.000000	100.001413
1271.000000	99.999596
1270.000000	99.999596
1269.000000	100.021601
1268.000000	99.969825
1267.000000	100.005854
1266.000000	100.027351
1265.000000	99.970245
1264.000000	99.986180
1263.000000	99.990114
1262.000000	100.015746
1261.000000	100.015134
1260.000000	99.999395
1259.000000	99.992635
1258.000000	100.014124
1257.000000	99.984567
1256.000000	99.999899
1255.000000	100.006964
1254.000000	99.997478
1253.000000	100.023617
1252.000000	99.997579
1251.000000	100.000000
1250.000000	100.004036
1249.000000	100.004036
1248.000000	99.984264
1247.000000	99.988398
1246.000000	99.994249
1245.000000	99.983962
1244.000000	100.008171
1243.000000	99.995158
1242.000000	100.007263
1241.000000	100.002824
1240.000000	100.009078
1239.000000	100.004639
1238.000000	99.997580
1237.000000	99.989111
1236.000000	100.013309
1235.000000	100.015930
1234.000000	99.992339
1233.000000	100.005442
1232.000000	99.995364
1231.000000	100.003023
1230.000000	99.996070
1229.000000	100.013098
1228.000000	99.994258
1227.000000	100.001310
1226.000000	99.986100
1225.000000	99.997784
1224.000000	99.992145
1223.000000	100.005135
1222.000000	100.033031
1221.000000	99.991242
1220.000000	99.988125
1219.000000	100.010567
1218.000000	100.007750
1217.000000	100.008556
1216.000000	100.015600
1215.000000	100.020126
1214.000000	99.999195
1213.000000	100.008048
1212.000000	100.004629
1211.000000	100.004728
1210.000000	100.007846
1209.000000	100.021229
1208.000000	99.988532
1207.000000	99.998189
1206.000000	99.967810
1205.000000	100.013080
1204.000000	99.994367
1203.000000	99.992758
1202.000000	100.006138
1201.000000	100.004325
1200.000000	99.993865
1199.000000	99.996278
1198.000000	100.016297
1197.000000	100.013483
1196.000000	100.007947
1195.000000	99.981695
1194.000000	99.990344
1193.000000	99.992155
1192.000000	99.987327
1191.000000	100.007946
1190.000000	100.003320
1189.000000	99.992756
1188.000000	100.001609
1187.000000	99.995072
1186.000000	99.994067
1185.000000	100.001810
1184.000000	99.981800
1183.000000	99.986527
1182.000000	100.011664
1181.000000	100.011864
1180.000000	100.001608
1179.000000	100.007942
1178.000000	99.997186
1177.000000	99.993769
1176.000000	99.998894
1175.000000	99.993167
1174.000000	99.989551
1173.000000	100.007033
1172.000000	100.018185
1171.000000	100.014266
1170.000000	99.989553
1169.000000	99.990558
1168.000000	99.994476
1167.000000	99.995782
1166.000000	100.005825
1165.000000	100.007732
1164.000000	99.994779
1163.000000	99.987051
1162.000000	99.976614
1161.000000	99.981433
1160.000000	99.987757
1159.000000	99.997592
1158.000000	99.995685
1157.000000	99.998094
1156.000000	100.018058
1155.000000	100.020765
1154.000000	100.002307
1153.000000	99.989974
1152.000000	100.005715
1151.000000	100.005013
1150.000000	100.000301
1149.000000	99.993886
1148.000000	99.993687
1147.000000	99.989579
1146.000000	99.975154
1145.000000	99.978465
1144.000000	99.991787
1143.000000	99.993289
1142.000000	99.975267
1141.000000	99.982779
1140.000000	100.008811
1139.000000	100.001301
1138.000000	99.995796
1137.000000	99.995096
1136.000000	99.993096
1135.000000	99.980492
1134.000000	99.977991
1133.000000	100.004302
1132.000000	100.021907
1131.000000	100.001400
1130.000000	99.990401
1129.000000	99.995801
1128.000000	99.983904
1127.000000	99.987705
1126.000000	99.996602
1125.000000	100.005897
1124.000000	100.010093
1123.000000	100.016786
1122.000000	99.992008
1121.000000	99.986216
1120.000000	99.992809
1119.000000	100.013184
1118.000000	100.019476
1117.000000	100.007090
1116.000000	100.003495
1115.000000	99.995707
1114.000000	99.989319
1113.000000	100.009583
1112.000000	100.006787
1111.000000	99.990619
1110.000000	100.004990
1109.000000	100.015070
1108.000000	100.007384
1107.000000	100.011573
1106.000000	100.011372
1105.000000	100.009376
1104.000000	100.008377
1103.000000	99.999103
1102.000000	100.005382
1101.000000	100.012758
1100.000000	100.009467
1099.000000	100.014448
1098.000000	100.016339
1097.000000	100.000498
1096.000000	100.015339
1095.000000	99.998307
1094.000000	99.994027
1093.000000	100.002389
1092.000000	99.996218
1091.000000	100.009055
1090.000000	100.004179
1089.000000	100.012238
1088.000000	100.020889
1087.000000	100.007458
1086.000000	100.026051
1085.000000	100.008549
1084.000000	100.004572
1083.000000	99.981914
1082.000000	100.003875
1081.000000	100.009935
1080.000000	100.006754
1079.000000	99.999603
1078.000000	99.996823
1077.000000	100.024820
1076.000000	100.005657
1075.000000	100.013794
1074.000000	100.001984
1073.000000	100.021923
1072.000000	100.006546
1071.000000	100.009818
1070.000000	100.014178
1069.000000	100.011301
1068.000000	99.999703
1067.000000	99.984248
1066.000000	99.995939
1065.000000	100.004357
1064.000000	100.006535
1063.000000	100.018116
1062.000000	99.990103
1061.000000	100.005541
1060.000000	99.998813
1059.000000	99.981407
1058.000000	99.990408
1057.000000	99.998715
1056.000000	100.004843
1055.000000	99.997035
1054.000000	99.991109
1053.000000	100.002766
1052.000000	100.003457
1051.000000	99.981244
1050.000000	100.011253
1049.000000	100.010856
1048.000000	99.991122
1047.000000	99.987375
1046.000000	100.007396
1045.000000	100.004141
1044.000000	99.971815
1043.000000	99.986603
1042.000000	100.020296
1041.000000	99.992712
1040.000000	100.023143
1039.000000	100.045682
1038.000000	99.990652
1037.000000	100.015646
1036.000000	100.015051
1035.000000	100.001868
1034.000000	100.007865
1033.000000	100.025755
1032.000000	100.000590
1031.000000	99.996071
1030.000000	100.031627
1029.000000	99.994601
1028.000000	99.989989
1027.000000	99.994015
1026.000000	100.001864
1025.000000	100.034030
1024.000000	100.005098
1023.000000	100.005095
1022.000000	99.999804
1021.000000	99.974837
1020.000000	99.978953
1019.000000	99.996868
1018.000000	100.016241
1017.000000	99.996675
1016.000000	99.979078
1015.000000	100.001662
1014.000000	100.015342
1013.000000	99.993065
1012.000000	99.997949
1011.000000	100.010054
1010.000000	100.011026
1009.000000	100.001171
1008.000000	100.007801
1007.000000	99.995613
1006.000000	100.022801
1005.000000	100.019385
1004.000000	100.006329
1003.000000	100.002141
1002.000000	100.002140
1001.000000	100.006127
1000.000000	100.019057
999.000000	100.018757
998.000000	100.000680
997.000000	100.022434
996.000000	99.982916
995.000000	100.006307
994.000000	100.010281
993.000000	99.988755
992.000000	100.002423
991.000000	100.010075
990.000000	100.000775
989.000000	99.989354
988.000000	99.987811
987.000000	99.991200
986.000000	100.000580
985.000000	100.001740
984.000000	100.012851
983.000000	100.031001
982.000000	100.009266
981.000000	100.011578
980.000000	100.025558
979.000000	100.006169
978.000000	99.991232
977.000000	99.988924
976.000000	99.995957
975.000000	99.993264
974.000000	100.002597
973.000000	100.002788
972.000000	100.006630
971.000000	100.005667
970.000000	100.014496
969.000000	100.015066
968.000000	100.027915
967.000000	99.998466
966.000000	99.970877
965.000000	99.994445
964.000000	99.994544
963.000000	99.996077
962.000000	100.005930
961.000000	100.003441
960.000000	99.991116
959.000000	99.991598
958.000000	100.003817
957.000000	100.005435
956.000000	100.008103
955.000000	100.010577
954.000000	99.994192
953.000000	99.981923
952.000000	99.993058
951.000000	100.009505
950.000000	100.010164
949.000000	100.009306
948.000000	100.014900
947.000000	99.999052
946.000000	100.010426
945.000000	100.016480
944.000000	99.979559
943.000000	99.993001
942.000000	100.018624
941.000000	100.024282
940.000000	100.020678
939.000000	100.039066
938.000000	100.034132
937.000000	100.000094
936.000000	99.991244
935.000000	99.960775
934.000000	99.981948
933.000000	100.019266
932.000000	99.991456
931.000000	99.985927
930.000000	100.011816
929.000000	100.017994
928.000000	99.993633
927.000000	99.997754
926.000000	100.008604
925.000000	99.991124
924.000000	99.979275
923.000000	99.990205
922.000000	99.989000
921.000000	100.001025
920.000000	100.031001
919.000000	100.015253
918.000000	100.012361
917.000000	100.021732
916.000000	99.986177
915.000000	100.023823
914.000000	100.009541
913.000000	100.016476
912.000000	100.008507
911.000000	99.973859
910.000000	99.963730
909.000000	99.947533
908.000000	99.998433
907.000000	100.008749
906.000000	100.000552
905.000000	99.990622
904.000000	99.982091
903.000000	99.970639
902.000000	99.992939
901.000000	99.966294
900.000000	99.988286
899.000000	100.021127
898.000000	100.015716
897.000000	100.048476
896.000000	100.055809
895.000000	100.011202
894.000000	99.954505
893.000000	99.969450
892.000000	99.916829
891.000000	99.974037
890.000000	100.010432
889.000000	99.984233
888.000000	100.020107
887.000000	99.956212
886.000000	99.958528
885.000000	100.033510
884.000000	100.048913
883.000000	99.999279
882.000000	100.083686
881.000000	100.112177
880.000000	100.028134
879.000000	100.029982
878.000000	100.029690
877.000000	99.909824
876.000000	99.959193
875.000000	100.022634
874.000000	99.944701
873.000000	99.976522
872.000000	99.883125
871.000000	99.961427
870.000000	99.898291
869.000000	100.025439
868.000000	99.977866
867.000000	99.962796
866.000000	99.939096
865.000000	100.092098
864.000000	99.944029
863.000000	99.866893
862.000000	99.905358
861.000000	99.912106
860.000000	100.015189
859.000000	99.390309
858.000000	99.783667
857.000000	100.213634
856.000000	100.265993
855.000000	99.924385
854.000000	100.033250
853.000000	100.107762
852.000000	99.854078
851.000000	100.642562
850.000000	100.251970
849.000000	100.581086
848.000000	100.046550
847.000000	100.313088
846.000000	100.015694
845.000000	99.931728
844.000000	99.830777
843.000000	100.021779
842.000000	99.731342
841.000000	99.933330
840.000000	99.987518
839.000000	100.229619
838.000000	99.901335
837.000000	99.834410
836.000000	99.915697
835.000000	99.989740
834.000000	99.808956
833.000000	99.621447
832.000000	99.846146
831.000000	100.004734
830.000000	99.925408
829.000000	100.086769
828.000000	99.981882
827.000000	99.983530
826.000000	99.970529
825.000000	99.899281
824.000000	99.884043
823.000000	99.941369
822.000000	99.938266
821.000000	100.139823
820.000000	99.903729
819.000000	99.889391
818.000000	99.935202
817.000000	100.131346
816.000000	100.249058
815.000000	100.130504
814.000000	100.031161
813.000000	99.855887
812.000000	100.016371
811.000000	100.015500
810.000000	99.996149
809.000000	100.033254
808.000000	99.927537
807.000000	100.209272
806.000000	99.968884
805.000000	100.095992
804.000000	99.884508
803.000000	99.989296
802.000000	99.968330
801.000000	99.918491
800.000000	99.751904
799.000000	100.058215
798.000000	99.920467
797.000000	100.063458
796.000000	100.071758
795.000000	99.805417
794.000000	99.903939
793.000000	99.900664
792.000000	99.896238
791.000000	99.937207
790.000000	99.796615
789.000000	100.094247
788.000000	99.855681
787.000000	99.867107
786.000000	99.941905
785.000000	99.993105
784.000000	99.906965
783.000000	99.988153
782.000000	99.904697
781.000000	100.070503
780.000000	99.987159
779.000000	100.030579
778.000000	99.936842
777.000000	99.863861
776.000000	99.887551
775.000000	99.943534
774.000000	99.965920
773.000000	100.014390
772.000000	100.008890
771.000000	99.983373
770.000000	100.050647
769.000000	99.965901
768.000000	100.135396
767.000000	99.907334
766.000000	100.038115
765.000000	100.003390
764.000000	99.837450
763.000000	99.847015
762.000000	100.024830
761.000000	99.935318
760.000000	99.967902
759.000000	100.134343
758.000000	99.952760
757.000000	99.997403
756.000000	100.036920
755.000000	100.039437
754.000000	99.981176
753.000000	99.970141
752.000000	99.922439
751.000000	99.936274
750.000000	99.970364
749.000000	100.061989
748.000000	99.994158
747.000000	99.979046
746.000000	99.848279
745.000000	99.827113
744.000000	99.880013
743.000000	99.897716
742.000000	99.951251
741.000000	99.969276
740.000000	100.014069
739.000000	100.064780
738.000000	99.974748
737.000000	99.967244
736.000000	100.058895
735.000000	100.049966
734.000000	99.990061
733.000000	100.019980
732.000000	100.047120
731.000000	99.928452
730.000000	99.887816
729.000000	99.826471
728.000000	99.823917
727.000000	99.859455
726.000000	99.930072
725.000000	99.917192
724.000000	99.946524
723.000000	99.993199
722.000000	99.904653
721.000000	99.974783
720.000000	100.023886
719.000000	100.000817
718.000000	99.970587
717.000000	99.948972
716.000000	99.882624
715.000000	99.928985
714.000000	99.994815
713.000000	99.894310
712.000000	99.909827
711.000000	99.943043
710.000000	99.910084
709.000000	99.945987
708.000000	99.971119
707.000000	99.934117
706.000000	99.941819
705.000000	100.005200
704.000000	99.993703
703.000000	100.052122
702.000000	99.998266
701.000000	99.902521
700.000000	100.027043
699.000000	100.011969
698.000000	99.964465
697.000000	99.995247
696.000000	99.981899
695.000000	99.991587
694.000000	100.016642
693.000000	100.101393
692.000000	99.996979
691.000000	99.926609
690.000000	100.022990
689.000000	100.028478
688.000000	99.983984
687.000000	99.983247
686.000000	99.988097
685.000000	99.922533
684.000000	99.980672
683.000000	100.042868
682.000000	99.936915
681.000000	99.985708
680.000000	99.952092
679.000000	99.968841
678.000000	99.949302
677.000000	99.951593
676.000000	99.990093
675.000000	100.011288
674.000000	99.900094
673.000000	99.953020
672.000000	99.978798
671.000000	99.998622
670.000000	99.961804
669.000000	99.965192
668.000000	99.963887
667.000000	99.985386
666.000000	99.935569
665.000000	99.946693
664.000000	100.026669
663.000000	100.057848
662.000000	99.994114
661.000000	99.939395
660.000000	99.986115
659.000000	100.062094
658.000000	100.029998
657.000000	100.030838
656.000000	100.032316
655.000000	99.994476
654.000000	99.967862
653.000000	99.935357
652.000000	100.006819
651.000000	100.024511
650.000000	99.949133
649.000000	99.952901
648.000000	100.014752
647.000000	100.045188
646.000000	100.028677
645.000000	100.022131
644.000000	99.962091
643.000000	99.943088
642.000000	99.982375
641.000000	100.010154
640.000000	100.044229
639.000000	100.002492
638.000000	99.988552
637.000000	99.975256
636.000000	99.999261
635.000000	99.954679
634.000000	99.947261
633.000000	99.914196
632.000000	99.929063
631.000000	99.912480
630.000000	99.980682
629.000000	100.033654
628.000000	99.945461
627.000000	100.018496
626.000000	100.042541
625.000000	99.969853
624.000000	99.943128
623.000000	100.011287
622.000000	99.909157
621.000000	99.972710
620.000000	99.984645
619.000000	99.915462
618.000000	99.989728
617.000000	99.970577
616.000000	100.005553
615.000000	99.975660
614.000000	99.981856
613.000000	99.961774
612.000000	99.943061
611.000000	100.010845
610.000000	99.999537
609.000000	99.985170
608.000000	99.940974
607.000000	100.031333
606.000000	100.025772
605.000000	100.002873
604.000000	100.012333
603.000000	99.985634
602.000000	99.960965
601.000000	99.961632
600.000000	99.958579
599.000000	99.949119
598.000000	99.908939
597.000000	100.057875
596.000000	99.909597
595.000000	99.945114
594.000000	99.966077
593.000000	100.041280
592.000000	99.962075
591.000000	99.998144
590.000000	99.943886
589.000000	99.969959
588.000000	99.980984
587.000000	99.973931
586.000000	99.868189
585.000000	99.987558
584.000000	100.052804
583.000000	99.944503
582.000000	100.050963
581.000000	100.036287
580.000000	99.992110
579.000000	100.077906
578.000000	99.959436
577.000000	99.955158
576.000000	99.931327
575.000000	99.935896
574.000000	99.979107
573.000000	100.052956
572.000000	99.911124
571.000000	99.908088
570.000000	99.929999
569.000000	100.029823
568.000000	99.990060
567.000000	99.909553
566.000000	99.951418
565.000000	99.929043
564.000000	99.969717
563.000000	99.987087
562.000000	99.888533
561.000000	100.054576
560.000000	100.003626
559.000000	100.038568
558.000000	100.027517
557.000000	99.950850
556.000000	99.967586
555.000000	99.969614
554.000000	100.019148
553.000000	100.029193
552.000000	99.993678
551.000000	100.037748
550.000000	100.016646
549.000000	100.005672
548.000000	99.970792
547.000000	100.066991
546.000000	99.983725
545.000000	99.979447
544.000000	100.041103
543.000000	99.992930
542.000000	99.974139
541.000000	99.996465
540.000000	100.000465
539.000000	99.923737
538.000000	99.985672
537.000000	99.970324
536.000000	100.014705
535.000000	100.077279
534.000000	100.043934
533.000000	100.002978
532.000000	100.005212
531.000000	99.995159
530.000000	100.019829
529.000000	100.028209
528.000000	99.984082
527.000000	99.907129
526.000000	99.983801
525.000000	100.007356
524.000000	100.047028
523.000000	99.976821
522.000000	100.043493
521.000000	100.009129
520.000000	100.040243
519.000000	100.035480
518.000000	100.017979
517.000000	100.040247
516.000000	100.045638
515.000000	100.071821
514.000000	100.045645
513.000000	100.046022
512.000000	100.081436
511.000000	99.989850
510.000000	99.999348
509.000000	100.006517
508.000000	100.057453
507.000000	100.062028
506.000000	99.996834
505.000000	99.983148
504.000000	99.953929
503.000000	99.966495
502.000000	99.908970
501.000000	99.897711
500.000000	99.909245
499.000000	99.936888
498.000000	99.935579
497.000000	99.967043
496.000000	99.949004
495.000000	99.955056
494.000000	99.993482
493.000000	100.032038
492.000000	100.006984
491.000000	100.000279
490.000000	100.036228
489.000000	100.087660
488.000000	100.025894
487.000000	99.997765
486.000000	100.043121
485.000000	99.996369
484.000000	99.952782
483.000000	99.983217
482.000000	99.980426
481.000000	99.999161
480.000000	99.994871
479.000000	100.022295
478.000000	100.042827
477.000000	99.961193
476.000000	100.008867
475.000000	100.047608
474.000000	100.041537
473.000000	100.042576
472.000000	99.981983
471.000000	99.989728
470.000000	100.009248
469.000000	100.022420
468.000000	100.050258
467.000000	100.097818
466.000000	100.061846
465.000000	99.961140
464.000000	99.996636
463.000000	100.008784
462.000000	99.944701
461.000000	99.947403
460.000000	99.986545
459.000000	100.034482
458.000000	100.011212
457.000000	100.003552
456.000000	100.040497
455.000000	100.030563
454.000000	100.066734
453.000000	100.065367
452.000000	100.043584
451.000000	100.049736
450.000000	100.002710
449.000000	100.040036
448.000000	100.076073
447.000000	100.013844
446.000000	99.987087
445.000000	100.016277
444.000000	99.976621
443.000000	99.960617
442.000000	99.904729
441.000000	99.957719
440.000000	99.952174
439.000000	99.965174
438.000000	99.973048
437.000000	100.011229
436.000000	100.054385
435.000000	100.001404
434.000000	100.011518
433.000000	99.960301
432.000000	99.971060
431.000000	100.027344
430.000000	100.060859
429.000000	99.974630
428.000000	99.977706
427.000000	100.016591
426.000000	100.002811
425.000000	100.029411
424.000000	100.032125
423.000000	100.040015
422.000000	100.119975
421.000000	100.041825
420.000000	99.969640
419.000000	100.053070
418.000000	100.106356
417.000000	99.969640
416.000000	99.994186
415.000000	99.884895
414.000000	99.859302
413.000000	99.930515
412.000000	100.044657
411.000000	100.024205
410.000000	100.022520
409.000000	99.981888
408.000000	99.862171
407.000000	99.894867
406.000000	100.049914
405.000000	100.033125
404.000000	100.004601
403.000000	100.068920
402.000000	99.964987
401.000000	99.941264
400.000000	100.009575
399.000000	100.055759
398.000000	99.960564
397.000000	99.931823
396.000000	100.095137
395.000000	99.970509
394.000000	99.997276
393.000000	99.989193
392.000000	100.034018
391.000000	100.071899
390.000000	100.021708
389.000000	100.083617
388.000000	100.040984
387.000000	99.978573
386.000000	100.072409
385.000000	99.937820
384.000000	99.984879
383.000000	100.052795
382.000000	100.060566
381.000000	99.959163
380.000000	100.117782
379.000000	100.073424
378.000000	100.363403
377.000000	100.163076
376.000000	100.137310
375.000000	99.803877
374.000000	100.086991
373.000000	100.076609
372.000000	99.982725
371.000000	99.877700
370.000000	100.064766
369.000000	99.940793
368.000000	99.943850
367.000000	100.105188
366.000000	99.991091
365.000000	99.835130
364.000000	99.793314
363.000000	99.853959
362.000000	100.144359
361.000000	99.755550
360.000000	100.032425
359.000000	100.060740
358.000000	99.975090
357.000000	99.960481
356.000000	99.939871
355.000000	100.026495
354.000000	99.836455
353.000000	100.102714
352.000000	100.016100
351.000000	100.113130
350.000000	99.950329
349.000000	100.042764
348.000000	99.899754
347.000000	99.895131
346.000000	100.078540
345.000000	99.912484
344.000000	99.752884
343.000000	100.160401
342.000000	99.807314
341.000000	99.807809
340.000000	100.048856
339.000000	99.898969
338.000000	99.683052
337.000000	99.964820
336.000000	99.790868
335.000000	100.256953
334.000000	99.802474
333.000000	99.820041
332.000000	99.746915
331.000000	99.827726
330.000000	99.694301
329.000000	99.927285
328.000000	99.720646
327.000000	100.151392
326.000000	100.302139
325.000000	99.525264
324.000000	99.675750
323.000000	100.119763
322.000000	100.169859
321.000000	100.636732
320.000000	99.715282
319.000000	100.287861
318.000000	99.993633
317.000000	100.078329
316.000000	100.245607
315.000000	99.967213
314.000000	99.873006
313.000000	100.037035
312.000000	99.926866
311.000000	99.560361
310.000000	100.122539
309.000000	100.227454
308.000000	100.032109
307.000000	99.872580
306.000000	100.060310
305.000000	99.938447
304.000000	100.318607
303.000000	100.205798
302.000000	99.895394
301.000000	99.784113
300.000000	100.061517
299.000000	100.112527
298.000000	99.704916
297.000000	99.828319
296.000000	100.151786
295.000000	100.127421
294.000000	100.302287
293.000000	99.801368
292.000000	100.048728
291.000000	100.361914
290.000000	99.832853
289.000000	99.834048
288.000000	100.104523
287.000000	100.177957
286.000000	100.088377
285.000000	99.881125
284.000000	99.821205
283.000000	99.697382
282.000000	99.858465
281.000000	100.003329
280.000000	99.772674
279.000000	100.002875
278.000000	99.869302
277.000000	99.870166
276.000000	99.911390
275.000000	99.899030
274.000000	100.132285
273.000000	99.888250
272.000000	99.928244
271.000000	100.276353
270.000000	99.910554
269.000000	99.887825
268.000000	100.044176
267.000000	100.007995
266.000000	99.972664
265.000000	100.092209
264.000000	100.024454
263.000000	100.035084
262.000000	100.013104
261.000000	100.053844
260.000000	100.342600
259.000000	100.087856
258.000000	99.765528
257.000000	100.000978
256.000000	99.973009
255.000000	99.828522
254.000000	99.980523
253.000000	100.062380
252.000000	100.099157
251.000000	100.003695
250.000000	99.880713
249.000000	99.886279
248.000000	99.908188
247.000000	100.070898
246.000000	99.933016
245.000000	99.761497
244.000000	99.729645
243.000000	99.827240
242.000000	100.078836
241.000000	100.136305
240.000000	100.123249
239.000000	100.182429
238.000000	100.169445
237.000000	100.118682
236.000000	100.142924
235.000000	100.193850
234.000000	100.284658
233.000000	100.285750
232.000000	99.865864
231.000000	99.600460
230.000000	99.942618
229.000000	100.080101
228.000000	100.056265
227.000000	99.824706
226.000000	99.852584
225.000000	99.973337
224.000000	99.610107
223.000000	99.757837
222.000000	100.199047
221.000000	99.960274
220.000000	99.959976
219.000000	100.376701
218.000000	100.455331
217.000000	99.946010
216.000000	99.617297
215.000000	99.763786
214.000000	100.142692
213.000000	100.230767
212.000000	99.955462
211.000000	100.338097
210.000000	100.368960
209.000000	100.230113
208.000000	100.281360
207.000000	100.230840
206.000000	100.404647
205.000000	100.546411
204.000000	100.239324
203.000000	99.650724
202.000000	98.938800
201.000000	98.814826
200.000000	99.080449
