PE UV       SUBTECH     SPECTRUM    ASCII       PEDS        4.00        
   -1
RDms1556141.Sample.asc
18/03/15
10:41:44.00
18/03/15
10:41:44.00
Administrator

200.000000
1
Lambda 750
750N8071901
PerkinElmer UV WinLab 6.0.4.0738 / 1.61.00 Lambda 900

0
0
3350/servo 860.8/2
0
0
UV/VIS
1
1
1
CommonBeamDepol,150mm sphere / downward view
0
0
0
0
Program
Program
3350/servo 860.8/2
3350/0.2 860.8/0.2
3350/0.2 860.8/0.2
0
1
 
 
 
0
 
860.8
319.2
860.8
Front
100
on
 
 
0
0
0
 
0
 
 
 
0
 
 
0
0
0
0
0
 
 
 
 
0
0


0
0
#HDR
-1
-1
#GR
nm
%R
1.0
0.0
2350.000000
-1.000000
2151
8
62.971635
8.532111
#DATA
2350.000000	31.281866
2349.000000	30.913114
2348.000000	31.079356
2347.000000	31.452509
2346.000000	31.482974
2345.000000	30.939746
2344.000000	30.845525
2343.000000	30.777371
2342.000000	31.021973
2341.000000	31.389359
2340.000000	31.487014
2339.000000	31.703912
2338.000000	31.807622
2337.000000	31.841092
2336.000000	32.018280
2335.000000	31.920598
2334.000000	31.933329
2333.000000	32.314951
2332.000000	32.300514
2331.000000	32.091319
2330.000000	32.033719
2329.000000	31.755699
2328.000000	31.737321
2327.000000	31.794472
2326.000000	31.680594
2325.000000	31.743723
2324.000000	31.808302
2323.000000	31.686616
2322.000000	31.410345
2321.000000	31.425075
2320.000000	31.493794
2319.000000	31.531624
2318.000000	31.343513
2317.000000	31.357948
2316.000000	31.228327
2315.000000	31.231624
2314.000000	31.391149
2313.000000	30.912496
2312.000000	31.188674
2311.000000	31.167948
2310.000000	31.086842
2309.000000	31.031006
2308.000000	30.938002
2307.000000	30.795926
2306.000000	30.625379
2305.000000	30.694526
2304.000000	30.782317
2303.000000	30.587217
2302.000000	30.653866
2301.000000	30.247281
2300.000000	30.242815
2299.000000	30.250920
2298.000000	30.157254
2297.000000	30.349242
2296.000000	30.309828
2295.000000	30.448316
2294.000000	30.404691
2293.000000	30.214251
2292.000000	30.099330
2291.000000	29.836976
2290.000000	30.028055
2289.000000	30.171977
2288.000000	30.119198
2287.000000	30.030974
2286.000000	30.071604
2285.000000	29.911228
2284.000000	29.804382
2283.000000	29.950032
2282.000000	29.989217
2281.000000	30.009472
2280.000000	29.997655
2279.000000	30.032982
2278.000000	30.067404
2277.000000	29.944499
2276.000000	30.142248
2275.000000	30.316730
2274.000000	30.268940
2273.000000	30.255518
2272.000000	30.406066
2271.000000	30.464112
2270.000000	30.618135
2269.000000	30.603579
2268.000000	30.508550
2267.000000	30.621636
2266.000000	30.804525
2265.000000	30.880938
2264.000000	30.946780
2263.000000	31.085779
2262.000000	31.197921
2261.000000	31.384875
2260.000000	31.722644
2259.000000	31.876692
2258.000000	31.953371
2257.000000	32.140350
2256.000000	32.331703
2255.000000	32.413665
2254.000000	32.522987
2253.000000	32.774732
2252.000000	33.099914
2251.000000	33.093439
2250.000000	33.245624
2249.000000	33.394729
2248.000000	33.510003
2247.000000	33.713231
2246.000000	33.938672
2245.000000	34.152329
2244.000000	34.245823
2243.000000	34.536865
2242.000000	34.660041
2241.000000	34.783294
2240.000000	34.982221
2239.000000	35.054480
2238.000000	35.165295
2237.000000	35.185372
2236.000000	35.432121
2235.000000	35.604257
2234.000000	35.543390
2233.000000	35.501591
2232.000000	35.578681
2231.000000	35.733468
2230.000000	35.725792
2229.000000	35.718178
2228.000000	35.810202
2227.000000	35.846427
2226.000000	35.802861
2225.000000	35.765939
2224.000000	35.732775
2223.000000	35.660221
2222.000000	35.638280
2221.000000	35.557638
2220.000000	35.630282
2219.000000	35.600283
2218.000000	35.637555
2217.000000	35.678401
2216.000000	35.767132
2215.000000	35.562031
2214.000000	35.497630
2213.000000	35.456534
2212.000000	35.429673
2211.000000	35.387305
2210.000000	35.286792
2209.000000	35.131623
2208.000000	35.117779
2207.000000	35.040634
2206.000000	34.982848
2205.000000	35.017160
2204.000000	34.975864
2203.000000	34.904464
2202.000000	34.796366
2201.000000	34.751520
2200.000000	34.672869
2199.000000	34.633310
2198.000000	34.592038
2197.000000	34.631261
2196.000000	34.407335
2195.000000	34.251756
2194.000000	34.257805
2193.000000	34.111282
2192.000000	34.101332
2191.000000	34.078546
2190.000000	34.044155
2189.000000	33.858601
2188.000000	33.949343
2187.000000	33.878464
2186.000000	33.738272
2185.000000	33.802166
2184.000000	33.876055
2183.000000	33.821521
2182.000000	33.786896
2181.000000	33.592060
2180.000000	33.651036
2179.000000	33.772845
2178.000000	33.667828
2177.000000	33.688028
2176.000000	33.730442
2175.000000	33.695872
2174.000000	33.675097
2173.000000	33.687156
2172.000000	33.872706
2171.000000	33.919414
2170.000000	33.968404
2169.000000	34.041884
2168.000000	34.185959
2167.000000	34.211664
2166.000000	34.236956
2165.000000	34.338425
2164.000000	34.316290
2163.000000	34.411758
2162.000000	34.645142
2161.000000	34.657792
2160.000000	34.803963
2159.000000	34.888718
2158.000000	34.954165
2157.000000	34.996456
2156.000000	35.219308
2155.000000	35.404623
2154.000000	35.721989
2153.000000	35.602299
2152.000000	35.930110
2151.000000	35.980300
2150.000000	36.194551
2149.000000	36.143067
2148.000000	36.194279
2147.000000	36.437058
2146.000000	36.530500
2145.000000	36.712918
2144.000000	36.577164
2143.000000	36.751199
2142.000000	36.903399
2141.000000	37.041846
2140.000000	37.126405
2139.000000	37.376821
2138.000000	37.622516
2137.000000	37.468833
2136.000000	37.558617
2135.000000	37.602830
2134.000000	37.836484
2133.000000	37.891132
2132.000000	38.067493
2131.000000	38.092574
2130.000000	38.200632
2129.000000	38.114758
2128.000000	38.044733
2127.000000	38.123927
2126.000000	38.263519
2125.000000	38.303915
2124.000000	38.332951
2123.000000	38.389352
2122.000000	38.359891
2121.000000	38.437594
2120.000000	38.538865
2119.000000	38.347502
2118.000000	38.401167
2117.000000	38.592134
2116.000000	38.674751
2115.000000	38.710093
2114.000000	38.662720
2113.000000	38.760503
2112.000000	38.622742
2111.000000	38.676374
2110.000000	38.667592
2109.000000	38.715065
2108.000000	38.817662
2107.000000	38.837948
2106.000000	38.850506
2105.000000	38.797440
2104.000000	38.841384
2103.000000	38.818692
2102.000000	38.733040
2101.000000	38.802319
2100.000000	38.864973
2099.000000	38.850183
2098.000000	38.811890
2097.000000	38.864744
2096.000000	38.883402
2095.000000	38.779637
2094.000000	38.915435
2093.000000	38.812772
2092.000000	38.805719
2091.000000	38.761448
2090.000000	38.740324
2089.000000	38.738403
2088.000000	38.701408
2087.000000	38.654685
2086.000000	38.731340
2085.000000	38.661767
2084.000000	38.418555
2083.000000	38.445373
2082.000000	38.388323
2081.000000	38.307851
2080.000000	38.266252
2079.000000	38.150113
2078.000000	38.148776
2077.000000	38.088350
2076.000000	38.025995
2075.000000	37.855048
2074.000000	37.771875
2073.000000	37.621497
2072.000000	37.519337
2071.000000	37.375592
2070.000000	37.202772
2069.000000	37.078870
2068.000000	37.057531
2067.000000	36.945017
2066.000000	36.831859
2065.000000	36.666404
2064.000000	36.566092
2063.000000	36.408327
2062.000000	36.272442
2061.000000	36.124263
2060.000000	35.947485
2059.000000	35.841997
2058.000000	35.770489
2057.000000	35.682721
2056.000000	35.627312
2055.000000	35.479198
2054.000000	35.320275
2053.000000	35.172445
2052.000000	35.056919
2051.000000	34.909327
2050.000000	34.822709
2049.000000	34.787259
2048.000000	34.679551
2047.000000	34.641901
2046.000000	34.595619
2045.000000	34.580506
2044.000000	34.616660
2043.000000	34.593635
2042.000000	34.545330
2041.000000	34.579802
2040.000000	34.681752
2039.000000	34.643789
2038.000000	34.624515
2037.000000	34.726349
2036.000000	34.765180
2035.000000	34.790034
2034.000000	34.919618
2033.000000	35.003390
2032.000000	35.078841
2031.000000	35.141492
2030.000000	35.198324
2029.000000	35.284196
2028.000000	35.388271
2027.000000	35.496319
2026.000000	35.557682
2025.000000	35.603196
2024.000000	35.643602
2023.000000	35.708769
2022.000000	35.771679
2021.000000	35.779534
2020.000000	35.800279
2019.000000	35.779820
2018.000000	35.789808
2017.000000	35.812959
2016.000000	35.744510
2015.000000	35.693493
2014.000000	35.708222
2013.000000	35.640655
2012.000000	35.592827
2011.000000	35.563593
2010.000000	35.454090
2009.000000	35.351255
2008.000000	35.298115
2007.000000	35.252233
2006.000000	35.153311
2005.000000	35.089246
2004.000000	35.009140
2003.000000	34.912528
2002.000000	34.845949
2001.000000	34.733410
2000.000000	34.635437
1999.000000	34.536827
1998.000000	34.440298
1997.000000	34.328449
1996.000000	34.236100
1995.000000	34.118927
1994.000000	34.024883
1993.000000	33.949564
1992.000000	33.830718
1991.000000	33.722601
1990.000000	33.627920
1989.000000	33.537759
1988.000000	33.456127
1987.000000	33.386296
1986.000000	33.220609
1985.000000	33.124707
1984.000000	33.033735
1983.000000	32.920305
1982.000000	32.843814
1981.000000	32.807191
1980.000000	32.684412
1979.000000	32.553360
1978.000000	32.439054
1977.000000	32.347626
1976.000000	32.289719
1975.000000	32.181192
1974.000000	32.057747
1973.000000	31.989218
1972.000000	31.934135
1971.000000	31.790642
1970.000000	31.703255
1969.000000	31.667128
1968.000000	31.574268
1967.000000	31.476159
1966.000000	31.408010
1965.000000	31.327797
1964.000000	31.241436
1963.000000	31.161519
1962.000000	31.058696
1961.000000	30.966815
1960.000000	30.907590
1959.000000	30.868762
1958.000000	30.794291
1957.000000	30.660946
1956.000000	30.653853
1955.000000	30.591054
1954.000000	30.569814
1953.000000	30.480295
1952.000000	30.427034
1951.000000	30.378390
1950.000000	30.417918
1949.000000	30.381650
1948.000000	30.315316
1947.000000	30.299990
1946.000000	30.267054
1945.000000	30.321250
1944.000000	30.241183
1943.000000	30.226649
1942.000000	30.336095
1941.000000	30.289226
1940.000000	30.351751
1939.000000	30.396064
1938.000000	30.453678
1937.000000	30.579243
1936.000000	30.669447
1935.000000	30.769106
1934.000000	30.899945
1933.000000	30.936619
1932.000000	31.052619
1931.000000	31.213049
1930.000000	31.366994
1929.000000	31.470413
1928.000000	31.632350
1927.000000	31.784877
1926.000000	32.073125
1925.000000	32.185040
1924.000000	32.409721
1923.000000	32.598389
1922.000000	32.950280
1921.000000	33.253717
1920.000000	33.430529
1919.000000	33.760709
1918.000000	33.956336
1917.000000	34.277936
1916.000000	34.475747
1915.000000	34.896256
1914.000000	35.210145
1913.000000	35.609762
1912.000000	35.897483
1911.000000	36.288698
1910.000000	36.621254
1909.000000	37.009922
1908.000000	37.390939
1907.000000	37.913147
1906.000000	38.349517
1905.000000	38.769640
1904.000000	39.220671
1903.000000	39.678651
1902.000000	40.155194
1901.000000	40.606397
1900.000000	41.077152
1899.000000	41.499814
1898.000000	42.066448
1897.000000	42.502077
1896.000000	42.971346
1895.000000	43.511720
1894.000000	43.899998
1893.000000	44.368670
1892.000000	44.843417
1891.000000	45.250725
1890.000000	45.667997
1889.000000	46.145843
1888.000000	46.506706
1887.000000	46.913611
1886.000000	47.265710
1885.000000	47.682117
1884.000000	48.062568
1883.000000	48.441440
1882.000000	48.701815
1881.000000	49.085107
1880.000000	49.375785
1879.000000	49.712788
1878.000000	49.924976
1877.000000	50.265004
1876.000000	50.496384
1875.000000	50.770781
1874.000000	50.940562
1873.000000	51.125576
1872.000000	51.307660
1871.000000	51.524450
1870.000000	51.674051
1869.000000	51.850752
1868.000000	51.940575
1867.000000	52.009909
1866.000000	52.107227
1865.000000	52.235753
1864.000000	52.351216
1863.000000	52.427084
1862.000000	52.503520
1861.000000	52.577292
1860.000000	52.602262
1859.000000	52.664384
1858.000000	52.751360
1857.000000	52.785524
1856.000000	52.803823
1855.000000	52.846621
1854.000000	52.911286
1853.000000	52.919984
1852.000000	52.946295
1851.000000	53.005593
1850.000000	53.003852
1849.000000	53.008541
1848.000000	53.009226
1847.000000	53.007420
1846.000000	53.003516
1845.000000	53.032575
1844.000000	52.994264
1843.000000	52.947162
1842.000000	52.971516
1841.000000	52.907457
1840.000000	52.893528
1839.000000	52.872288
1838.000000	52.859317
1837.000000	52.785620
1836.000000	52.725672
1835.000000	52.661294
1834.000000	52.618545
1833.000000	52.612572
1832.000000	52.604727
1831.000000	52.590784
1830.000000	52.578368
1829.000000	52.516491
1828.000000	52.454899
1827.000000	52.440891
1826.000000	52.431247
1825.000000	52.390404
1824.000000	52.354628
1823.000000	52.322787
1822.000000	52.302714
1821.000000	52.267260
1820.000000	52.231743
1819.000000	52.221069
1818.000000	52.212020
1817.000000	52.187558
1816.000000	52.138949
1815.000000	52.095299
1814.000000	52.057926
1813.000000	52.021753
1812.000000	52.025845
1811.000000	52.010764
1810.000000	51.962554
1809.000000	51.950055
1808.000000	51.937587
1807.000000	51.900444
1806.000000	51.883148
1805.000000	51.859839
1804.000000	51.822548
1803.000000	51.822828
1802.000000	51.820105
1801.000000	51.772978
1800.000000	51.741847
1799.000000	51.732441
1798.000000	51.691536
1797.000000	51.698751
1796.000000	51.691997
1795.000000	51.660216
1794.000000	51.655393
1793.000000	51.644917
1792.000000	51.604180
1791.000000	51.583191
1790.000000	51.575816
1789.000000	51.565967
1788.000000	51.566233
1787.000000	51.547286
1786.000000	51.554860
1785.000000	51.546517
1784.000000	51.499689
1783.000000	51.459746
1782.000000	51.442488
1781.000000	51.407522
1780.000000	51.388254
1779.000000	51.371895
1778.000000	51.336651
1777.000000	51.274473
1776.000000	51.232083
1775.000000	51.197851
1774.000000	51.137515
1773.000000	51.121613
1772.000000	51.062450
1771.000000	51.008458
1770.000000	50.970612
1769.000000	50.899837
1768.000000	50.842154
1767.000000	50.827639
1766.000000	50.779528
1765.000000	50.739151
1764.000000	50.690747
1763.000000	50.658313
1762.000000	50.609884
1761.000000	50.546718
1760.000000	50.490047
1759.000000	50.479122
1758.000000	50.439458
1757.000000	50.399212
1756.000000	50.386167
1755.000000	50.356433
1754.000000	50.299573
1753.000000	50.250984
1752.000000	50.212282
1751.000000	50.162834
1750.000000	50.135016
1749.000000	50.121779
1748.000000	50.039300
1747.000000	49.986207
1746.000000	49.956128
1745.000000	49.884650
1744.000000	49.823847
1743.000000	49.793453
1742.000000	49.746511
1741.000000	49.716199
1740.000000	49.649502
1739.000000	49.660737
1738.000000	49.604676
1737.000000	49.566990
1736.000000	49.524177
1735.000000	49.535522
1734.000000	49.536199
1733.000000	49.531934
1732.000000	49.537883
1731.000000	49.503120
1730.000000	49.539530
1729.000000	49.573605
1728.000000	49.615635
1727.000000	49.650785
1726.000000	49.701397
1725.000000	49.795059
1724.000000	49.871145
1723.000000	49.924694
1722.000000	50.002891
1721.000000	50.060694
1720.000000	50.178240
1719.000000	50.277840
1718.000000	50.360062
1717.000000	50.416826
1716.000000	50.532021
1715.000000	50.588302
1714.000000	50.684957
1713.000000	50.763459
1712.000000	50.837386
1711.000000	50.918545
1710.000000	50.975319
1709.000000	50.987813
1708.000000	51.042830
1707.000000	51.124750
1706.000000	51.154350
1705.000000	51.208438
1704.000000	51.229357
1703.000000	51.203048
1702.000000	51.274392
1701.000000	51.294725
1700.000000	51.337255
1699.000000	51.325415
1698.000000	51.380153
1697.000000	51.392359
1696.000000	51.471028
1695.000000	51.517837
1694.000000	51.525341
1693.000000	51.554871
1692.000000	51.630749
1691.000000	51.722750
1690.000000	51.784052
1689.000000	51.862767
1688.000000	51.955386
1687.000000	52.030358
1686.000000	52.121832
1685.000000	52.239431
1684.000000	52.378394
1683.000000	52.488155
1682.000000	52.638014
1681.000000	52.780099
1680.000000	52.880186
1679.000000	53.012645
1678.000000	53.154664
1677.000000	53.287601
1676.000000	53.433313
1675.000000	53.590056
1674.000000	53.735099
1673.000000	53.858843
1672.000000	53.961631
1671.000000	54.106798
1670.000000	54.227447
1669.000000	54.370729
1668.000000	54.476228
1667.000000	54.579589
1666.000000	54.652582
1665.000000	54.720050
1664.000000	54.796554
1663.000000	54.836425
1662.000000	54.930668
1661.000000	54.967063
1660.000000	55.019972
1659.000000	55.087037
1658.000000	55.141347
1657.000000	55.173064
1656.000000	55.200228
1655.000000	55.244010
1654.000000	55.251909
1653.000000	55.270553
1652.000000	55.282833
1651.000000	55.303745
1650.000000	55.310301
1649.000000	55.256848
1648.000000	55.230271
1647.000000	55.244446
1646.000000	55.227625
1645.000000	55.227616
1644.000000	55.241681
1643.000000	55.197198
1642.000000	55.186231
1641.000000	55.172173
1640.000000	55.162051
1639.000000	55.144896
1638.000000	55.106193
1637.000000	55.088251
1636.000000	55.054762
1635.000000	55.038267
1634.000000	54.987193
1633.000000	54.939162
1632.000000	54.922154
1631.000000	54.887645
1630.000000	54.859418
1629.000000	54.833980
1628.000000	54.796948
1627.000000	54.751479
1626.000000	54.724114
1625.000000	54.674934
1624.000000	54.652669
1623.000000	54.643470
1622.000000	54.585517
1621.000000	54.519386
1620.000000	54.508263
1619.000000	54.476785
1618.000000	54.415929
1617.000000	54.372735
1616.000000	54.326406
1615.000000	54.277270
1614.000000	54.234465
1613.000000	54.200186
1612.000000	54.144608
1611.000000	54.103036
1610.000000	54.067033
1609.000000	54.014201
1608.000000	53.961691
1607.000000	53.923640
1606.000000	53.877713
1605.000000	53.815305
1604.000000	53.756398
1603.000000	53.711894
1602.000000	53.677034
1601.000000	53.623105
1600.000000	53.570600
1599.000000	53.520232
1598.000000	53.474788
1597.000000	53.426598
1596.000000	53.385702
1595.000000	53.348052
1594.000000	53.291287
1593.000000	53.262908
1592.000000	53.229709
1591.000000	53.171110
1590.000000	53.133425
1589.000000	53.090811
1588.000000	53.033520
1587.000000	53.006489
1586.000000	52.992336
1585.000000	52.950833
1584.000000	52.901311
1583.000000	52.860075
1582.000000	52.817862
1581.000000	52.781039
1580.000000	52.754120
1579.000000	52.719617
1578.000000	52.706322
1577.000000	52.672556
1576.000000	52.594125
1575.000000	52.582491
1574.000000	52.546867
1573.000000	52.491179
1572.000000	52.440905
1571.000000	52.395023
1570.000000	52.362517
1569.000000	52.333721
1568.000000	52.314774
1567.000000	52.289606
1566.000000	52.255269
1565.000000	52.231675
1564.000000	52.208869
1563.000000	52.182487
1562.000000	52.147621
1561.000000	52.130133
1560.000000	52.103998
1559.000000	52.059907
1558.000000	52.042120
1557.000000	52.023726
1556.000000	52.014721
1555.000000	52.003505
1554.000000	51.963203
1553.000000	51.927504
1552.000000	51.880302
1551.000000	51.849853
1550.000000	51.825381
1549.000000	51.785412
1548.000000	51.758862
1547.000000	51.693806
1546.000000	51.634103
1545.000000	51.572241
1544.000000	51.525303
1543.000000	51.482280
1542.000000	51.408193
1541.000000	51.325809
1540.000000	51.252560
1539.000000	51.193246
1538.000000	51.132761
1537.000000	51.031165
1536.000000	50.953458
1535.000000	50.883639
1534.000000	50.833681
1533.000000	50.767053
1532.000000	50.687289
1531.000000	50.615502
1530.000000	50.572659
1529.000000	50.501057
1528.000000	50.422947
1527.000000	50.374697
1526.000000	50.343307
1525.000000	50.283134
1524.000000	50.208569
1523.000000	50.162085
1522.000000	50.126479
1521.000000	50.108176
1520.000000	50.065778
1519.000000	50.049020
1518.000000	50.023703
1517.000000	49.972955
1516.000000	49.934467
1515.000000	49.907131
1514.000000	49.886609
1513.000000	49.879948
1512.000000	49.851182
1511.000000	49.830552
1510.000000	49.805707
1509.000000	49.787341
1508.000000	49.776752
1507.000000	49.785593
1506.000000	49.753574
1505.000000	49.721463
1504.000000	49.734269
1503.000000	49.732654
1502.000000	49.727649
1501.000000	49.715996
1500.000000	49.706832
1499.000000	49.688638
1498.000000	49.714404
1497.000000	49.731825
1496.000000	49.714078
1495.000000	49.726731
1494.000000	49.730023
1493.000000	49.749901
1492.000000	49.757271
1491.000000	49.749126
1490.000000	49.809270
1489.000000	49.806307
1488.000000	49.836385
1487.000000	49.867313
1486.000000	49.879816
1485.000000	49.900813
1484.000000	49.919489
1483.000000	49.974532
1482.000000	49.973725
1481.000000	50.011541
1480.000000	50.047936
1479.000000	50.060789
1478.000000	50.111431
1477.000000	50.108513
1476.000000	50.137669
1475.000000	50.170569
1474.000000	50.196402
1473.000000	50.233066
1472.000000	50.239779
1471.000000	50.272801
1470.000000	50.311891
1469.000000	50.331431
1468.000000	50.358261
1467.000000	50.393290
1466.000000	50.442822
1465.000000	50.468253
1464.000000	50.479163
1463.000000	50.509469
1462.000000	50.532828
1461.000000	50.592925
1460.000000	50.618184
1459.000000	50.673568
1458.000000	50.717281
1457.000000	50.756287
1456.000000	50.806882
1455.000000	50.857615
1454.000000	50.888691
1453.000000	50.950341
1452.000000	51.004477
1451.000000	51.071696
1450.000000	51.129470
1449.000000	51.194237
1448.000000	51.268064
1447.000000	51.319559
1446.000000	51.368688
1445.000000	51.465084
1444.000000	51.550045
1443.000000	51.608933
1442.000000	51.700932
1441.000000	51.769751
1440.000000	51.848879
1439.000000	51.935119
1438.000000	52.031046
1437.000000	52.129315
1436.000000	52.227181
1435.000000	52.326889
1434.000000	52.420220
1433.000000	52.528048
1432.000000	52.639935
1431.000000	52.751969
1430.000000	52.864520
1429.000000	52.985784
1428.000000	53.113573
1427.000000	53.238577
1426.000000	53.374786
1425.000000	53.514554
1424.000000	53.652654
1423.000000	53.786656
1422.000000	53.933267
1421.000000	54.071282
1420.000000	54.241463
1419.000000	54.385309
1418.000000	54.555314
1417.000000	54.706822
1416.000000	54.863035
1415.000000	55.024036
1414.000000	55.189787
1413.000000	55.352532
1412.000000	55.526015
1411.000000	55.688984
1410.000000	55.848400
1409.000000	56.024045
1408.000000	56.192527
1407.000000	56.351145
1406.000000	56.507283
1405.000000	56.651376
1404.000000	56.799103
1403.000000	56.956371
1402.000000	57.100337
1401.000000	57.247376
1400.000000	57.408166
1399.000000	57.565379
1398.000000	57.683032
1397.000000	57.808621
1396.000000	57.943474
1395.000000	58.075188
1394.000000	58.186046
1393.000000	58.287526
1392.000000	58.399067
1391.000000	58.527549
1390.000000	58.627415
1389.000000	58.726399
1388.000000	58.839824
1387.000000	58.929648
1386.000000	59.013642
1385.000000	59.095110
1384.000000	59.178087
1383.000000	59.266196
1382.000000	59.329214
1381.000000	59.395869
1380.000000	59.469620
1379.000000	59.541284
1378.000000	59.604792
1377.000000	59.655945
1376.000000	59.714204
1375.000000	59.753216
1374.000000	59.801896
1373.000000	59.858926
1372.000000	59.908335
1371.000000	59.968992
1370.000000	60.010745
1369.000000	60.053884
1368.000000	60.099453
1367.000000	60.142039
1366.000000	60.193466
1365.000000	60.224413
1364.000000	60.243324
1363.000000	60.289291
1362.000000	60.338527
1361.000000	60.372446
1360.000000	60.387086
1359.000000	60.433077
1358.000000	60.479353
1357.000000	60.498229
1356.000000	60.534723
1355.000000	60.572255
1354.000000	60.623934
1353.000000	60.660401
1352.000000	60.714473
1351.000000	60.756979
1350.000000	60.779858
1349.000000	60.822802
1348.000000	60.870404
1347.000000	60.918314
1346.000000	60.973448
1345.000000	61.007680
1344.000000	61.040847
1343.000000	61.085140
1342.000000	61.136526
1341.000000	61.177159
1340.000000	61.225810
1339.000000	61.255672
1338.000000	61.298802
1337.000000	61.330262
1336.000000	61.369021
1335.000000	61.403291
1334.000000	61.432930
1333.000000	61.452033
1332.000000	61.474372
1331.000000	61.482872
1330.000000	61.526278
1329.000000	61.549798
1328.000000	61.569438
1327.000000	61.579985
1326.000000	61.590716
1325.000000	61.578790
1324.000000	61.599510
1323.000000	61.614866
1322.000000	61.623817
1321.000000	61.651193
1320.000000	61.643109
1319.000000	61.625902
1318.000000	61.652292
1317.000000	61.657969
1316.000000	61.694997
1315.000000	61.706488
1314.000000	61.695929
1313.000000	61.680975
1312.000000	61.697911
1311.000000	61.712053
1310.000000	61.732136
1309.000000	61.725993
1308.000000	61.733531
1307.000000	61.750190
1306.000000	61.735243
1305.000000	61.775363
1304.000000	61.785357
1303.000000	61.786852
1302.000000	61.777333
1301.000000	61.809803
1300.000000	61.804169
1299.000000	61.802409
1298.000000	61.811648
1297.000000	61.826405
1296.000000	61.840356
1295.000000	61.818913
1294.000000	61.822334
1293.000000	61.835461
1292.000000	61.850901
1291.000000	61.838623
1290.000000	61.865847
1289.000000	61.847240
1288.000000	61.840218
1287.000000	61.837970
1286.000000	61.832140
1285.000000	61.827684
1284.000000	61.816777
1283.000000	61.842457
1282.000000	61.843586
1281.000000	61.841470
1280.000000	61.825648
1279.000000	61.838138
1278.000000	61.816552
1277.000000	61.823601
1276.000000	61.829787
1275.000000	61.820485
1274.000000	61.828948
1273.000000	61.804454
1272.000000	61.829314
1271.000000	61.809096
1270.000000	61.824741
1269.000000	61.819874
1268.000000	61.842971
1267.000000	61.845004
1266.000000	61.847575
1265.000000	61.797763
1264.000000	61.820610
1263.000000	61.819413
1262.000000	61.842101
1261.000000	61.848636
1260.000000	61.839774
1259.000000	61.836083
1258.000000	61.850354
1257.000000	61.824601
1256.000000	61.832553
1255.000000	61.866511
1254.000000	61.856721
1253.000000	61.871235
1252.000000	61.872988
1251.000000	61.888905
1250.000000	61.860353
1249.000000	61.863198
1248.000000	61.833674
1247.000000	61.863815
1246.000000	61.847200
1245.000000	61.819308
1244.000000	61.824832
1243.000000	61.838365
1242.000000	61.852732
1241.000000	61.852114
1240.000000	61.829937
1239.000000	61.825843
1238.000000	61.804092
1237.000000	61.795085
1236.000000	61.770817
1235.000000	61.757396
1234.000000	61.747124
1233.000000	61.724244
1232.000000	61.739574
1231.000000	61.716945
1230.000000	61.694877
1229.000000	61.681302
1228.000000	61.662485
1227.000000	61.656558
1226.000000	61.636869
1225.000000	61.603984
1224.000000	61.591159
1223.000000	61.577097
1222.000000	61.582035
1221.000000	61.547436
1220.000000	61.513070
1219.000000	61.490789
1218.000000	61.486086
1217.000000	61.471229
1216.000000	61.432077
1215.000000	61.419348
1214.000000	61.389002
1213.000000	61.375009
1212.000000	61.348490
1211.000000	61.327890
1210.000000	61.296485
1209.000000	61.284367
1208.000000	61.237680
1207.000000	61.242225
1206.000000	61.204299
1205.000000	61.184470
1204.000000	61.160622
1203.000000	61.131591
1202.000000	61.128758
1201.000000	61.086740
1200.000000	61.079054
1199.000000	61.061412
1198.000000	61.042353
1197.000000	61.049914
1196.000000	61.022334
1195.000000	61.001878
1194.000000	60.988041
1193.000000	60.989632
1192.000000	60.990201
1191.000000	60.985278
1190.000000	60.977521
1189.000000	60.976228
1188.000000	60.976832
1187.000000	60.977592
1186.000000	60.972151
1185.000000	60.993207
1184.000000	60.991750
1183.000000	61.004696
1182.000000	61.034750
1181.000000	61.054398
1180.000000	61.070084
1179.000000	61.098579
1178.000000	61.126730
1177.000000	61.151848
1176.000000	61.185985
1175.000000	61.223263
1174.000000	61.260297
1173.000000	61.307315
1172.000000	61.341510
1171.000000	61.365502
1170.000000	61.403782
1169.000000	61.444655
1168.000000	61.477138
1167.000000	61.525500
1166.000000	61.577859
1165.000000	61.629555
1164.000000	61.684387
1163.000000	61.728757
1162.000000	61.768219
1161.000000	61.803188
1160.000000	61.853882
1159.000000	61.911385
1158.000000	61.949398
1157.000000	61.987334
1156.000000	62.031944
1155.000000	62.080346
1154.000000	62.103705
1153.000000	62.127708
1152.000000	62.173481
1151.000000	62.216848
1150.000000	62.232906
1149.000000	62.250486
1148.000000	62.288398
1147.000000	62.321711
1146.000000	62.351751
1145.000000	62.376863
1144.000000	62.412875
1143.000000	62.455793
1142.000000	62.479998
1141.000000	62.506470
1140.000000	62.539649
1139.000000	62.564873
1138.000000	62.590290
1137.000000	62.607799
1136.000000	62.616683
1135.000000	62.630053
1134.000000	62.665682
1133.000000	62.708651
1132.000000	62.733537
1131.000000	62.748708
1130.000000	62.758052
1129.000000	62.775286
1128.000000	62.790042
1127.000000	62.806819
1126.000000	62.814243
1125.000000	62.826001
1124.000000	62.836694
1123.000000	62.838593
1122.000000	62.830644
1121.000000	62.835383
1120.000000	62.850554
1119.000000	62.870986
1118.000000	62.880594
1117.000000	62.883810
1116.000000	62.901235
1115.000000	62.904071
1114.000000	62.897357
1113.000000	62.908626
1112.000000	62.910966
1111.000000	62.918861
1110.000000	62.931810
1109.000000	62.940933
1108.000000	62.928294
1107.000000	62.947757
1106.000000	62.937888
1105.000000	62.947033
1104.000000	62.936866
1103.000000	62.918923
1102.000000	62.917141
1101.000000	62.934070
1100.000000	62.941995
1099.000000	62.946429
1098.000000	62.956063
1097.000000	62.949497
1096.000000	62.967309
1095.000000	62.950203
1094.000000	62.945435
1093.000000	62.958978
1092.000000	62.956527
1091.000000	62.963162
1090.000000	62.945883
1089.000000	62.971033
1088.000000	62.967200
1087.000000	62.958956
1086.000000	62.967305
1085.000000	62.968261
1084.000000	62.965926
1083.000000	62.963394
1082.000000	62.959283
1081.000000	62.957591
1080.000000	62.967871
1079.000000	62.958881
1078.000000	62.968784
1077.000000	62.969699
1076.000000	62.964599
1075.000000	62.969987
1074.000000	62.948385
1073.000000	62.970013
1072.000000	62.965457
1071.000000	62.962890
1070.000000	62.961571
1069.000000	62.971635
1068.000000	62.951603
1067.000000	62.951063
1066.000000	62.938975
1065.000000	62.922224
1064.000000	62.938828
1063.000000	62.936257
1062.000000	62.945335
1061.000000	62.932272
1060.000000	62.935603
1059.000000	62.927579
1058.000000	62.921227
1057.000000	62.922896
1056.000000	62.914001
1055.000000	62.937944
1054.000000	62.919369
1053.000000	62.913784
1052.000000	62.901671
1051.000000	62.881582
1050.000000	62.890277
1049.000000	62.876182
1048.000000	62.871590
1047.000000	62.878292
1046.000000	62.874481
1045.000000	62.872868
1044.000000	62.856459
1043.000000	62.851556
1042.000000	62.858032
1041.000000	62.835733
1040.000000	62.859104
1039.000000	62.861112
1038.000000	62.840900
1037.000000	62.839624
1036.000000	62.845515
1035.000000	62.820491
1034.000000	62.822473
1033.000000	62.833921
1032.000000	62.812951
1031.000000	62.799848
1030.000000	62.821688
1029.000000	62.805657
1028.000000	62.805906
1027.000000	62.780736
1026.000000	62.774762
1025.000000	62.789252
1024.000000	62.786020
1023.000000	62.777604
1022.000000	62.774567
1021.000000	62.750575
1020.000000	62.759766
1019.000000	62.751098
1018.000000	62.773596
1017.000000	62.769256
1016.000000	62.744241
1015.000000	62.769456
1014.000000	62.753876
1013.000000	62.755080
1012.000000	62.754884
1011.000000	62.765198
1010.000000	62.763866
1009.000000	62.756510
1008.000000	62.752158
1007.000000	62.756045
1006.000000	62.743067
1005.000000	62.753774
1004.000000	62.758786
1003.000000	62.754150
1002.000000	62.742521
1001.000000	62.742031
1000.000000	62.749632
999.000000	62.753079
998.000000	62.770525
997.000000	62.746429
996.000000	62.733684
995.000000	62.749459
994.000000	62.738864
993.000000	62.733875
992.000000	62.740236
991.000000	62.737087
990.000000	62.736719
989.000000	62.729367
988.000000	62.732780
987.000000	62.718886
986.000000	62.729527
985.000000	62.755574
984.000000	62.783521
983.000000	62.772450
982.000000	62.760090
981.000000	62.762003
980.000000	62.772517
979.000000	62.775094
978.000000	62.769000
977.000000	62.775075
976.000000	62.780151
975.000000	62.781666
974.000000	62.776558
973.000000	62.766287
972.000000	62.774277
971.000000	62.764648
970.000000	62.769611
969.000000	62.799225
968.000000	62.801174
967.000000	62.790301
966.000000	62.797497
965.000000	62.811792
964.000000	62.799214
963.000000	62.812266
962.000000	62.823863
961.000000	62.827047
960.000000	62.823276
959.000000	62.815955
958.000000	62.799148
957.000000	62.796368
956.000000	62.834452
955.000000	62.858406
954.000000	62.862257
953.000000	62.834423
952.000000	62.822155
951.000000	62.833458
950.000000	62.835842
949.000000	62.838279
948.000000	62.839705
947.000000	62.841989
946.000000	62.862724
945.000000	62.845994
944.000000	62.815177
943.000000	62.825420
942.000000	62.822761
941.000000	62.839245
940.000000	62.864524
939.000000	62.877970
938.000000	62.844153
937.000000	62.834871
936.000000	62.863962
935.000000	62.832740
934.000000	62.821737
933.000000	62.831158
932.000000	62.798687
931.000000	62.802951
930.000000	62.825340
929.000000	62.819632
928.000000	62.801433
927.000000	62.802384
926.000000	62.819238
925.000000	62.805559
924.000000	62.791160
923.000000	62.786782
922.000000	62.785384
921.000000	62.789887
920.000000	62.769619
919.000000	62.763136
918.000000	62.764185
917.000000	62.771188
916.000000	62.771053
915.000000	62.750378
914.000000	62.766373
913.000000	62.744746
912.000000	62.729399
911.000000	62.740039
910.000000	62.746423
909.000000	62.753415
908.000000	62.727251
907.000000	62.745983
906.000000	62.783733
905.000000	62.748195
904.000000	62.692853
903.000000	62.693221
902.000000	62.693856
901.000000	62.710775
900.000000	62.738751
899.000000	62.728564
898.000000	62.759284
897.000000	62.736606
896.000000	62.743047
895.000000	62.703550
894.000000	62.682482
893.000000	62.697346
892.000000	62.643201
891.000000	62.702890
890.000000	62.759376
889.000000	62.692924
888.000000	62.735324
887.000000	62.707936
886.000000	62.685912
885.000000	62.741515
884.000000	62.732982
883.000000	62.703806
882.000000	62.727412
881.000000	62.808105
880.000000	62.754361
879.000000	62.702196
878.000000	62.711791
877.000000	62.546263
876.000000	62.660646
875.000000	62.685850
874.000000	62.612630
873.000000	62.656457
872.000000	62.561614
871.000000	62.634280
870.000000	62.612309
869.000000	62.566834
868.000000	62.599657
867.000000	62.492752
866.000000	62.479067
865.000000	62.666241
864.000000	62.642396
863.000000	62.483715
862.000000	62.410439
861.000000	62.559181
860.000000	62.510983
859.000000	61.746766
858.000000	61.399748
857.000000	61.350116
856.000000	61.175491
855.000000	61.436849
854.000000	61.680531
853.000000	61.446728
852.000000	61.763079
851.000000	61.586442
850.000000	61.525840
849.000000	61.758214
848.000000	61.589825
847.000000	61.818496
846.000000	61.535118
845.000000	61.308825
844.000000	61.532641
843.000000	61.665919
842.000000	61.064400
841.000000	61.489616
840.000000	61.301940
839.000000	61.251585
838.000000	61.286638
837.000000	61.398604
836.000000	61.300149
835.000000	61.253941
834.000000	61.286069
833.000000	61.090907
832.000000	61.296350
831.000000	61.579589
830.000000	61.097282
829.000000	61.024911
828.000000	61.082883
827.000000	61.195459
826.000000	61.106476
825.000000	60.947317
824.000000	60.954257
823.000000	61.034696
822.000000	61.125302
821.000000	61.241393
820.000000	61.060629
819.000000	61.034402
818.000000	61.068092
817.000000	61.014883
816.000000	61.051805
815.000000	60.940153
814.000000	60.841194
813.000000	60.942006
812.000000	60.955206
811.000000	61.007536
810.000000	60.801682
809.000000	60.859193
808.000000	60.824383
807.000000	60.958015
806.000000	60.941088
805.000000	60.814958
804.000000	60.832353
803.000000	60.793567
802.000000	60.711820
801.000000	60.706483
800.000000	60.632855
799.000000	60.796917
798.000000	60.704798
797.000000	60.782037
796.000000	60.750067
795.000000	60.605104
794.000000	60.509882
793.000000	60.644972
792.000000	60.523657
791.000000	60.589058
790.000000	60.420904
789.000000	60.595998
788.000000	60.484901
787.000000	60.404253
786.000000	60.522501
785.000000	60.459798
784.000000	60.398838
783.000000	60.387644
782.000000	60.274503
781.000000	60.403798
780.000000	60.347504
779.000000	60.342250
778.000000	60.384038
777.000000	60.242852
776.000000	60.269488
775.000000	60.199087
774.000000	60.167134
773.000000	60.124003
772.000000	60.205352
771.000000	60.046697
770.000000	60.114878
769.000000	60.129060
768.000000	60.120260
767.000000	60.001212
766.000000	60.057395
765.000000	60.023483
764.000000	59.986375
763.000000	59.889191
762.000000	59.945214
761.000000	59.919738
760.000000	59.882373
759.000000	59.930518
758.000000	59.774161
757.000000	59.752276
756.000000	59.782047
755.000000	59.757695
754.000000	59.712061
753.000000	59.714034
752.000000	59.686777
751.000000	59.607301
750.000000	59.588520
749.000000	59.553715
748.000000	59.513863
747.000000	59.472942
746.000000	59.454218
745.000000	59.478568
744.000000	59.424209
743.000000	59.340501
742.000000	59.321438
741.000000	59.281608
740.000000	59.249810
739.000000	59.232974
738.000000	59.145066
737.000000	59.167418
736.000000	59.098033
735.000000	59.057909
734.000000	59.022600
733.000000	59.079785
732.000000	59.035917
731.000000	58.947759
730.000000	58.889509
729.000000	58.848069
728.000000	58.854103
727.000000	58.773867
726.000000	58.723736
725.000000	58.635008
724.000000	58.594058
723.000000	58.629701
722.000000	58.556233
721.000000	58.533831
720.000000	58.510468
719.000000	58.418356
718.000000	58.352072
717.000000	58.329565
716.000000	58.322545
715.000000	58.299417
714.000000	58.285823
713.000000	58.153470
712.000000	58.075735
711.000000	58.077013
710.000000	58.018968
709.000000	57.994968
708.000000	57.959260
707.000000	57.917590
706.000000	57.922210
705.000000	57.838913
704.000000	57.754592
703.000000	57.728820
702.000000	57.668209
701.000000	57.604450
700.000000	57.633386
699.000000	57.574849
698.000000	57.523719
697.000000	57.474451
696.000000	57.400402
695.000000	57.326717
694.000000	57.204306
693.000000	57.198247
692.000000	57.157739
691.000000	57.067192
690.000000	57.048541
689.000000	56.993781
688.000000	56.890073
687.000000	56.802114
686.000000	56.762436
685.000000	56.696903
684.000000	56.647858
683.000000	56.565499
682.000000	56.444737
681.000000	56.391414
680.000000	56.305574
679.000000	56.294115
678.000000	56.246253
677.000000	56.194196
676.000000	56.116516
675.000000	56.044771
674.000000	55.905801
673.000000	55.867032
672.000000	55.825740
671.000000	55.826074
670.000000	55.708799
669.000000	55.627265
668.000000	55.584511
667.000000	55.537898
666.000000	55.435528
665.000000	55.361167
664.000000	55.265416
663.000000	55.224478
662.000000	55.136043
661.000000	55.067930
660.000000	54.978929
659.000000	54.902015
658.000000	54.839965
657.000000	54.745745
656.000000	54.706652
655.000000	54.665742
654.000000	54.559318
653.000000	54.513610
652.000000	54.437606
651.000000	54.339633
650.000000	54.262722
649.000000	54.166724
648.000000	54.085152
647.000000	54.052202
646.000000	53.966768
645.000000	53.830918
644.000000	53.798277
643.000000	53.768864
642.000000	53.606243
641.000000	53.563899
640.000000	53.482566
639.000000	53.364525
638.000000	53.343218
637.000000	53.218626
636.000000	53.152355
635.000000	53.014509
634.000000	52.968374
633.000000	52.885597
632.000000	52.757119
631.000000	52.715436
630.000000	52.577255
629.000000	52.570067
628.000000	52.457527
627.000000	52.390187
626.000000	52.232549
625.000000	52.222297
624.000000	52.042823
623.000000	51.993346
622.000000	51.896557
621.000000	51.763881
620.000000	51.663392
619.000000	51.552846
618.000000	51.489743
617.000000	51.408787
616.000000	51.322889
615.000000	51.208406
614.000000	51.114674
613.000000	51.001887
612.000000	50.932218
611.000000	50.844837
610.000000	50.664308
609.000000	50.631015
608.000000	50.511129
607.000000	50.424984
606.000000	50.345691
605.000000	50.187186
604.000000	50.109279
603.000000	49.996339
602.000000	49.935931
601.000000	49.758488
600.000000	49.645420
599.000000	49.525391
598.000000	49.440747
597.000000	49.367966
596.000000	49.230320
595.000000	49.153443
594.000000	48.953842
593.000000	48.872276
592.000000	48.716765
591.000000	48.680835
590.000000	48.488955
589.000000	48.425761
588.000000	48.303329
587.000000	48.194061
586.000000	48.017776
585.000000	47.976981
584.000000	47.822774
583.000000	47.713704
582.000000	47.592954
581.000000	47.434915
580.000000	47.337524
579.000000	47.176860
578.000000	47.066315
577.000000	46.947120
576.000000	46.802664
575.000000	46.673965
574.000000	46.549127
573.000000	46.457077
572.000000	46.311331
571.000000	46.188204
570.000000	46.029670
569.000000	45.957737
568.000000	45.758182
567.000000	45.627057
566.000000	45.494413
565.000000	45.379612
564.000000	45.233327
563.000000	45.080855
562.000000	44.935623
561.000000	44.835473
560.000000	44.670801
559.000000	44.522757
558.000000	44.368421
557.000000	44.210225
556.000000	44.066336
555.000000	43.962094
554.000000	43.795971
553.000000	43.677901
552.000000	43.524898
551.000000	43.377621
550.000000	43.231654
549.000000	43.042539
548.000000	42.916422
547.000000	42.802195
546.000000	42.616482
545.000000	42.462747
544.000000	42.297638
543.000000	42.172318
542.000000	41.991762
541.000000	41.872671
540.000000	41.696221
539.000000	41.512575
538.000000	41.388614
537.000000	41.226383
536.000000	41.065118
535.000000	40.927552
534.000000	40.747639
533.000000	40.622455
532.000000	40.455036
531.000000	40.290167
530.000000	40.106238
529.000000	39.962946
528.000000	39.784596
527.000000	39.612456
526.000000	39.476374
525.000000	39.309325
524.000000	39.149991
523.000000	38.970348
522.000000	38.821482
521.000000	38.665572
520.000000	38.513856
519.000000	38.330800
518.000000	38.160306
517.000000	37.993432
516.000000	37.834205
515.000000	37.670983
514.000000	37.490347
513.000000	37.329430
512.000000	37.165065
511.000000	36.979415
510.000000	36.812575
509.000000	36.636200
508.000000	36.466522
507.000000	36.310685
506.000000	36.126376
505.000000	35.946071
504.000000	35.768494
503.000000	35.606583
502.000000	35.427892
501.000000	35.261131
500.000000	35.086036
499.000000	34.905258
498.000000	34.751191
497.000000	34.580644
496.000000	34.374945
495.000000	34.210164
494.000000	34.044166
493.000000	33.885674
492.000000	33.723094
491.000000	33.585072
490.000000	33.383530
489.000000	33.191611
488.000000	33.028664
487.000000	32.876831
486.000000	32.703908
485.000000	32.507958
484.000000	32.361896
483.000000	32.232972
482.000000	32.046982
481.000000	31.857837
480.000000	31.699932
479.000000	31.545851
478.000000	31.390476
477.000000	31.203537
476.000000	31.028355
475.000000	30.857985
474.000000	30.685245
473.000000	30.537001
472.000000	30.366215
471.000000	30.193856
470.000000	30.039336
469.000000	29.873409
468.000000	29.683067
467.000000	29.525746
466.000000	29.366779
465.000000	29.195909
464.000000	29.027387
463.000000	28.832992
462.000000	28.652068
461.000000	28.505845
460.000000	28.342032
459.000000	28.154015
458.000000	27.964422
457.000000	27.788671
456.000000	27.624098
455.000000	27.431107
454.000000	27.252403
453.000000	27.101526
452.000000	26.905083
451.000000	26.694077
450.000000	26.517104
449.000000	26.362339
448.000000	26.163826
447.000000	25.953746
446.000000	25.776256
445.000000	25.604164
444.000000	25.425271
443.000000	25.209401
442.000000	25.000795
441.000000	24.858142
440.000000	24.682347
439.000000	24.505365
438.000000	24.316423
437.000000	24.117151
436.000000	23.927965
435.000000	23.706974
434.000000	23.542786
433.000000	23.370807
432.000000	23.180680
431.000000	23.002261
430.000000	22.783114
429.000000	22.583230
428.000000	22.421831
427.000000	22.260236
426.000000	22.086736
425.000000	21.890674
424.000000	21.706533
423.000000	21.527430
422.000000	21.343290
421.000000	21.161581
420.000000	20.991710
419.000000	20.805181
418.000000	20.638696
417.000000	20.446261
416.000000	20.283186
415.000000	20.083835
414.000000	19.918056
413.000000	19.756776
412.000000	19.585833
411.000000	19.408176
410.000000	19.236724
409.000000	19.080956
408.000000	18.909482
407.000000	18.737128
406.000000	18.575688
405.000000	18.407772
404.000000	18.270368
403.000000	18.100427
402.000000	17.933747
401.000000	17.737056
400.000000	17.614999
399.000000	17.463879
398.000000	17.298108
397.000000	17.157941
396.000000	17.021327
395.000000	16.847653
394.000000	16.713229
393.000000	16.569386
392.000000	16.420145
391.000000	16.280012
390.000000	16.119795
389.000000	15.956673
388.000000	15.837602
387.000000	15.644504
386.000000	15.554310
385.000000	15.372029
384.000000	15.237288
383.000000	15.106281
382.000000	14.959172
381.000000	14.798038
380.000000	14.677455
379.000000	14.545781
378.000000	14.431065
377.000000	14.333558
376.000000	14.171540
375.000000	14.006692
374.000000	13.886201
373.000000	13.822541
372.000000	13.697235
371.000000	13.495455
370.000000	13.451325
369.000000	13.274276
368.000000	13.154103
367.000000	13.077324
366.000000	12.957244
365.000000	12.863309
364.000000	12.745328
363.000000	12.611451
362.000000	12.541683
361.000000	12.413619
360.000000	12.323452
359.000000	12.130756
358.000000	12.098810
357.000000	11.985683
356.000000	11.866183
355.000000	11.807585
354.000000	11.684453
353.000000	11.611367
352.000000	11.588436
351.000000	11.480730
350.000000	11.398111
349.000000	11.401266
348.000000	11.216936
347.000000	11.148165
346.000000	11.107371
345.000000	10.972938
344.000000	10.852101
343.000000	10.727068
342.000000	10.607727
341.000000	10.611033
340.000000	10.530470
339.000000	10.539348
338.000000	10.371286
337.000000	10.332587
336.000000	10.243347
335.000000	10.169064
334.000000	10.084703
333.000000	10.007673
332.000000	9.979144
331.000000	9.954426
330.000000	9.900336
329.000000	9.788634
328.000000	9.754854
327.000000	9.663303
326.000000	9.560843
325.000000	9.515242
324.000000	9.457718
323.000000	9.473080
322.000000	9.409649
321.000000	9.389043
320.000000	9.265555
319.000000	9.214514
318.000000	9.252509
317.000000	9.223579
316.000000	9.165786
315.000000	9.120581
314.000000	9.098958
313.000000	9.073740
312.000000	9.049962
311.000000	9.042331
310.000000	8.994777
309.000000	8.935810
308.000000	8.950991
307.000000	8.922933
306.000000	8.915486
305.000000	8.916293
304.000000	8.975447
303.000000	8.948987
302.000000	8.886246
301.000000	8.874468
300.000000	8.848947
299.000000	8.818077
298.000000	8.831025
297.000000	8.721741
296.000000	8.719586
295.000000	8.689980
294.000000	8.720707
293.000000	8.643940
292.000000	8.591861
291.000000	8.626353
290.000000	8.594772
289.000000	8.569545
288.000000	8.553374
287.000000	8.536143
286.000000	8.560536
285.000000	8.532111
284.000000	8.545952
283.000000	8.583340
282.000000	8.586918
281.000000	8.617209
280.000000	8.620438
279.000000	8.621622
278.000000	8.687720
277.000000	8.705556
276.000000	8.774483
275.000000	8.816164
274.000000	8.869090
273.000000	8.845420
272.000000	8.892621
271.000000	9.001296
270.000000	9.008102
269.000000	9.058940
268.000000	9.099019
267.000000	9.173278
266.000000	9.203761
265.000000	9.316996
264.000000	9.367646
263.000000	9.464371
262.000000	9.543884
261.000000	9.584588
260.000000	9.680916
259.000000	9.752533
258.000000	9.812189
257.000000	9.923725
256.000000	10.044049
255.000000	10.121138
254.000000	10.228068
253.000000	10.292731
252.000000	10.378896
251.000000	10.537942
250.000000	10.623423
249.000000	10.669667
248.000000	10.758050
247.000000	10.858043
246.000000	10.883436
245.000000	10.977810
244.000000	10.994039
243.000000	10.972031
242.000000	11.042084
241.000000	11.086976
240.000000	11.091388
239.000000	11.090638
238.000000	11.048226
237.000000	11.042757
236.000000	11.017854
235.000000	10.996483
234.000000	10.984418
233.000000	10.909311
232.000000	10.879721
231.000000	10.841584
230.000000	10.828395
229.000000	10.816533
228.000000	10.719656
227.000000	10.695394
226.000000	10.742267
225.000000	10.830273
224.000000	10.808817
223.000000	10.812784
222.000000	10.922624
221.000000	10.962705
220.000000	11.006626
219.000000	11.104433
218.000000	11.192960
217.000000	11.269454
216.000000	11.409177
215.000000	11.506632
214.000000	11.636268
213.000000	11.869338
212.000000	12.031481
211.000000	12.226004
210.000000	12.393635
209.000000	12.607063
208.000000	12.915395
207.000000	13.265146
206.000000	13.528078
205.000000	13.868750
204.000000	14.245162
203.000000	14.487364
202.000000	14.994048
201.000000	15.377855
200.000000	15.954104
