PE UV       SUBTECH     SPECTRUM    ASCII       PEDS        4.00        
   -1
RDms499171.Sample.asc
18/03/15
14:47:21.00
18/03/15
14:47:21.00
Administrator

200.000000
1
Lambda 750
750N8071901
PerkinElmer UV WinLab 6.0.4.0738 / 1.61.00 Lambda 900

0
0
3350/servo 860.8/2
0
0
UV/VIS
1
1
1
CommonBeamDepol,150mm sphere / downward view
0
0
0
0
Program
Program
3350/servo 860.8/2
3350/0.2 860.8/0.2
3350/0.2 860.8/0.2
0
1
 
 
 
0
 
860.8
319.2
860.8
Front
100
on
 
 
0
0
0
 
0
 
 
 
0
 
 
0
0
0
0
0
 
 
 
 
0
0


0
0
#HDR
-1
-1
#GR
nm
%R
1.0
0.0
2350.000000
-1.000000
2151
8
55.305556
6.258356
#DATA
2350.000000	29.267998
2349.000000	29.234998
2348.000000	28.980971
2347.000000	29.806171
2346.000000	29.821129
2345.000000	29.554333
2344.000000	29.285759
2343.000000	29.005073
2342.000000	29.303829
2341.000000	29.702863
2340.000000	29.793196
2339.000000	29.678063
2338.000000	29.976323
2337.000000	29.954050
2336.000000	30.082943
2335.000000	30.339195
2334.000000	30.194090
2333.000000	30.740036
2332.000000	30.612715
2331.000000	30.438936
2330.000000	30.435829
2329.000000	29.910125
2328.000000	30.186830
2327.000000	30.345964
2326.000000	29.940101
2325.000000	30.099062
2324.000000	30.100176
2323.000000	29.881050
2322.000000	29.719363
2321.000000	29.812415
2320.000000	29.522535
2319.000000	29.602720
2318.000000	29.671732
2317.000000	29.503743
2316.000000	29.468070
2315.000000	29.042753
2314.000000	29.217001
2313.000000	29.234894
2312.000000	28.919302
2311.000000	28.905765
2310.000000	28.773510
2309.000000	28.582146
2308.000000	28.589434
2307.000000	28.765153
2306.000000	28.578758
2305.000000	28.446133
2304.000000	28.598359
2303.000000	28.567673
2302.000000	28.789506
2301.000000	28.597968
2300.000000	28.487991
2299.000000	28.645576
2298.000000	28.411091
2297.000000	28.428528
2296.000000	28.537085
2295.000000	28.371770
2294.000000	28.503215
2293.000000	28.508322
2292.000000	28.392447
2291.000000	28.354935
2290.000000	28.395943
2289.000000	28.273630
2288.000000	28.324606
2287.000000	28.488557
2286.000000	28.362252
2285.000000	28.281539
2284.000000	28.173648
2283.000000	28.224992
2282.000000	28.085588
2281.000000	28.302928
2280.000000	28.504049
2279.000000	28.599251
2278.000000	28.579349
2277.000000	28.420978
2276.000000	28.399866
2275.000000	28.445216
2274.000000	28.681996
2273.000000	28.985901
2272.000000	28.952189
2271.000000	28.894865
2270.000000	28.863257
2269.000000	28.900754
2268.000000	28.821803
2267.000000	28.977965
2266.000000	29.218568
2265.000000	29.283195
2264.000000	29.469640
2263.000000	29.731890
2262.000000	29.708400
2261.000000	29.752408
2260.000000	29.951226
2259.000000	30.161180
2258.000000	30.354111
2257.000000	30.495015
2256.000000	30.734815
2255.000000	30.944097
2254.000000	30.943534
2253.000000	31.183837
2252.000000	31.491466
2251.000000	31.763372
2250.000000	31.865692
2249.000000	31.987668
2248.000000	32.210645
2247.000000	32.398030
2246.000000	32.640336
2245.000000	32.823019
2244.000000	32.985619
2243.000000	33.214043
2242.000000	33.300731
2241.000000	33.404014
2240.000000	33.489345
2239.000000	33.606541
2238.000000	33.870029
2237.000000	33.866627
2236.000000	33.897244
2235.000000	34.105943
2234.000000	34.171575
2233.000000	34.181503
2232.000000	34.251781
2231.000000	34.353035
2230.000000	34.359721
2229.000000	34.430362
2228.000000	34.593434
2227.000000	34.717298
2226.000000	34.743958
2225.000000	34.513674
2224.000000	34.464719
2223.000000	34.670370
2222.000000	34.639473
2221.000000	34.511245
2220.000000	34.436746
2219.000000	34.544040
2218.000000	34.568072
2217.000000	34.501943
2216.000000	34.524156
2215.000000	34.448188
2214.000000	34.424309
2213.000000	34.418019
2212.000000	34.289127
2211.000000	34.166848
2210.000000	34.127686
2209.000000	34.032749
2208.000000	33.999547
2207.000000	33.896500
2206.000000	33.847349
2205.000000	33.816410
2204.000000	33.731251
2203.000000	33.701368
2202.000000	33.645470
2201.000000	33.646355
2200.000000	33.623526
2199.000000	33.549261
2198.000000	33.501028
2197.000000	33.318052
2196.000000	33.204387
2195.000000	33.200879
2194.000000	33.153040
2193.000000	33.033494
2192.000000	33.062543
2191.000000	33.077517
2190.000000	33.015710
2189.000000	32.891569
2188.000000	32.665339
2187.000000	32.518210
2186.000000	32.622069
2185.000000	32.640478
2184.000000	32.848394
2183.000000	32.615090
2182.000000	32.541656
2181.000000	32.471618
2180.000000	32.457859
2179.000000	32.584701
2178.000000	32.502069
2177.000000	32.583585
2176.000000	32.487257
2175.000000	32.420985
2174.000000	32.593513
2173.000000	32.567320
2172.000000	32.570901
2171.000000	32.553582
2170.000000	32.645153
2169.000000	32.834090
2168.000000	32.960463
2167.000000	32.901157
2166.000000	32.909367
2165.000000	33.068061
2164.000000	33.073574
2163.000000	33.036427
2162.000000	33.192369
2161.000000	33.300818
2160.000000	33.424429
2159.000000	33.541907
2158.000000	33.581895
2157.000000	33.779929
2156.000000	33.907359
2155.000000	34.008274
2154.000000	34.289118
2153.000000	34.218207
2152.000000	34.366253
2151.000000	34.509025
2150.000000	34.724074
2149.000000	34.822027
2148.000000	34.789742
2147.000000	35.018040
2146.000000	35.012778
2145.000000	35.283823
2144.000000	35.420379
2143.000000	35.393276
2142.000000	35.415687
2141.000000	35.598927
2140.000000	35.798125
2139.000000	35.887559
2138.000000	35.940543
2137.000000	36.061982
2136.000000	36.106747
2135.000000	36.015400
2134.000000	36.306818
2133.000000	36.206342
2132.000000	36.438936
2131.000000	36.531799
2130.000000	36.626236
2129.000000	36.528772
2128.000000	36.514151
2127.000000	36.510285
2126.000000	36.618236
2125.000000	36.710073
2124.000000	36.782165
2123.000000	36.746651
2122.000000	36.809056
2121.000000	36.947988
2120.000000	36.837623
2119.000000	36.894296
2118.000000	36.834724
2117.000000	36.788051
2116.000000	37.144362
2115.000000	37.072422
2114.000000	37.147187
2113.000000	36.986871
2112.000000	36.999004
2111.000000	36.999125
2110.000000	37.019630
2109.000000	37.233091
2108.000000	37.034208
2107.000000	37.075537
2106.000000	37.133866
2105.000000	37.211457
2104.000000	37.181458
2103.000000	37.132245
2102.000000	37.298453
2101.000000	37.155198
2100.000000	37.157742
2099.000000	37.099694
2098.000000	37.198031
2097.000000	37.265284
2096.000000	37.183167
2095.000000	37.193312
2094.000000	37.236140
2093.000000	37.119195
2092.000000	37.147841
2091.000000	37.139428
2090.000000	37.183633
2089.000000	37.121634
2088.000000	37.096691
2087.000000	37.039558
2086.000000	37.070689
2085.000000	37.056635
2084.000000	36.996781
2083.000000	36.891332
2082.000000	36.831112
2081.000000	36.836149
2080.000000	36.740287
2079.000000	36.786971
2078.000000	36.656795
2077.000000	36.614900
2076.000000	36.511296
2075.000000	36.423956
2074.000000	36.319619
2073.000000	36.237144
2072.000000	36.193373
2071.000000	36.126139
2070.000000	36.041577
2069.000000	35.839091
2068.000000	35.693439
2067.000000	35.607901
2066.000000	35.498255
2065.000000	35.352468
2064.000000	35.258385
2063.000000	35.098784
2062.000000	35.003923
2061.000000	34.891084
2060.000000	34.799003
2059.000000	34.655139
2058.000000	34.540704
2057.000000	34.495064
2056.000000	34.355735
2055.000000	34.198654
2054.000000	34.021232
2053.000000	33.898367
2052.000000	33.856492
2051.000000	33.766627
2050.000000	33.652391
2049.000000	33.611496
2048.000000	33.540680
2047.000000	33.428107
2046.000000	33.380259
2045.000000	33.387464
2044.000000	33.358096
2043.000000	33.354899
2042.000000	33.324439
2041.000000	33.354395
2040.000000	33.392180
2039.000000	33.392702
2038.000000	33.399891
2037.000000	33.452297
2036.000000	33.567838
2035.000000	33.654028
2034.000000	33.736863
2033.000000	33.833187
2032.000000	33.940502
2031.000000	34.021978
2030.000000	34.062963
2029.000000	34.157227
2028.000000	34.222578
2027.000000	34.282384
2026.000000	34.364300
2025.000000	34.455316
2024.000000	34.503734
2023.000000	34.580254
2022.000000	34.618900
2021.000000	34.629993
2020.000000	34.667461
2019.000000	34.677585
2018.000000	34.681581
2017.000000	34.673360
2016.000000	34.619297
2015.000000	34.616128
2014.000000	34.609636
2013.000000	34.565409
2012.000000	34.547718
2011.000000	34.478063
2010.000000	34.386608
2009.000000	34.261814
2008.000000	34.205564
2007.000000	34.123875
2006.000000	34.026864
2005.000000	33.951031
2004.000000	33.878672
2003.000000	33.795985
2002.000000	33.712475
2001.000000	33.606709
2000.000000	33.482513
1999.000000	33.379010
1998.000000	33.220595
1997.000000	33.159468
1996.000000	33.106595
1995.000000	33.005079
1994.000000	32.845999
1993.000000	32.761199
1992.000000	32.652441
1991.000000	32.491355
1990.000000	32.422746
1989.000000	32.329354
1988.000000	32.193553
1987.000000	32.060234
1986.000000	31.952761
1985.000000	31.843152
1984.000000	31.733999
1983.000000	31.587177
1982.000000	31.513120
1981.000000	31.448488
1980.000000	31.323056
1979.000000	31.191059
1978.000000	31.085978
1977.000000	30.938850
1976.000000	30.809960
1975.000000	30.739732
1974.000000	30.631305
1973.000000	30.557580
1972.000000	30.422274
1971.000000	30.294952
1970.000000	30.231695
1969.000000	30.158643
1968.000000	30.069815
1967.000000	29.974601
1966.000000	29.872314
1965.000000	29.742788
1964.000000	29.620043
1963.000000	29.530910
1962.000000	29.432841
1961.000000	29.331802
1960.000000	29.299406
1959.000000	29.140380
1958.000000	29.101180
1957.000000	29.006123
1956.000000	28.902042
1955.000000	28.851141
1954.000000	28.799519
1953.000000	28.728712
1952.000000	28.686740
1951.000000	28.644604
1950.000000	28.606247
1949.000000	28.531998
1948.000000	28.452230
1947.000000	28.364795
1946.000000	28.363892
1945.000000	28.351030
1944.000000	28.356502
1943.000000	28.366728
1942.000000	28.361714
1941.000000	28.409244
1940.000000	28.422110
1939.000000	28.411394
1938.000000	28.479799
1937.000000	28.595582
1936.000000	28.692034
1935.000000	28.689766
1934.000000	28.787810
1933.000000	28.862222
1932.000000	28.974022
1931.000000	29.175856
1930.000000	29.339525
1929.000000	29.473913
1928.000000	29.526924
1927.000000	29.808477
1926.000000	30.008494
1925.000000	30.212753
1924.000000	30.417541
1923.000000	30.603314
1922.000000	30.954320
1921.000000	31.185211
1920.000000	31.408425
1919.000000	31.600928
1918.000000	31.984180
1917.000000	32.175459
1916.000000	32.478916
1915.000000	32.853432
1914.000000	33.279993
1913.000000	33.671702
1912.000000	33.993747
1911.000000	34.314948
1910.000000	34.677027
1909.000000	34.997397
1908.000000	35.406629
1907.000000	35.959797
1906.000000	36.322804
1905.000000	36.855145
1904.000000	37.226672
1903.000000	37.635257
1902.000000	38.150325
1901.000000	38.650523
1900.000000	39.123772
1899.000000	39.554438
1898.000000	40.095039
1897.000000	40.506968
1896.000000	40.896839
1895.000000	41.373468
1894.000000	41.886265
1893.000000	42.243604
1892.000000	42.730460
1891.000000	43.121144
1890.000000	43.515126
1889.000000	43.914305
1888.000000	44.280285
1887.000000	44.717981
1886.000000	45.116823
1885.000000	45.466814
1884.000000	45.795156
1883.000000	46.110500
1882.000000	46.333245
1881.000000	46.660723
1880.000000	46.932103
1879.000000	47.176570
1878.000000	47.493980
1877.000000	47.732914
1876.000000	47.872950
1875.000000	48.125665
1874.000000	48.306423
1873.000000	48.484943
1872.000000	48.633364
1871.000000	48.744523
1870.000000	48.859286
1869.000000	48.975610
1868.000000	49.125728
1867.000000	49.162193
1866.000000	49.290386
1865.000000	49.368164
1864.000000	49.421352
1863.000000	49.494189
1862.000000	49.553558
1861.000000	49.593378
1860.000000	49.639195
1859.000000	49.700834
1858.000000	49.804424
1857.000000	49.824777
1856.000000	49.862861
1855.000000	49.852757
1854.000000	49.897576
1853.000000	49.961648
1852.000000	49.951084
1851.000000	49.969376
1850.000000	50.008136
1849.000000	50.014806
1848.000000	49.952560
1847.000000	49.959117
1846.000000	50.037361
1845.000000	49.994793
1844.000000	49.930613
1843.000000	49.855049
1842.000000	49.849661
1841.000000	49.830982
1840.000000	49.795853
1839.000000	49.782546
1838.000000	49.743325
1837.000000	49.707655
1836.000000	49.670853
1835.000000	49.598226
1834.000000	49.549806
1833.000000	49.518869
1832.000000	49.506856
1831.000000	49.467675
1830.000000	49.407102
1829.000000	49.358176
1828.000000	49.347742
1827.000000	49.340680
1826.000000	49.308727
1825.000000	49.271689
1824.000000	49.238745
1823.000000	49.220168
1822.000000	49.156168
1821.000000	49.127299
1820.000000	49.103617
1819.000000	49.077226
1818.000000	49.076223
1817.000000	49.042947
1816.000000	48.995826
1815.000000	48.981889
1814.000000	48.942509
1813.000000	48.915713
1812.000000	48.912037
1811.000000	48.910287
1810.000000	48.885715
1809.000000	48.837487
1808.000000	48.833149
1807.000000	48.806354
1806.000000	48.762109
1805.000000	48.749293
1804.000000	48.737768
1803.000000	48.736084
1802.000000	48.705852
1801.000000	48.672258
1800.000000	48.666520
1799.000000	48.642528
1798.000000	48.593530
1797.000000	48.600035
1796.000000	48.603079
1795.000000	48.572437
1794.000000	48.570174
1793.000000	48.565478
1792.000000	48.544513
1791.000000	48.536419
1790.000000	48.511943
1789.000000	48.502509
1788.000000	48.501130
1787.000000	48.490456
1786.000000	48.498712
1785.000000	48.494881
1784.000000	48.467950
1783.000000	48.428161
1782.000000	48.382235
1781.000000	48.358770
1780.000000	48.339198
1779.000000	48.305962
1778.000000	48.279680
1777.000000	48.225336
1776.000000	48.174318
1775.000000	48.121504
1774.000000	48.085036
1773.000000	48.082148
1772.000000	48.022036
1771.000000	47.963349
1770.000000	47.912769
1769.000000	47.850162
1768.000000	47.811820
1767.000000	47.788228
1766.000000	47.732730
1765.000000	47.677961
1764.000000	47.655092
1763.000000	47.605493
1762.000000	47.563050
1761.000000	47.546921
1760.000000	47.464969
1759.000000	47.419255
1758.000000	47.429348
1757.000000	47.381613
1756.000000	47.357801
1755.000000	47.332787
1754.000000	47.291572
1753.000000	47.248405
1752.000000	47.239729
1751.000000	47.216202
1750.000000	47.160699
1749.000000	47.134975
1748.000000	47.072497
1747.000000	47.014695
1746.000000	46.981831
1745.000000	46.933413
1744.000000	46.863414
1743.000000	46.832628
1742.000000	46.753834
1741.000000	46.713593
1740.000000	46.651936
1739.000000	46.606969
1738.000000	46.532526
1737.000000	46.506874
1736.000000	46.459286
1735.000000	46.398509
1734.000000	46.418840
1733.000000	46.366124
1732.000000	46.366242
1731.000000	46.351178
1730.000000	46.388458
1729.000000	46.403301
1728.000000	46.454693
1727.000000	46.492931
1726.000000	46.484959
1725.000000	46.563072
1724.000000	46.649101
1723.000000	46.713037
1722.000000	46.793052
1721.000000	46.870433
1720.000000	46.964136
1719.000000	47.058060
1718.000000	47.122143
1717.000000	47.207352
1716.000000	47.301866
1715.000000	47.360804
1714.000000	47.456716
1713.000000	47.534827
1712.000000	47.586793
1711.000000	47.659480
1710.000000	47.723410
1709.000000	47.819125
1708.000000	47.852501
1707.000000	47.895188
1706.000000	47.962906
1705.000000	48.020112
1704.000000	48.037490
1703.000000	48.012020
1702.000000	48.082707
1701.000000	48.124298
1700.000000	48.125977
1699.000000	48.154803
1698.000000	48.213016
1697.000000	48.221050
1696.000000	48.285263
1695.000000	48.303081
1694.000000	48.336352
1693.000000	48.378203
1692.000000	48.371684
1691.000000	48.475811
1690.000000	48.547935
1689.000000	48.604154
1688.000000	48.674147
1687.000000	48.733257
1686.000000	48.813228
1685.000000	48.896656
1684.000000	49.019606
1683.000000	49.128649
1682.000000	49.237592
1681.000000	49.352791
1680.000000	49.445436
1679.000000	49.559021
1678.000000	49.692169
1677.000000	49.779313
1676.000000	49.881040
1675.000000	50.023016
1674.000000	50.141703
1673.000000	50.233396
1672.000000	50.351677
1671.000000	50.444054
1670.000000	50.577793
1669.000000	50.695508
1668.000000	50.788760
1667.000000	50.847227
1666.000000	50.921780
1665.000000	50.956375
1664.000000	51.014847
1663.000000	51.060846
1662.000000	51.134112
1661.000000	51.174599
1660.000000	51.203922
1659.000000	51.252757
1658.000000	51.299248
1657.000000	51.299448
1656.000000	51.337317
1655.000000	51.377330
1654.000000	51.368891
1653.000000	51.392918
1652.000000	51.406668
1651.000000	51.374846
1650.000000	51.376324
1649.000000	51.358420
1648.000000	51.335264
1647.000000	51.347909
1646.000000	51.345830
1645.000000	51.302737
1644.000000	51.304859
1643.000000	51.284746
1642.000000	51.292770
1641.000000	51.267356
1640.000000	51.220891
1639.000000	51.207813
1638.000000	51.199621
1637.000000	51.178405
1636.000000	51.121744
1635.000000	51.071410
1634.000000	51.065608
1633.000000	51.059463
1632.000000	51.020975
1631.000000	50.969017
1630.000000	50.937516
1629.000000	50.929181
1628.000000	50.871090
1627.000000	50.804020
1626.000000	50.795425
1625.000000	50.763503
1624.000000	50.738072
1623.000000	50.710202
1622.000000	50.678148
1621.000000	50.640792
1620.000000	50.606817
1619.000000	50.555475
1618.000000	50.510000
1617.000000	50.472193
1616.000000	50.432271
1615.000000	50.397934
1614.000000	50.365221
1613.000000	50.323598
1612.000000	50.277773
1611.000000	50.247226
1610.000000	50.220801
1609.000000	50.163535
1608.000000	50.113515
1607.000000	50.090022
1606.000000	50.033387
1605.000000	49.981407
1604.000000	49.923603
1603.000000	49.876127
1602.000000	49.850937
1601.000000	49.812446
1600.000000	49.758610
1599.000000	49.701143
1598.000000	49.668684
1597.000000	49.637087
1596.000000	49.591783
1595.000000	49.556417
1594.000000	49.526198
1593.000000	49.498914
1592.000000	49.459013
1591.000000	49.406101
1590.000000	49.369364
1589.000000	49.333833
1588.000000	49.285891
1587.000000	49.258623
1586.000000	49.250269
1585.000000	49.211662
1584.000000	49.171568
1583.000000	49.134652
1582.000000	49.095326
1581.000000	49.056306
1580.000000	49.012735
1579.000000	48.980954
1578.000000	48.955927
1577.000000	48.912337
1576.000000	48.876438
1575.000000	48.852288
1574.000000	48.803107
1573.000000	48.761831
1572.000000	48.741306
1571.000000	48.708082
1570.000000	48.674221
1569.000000	48.631597
1568.000000	48.594198
1567.000000	48.557601
1566.000000	48.538408
1565.000000	48.513517
1564.000000	48.479042
1563.000000	48.459355
1562.000000	48.441689
1561.000000	48.418063
1560.000000	48.386639
1559.000000	48.345936
1558.000000	48.332812
1557.000000	48.313570
1556.000000	48.286540
1555.000000	48.272624
1554.000000	48.226918
1553.000000	48.204160
1552.000000	48.185517
1551.000000	48.152274
1550.000000	48.114773
1549.000000	48.081124
1548.000000	48.021920
1547.000000	47.983179
1546.000000	47.953282
1545.000000	47.890615
1544.000000	47.841669
1543.000000	47.781010
1542.000000	47.719275
1541.000000	47.676758
1540.000000	47.610460
1539.000000	47.544347
1538.000000	47.474388
1537.000000	47.397537
1536.000000	47.337558
1535.000000	47.283272
1534.000000	47.215426
1533.000000	47.159591
1532.000000	47.076744
1531.000000	47.028736
1530.000000	46.973739
1529.000000	46.904626
1528.000000	46.844407
1527.000000	46.800516
1526.000000	46.769331
1525.000000	46.702001
1524.000000	46.655756
1523.000000	46.625078
1522.000000	46.583231
1521.000000	46.553359
1520.000000	46.520352
1519.000000	46.488522
1518.000000	46.487757
1517.000000	46.440669
1516.000000	46.408336
1515.000000	46.378527
1514.000000	46.345700
1513.000000	46.336959
1512.000000	46.313987
1511.000000	46.278223
1510.000000	46.272071
1509.000000	46.239335
1508.000000	46.226465
1507.000000	46.251221
1506.000000	46.225306
1505.000000	46.185058
1504.000000	46.185004
1503.000000	46.171112
1502.000000	46.155467
1501.000000	46.161257
1500.000000	46.138583
1499.000000	46.139876
1498.000000	46.142813
1497.000000	46.138730
1496.000000	46.120150
1495.000000	46.141058
1494.000000	46.144955
1493.000000	46.139517
1492.000000	46.149709
1491.000000	46.163865
1490.000000	46.179730
1489.000000	46.173884
1488.000000	46.194420
1487.000000	46.196247
1486.000000	46.220006
1485.000000	46.222129
1484.000000	46.240893
1483.000000	46.253847
1482.000000	46.255400
1481.000000	46.289749
1480.000000	46.299988
1479.000000	46.296122
1478.000000	46.332795
1477.000000	46.338409
1476.000000	46.343172
1475.000000	46.359346
1474.000000	46.377099
1473.000000	46.394459
1472.000000	46.413635
1471.000000	46.421191
1470.000000	46.439199
1469.000000	46.446280
1468.000000	46.446503
1467.000000	46.475674
1466.000000	46.503544
1465.000000	46.515692
1464.000000	46.524598
1463.000000	46.538980
1462.000000	46.555516
1461.000000	46.600261
1460.000000	46.619046
1459.000000	46.658075
1458.000000	46.677997
1457.000000	46.694415
1456.000000	46.735168
1455.000000	46.756731
1454.000000	46.803302
1453.000000	46.851324
1452.000000	46.885257
1451.000000	46.941215
1450.000000	46.979425
1449.000000	47.027085
1448.000000	47.077149
1447.000000	47.115327
1446.000000	47.165717
1445.000000	47.245621
1444.000000	47.302706
1443.000000	47.362002
1442.000000	47.429090
1441.000000	47.478320
1440.000000	47.550650
1439.000000	47.609410
1438.000000	47.699545
1437.000000	47.779201
1436.000000	47.852365
1435.000000	47.941589
1434.000000	48.025083
1433.000000	48.121714
1432.000000	48.215757
1431.000000	48.304351
1430.000000	48.401505
1429.000000	48.516620
1428.000000	48.634346
1427.000000	48.744066
1426.000000	48.858174
1425.000000	48.973372
1424.000000	49.087013
1423.000000	49.201952
1422.000000	49.347548
1421.000000	49.468875
1420.000000	49.613181
1419.000000	49.734233
1418.000000	49.870972
1417.000000	50.005104
1416.000000	50.131119
1415.000000	50.270065
1414.000000	50.399657
1413.000000	50.543577
1412.000000	50.688056
1411.000000	50.834744
1410.000000	50.965477
1409.000000	51.107164
1408.000000	51.259690
1407.000000	51.381483
1406.000000	51.501999
1405.000000	51.632831
1404.000000	51.734173
1403.000000	51.838590
1402.000000	51.950388
1401.000000	52.060669
1400.000000	52.192314
1399.000000	52.306941
1398.000000	52.401178
1397.000000	52.495507
1396.000000	52.599624
1395.000000	52.703594
1394.000000	52.802931
1393.000000	52.899863
1392.000000	52.986717
1391.000000	53.072091
1390.000000	53.140664
1389.000000	53.209960
1388.000000	53.277951
1387.000000	53.323684
1386.000000	53.378768
1385.000000	53.439874
1384.000000	53.508836
1383.000000	53.563231
1382.000000	53.595067
1381.000000	53.662414
1380.000000	53.727178
1379.000000	53.783487
1378.000000	53.826876
1377.000000	53.896757
1376.000000	53.966940
1375.000000	53.989925
1374.000000	54.020345
1373.000000	54.068819
1372.000000	54.116848
1371.000000	54.161378
1370.000000	54.188846
1369.000000	54.215904
1368.000000	54.250316
1367.000000	54.273451
1366.000000	54.296855
1365.000000	54.309050
1364.000000	54.319836
1363.000000	54.345664
1362.000000	54.361142
1361.000000	54.371579
1360.000000	54.370239
1359.000000	54.394801
1358.000000	54.406810
1357.000000	54.411010
1356.000000	54.439971
1355.000000	54.451614
1354.000000	54.487641
1353.000000	54.522264
1352.000000	54.565807
1351.000000	54.594797
1350.000000	54.601704
1349.000000	54.626484
1348.000000	54.664070
1347.000000	54.706238
1346.000000	54.760377
1345.000000	54.782304
1344.000000	54.812721
1343.000000	54.851792
1342.000000	54.891737
1341.000000	54.914344
1340.000000	54.929935
1339.000000	54.955288
1338.000000	54.975425
1337.000000	55.001844
1336.000000	55.022739
1335.000000	55.039935
1334.000000	55.053799
1333.000000	55.062406
1332.000000	55.083250
1331.000000	55.082962
1330.000000	55.081716
1329.000000	55.086683
1328.000000	55.106268
1327.000000	55.126473
1326.000000	55.178882
1325.000000	55.211587
1324.000000	55.212154
1323.000000	55.207211
1322.000000	55.204114
1321.000000	55.195741
1320.000000	55.192242
1319.000000	55.206788
1318.000000	55.195961
1317.000000	55.202342
1316.000000	55.220824
1315.000000	55.238349
1314.000000	55.228517
1313.000000	55.226860
1312.000000	55.218774
1311.000000	55.245301
1310.000000	55.233570
1309.000000	55.246397
1308.000000	55.260092
1307.000000	55.251824
1306.000000	55.242050
1305.000000	55.267524
1304.000000	55.244229
1303.000000	55.282935
1302.000000	55.301902
1301.000000	55.305556
1300.000000	55.303477
1299.000000	55.294478
1298.000000	55.292664
1297.000000	55.291936
1296.000000	55.303376
1295.000000	55.291715
1294.000000	55.291580
1293.000000	55.298073
1292.000000	55.296625
1291.000000	55.298137
1290.000000	55.295967
1289.000000	55.292407
1288.000000	55.271389
1287.000000	55.265580
1286.000000	55.252136
1285.000000	55.251249
1284.000000	55.234710
1283.000000	55.231098
1282.000000	55.203336
1281.000000	55.187436
1280.000000	55.177069
1279.000000	55.175638
1278.000000	55.151447
1277.000000	55.164385
1276.000000	55.137500
1275.000000	55.120373
1274.000000	55.116439
1273.000000	55.096837
1272.000000	55.092978
1271.000000	55.089541
1270.000000	55.069476
1269.000000	55.087174
1268.000000	55.061661
1267.000000	55.064507
1266.000000	55.059178
1265.000000	55.042510
1264.000000	55.049763
1263.000000	55.048443
1262.000000	55.072375
1261.000000	55.035510
1260.000000	55.023748
1259.000000	55.043336
1258.000000	55.027371
1257.000000	55.012180
1256.000000	55.014124
1255.000000	55.041370
1254.000000	55.015826
1253.000000	55.034153
1252.000000	55.012817
1251.000000	55.030378
1250.000000	55.024604
1249.000000	55.029946
1248.000000	55.021527
1247.000000	55.019563
1246.000000	55.005579
1245.000000	54.977461
1244.000000	54.992505
1243.000000	54.989035
1242.000000	54.993130
1241.000000	54.977370
1240.000000	54.958521
1239.000000	54.946656
1238.000000	54.919078
1237.000000	54.892084
1236.000000	54.865720
1235.000000	54.873058
1234.000000	54.851330
1233.000000	54.820575
1232.000000	54.795127
1231.000000	54.771323
1230.000000	54.744609
1229.000000	54.713607
1228.000000	54.692806
1227.000000	54.668053
1226.000000	54.624349
1225.000000	54.600917
1224.000000	54.565833
1223.000000	54.549729
1222.000000	54.525524
1221.000000	54.473945
1220.000000	54.438439
1219.000000	54.402364
1218.000000	54.394336
1217.000000	54.376092
1216.000000	54.343656
1215.000000	54.300167
1214.000000	54.264304
1213.000000	54.261227
1212.000000	54.245502
1211.000000	54.199505
1210.000000	54.191178
1209.000000	54.169832
1208.000000	54.130059
1207.000000	54.110384
1206.000000	54.108570
1205.000000	54.082620
1204.000000	54.052309
1203.000000	54.065586
1202.000000	54.052012
1201.000000	54.009663
1200.000000	53.996136
1199.000000	53.988819
1198.000000	54.001925
1197.000000	54.002628
1196.000000	53.973356
1195.000000	53.953471
1194.000000	53.945523
1193.000000	53.944467
1192.000000	53.940468
1191.000000	53.941757
1190.000000	53.929841
1189.000000	53.906643
1188.000000	53.906200
1187.000000	53.903528
1186.000000	53.895423
1185.000000	53.895741
1184.000000	53.887612
1183.000000	53.893819
1182.000000	53.927444
1181.000000	53.942631
1180.000000	53.941416
1179.000000	53.959556
1178.000000	53.976284
1177.000000	53.989278
1176.000000	54.010738
1175.000000	54.033413
1174.000000	54.044906
1173.000000	54.070252
1172.000000	54.089213
1171.000000	54.104090
1170.000000	54.122197
1169.000000	54.147955
1168.000000	54.166370
1167.000000	54.186408
1166.000000	54.219305
1165.000000	54.255891
1164.000000	54.274871
1163.000000	54.297901
1162.000000	54.325950
1161.000000	54.356376
1160.000000	54.388939
1159.000000	54.415805
1158.000000	54.442043
1157.000000	54.473855
1156.000000	54.486667
1155.000000	54.498662
1154.000000	54.520655
1153.000000	54.531373
1152.000000	54.565726
1151.000000	54.604171
1150.000000	54.617796
1149.000000	54.626255
1148.000000	54.636790
1147.000000	54.658422
1146.000000	54.682262
1145.000000	54.692938
1144.000000	54.709295
1143.000000	54.721458
1142.000000	54.719214
1141.000000	54.726002
1140.000000	54.746386
1139.000000	54.766276
1138.000000	54.784947
1137.000000	54.797212
1136.000000	54.808059
1135.000000	54.810863
1134.000000	54.821180
1133.000000	54.842844
1132.000000	54.848706
1131.000000	54.860753
1130.000000	54.861462
1129.000000	54.852611
1128.000000	54.842773
1127.000000	54.849824
1126.000000	54.843639
1125.000000	54.850571
1124.000000	54.861865
1123.000000	54.859048
1122.000000	54.837453
1121.000000	54.830448
1120.000000	54.831873
1119.000000	54.843655
1118.000000	54.847882
1117.000000	54.825406
1116.000000	54.831098
1115.000000	54.827189
1114.000000	54.839959
1113.000000	54.836829
1112.000000	54.814514
1111.000000	54.809461
1110.000000	54.810449
1109.000000	54.796102
1108.000000	54.792082
1107.000000	54.795416
1106.000000	54.784425
1105.000000	54.783882
1104.000000	54.776989
1103.000000	54.764205
1102.000000	54.766684
1101.000000	54.780365
1100.000000	54.759821
1099.000000	54.746636
1098.000000	54.741578
1097.000000	54.728758
1096.000000	54.730008
1095.000000	54.734982
1094.000000	54.718454
1093.000000	54.717563
1092.000000	54.692464
1091.000000	54.680279
1090.000000	54.681101
1089.000000	54.677372
1088.000000	54.673639
1087.000000	54.654592
1086.000000	54.655797
1085.000000	54.636361
1084.000000	54.624501
1083.000000	54.615676
1082.000000	54.606070
1081.000000	54.609488
1080.000000	54.589955
1079.000000	54.560736
1078.000000	54.552991
1077.000000	54.566068
1076.000000	54.550011
1075.000000	54.545924
1074.000000	54.510296
1073.000000	54.503151
1072.000000	54.509498
1071.000000	54.497788
1070.000000	54.481866
1069.000000	54.472086
1068.000000	54.451318
1067.000000	54.440762
1066.000000	54.431224
1065.000000	54.419272
1064.000000	54.413084
1063.000000	54.402663
1062.000000	54.393961
1061.000000	54.382071
1060.000000	54.390660
1059.000000	54.370609
1058.000000	54.358396
1057.000000	54.334983
1056.000000	54.350067
1055.000000	54.328988
1054.000000	54.301747
1053.000000	54.299755
1052.000000	54.293973
1051.000000	54.283134
1050.000000	54.255003
1049.000000	54.256401
1048.000000	54.235849
1047.000000	54.209781
1046.000000	54.218753
1045.000000	54.224370
1044.000000	54.179449
1043.000000	54.171682
1042.000000	54.175205
1041.000000	54.142937
1040.000000	54.141932
1039.000000	54.132598
1038.000000	54.103499
1037.000000	54.100192
1036.000000	54.100049
1035.000000	54.052486
1034.000000	54.050467
1033.000000	54.057678
1032.000000	54.035376
1031.000000	54.006491
1030.000000	54.028211
1029.000000	53.998897
1028.000000	53.979533
1027.000000	53.985739
1026.000000	53.944511
1025.000000	53.957733
1024.000000	53.937097
1023.000000	53.910636
1022.000000	53.910450
1021.000000	53.883585
1020.000000	53.876244
1019.000000	53.863882
1018.000000	53.855908
1017.000000	53.854573
1016.000000	53.826029
1015.000000	53.813952
1014.000000	53.819176
1013.000000	53.789580
1012.000000	53.793011
1011.000000	53.778787
1010.000000	53.764548
1009.000000	53.752919
1008.000000	53.746355
1007.000000	53.730625
1006.000000	53.719136
1005.000000	53.711102
1004.000000	53.700683
1003.000000	53.694051
1002.000000	53.668531
1001.000000	53.632952
1000.000000	53.641946
999.000000	53.649429
998.000000	53.636634
997.000000	53.635788
996.000000	53.610953
995.000000	53.596240
994.000000	53.577989
993.000000	53.564310
992.000000	53.565448
991.000000	53.550620
990.000000	53.533370
989.000000	53.519472
988.000000	53.514843
987.000000	53.504745
986.000000	53.490919
985.000000	53.488950
984.000000	53.487469
983.000000	53.472395
982.000000	53.451947
981.000000	53.453637
980.000000	53.447080
979.000000	53.416022
978.000000	53.399010
977.000000	53.398272
976.000000	53.395695
975.000000	53.404528
974.000000	53.403921
973.000000	53.379535
972.000000	53.380789
971.000000	53.361519
970.000000	53.363491
969.000000	53.359525
968.000000	53.343380
967.000000	53.331186
966.000000	53.324909
965.000000	53.315514
964.000000	53.299972
963.000000	53.311078
962.000000	53.304762
961.000000	53.290904
960.000000	53.282763
959.000000	53.281507
958.000000	53.258767
957.000000	53.228581
956.000000	53.221232
955.000000	53.225857
954.000000	53.214160
953.000000	53.218453
952.000000	53.217390
951.000000	53.193168
950.000000	53.182279
949.000000	53.167528
948.000000	53.150456
947.000000	53.144826
946.000000	53.147463
945.000000	53.124077
944.000000	53.080321
943.000000	53.061809
942.000000	53.070892
941.000000	53.070164
940.000000	53.058571
939.000000	53.032348
938.000000	53.014400
937.000000	52.987229
936.000000	52.966065
935.000000	52.944535
934.000000	52.922809
933.000000	52.926372
932.000000	52.923448
931.000000	52.891688
930.000000	52.881393
929.000000	52.877333
928.000000	52.853487
927.000000	52.854318
926.000000	52.846875
925.000000	52.828281
924.000000	52.800393
923.000000	52.784282
922.000000	52.764419
921.000000	52.738594
920.000000	52.734754
919.000000	52.689531
918.000000	52.700978
917.000000	52.700178
916.000000	52.631974
915.000000	52.631984
914.000000	52.644465
913.000000	52.623906
912.000000	52.586621
911.000000	52.575553
910.000000	52.562629
909.000000	52.562596
908.000000	52.568952
907.000000	52.563232
906.000000	52.514210
905.000000	52.490481
904.000000	52.465043
903.000000	52.446744
902.000000	52.435027
901.000000	52.419844
900.000000	52.419678
899.000000	52.418459
898.000000	52.437279
897.000000	52.379709
896.000000	52.366501
895.000000	52.327852
894.000000	52.311076
893.000000	52.302054
892.000000	52.265197
891.000000	52.241681
890.000000	52.246729
889.000000	52.242774
888.000000	52.243329
887.000000	52.229155
886.000000	52.201667
885.000000	52.154996
884.000000	52.183734
883.000000	52.160753
882.000000	52.119989
881.000000	52.082932
880.000000	52.071429
879.000000	52.030484
878.000000	52.014244
877.000000	51.993234
876.000000	51.955760
875.000000	52.032933
874.000000	51.861480
873.000000	51.856411
872.000000	51.767262
871.000000	51.793889
870.000000	51.736037
869.000000	51.737750
868.000000	51.746477
867.000000	51.690014
866.000000	51.635864
865.000000	51.754262
864.000000	51.585563
863.000000	51.561580
862.000000	51.532383
861.000000	51.498302
860.000000	51.492978
859.000000	50.269418
858.000000	49.777845
857.000000	50.081234
856.000000	49.554826
855.000000	49.798404
854.000000	49.980930
853.000000	49.755614
852.000000	49.889342
851.000000	49.872943
850.000000	49.913089
849.000000	49.960791
848.000000	49.838446
847.000000	49.928324
846.000000	49.703357
845.000000	49.709075
844.000000	49.645566
843.000000	49.825374
842.000000	49.304886
841.000000	49.542075
840.000000	49.333427
839.000000	49.457393
838.000000	49.519720
837.000000	49.489410
836.000000	49.517013
835.000000	49.339793
834.000000	49.364797
833.000000	49.153551
832.000000	49.077268
831.000000	49.284412
830.000000	49.203593
829.000000	49.178493
828.000000	49.113294
827.000000	49.053823
826.000000	48.966685
825.000000	48.892617
824.000000	48.944057
823.000000	48.970275
822.000000	48.977194
821.000000	49.076324
820.000000	48.771206
819.000000	48.862279
818.000000	48.790130
817.000000	48.739386
816.000000	48.751822
815.000000	48.590917
814.000000	48.674863
813.000000	48.598705
812.000000	48.507557
811.000000	48.503355
810.000000	48.553958
809.000000	48.637781
808.000000	48.283047
807.000000	48.398729
806.000000	48.316580
805.000000	48.327560
804.000000	48.260510
803.000000	48.145623
802.000000	48.091710
801.000000	48.104247
800.000000	48.069625
799.000000	48.084875
798.000000	47.986048
797.000000	47.938630
796.000000	47.873238
795.000000	47.753072
794.000000	47.812712
793.000000	47.755744
792.000000	47.738585
791.000000	47.745084
790.000000	47.715889
789.000000	47.632528
788.000000	47.531458
787.000000	47.498177
786.000000	47.459983
785.000000	47.468344
784.000000	47.418712
783.000000	47.352949
782.000000	47.303814
781.000000	47.360212
780.000000	47.220631
779.000000	47.211013
778.000000	47.137145
777.000000	47.069204
776.000000	47.140444
775.000000	47.004326
774.000000	46.961992
773.000000	46.937710
772.000000	46.885230
771.000000	46.797599
770.000000	46.746551
769.000000	46.675878
768.000000	46.665294
767.000000	46.647106
766.000000	46.689964
765.000000	46.470199
764.000000	46.438306
763.000000	46.392103
762.000000	46.362054
761.000000	46.328291
760.000000	46.280017
759.000000	46.317249
758.000000	46.177631
757.000000	46.134245
756.000000	46.105704
755.000000	46.072373
754.000000	45.987745
753.000000	45.857697
752.000000	45.862490
751.000000	45.860339
750.000000	45.788344
749.000000	45.705107
748.000000	45.701990
747.000000	45.626586
746.000000	45.518110
745.000000	45.440825
744.000000	45.401266
743.000000	45.360790
742.000000	45.338673
741.000000	45.244250
740.000000	45.197292
739.000000	45.137271
738.000000	45.054207
737.000000	45.031497
736.000000	44.986889
735.000000	44.908566
734.000000	44.844822
733.000000	44.838978
732.000000	44.773278
731.000000	44.643411
730.000000	44.578773
729.000000	44.534838
728.000000	44.467498
727.000000	44.420925
726.000000	44.394142
725.000000	44.265450
724.000000	44.151969
723.000000	44.077761
722.000000	44.052854
721.000000	44.023080
720.000000	43.961549
719.000000	43.903148
718.000000	43.804406
717.000000	43.735983
716.000000	43.676385
715.000000	43.626542
714.000000	43.594215
713.000000	43.489175
712.000000	43.429275
711.000000	43.342717
710.000000	43.278992
709.000000	43.229302
708.000000	43.144054
707.000000	43.050979
706.000000	42.991640
705.000000	42.962645
704.000000	42.936330
703.000000	42.860038
702.000000	42.751686
701.000000	42.666265
700.000000	42.630745
699.000000	42.548221
698.000000	42.449607
697.000000	42.403162
696.000000	42.287671
695.000000	42.182122
694.000000	42.122589
693.000000	42.084226
692.000000	42.002124
691.000000	41.884017
690.000000	41.846093
689.000000	41.727530
688.000000	41.604935
687.000000	41.537901
686.000000	41.447677
685.000000	41.370624
684.000000	41.280125
683.000000	41.196110
682.000000	41.094126
681.000000	41.044178
680.000000	40.960284
679.000000	40.894336
678.000000	40.812145
677.000000	40.739396
676.000000	40.632448
675.000000	40.539593
674.000000	40.478244
673.000000	40.379803
672.000000	40.291076
671.000000	40.222711
670.000000	40.121217
669.000000	40.039401
668.000000	39.976072
667.000000	39.876561
666.000000	39.799079
665.000000	39.712765
664.000000	39.622147
663.000000	39.557666
662.000000	39.437857
661.000000	39.341277
660.000000	39.234290
659.000000	39.162120
658.000000	39.060928
657.000000	39.008553
656.000000	38.939614
655.000000	38.861973
654.000000	38.756458
653.000000	38.628011
652.000000	38.575724
651.000000	38.497830
650.000000	38.408219
649.000000	38.313973
648.000000	38.271455
647.000000	38.144954
646.000000	38.029894
645.000000	37.919769
644.000000	37.823664
643.000000	37.731810
642.000000	37.670065
641.000000	37.574909
640.000000	37.482976
639.000000	37.360327
638.000000	37.272708
637.000000	37.195758
636.000000	37.066284
635.000000	36.991740
634.000000	36.886128
633.000000	36.798666
632.000000	36.675589
631.000000	36.601093
630.000000	36.522455
629.000000	36.441366
628.000000	36.330501
627.000000	36.247521
626.000000	36.083768
625.000000	36.031242
624.000000	35.919125
623.000000	35.807520
622.000000	35.707619
621.000000	35.605094
620.000000	35.515362
619.000000	35.428737
618.000000	35.324562
617.000000	35.219025
616.000000	35.105330
615.000000	34.990662
614.000000	34.885015
613.000000	34.783430
612.000000	34.719640
611.000000	34.644857
610.000000	34.497143
609.000000	34.377178
608.000000	34.282233
607.000000	34.183270
606.000000	34.094891
605.000000	33.977085
604.000000	33.862899
603.000000	33.712596
602.000000	33.639216
601.000000	33.549668
600.000000	33.406476
599.000000	33.297868
598.000000	33.195599
597.000000	33.089776
596.000000	32.942420
595.000000	32.862014
594.000000	32.738715
593.000000	32.628672
592.000000	32.533664
591.000000	32.415263
590.000000	32.282934
589.000000	32.192234
588.000000	32.096347
587.000000	31.970576
586.000000	31.832547
585.000000	31.767204
584.000000	31.639513
583.000000	31.544395
582.000000	31.386470
581.000000	31.313085
580.000000	31.153893
579.000000	31.062391
578.000000	30.928494
577.000000	30.817815
576.000000	30.707268
575.000000	30.577168
574.000000	30.469600
573.000000	30.363718
572.000000	30.250264
571.000000	30.118362
570.000000	29.997577
569.000000	29.882057
568.000000	29.750970
567.000000	29.621162
566.000000	29.512229
565.000000	29.416665
564.000000	29.264776
563.000000	29.155445
562.000000	29.050605
561.000000	28.977247
560.000000	28.843758
559.000000	28.706024
558.000000	28.623780
557.000000	28.494816
556.000000	28.368242
555.000000	28.241786
554.000000	28.114842
553.000000	28.027125
552.000000	27.889343
551.000000	27.787737
550.000000	27.663985
549.000000	27.523858
548.000000	27.401159
547.000000	27.280213
546.000000	27.138357
545.000000	27.042098
544.000000	26.911513
543.000000	26.801048
542.000000	26.686283
541.000000	26.553612
540.000000	26.429399
539.000000	26.322559
538.000000	26.212460
537.000000	26.080097
536.000000	25.948193
535.000000	25.854071
534.000000	25.725142
533.000000	25.597013
532.000000	25.477932
531.000000	25.366362
530.000000	25.237760
529.000000	25.121612
528.000000	24.998418
527.000000	24.869953
526.000000	24.755289
525.000000	24.648312
524.000000	24.527576
523.000000	24.390562
522.000000	24.285999
521.000000	24.203126
520.000000	24.072452
519.000000	23.946309
518.000000	23.804964
517.000000	23.700291
516.000000	23.581263
515.000000	23.472194
514.000000	23.351296
513.000000	23.223920
512.000000	23.112359
511.000000	22.979332
510.000000	22.877138
509.000000	22.769597
508.000000	22.652576
507.000000	22.523346
506.000000	22.390532
505.000000	22.286804
504.000000	22.165324
503.000000	22.049824
502.000000	21.927993
501.000000	21.807346
500.000000	21.676183
499.000000	21.572707
498.000000	21.455642
497.000000	21.348746
496.000000	21.230894
495.000000	21.118934
494.000000	21.008574
493.000000	20.884595
492.000000	20.756992
491.000000	20.665071
490.000000	20.530358
489.000000	20.429527
488.000000	20.335556
487.000000	20.199298
486.000000	20.078027
485.000000	19.960488
484.000000	19.863933
483.000000	19.769684
482.000000	19.640147
481.000000	19.539241
480.000000	19.446859
479.000000	19.336152
478.000000	19.213253
477.000000	19.092788
476.000000	18.984152
475.000000	18.876483
474.000000	18.766329
473.000000	18.657320
472.000000	18.539903
471.000000	18.434214
470.000000	18.338902
469.000000	18.237725
468.000000	18.132537
467.000000	18.017123
466.000000	17.892937
465.000000	17.774562
464.000000	17.661758
463.000000	17.553995
462.000000	17.453463
461.000000	17.342801
460.000000	17.222418
459.000000	17.106271
458.000000	16.985173
457.000000	16.857831
456.000000	16.743966
455.000000	16.628284
454.000000	16.513399
453.000000	16.409437
452.000000	16.300440
451.000000	16.164962
450.000000	16.033952
449.000000	15.935172
448.000000	15.832738
447.000000	15.698663
446.000000	15.583315
445.000000	15.468691
444.000000	15.328742
443.000000	15.229625
442.000000	15.129462
441.000000	15.026987
440.000000	14.933643
439.000000	14.844471
438.000000	14.728843
437.000000	14.627537
436.000000	14.533487
435.000000	14.424330
434.000000	14.330460
433.000000	14.239969
432.000000	14.146033
431.000000	14.021697
430.000000	13.920814
429.000000	13.824610
428.000000	13.743582
427.000000	13.641055
426.000000	13.536509
425.000000	13.436441
424.000000	13.336836
423.000000	13.216876
422.000000	13.131886
421.000000	13.037848
420.000000	12.921392
419.000000	12.821818
418.000000	12.723274
417.000000	12.611111
416.000000	12.533595
415.000000	12.413894
414.000000	12.307501
413.000000	12.222437
412.000000	12.118514
411.000000	12.002728
410.000000	11.897295
409.000000	11.812186
408.000000	11.693806
407.000000	11.607307
406.000000	11.523089
405.000000	11.396463
404.000000	11.287387
403.000000	11.210996
402.000000	11.107940
401.000000	11.004241
400.000000	10.899182
399.000000	10.792493
398.000000	10.696003
397.000000	10.597972
396.000000	10.518175
395.000000	10.432938
394.000000	10.347157
393.000000	10.247711
392.000000	10.150657
391.000000	10.051711
390.000000	9.952129
389.000000	9.867754
388.000000	9.778639
387.000000	9.678902
386.000000	9.625608
385.000000	9.502108
384.000000	9.414427
383.000000	9.315626
382.000000	9.220979
381.000000	9.146340
380.000000	9.085085
379.000000	9.005221
378.000000	8.912823
377.000000	8.892768
376.000000	8.790391
375.000000	8.699448
374.000000	8.643985
373.000000	8.602123
372.000000	8.470514
371.000000	8.389536
370.000000	8.328562
369.000000	8.306052
368.000000	8.213089
367.000000	8.150960
366.000000	8.090822
365.000000	8.007207
364.000000	7.951535
363.000000	7.917895
362.000000	7.882052
361.000000	7.802849
360.000000	7.760273
359.000000	7.716982
358.000000	7.673924
357.000000	7.638440
356.000000	7.580795
355.000000	7.523570
354.000000	7.487308
353.000000	7.446957
352.000000	7.409987
351.000000	7.354575
350.000000	7.302709
349.000000	7.287805
348.000000	7.246670
347.000000	7.201187
346.000000	7.182167
345.000000	7.149703
344.000000	7.077761
343.000000	7.036998
342.000000	7.007278
341.000000	6.996199
340.000000	6.964700
339.000000	6.913258
338.000000	6.885510
337.000000	6.827923
336.000000	6.795145
335.000000	6.756594
334.000000	6.715309
333.000000	6.700891
332.000000	6.664597
331.000000	6.648494
330.000000	6.642584
329.000000	6.596239
328.000000	6.599797
327.000000	6.586185
326.000000	6.545222
325.000000	6.467403
324.000000	6.458408
323.000000	6.453716
322.000000	6.416431
321.000000	6.490509
320.000000	6.465554
319.000000	6.388633
318.000000	6.346463
317.000000	6.335940
316.000000	6.368617
315.000000	6.348129
314.000000	6.368994
313.000000	6.327564
312.000000	6.300297
311.000000	6.290813
310.000000	6.278997
309.000000	6.295928
308.000000	6.294352
307.000000	6.259449
306.000000	6.293051
305.000000	6.265832
304.000000	6.307138
303.000000	6.267785
302.000000	6.258356
301.000000	6.310519
300.000000	6.338517
299.000000	6.339059
298.000000	6.285195
297.000000	6.321160
296.000000	6.318642
295.000000	6.366362
294.000000	6.355892
293.000000	6.335528
292.000000	6.396068
291.000000	6.402310
290.000000	6.436514
289.000000	6.439798
288.000000	6.454272
287.000000	6.523963
286.000000	6.547577
285.000000	6.548897
284.000000	6.557638
283.000000	6.576708
282.000000	6.638957
281.000000	6.633588
280.000000	6.690849
279.000000	6.728734
278.000000	6.793580
277.000000	6.813998
276.000000	6.871921
275.000000	6.924538
274.000000	6.977163
273.000000	7.016730
272.000000	7.090078
271.000000	7.146446
270.000000	7.166250
269.000000	7.228954
268.000000	7.292458
267.000000	7.359925
266.000000	7.376801
265.000000	7.450823
264.000000	7.545672
263.000000	7.656832
262.000000	7.702729
261.000000	7.751853
260.000000	7.851745
259.000000	7.945010
258.000000	8.027712
257.000000	8.125173
256.000000	8.218697
255.000000	8.315350
254.000000	8.398817
253.000000	8.503838
252.000000	8.591280
251.000000	8.710315
250.000000	8.814808
249.000000	8.922666
248.000000	9.004447
247.000000	9.088834
246.000000	9.182839
245.000000	9.247095
244.000000	9.349100
243.000000	9.460813
242.000000	9.594581
241.000000	9.676354
240.000000	9.749062
239.000000	9.794877
238.000000	9.876768
237.000000	9.919665
236.000000	9.969038
235.000000	10.029143
234.000000	10.083502
233.000000	10.146943
232.000000	10.186751
231.000000	10.230565
230.000000	10.310960
229.000000	10.382951
228.000000	10.463724
227.000000	10.493836
226.000000	10.574047
225.000000	10.748388
224.000000	10.859756
223.000000	10.895209
222.000000	11.019681
221.000000	11.162141
220.000000	11.265065
219.000000	11.413299
218.000000	11.584918
217.000000	11.734012
216.000000	11.942227
215.000000	12.136570
214.000000	12.335745
213.000000	12.538212
212.000000	12.673620
211.000000	12.982486
210.000000	13.332588
209.000000	13.707413
208.000000	14.083254
207.000000	14.390676
206.000000	14.728944
205.000000	15.154135
204.000000	15.509133
203.000000	16.112826
202.000000	16.641507
201.000000	17.015852
200.000000	17.516803
