PE UV       SUBTECH     SPECTRUM    ASCII       PEDS        4.00        
   -1
RDms1482151.Sample.asc
18/03/15
11:29:14.00
18/03/15
11:29:14.00
Administrator

200.000000
1
Lambda 750
750N8071901
PerkinElmer UV WinLab 6.0.4.0738 / 1.61.00 Lambda 900

0
0
3350/servo 860.8/2
0
0
UV/VIS
1
1
1
CommonBeamDepol,150mm sphere / downward view
0
0
0
0
Program
Program
3350/servo 860.8/2
3350/0.2 860.8/0.2
3350/0.2 860.8/0.2
0
1
 
 
 
0
 
860.8
319.2
860.8
Front
100
on
 
 
0
0
0
 
0
 
 
 
0
 
 
0
0
0
0
0
 
 
 
 
0
0


0
0
#HDR
-1
-1
#GR
nm
%R
1.0
0.0
2350.000000
-1.000000
2151
8
76.065334
9.552538
#DATA
2350.000000	21.863054
2349.000000	21.834950
2348.000000	21.754072
2347.000000	22.280458
2346.000000	22.193324
2345.000000	21.732330
2344.000000	21.934171
2343.000000	21.772640
2342.000000	22.024203
2341.000000	22.330103
2340.000000	22.174053
2339.000000	22.380443
2338.000000	22.607797
2337.000000	22.741292
2336.000000	23.113775
2335.000000	23.336201
2334.000000	22.939139
2333.000000	23.076403
2332.000000	23.316404
2331.000000	23.128118
2330.000000	22.835767
2329.000000	22.912505
2328.000000	23.041437
2327.000000	22.715012
2326.000000	23.045944
2325.000000	22.582559
2324.000000	22.395435
2323.000000	22.481559
2322.000000	22.511763
2321.000000	22.305477
2320.000000	22.576270
2319.000000	22.347265
2318.000000	22.361554
2317.000000	22.135236
2316.000000	21.896114
2315.000000	21.852336
2314.000000	21.954314
2313.000000	21.695067
2312.000000	21.722196
2311.000000	21.757245
2310.000000	21.659184
2309.000000	21.619378
2308.000000	21.632677
2307.000000	21.504810
2306.000000	21.373773
2305.000000	21.572473
2304.000000	21.590255
2303.000000	21.673293
2302.000000	21.396090
2301.000000	21.255285
2300.000000	21.192330
2299.000000	21.306788
2298.000000	21.261705
2297.000000	21.327489
2296.000000	21.365740
2295.000000	21.320352
2294.000000	21.239116
2293.000000	21.167431
2292.000000	21.160171
2291.000000	21.308073
2290.000000	21.209683
2289.000000	21.097825
2288.000000	21.326111
2287.000000	21.485632
2286.000000	21.569036
2285.000000	21.309169
2284.000000	21.053748
2283.000000	21.054280
2282.000000	21.164977
2281.000000	21.258103
2280.000000	21.414680
2279.000000	21.367565
2278.000000	21.353590
2277.000000	21.479383
2276.000000	21.482847
2275.000000	21.533371
2274.000000	21.690692
2273.000000	21.851191
2272.000000	22.031310
2271.000000	21.928730
2270.000000	21.720234
2269.000000	22.024485
2268.000000	22.214049
2267.000000	22.319005
2266.000000	22.368905
2265.000000	22.570286
2264.000000	22.723405
2263.000000	22.814407
2262.000000	22.880786
2261.000000	23.199817
2260.000000	23.559972
2259.000000	23.516562
2258.000000	23.544749
2257.000000	23.843876
2256.000000	24.062873
2255.000000	24.224384
2254.000000	24.372412
2253.000000	24.640636
2252.000000	25.053222
2251.000000	25.230727
2250.000000	25.333383
2249.000000	25.480692
2248.000000	25.636469
2247.000000	25.759618
2246.000000	26.008592
2245.000000	26.333452
2244.000000	26.548111
2243.000000	26.793890
2242.000000	26.851155
2241.000000	26.882374
2240.000000	27.064079
2239.000000	27.257652
2238.000000	27.366500
2237.000000	27.424338
2236.000000	27.529482
2235.000000	27.695898
2234.000000	27.865594
2233.000000	27.900723
2232.000000	27.892902
2231.000000	27.960718
2230.000000	28.080172
2229.000000	27.964137
2228.000000	27.995758
2227.000000	28.033074
2226.000000	28.050374
2225.000000	27.952858
2224.000000	27.926155
2223.000000	27.908786
2222.000000	27.868129
2221.000000	27.743609
2220.000000	27.767169
2219.000000	27.834858
2218.000000	27.627910
2217.000000	27.510190
2216.000000	27.659693
2215.000000	27.666579
2214.000000	27.630516
2213.000000	27.595379
2212.000000	27.353682
2211.000000	27.387730
2210.000000	27.377999
2209.000000	27.210970
2208.000000	27.166391
2207.000000	26.991742
2206.000000	26.908950
2205.000000	26.959963
2204.000000	26.987953
2203.000000	26.862686
2202.000000	26.779838
2201.000000	26.552255
2200.000000	26.431326
2199.000000	26.416375
2198.000000	26.426938
2197.000000	26.383338
2196.000000	26.305442
2195.000000	26.224414
2194.000000	26.099493
2193.000000	25.928305
2192.000000	25.893918
2191.000000	25.862609
2190.000000	25.884090
2189.000000	25.656542
2188.000000	25.661836
2187.000000	25.724605
2186.000000	25.647967
2185.000000	25.518784
2184.000000	25.499090
2183.000000	25.547181
2182.000000	25.547821
2181.000000	25.378078
2180.000000	25.406774
2179.000000	25.284809
2178.000000	25.060601
2177.000000	25.270813
2176.000000	25.242846
2175.000000	25.326210
2174.000000	25.420210
2173.000000	25.359433
2172.000000	25.538214
2171.000000	25.549721
2170.000000	25.579595
2169.000000	25.592463
2168.000000	25.771086
2167.000000	25.849738
2166.000000	25.865783
2165.000000	26.052237
2164.000000	26.150491
2163.000000	26.096667
2162.000000	26.239592
2161.000000	26.170767
2160.000000	26.618358
2159.000000	26.559375
2158.000000	26.753638
2157.000000	27.028106
2156.000000	27.082634
2155.000000	27.284260
2154.000000	27.474979
2153.000000	27.566381
2152.000000	27.822263
2151.000000	27.896139
2150.000000	27.968050
2149.000000	28.043674
2148.000000	28.341456
2147.000000	28.431985
2146.000000	28.513623
2145.000000	28.771519
2144.000000	29.026347
2143.000000	29.184894
2142.000000	29.187208
2141.000000	29.365156
2140.000000	29.623847
2139.000000	29.671713
2138.000000	29.819085
2137.000000	30.056103
2136.000000	29.996097
2135.000000	30.110956
2134.000000	30.355692
2133.000000	30.327325
2132.000000	30.548338
2131.000000	30.808656
2130.000000	30.845026
2129.000000	30.799611
2128.000000	30.877686
2127.000000	30.932802
2126.000000	31.079454
2125.000000	31.190098
2124.000000	31.236983
2123.000000	31.254505
2122.000000	31.182479
2121.000000	31.344509
2120.000000	31.317446
2119.000000	31.374608
2118.000000	31.438773
2117.000000	31.586676
2116.000000	31.804523
2115.000000	31.972318
2114.000000	31.763427
2113.000000	31.776785
2112.000000	31.789490
2111.000000	31.792387
2110.000000	31.807864
2109.000000	32.011642
2108.000000	31.906261
2107.000000	31.914199
2106.000000	31.988783
2105.000000	31.958627
2104.000000	31.963066
2103.000000	31.962623
2102.000000	32.000137
2101.000000	32.040034
2100.000000	32.030905
2099.000000	32.022532
2098.000000	32.065014
2097.000000	32.020788
2096.000000	31.959291
2095.000000	31.921137
2094.000000	31.941426
2093.000000	31.878397
2092.000000	31.918661
2091.000000	31.981381
2090.000000	31.908721
2089.000000	31.946882
2088.000000	31.888191
2087.000000	31.767083
2086.000000	31.756142
2085.000000	31.707137
2084.000000	31.563165
2083.000000	31.559429
2082.000000	31.415535
2081.000000	31.185558
2080.000000	31.113880
2079.000000	31.101926
2078.000000	31.036960
2077.000000	30.895011
2076.000000	30.790055
2075.000000	30.651243
2074.000000	30.494146
2073.000000	30.316111
2072.000000	30.231983
2071.000000	30.093792
2070.000000	29.901913
2069.000000	29.695988
2068.000000	29.550280
2067.000000	29.439815
2066.000000	29.224224
2065.000000	29.036756
2064.000000	28.927790
2063.000000	28.771666
2062.000000	28.592158
2061.000000	28.416037
2060.000000	28.334464
2059.000000	28.251090
2058.000000	28.106949
2057.000000	28.008812
2056.000000	27.928640
2055.000000	27.820194
2054.000000	27.665755
2053.000000	27.510697
2052.000000	27.414167
2051.000000	27.270955
2050.000000	27.261730
2049.000000	27.281118
2048.000000	27.163947
2047.000000	27.107159
2046.000000	27.089007
2045.000000	27.094239
2044.000000	27.155537
2043.000000	27.140697
2042.000000	27.134385
2041.000000	27.206637
2040.000000	27.262919
2039.000000	27.312746
2038.000000	27.411234
2037.000000	27.480396
2036.000000	27.549370
2035.000000	27.672999
2034.000000	27.786145
2033.000000	27.844459
2032.000000	27.991378
2031.000000	28.117058
2030.000000	28.204584
2029.000000	28.321436
2028.000000	28.398165
2027.000000	28.486092
2026.000000	28.606066
2025.000000	28.697100
2024.000000	28.785365
2023.000000	28.831185
2022.000000	28.883241
2021.000000	28.958104
2020.000000	28.979674
2019.000000	29.001904
2018.000000	29.034671
2017.000000	29.032353
2016.000000	29.002134
2015.000000	28.944479
2014.000000	28.945603
2013.000000	28.923378
2012.000000	28.887022
2011.000000	28.859550
2010.000000	28.804702
2009.000000	28.714007
2008.000000	28.622105
2007.000000	28.498692
2006.000000	28.412445
2005.000000	28.350318
2004.000000	28.270412
2003.000000	28.181658
2002.000000	28.093746
2001.000000	27.954563
2000.000000	27.850663
1999.000000	27.787720
1998.000000	27.651071
1997.000000	27.541738
1996.000000	27.425747
1995.000000	27.344142
1994.000000	27.234295
1993.000000	27.085266
1992.000000	26.970948
1991.000000	26.838204
1990.000000	26.744234
1989.000000	26.639948
1988.000000	26.533209
1987.000000	26.427966
1986.000000	26.305887
1985.000000	26.179945
1984.000000	26.070653
1983.000000	25.959867
1982.000000	25.890897
1981.000000	25.765056
1980.000000	25.643305
1979.000000	25.506847
1978.000000	25.429476
1977.000000	25.326044
1976.000000	25.259214
1975.000000	25.138863
1974.000000	24.986161
1973.000000	24.909395
1972.000000	24.816557
1971.000000	24.729727
1970.000000	24.644653
1969.000000	24.536847
1968.000000	24.410753
1967.000000	24.360102
1966.000000	24.257549
1965.000000	24.182891
1964.000000	24.022441
1963.000000	23.939090
1962.000000	23.820036
1961.000000	23.765883
1960.000000	23.688858
1959.000000	23.540316
1958.000000	23.482479
1957.000000	23.429028
1956.000000	23.387416
1955.000000	23.370972
1954.000000	23.247183
1953.000000	23.163508
1952.000000	23.154312
1951.000000	23.153857
1950.000000	23.056258
1949.000000	23.003706
1948.000000	23.040467
1947.000000	22.980232
1946.000000	22.980288
1945.000000	22.938293
1944.000000	22.896204
1943.000000	22.962712
1942.000000	22.880541
1941.000000	22.920239
1940.000000	22.984967
1939.000000	23.023422
1938.000000	23.080533
1937.000000	23.178735
1936.000000	23.238252
1935.000000	23.300631
1934.000000	23.516177
1933.000000	23.532048
1932.000000	23.669257
1931.000000	23.826669
1930.000000	23.845818
1929.000000	24.030837
1928.000000	24.245310
1927.000000	24.413313
1926.000000	24.689127
1925.000000	24.920282
1924.000000	25.196610
1923.000000	25.389695
1922.000000	25.715318
1921.000000	25.996696
1920.000000	26.254690
1919.000000	26.610349
1918.000000	26.861044
1917.000000	27.330993
1916.000000	27.505189
1915.000000	27.998641
1914.000000	28.450164
1913.000000	28.886083
1912.000000	29.238607
1911.000000	29.841540
1910.000000	30.236391
1909.000000	30.671802
1908.000000	31.200894
1907.000000	31.783663
1906.000000	32.357753
1905.000000	32.937330
1904.000000	33.501078
1903.000000	34.077609
1902.000000	34.754883
1901.000000	35.330748
1900.000000	35.976806
1899.000000	36.664748
1898.000000	37.360647
1897.000000	37.940051
1896.000000	38.635019
1895.000000	39.334094
1894.000000	40.016660
1893.000000	40.685917
1892.000000	41.347237
1891.000000	41.928069
1890.000000	42.597107
1889.000000	43.228620
1888.000000	43.777117
1887.000000	44.428919
1886.000000	44.967476
1885.000000	45.584468
1884.000000	46.107247
1883.000000	46.654396
1882.000000	47.193009
1881.000000	47.713348
1880.000000	48.200549
1879.000000	48.606672
1878.000000	49.117540
1877.000000	49.548422
1876.000000	49.931340
1875.000000	50.303169
1874.000000	50.750237
1873.000000	50.988041
1872.000000	51.363202
1871.000000	51.707570
1870.000000	51.986376
1869.000000	52.201039
1868.000000	52.481052
1867.000000	52.667284
1866.000000	52.838103
1865.000000	53.054083
1864.000000	53.161576
1863.000000	53.321374
1862.000000	53.465141
1861.000000	53.612476
1860.000000	53.688416
1859.000000	53.738712
1858.000000	53.836052
1857.000000	53.900947
1856.000000	53.933276
1855.000000	53.970596
1854.000000	54.028000
1853.000000	54.088947
1852.000000	54.107046
1851.000000	54.116141
1850.000000	54.068220
1849.000000	54.108363
1848.000000	54.138286
1847.000000	54.118797
1846.000000	54.109896
1845.000000	54.075871
1844.000000	54.015919
1843.000000	53.951763
1842.000000	53.930533
1841.000000	53.856404
1840.000000	53.790966
1839.000000	53.806791
1838.000000	53.752749
1837.000000	53.629184
1836.000000	53.541261
1835.000000	53.490620
1834.000000	53.452596
1833.000000	53.391484
1832.000000	53.332328
1831.000000	53.244552
1830.000000	53.174708
1829.000000	53.105487
1828.000000	53.062121
1827.000000	52.988654
1826.000000	52.909135
1825.000000	52.876350
1824.000000	52.820188
1823.000000	52.763053
1822.000000	52.685740
1821.000000	52.629244
1820.000000	52.567735
1819.000000	52.516624
1818.000000	52.489650
1817.000000	52.422553
1816.000000	52.343513
1815.000000	52.294422
1814.000000	52.264560
1813.000000	52.203024
1812.000000	52.149376
1811.000000	52.122665
1810.000000	52.061885
1809.000000	51.999315
1808.000000	51.976017
1807.000000	51.934313
1806.000000	51.881830
1805.000000	51.810768
1804.000000	51.764043
1803.000000	51.739970
1802.000000	51.698177
1801.000000	51.662607
1800.000000	51.607652
1799.000000	51.558801
1798.000000	51.524005
1797.000000	51.512441
1796.000000	51.485677
1795.000000	51.438313
1794.000000	51.412990
1793.000000	51.366351
1792.000000	51.310649
1791.000000	51.285839
1790.000000	51.264650
1789.000000	51.212530
1788.000000	51.178999
1787.000000	51.118626
1786.000000	51.075552
1785.000000	51.042021
1784.000000	50.956847
1783.000000	50.900295
1782.000000	50.842711
1781.000000	50.777708
1780.000000	50.695775
1779.000000	50.620195
1778.000000	50.547091
1777.000000	50.407813
1776.000000	50.282649
1775.000000	50.214978
1774.000000	50.133548
1773.000000	50.043424
1772.000000	49.927749
1771.000000	49.824812
1770.000000	49.727669
1769.000000	49.605602
1768.000000	49.517023
1767.000000	49.420379
1766.000000	49.335811
1765.000000	49.216925
1764.000000	49.120881
1763.000000	49.015345
1762.000000	48.945448
1761.000000	48.840519
1760.000000	48.733119
1759.000000	48.659311
1758.000000	48.592749
1757.000000	48.483745
1756.000000	48.388020
1755.000000	48.315540
1754.000000	48.237260
1753.000000	48.134786
1752.000000	48.014309
1751.000000	47.930014
1750.000000	47.842172
1749.000000	47.736921
1748.000000	47.587704
1747.000000	47.482430
1746.000000	47.409296
1745.000000	47.290973
1744.000000	47.162986
1743.000000	47.045209
1742.000000	46.927392
1741.000000	46.823625
1740.000000	46.697162
1739.000000	46.626341
1738.000000	46.563248
1737.000000	46.470980
1736.000000	46.406771
1735.000000	46.366668
1734.000000	46.348157
1733.000000	46.290057
1732.000000	46.304991
1731.000000	46.307575
1730.000000	46.315533
1729.000000	46.350059
1728.000000	46.475286
1727.000000	46.549950
1726.000000	46.616083
1725.000000	46.760963
1724.000000	46.889265
1723.000000	47.029578
1722.000000	47.195638
1721.000000	47.323230
1720.000000	47.490794
1719.000000	47.634734
1718.000000	47.798856
1717.000000	47.985637
1716.000000	48.096855
1715.000000	48.277180
1714.000000	48.424519
1713.000000	48.582277
1712.000000	48.728485
1711.000000	48.837193
1710.000000	48.964947
1709.000000	49.093618
1708.000000	49.161133
1707.000000	49.284066
1706.000000	49.382170
1705.000000	49.485734
1704.000000	49.559155
1703.000000	49.614733
1702.000000	49.665008
1701.000000	49.730348
1700.000000	49.805849
1699.000000	49.871728
1698.000000	49.964458
1697.000000	50.046638
1696.000000	50.161611
1695.000000	50.239925
1694.000000	50.337962
1693.000000	50.490844
1692.000000	50.617253
1691.000000	50.740900
1690.000000	50.930863
1689.000000	51.122123
1688.000000	51.347558
1687.000000	51.534328
1686.000000	51.770500
1685.000000	52.004144
1684.000000	52.295968
1683.000000	52.556477
1682.000000	52.816653
1681.000000	53.128955
1680.000000	53.416602
1679.000000	53.714157
1678.000000	54.033241
1677.000000	54.300309
1676.000000	54.589256
1675.000000	54.916289
1674.000000	55.252550
1673.000000	55.501335
1672.000000	55.798242
1671.000000	56.044431
1670.000000	56.309386
1669.000000	56.602030
1668.000000	56.803384
1667.000000	57.044656
1666.000000	57.257687
1665.000000	57.420175
1664.000000	57.576691
1663.000000	57.718948
1662.000000	57.868241
1661.000000	57.998723
1660.000000	58.101166
1659.000000	58.237222
1658.000000	58.330022
1657.000000	58.403594
1656.000000	58.464745
1655.000000	58.533043
1654.000000	58.578372
1653.000000	58.596411
1652.000000	58.630624
1651.000000	58.619327
1650.000000	58.658074
1649.000000	58.656192
1648.000000	58.644645
1647.000000	58.636638
1646.000000	58.610567
1645.000000	58.570145
1644.000000	58.583409
1643.000000	58.526988
1642.000000	58.521500
1641.000000	58.449645
1640.000000	58.421510
1639.000000	58.388934
1638.000000	58.314572
1637.000000	58.270524
1636.000000	58.205737
1635.000000	58.153650
1634.000000	58.089079
1633.000000	58.035159
1632.000000	57.992122
1631.000000	57.932304
1630.000000	57.842994
1629.000000	57.777323
1628.000000	57.692374
1627.000000	57.612255
1626.000000	57.544883
1625.000000	57.456106
1624.000000	57.397537
1623.000000	57.350303
1622.000000	57.272269
1621.000000	57.155002
1620.000000	57.082778
1619.000000	57.002391
1618.000000	56.903566
1617.000000	56.824834
1616.000000	56.738065
1615.000000	56.634376
1614.000000	56.545859
1613.000000	56.464915
1612.000000	56.364259
1611.000000	56.256434
1610.000000	56.168340
1609.000000	56.056258
1608.000000	55.939827
1607.000000	55.867247
1606.000000	55.774646
1605.000000	55.665481
1604.000000	55.552730
1603.000000	55.440954
1602.000000	55.336188
1601.000000	55.241986
1600.000000	55.142448
1599.000000	55.038629
1598.000000	54.936102
1597.000000	54.844612
1596.000000	54.757471
1595.000000	54.670089
1594.000000	54.577489
1593.000000	54.499132
1592.000000	54.402371
1591.000000	54.300451
1590.000000	54.216991
1589.000000	54.125371
1588.000000	54.045065
1587.000000	53.975269
1586.000000	53.910397
1585.000000	53.839037
1584.000000	53.749753
1583.000000	53.683377
1582.000000	53.603297
1581.000000	53.523899
1580.000000	53.460417
1579.000000	53.363054
1578.000000	53.295829
1577.000000	53.228444
1576.000000	53.148536
1575.000000	53.070814
1574.000000	52.988382
1573.000000	52.925260
1572.000000	52.876307
1571.000000	52.796861
1570.000000	52.726869
1569.000000	52.671466
1568.000000	52.607331
1567.000000	52.553675
1566.000000	52.501122
1565.000000	52.443270
1564.000000	52.381150
1563.000000	52.344543
1562.000000	52.304521
1561.000000	52.248442
1560.000000	52.198803
1559.000000	52.126349
1558.000000	52.088606
1557.000000	52.054822
1556.000000	52.015328
1555.000000	51.956302
1554.000000	51.883488
1553.000000	51.813666
1552.000000	51.736816
1551.000000	51.682062
1550.000000	51.616683
1549.000000	51.531547
1548.000000	51.444969
1547.000000	51.346488
1546.000000	51.247112
1545.000000	51.135862
1544.000000	51.027468
1543.000000	50.900507
1542.000000	50.787010
1541.000000	50.668955
1540.000000	50.544594
1539.000000	50.426608
1538.000000	50.286013
1537.000000	50.122505
1536.000000	49.998431
1535.000000	49.877136
1534.000000	49.757683
1533.000000	49.637309
1532.000000	49.503321
1531.000000	49.372546
1530.000000	49.265894
1529.000000	49.147179
1528.000000	49.043711
1527.000000	48.935666
1526.000000	48.847000
1525.000000	48.748710
1524.000000	48.666100
1523.000000	48.587820
1522.000000	48.499968
1521.000000	48.436715
1520.000000	48.361121
1519.000000	48.324120
1518.000000	48.266822
1517.000000	48.194049
1516.000000	48.146130
1515.000000	48.085609
1514.000000	48.039328
1513.000000	48.018795
1512.000000	47.975909
1511.000000	47.915071
1510.000000	47.906237
1509.000000	47.861402
1508.000000	47.830729
1507.000000	47.833841
1506.000000	47.802025
1505.000000	47.767552
1504.000000	47.770581
1503.000000	47.759084
1502.000000	47.777924
1501.000000	47.752532
1500.000000	47.743232
1499.000000	47.738824
1498.000000	47.782139
1497.000000	47.792048
1496.000000	47.788586
1495.000000	47.842569
1494.000000	47.859940
1493.000000	47.887477
1492.000000	47.930296
1491.000000	47.962522
1490.000000	48.021494
1489.000000	48.061597
1488.000000	48.114756
1487.000000	48.198499
1486.000000	48.249812
1485.000000	48.288199
1484.000000	48.341776
1483.000000	48.445470
1482.000000	48.474610
1481.000000	48.534852
1480.000000	48.599417
1479.000000	48.657226
1478.000000	48.716137
1477.000000	48.783384
1476.000000	48.830625
1475.000000	48.900161
1474.000000	48.953706
1473.000000	49.005368
1472.000000	49.063509
1471.000000	49.116295
1470.000000	49.163954
1469.000000	49.231250
1468.000000	49.303576
1467.000000	49.344516
1466.000000	49.419274
1465.000000	49.469280
1464.000000	49.496443
1463.000000	49.575350
1462.000000	49.639535
1461.000000	49.715410
1460.000000	49.772275
1459.000000	49.841314
1458.000000	49.916793
1457.000000	49.982438
1456.000000	50.069699
1455.000000	50.140532
1454.000000	50.220629
1453.000000	50.309089
1452.000000	50.410768
1451.000000	50.499834
1450.000000	50.605147
1449.000000	50.690612
1448.000000	50.795310
1447.000000	50.914467
1446.000000	51.026402
1445.000000	51.153390
1444.000000	51.272977
1443.000000	51.390306
1442.000000	51.525802
1441.000000	51.652240
1440.000000	51.785118
1439.000000	51.931375
1438.000000	52.072338
1437.000000	52.218471
1436.000000	52.384451
1435.000000	52.554078
1434.000000	52.715840
1433.000000	52.905253
1432.000000	53.074157
1431.000000	53.265152
1430.000000	53.460344
1429.000000	53.660435
1428.000000	53.872539
1427.000000	54.102879
1426.000000	54.333517
1425.000000	54.568045
1424.000000	54.806305
1423.000000	55.039098
1422.000000	55.316042
1421.000000	55.597059
1420.000000	55.879644
1419.000000	56.142465
1418.000000	56.420035
1417.000000	56.718884
1416.000000	57.013997
1415.000000	57.325195
1414.000000	57.635415
1413.000000	57.959904
1412.000000	58.280865
1411.000000	58.612861
1410.000000	58.948104
1409.000000	59.288838
1408.000000	59.611375
1407.000000	59.927816
1406.000000	60.243481
1405.000000	60.589711
1404.000000	60.907819
1403.000000	61.227529
1402.000000	61.546952
1401.000000	61.862860
1400.000000	62.188581
1399.000000	62.491097
1398.000000	62.784444
1397.000000	63.084421
1396.000000	63.358617
1395.000000	63.642597
1394.000000	63.925918
1393.000000	64.197149
1392.000000	64.456472
1391.000000	64.723447
1390.000000	64.971137
1389.000000	65.208008
1388.000000	65.458024
1387.000000	65.670956
1386.000000	65.877105
1385.000000	66.093480
1384.000000	66.302902
1383.000000	66.518155
1382.000000	66.700263
1381.000000	66.878252
1380.000000	67.062293
1379.000000	67.218345
1378.000000	67.376792
1377.000000	67.544028
1376.000000	67.690730
1375.000000	67.800094
1374.000000	67.928262
1373.000000	68.052204
1372.000000	68.165214
1371.000000	68.288523
1370.000000	68.395291
1369.000000	68.498595
1368.000000	68.600690
1367.000000	68.714941
1366.000000	68.832127
1365.000000	68.926756
1364.000000	69.032831
1363.000000	69.141146
1362.000000	69.253810
1361.000000	69.376065
1360.000000	69.483667
1359.000000	69.614617
1358.000000	69.725126
1357.000000	69.822793
1356.000000	69.954977
1355.000000	70.058493
1354.000000	70.198928
1353.000000	70.320510
1352.000000	70.448432
1351.000000	70.569123
1350.000000	70.670783
1349.000000	70.785594
1348.000000	70.908913
1347.000000	71.018393
1346.000000	71.139226
1345.000000	71.234031
1344.000000	71.339588
1343.000000	71.443308
1342.000000	71.554210
1341.000000	71.646307
1340.000000	71.741165
1339.000000	71.824474
1338.000000	71.910369
1337.000000	72.006809
1336.000000	72.099534
1335.000000	72.166063
1334.000000	72.236131
1333.000000	72.305458
1332.000000	72.386049
1331.000000	72.473467
1330.000000	72.589552
1329.000000	72.657116
1328.000000	72.697955
1327.000000	72.739438
1326.000000	72.797788
1325.000000	72.854938
1324.000000	72.897444
1323.000000	72.953872
1322.000000	73.015184
1321.000000	73.047392
1320.000000	73.045562
1319.000000	73.094400
1318.000000	73.158786
1317.000000	73.208661
1316.000000	73.253596
1315.000000	73.267979
1314.000000	73.281151
1313.000000	73.323111
1312.000000	73.337286
1311.000000	73.406121
1310.000000	73.427898
1309.000000	73.447439
1308.000000	73.456404
1307.000000	73.496339
1306.000000	73.522164
1305.000000	73.555273
1304.000000	73.574603
1303.000000	73.575269
1302.000000	73.582457
1301.000000	73.627490
1300.000000	73.647045
1299.000000	73.644080
1298.000000	73.642194
1297.000000	73.646241
1296.000000	73.649735
1295.000000	73.650912
1294.000000	73.632643
1293.000000	73.627922
1292.000000	73.615250
1291.000000	73.603335
1290.000000	73.623354
1289.000000	73.596468
1288.000000	73.579000
1287.000000	73.534062
1286.000000	73.514853
1285.000000	73.529709
1284.000000	73.511150
1283.000000	73.528298
1282.000000	73.516673
1281.000000	73.503554
1280.000000	73.497163
1279.000000	73.493801
1278.000000	73.476776
1277.000000	73.459761
1276.000000	73.476658
1275.000000	73.463918
1274.000000	73.463151
1273.000000	73.448052
1272.000000	73.486843
1271.000000	73.472431
1270.000000	73.473093
1269.000000	73.508378
1268.000000	73.484812
1267.000000	73.514347
1266.000000	73.525140
1265.000000	73.465158
1264.000000	73.502614
1263.000000	73.530076
1262.000000	73.580089
1261.000000	73.559096
1260.000000	73.568881
1259.000000	73.555289
1258.000000	73.566527
1257.000000	73.551712
1256.000000	73.574916
1255.000000	73.628967
1254.000000	73.603615
1253.000000	73.594615
1252.000000	73.564232
1251.000000	73.583316
1250.000000	73.541967
1249.000000	73.511488
1248.000000	73.490516
1247.000000	73.469756
1246.000000	73.463458
1245.000000	73.408285
1244.000000	73.383460
1243.000000	73.313971
1242.000000	73.285806
1241.000000	73.234335
1240.000000	73.207962
1239.000000	73.152543
1238.000000	73.066684
1237.000000	73.010004
1236.000000	72.972041
1235.000000	72.912422
1234.000000	72.815213
1233.000000	72.766184
1232.000000	72.720309
1231.000000	72.651376
1230.000000	72.538818
1229.000000	72.479427
1228.000000	72.420254
1227.000000	72.364112
1226.000000	72.299030
1225.000000	72.233966
1224.000000	72.173405
1223.000000	72.094939
1222.000000	72.035685
1221.000000	71.948238
1220.000000	71.861996
1219.000000	71.811849
1218.000000	71.751162
1217.000000	71.697762
1216.000000	71.631219
1215.000000	71.549642
1214.000000	71.477770
1213.000000	71.411469
1212.000000	71.361541
1211.000000	71.319761
1210.000000	71.249527
1209.000000	71.209040
1208.000000	71.156481
1207.000000	71.095676
1206.000000	71.010205
1205.000000	70.973221
1204.000000	70.909619
1203.000000	70.861216
1202.000000	70.839701
1201.000000	70.785154
1200.000000	70.725179
1199.000000	70.663968
1198.000000	70.623977
1197.000000	70.598729
1196.000000	70.558790
1195.000000	70.529734
1194.000000	70.484515
1193.000000	70.464219
1192.000000	70.446842
1191.000000	70.427771
1190.000000	70.404573
1189.000000	70.370382
1188.000000	70.373258
1187.000000	70.377358
1186.000000	70.387340
1185.000000	70.416099
1184.000000	70.451431
1183.000000	70.490223
1182.000000	70.558851
1181.000000	70.623893
1180.000000	70.686629
1179.000000	70.760527
1178.000000	70.830699
1177.000000	70.909917
1176.000000	71.017905
1175.000000	71.126039
1174.000000	71.214391
1173.000000	71.318598
1172.000000	71.439810
1171.000000	71.563867
1170.000000	71.688807
1169.000000	71.808290
1168.000000	71.930447
1167.000000	72.065076
1166.000000	72.203599
1165.000000	72.332920
1164.000000	72.433260
1163.000000	72.556174
1162.000000	72.686423
1161.000000	72.817296
1160.000000	72.963789
1159.000000	73.089428
1158.000000	73.214594
1157.000000	73.342183
1156.000000	73.447672
1155.000000	73.563970
1154.000000	73.669087
1153.000000	73.757823
1152.000000	73.873570
1151.000000	73.986078
1150.000000	74.074200
1149.000000	74.158298
1148.000000	74.252270
1147.000000	74.342180
1146.000000	74.426790
1145.000000	74.503272
1144.000000	74.587122
1143.000000	74.680774
1142.000000	74.755022
1141.000000	74.839279
1140.000000	74.926709
1139.000000	74.998198
1138.000000	75.090490
1137.000000	75.168411
1136.000000	75.222309
1135.000000	75.278614
1134.000000	75.357225
1133.000000	75.437112
1132.000000	75.478529
1131.000000	75.521268
1130.000000	75.581498
1129.000000	75.644658
1128.000000	75.696506
1127.000000	75.720891
1126.000000	75.766162
1125.000000	75.805364
1124.000000	75.823585
1123.000000	75.850541
1122.000000	75.884664
1121.000000	75.915479
1120.000000	75.931673
1119.000000	75.953764
1118.000000	75.972877
1117.000000	75.980464
1116.000000	76.000579
1115.000000	76.006478
1114.000000	76.025056
1113.000000	76.024784
1112.000000	76.010073
1111.000000	76.031590
1110.000000	76.045909
1109.000000	76.062801
1108.000000	76.065334
1107.000000	76.052902
1106.000000	76.051640
1105.000000	76.059644
1104.000000	76.049490
1103.000000	76.041956
1102.000000	76.058936
1101.000000	76.050185
1100.000000	76.034967
1099.000000	76.042325
1098.000000	76.039899
1097.000000	76.031079
1096.000000	76.036411
1095.000000	76.026467
1094.000000	76.017298
1093.000000	76.000526
1092.000000	75.990087
1091.000000	75.998169
1090.000000	75.993847
1089.000000	75.990668
1088.000000	75.998958
1087.000000	75.940982
1086.000000	75.947138
1085.000000	75.926134
1084.000000	75.927032
1083.000000	75.923955
1082.000000	75.926366
1081.000000	75.884881
1080.000000	75.873064
1079.000000	75.854663
1078.000000	75.843897
1077.000000	75.849204
1076.000000	75.838580
1075.000000	75.811508
1074.000000	75.770865
1073.000000	75.768662
1072.000000	75.753533
1071.000000	75.756293
1070.000000	75.735758
1069.000000	75.690774
1068.000000	75.686175
1067.000000	75.651523
1066.000000	75.640875
1065.000000	75.629121
1064.000000	75.577628
1063.000000	75.571777
1062.000000	75.567320
1061.000000	75.564365
1060.000000	75.523911
1059.000000	75.497488
1058.000000	75.485439
1057.000000	75.466764
1056.000000	75.443764
1055.000000	75.467915
1054.000000	75.420592
1053.000000	75.418389
1052.000000	75.394684
1051.000000	75.341750
1050.000000	75.369658
1049.000000	75.335595
1048.000000	75.319703
1047.000000	75.319002
1046.000000	75.282097
1045.000000	75.271781
1044.000000	75.243782
1043.000000	75.215884
1042.000000	75.239509
1041.000000	75.215845
1040.000000	75.218525
1039.000000	75.194173
1038.000000	75.176687
1037.000000	75.170064
1036.000000	75.161353
1035.000000	75.146142
1034.000000	75.143116
1033.000000	75.141777
1032.000000	75.126812
1031.000000	75.100039
1030.000000	75.121475
1029.000000	75.083194
1028.000000	75.065487
1027.000000	75.054156
1026.000000	75.064491
1025.000000	75.073551
1024.000000	75.036835
1023.000000	75.033388
1022.000000	75.005388
1021.000000	74.993489
1020.000000	75.008394
1019.000000	75.008343
1018.000000	75.001492
1017.000000	75.010465
1016.000000	74.996236
1015.000000	74.995137
1014.000000	74.998925
1013.000000	75.001050
1012.000000	75.000830
1011.000000	74.975524
1010.000000	75.016662
1009.000000	75.010778
1008.000000	75.018967
1007.000000	75.016157
1006.000000	74.998441
1005.000000	75.017607
1004.000000	75.027338
1003.000000	75.010974
1002.000000	75.010751
1001.000000	75.019063
1000.000000	75.023724
999.000000	75.033822
998.000000	75.025403
997.000000	75.021560
996.000000	75.007887
995.000000	75.011837
994.000000	75.006353
993.000000	75.029859
992.000000	75.018800
991.000000	75.008089
990.000000	75.020117
989.000000	75.020130
988.000000	75.029070
987.000000	75.035032
986.000000	75.049959
985.000000	75.050378
984.000000	75.054905
983.000000	75.062943
982.000000	75.079675
981.000000	75.087869
980.000000	75.076649
979.000000	75.064291
978.000000	75.083918
977.000000	75.092530
976.000000	75.094992
975.000000	75.089659
974.000000	75.116722
973.000000	75.119012
972.000000	75.126479
971.000000	75.134941
970.000000	75.134139
969.000000	75.142769
968.000000	75.170630
967.000000	75.175863
966.000000	75.162119
965.000000	75.168340
964.000000	75.182917
963.000000	75.204541
962.000000	75.219830
961.000000	75.219274
960.000000	75.226152
959.000000	75.240395
958.000000	75.241098
957.000000	75.236389
956.000000	75.249978
955.000000	75.259964
954.000000	75.259785
953.000000	75.258595
952.000000	75.293543
951.000000	75.306808
950.000000	75.296123
949.000000	75.308226
948.000000	75.311506
947.000000	75.304838
946.000000	75.303107
945.000000	75.314927
944.000000	75.310871
943.000000	75.308337
942.000000	75.317337
941.000000	75.294034
940.000000	75.283490
939.000000	75.274784
938.000000	75.247790
937.000000	75.218851
936.000000	75.220422
935.000000	75.210915
934.000000	75.225555
933.000000	75.222996
932.000000	75.181536
931.000000	75.174603
930.000000	75.202076
929.000000	75.211307
928.000000	75.183695
927.000000	75.173262
926.000000	75.155182
925.000000	75.114077
924.000000	75.088056
923.000000	75.068145
922.000000	75.078236
921.000000	75.089200
920.000000	75.092608
919.000000	75.071847
918.000000	75.070237
917.000000	75.072255
916.000000	75.054714
915.000000	75.031981
914.000000	75.020565
913.000000	74.991924
912.000000	74.962019
911.000000	74.957578
910.000000	74.921347
909.000000	74.894651
908.000000	74.954886
907.000000	74.944488
906.000000	74.923890
905.000000	74.920582
904.000000	74.941612
903.000000	74.937264
902.000000	74.931847
901.000000	74.922468
900.000000	74.963804
899.000000	75.007202
898.000000	74.936544
897.000000	74.907110
896.000000	74.881406
895.000000	74.895629
894.000000	74.890993
893.000000	74.871800
892.000000	74.803035
891.000000	74.943354
890.000000	74.984170
889.000000	74.968828
888.000000	75.018340
887.000000	74.959220
886.000000	74.947483
885.000000	75.112386
884.000000	74.989238
883.000000	74.942021
882.000000	74.917395
881.000000	74.894710
880.000000	74.887757
879.000000	74.932317
878.000000	75.022672
877.000000	75.002395
876.000000	74.936887
875.000000	74.949565
874.000000	74.914372
873.000000	74.849558
872.000000	74.780669
871.000000	74.879138
870.000000	74.845234
869.000000	74.793305
868.000000	74.848864
867.000000	74.891430
866.000000	74.816866
865.000000	74.768046
864.000000	74.637362
863.000000	74.597099
862.000000	74.610210
861.000000	74.636400
860.000000	74.726709
859.000000	75.028827
858.000000	74.972292
857.000000	74.766534
856.000000	75.158445
855.000000	75.148768
854.000000	75.144626
853.000000	74.817826
852.000000	74.955600
851.000000	75.098975
850.000000	75.130897
849.000000	75.157654
848.000000	74.897629
847.000000	75.072672
846.000000	74.865389
845.000000	74.556961
844.000000	74.833222
843.000000	74.844397
842.000000	74.848935
841.000000	74.989586
840.000000	74.746970
839.000000	74.699719
838.000000	74.469136
837.000000	74.654188
836.000000	74.611107
835.000000	74.706158
834.000000	74.712074
833.000000	74.570475
832.000000	74.348154
831.000000	74.573259
830.000000	74.554596
829.000000	74.384406
828.000000	74.439359
827.000000	74.306926
826.000000	74.401052
825.000000	74.344934
824.000000	74.364685
823.000000	74.460503
822.000000	74.577344
821.000000	74.482768
820.000000	74.201367
819.000000	74.292047
818.000000	74.042392
817.000000	74.145792
816.000000	74.146951
815.000000	73.941558
814.000000	74.021137
813.000000	74.015066
812.000000	73.950002
811.000000	74.089499
810.000000	73.951114
809.000000	73.921512
808.000000	73.973552
807.000000	73.932596
806.000000	73.623533
805.000000	73.978339
804.000000	73.704459
803.000000	73.751568
802.000000	73.698455
801.000000	73.648353
800.000000	73.637271
799.000000	73.796693
798.000000	73.726653
797.000000	73.590504
796.000000	73.652927
795.000000	73.499587
794.000000	73.529984
793.000000	73.439526
792.000000	73.535544
791.000000	73.462842
790.000000	73.359529
789.000000	73.452689
788.000000	73.340045
787.000000	73.186783
786.000000	73.230446
785.000000	73.199845
784.000000	73.178317
783.000000	73.098492
782.000000	73.091718
781.000000	73.098146
780.000000	73.052219
779.000000	73.112305
778.000000	73.092494
777.000000	72.780299
776.000000	72.939060
775.000000	72.872247
774.000000	72.834007
773.000000	72.820768
772.000000	72.753249
771.000000	72.662027
770.000000	72.627451
769.000000	72.557490
768.000000	72.683435
767.000000	72.565075
766.000000	72.599962
765.000000	72.498635
764.000000	72.418799
763.000000	72.329212
762.000000	72.321010
761.000000	72.346558
760.000000	72.370682
759.000000	72.364790
758.000000	72.223778
757.000000	72.205936
756.000000	72.186980
755.000000	72.116583
754.000000	72.084706
753.000000	72.001377
752.000000	71.923316
751.000000	71.910636
750.000000	71.866909
749.000000	71.758807
748.000000	71.706387
747.000000	71.581264
746.000000	71.617368
745.000000	71.615549
744.000000	71.608558
743.000000	71.543744
742.000000	71.521925
741.000000	71.419008
740.000000	71.430955
739.000000	71.344483
738.000000	71.177685
737.000000	71.109312
736.000000	71.131849
735.000000	71.057266
734.000000	71.042312
733.000000	71.051335
732.000000	70.934066
731.000000	70.870204
730.000000	70.815891
729.000000	70.712807
728.000000	70.603171
727.000000	70.601166
726.000000	70.597959
725.000000	70.523131
724.000000	70.473025
723.000000	70.438452
722.000000	70.388168
721.000000	70.340087
720.000000	70.286837
719.000000	70.167720
718.000000	70.029004
717.000000	69.992300
716.000000	69.999791
715.000000	69.926821
714.000000	69.829599
713.000000	69.771776
712.000000	69.723912
711.000000	69.593806
710.000000	69.583391
709.000000	69.549440
708.000000	69.441200
707.000000	69.365915
706.000000	69.324137
705.000000	69.248482
704.000000	69.155116
703.000000	69.082071
702.000000	68.984400
701.000000	68.934617
700.000000	68.900646
699.000000	68.774149
698.000000	68.671634
697.000000	68.621026
696.000000	68.563765
695.000000	68.480758
694.000000	68.390776
693.000000	68.328849
692.000000	68.281370
691.000000	68.120540
690.000000	68.052832
689.000000	67.984426
688.000000	67.887482
687.000000	67.791175
686.000000	67.674172
685.000000	67.591148
684.000000	67.577151
683.000000	67.421285
682.000000	67.227686
681.000000	67.208541
680.000000	67.128006
679.000000	67.003000
678.000000	66.910135
677.000000	66.828114
676.000000	66.748799
675.000000	66.633169
674.000000	66.488262
673.000000	66.414027
672.000000	66.341791
671.000000	66.268144
670.000000	66.134217
669.000000	66.063289
668.000000	65.972188
667.000000	65.934365
666.000000	65.783325
665.000000	65.588386
664.000000	65.572412
663.000000	65.449213
662.000000	65.325270
661.000000	65.218043
660.000000	65.087314
659.000000	65.009710
658.000000	64.908952
657.000000	64.769670
656.000000	64.671914
655.000000	64.572032
654.000000	64.432422
653.000000	64.276302
652.000000	64.221801
651.000000	64.134331
650.000000	63.979572
649.000000	63.839785
648.000000	63.775155
647.000000	63.625582
646.000000	63.438880
645.000000	63.318536
644.000000	63.242663
643.000000	63.106833
642.000000	63.006135
641.000000	62.908886
640.000000	62.770023
639.000000	62.596477
638.000000	62.512452
637.000000	62.412220
636.000000	62.239327
635.000000	62.070821
634.000000	61.926375
633.000000	61.779432
632.000000	61.675404
631.000000	61.607192
630.000000	61.431251
629.000000	61.286550
628.000000	61.145093
627.000000	61.002353
626.000000	60.826397
625.000000	60.751299
624.000000	60.594560
623.000000	60.453169
622.000000	60.261058
621.000000	60.142443
620.000000	59.984238
619.000000	59.832812
618.000000	59.767586
617.000000	59.586894
616.000000	59.406172
615.000000	59.236067
614.000000	59.088098
613.000000	58.949418
612.000000	58.812049
611.000000	58.728253
610.000000	58.536029
609.000000	58.346495
608.000000	58.234678
607.000000	58.048736
606.000000	57.866711
605.000000	57.764594
604.000000	57.606467
603.000000	57.449800
602.000000	57.267658
601.000000	57.075668
600.000000	56.909184
599.000000	56.803189
598.000000	56.596427
597.000000	56.440221
596.000000	56.207974
595.000000	56.128292
594.000000	55.946612
593.000000	55.794741
592.000000	55.552619
591.000000	55.404925
590.000000	55.252230
589.000000	55.015711
588.000000	54.933058
587.000000	54.757452
586.000000	54.568914
585.000000	54.407820
584.000000	54.182768
583.000000	54.041887
582.000000	53.877637
581.000000	53.704752
580.000000	53.479650
579.000000	53.359847
578.000000	53.141888
577.000000	53.029577
576.000000	52.792072
575.000000	52.593338
574.000000	52.428973
573.000000	52.243540
572.000000	52.034949
571.000000	51.902347
570.000000	51.699753
569.000000	51.547477
568.000000	51.338695
567.000000	51.130218
566.000000	50.968947
565.000000	50.778485
564.000000	50.581691
563.000000	50.451071
562.000000	50.201338
561.000000	50.066105
560.000000	49.855249
559.000000	49.637601
558.000000	49.512547
557.000000	49.265814
556.000000	49.048392
555.000000	48.885325
554.000000	48.672487
553.000000	48.477326
552.000000	48.299309
551.000000	48.124123
550.000000	47.935637
549.000000	47.726529
548.000000	47.513264
547.000000	47.364993
546.000000	47.137557
545.000000	46.958696
544.000000	46.748421
543.000000	46.550927
542.000000	46.356729
541.000000	46.160838
540.000000	45.937376
539.000000	45.772889
538.000000	45.572843
537.000000	45.349179
536.000000	45.169946
535.000000	44.985438
534.000000	44.768426
533.000000	44.607224
532.000000	44.397070
531.000000	44.205975
530.000000	43.967838
529.000000	43.775015
528.000000	43.590658
527.000000	43.380507
526.000000	43.203591
525.000000	42.979932
524.000000	42.784944
523.000000	42.553017
522.000000	42.369181
521.000000	42.201727
520.000000	41.996002
519.000000	41.764074
518.000000	41.571235
517.000000	41.374543
516.000000	41.161683
515.000000	40.980065
514.000000	40.773641
513.000000	40.573455
512.000000	40.360463
511.000000	40.137634
510.000000	39.933603
509.000000	39.762047
508.000000	39.541233
507.000000	39.339882
506.000000	39.140314
505.000000	38.911761
504.000000	38.697965
503.000000	38.507873
502.000000	38.319072
501.000000	38.112758
500.000000	37.894877
499.000000	37.700319
498.000000	37.510880
497.000000	37.327161
496.000000	37.114700
495.000000	36.899185
494.000000	36.696147
493.000000	36.514258
492.000000	36.327041
491.000000	36.129318
490.000000	35.935949
489.000000	35.751369
488.000000	35.528985
487.000000	35.317895
486.000000	35.107117
485.000000	34.901224
484.000000	34.738832
483.000000	34.576877
482.000000	34.359469
481.000000	34.157624
480.000000	33.982603
479.000000	33.809767
478.000000	33.605348
477.000000	33.398478
476.000000	33.237106
475.000000	33.053191
474.000000	32.862334
473.000000	32.680094
472.000000	32.486581
471.000000	32.309646
470.000000	32.133713
469.000000	31.943927
468.000000	31.751300
467.000000	31.570396
466.000000	31.380045
465.000000	31.192241
464.000000	31.008442
463.000000	30.826256
462.000000	30.649838
461.000000	30.464836
460.000000	30.276418
459.000000	30.082570
458.000000	29.897133
457.000000	29.710843
456.000000	29.533256
455.000000	29.334887
454.000000	29.136388
453.000000	28.957901
452.000000	28.780892
451.000000	28.585906
450.000000	28.356655
449.000000	28.183031
448.000000	28.027558
447.000000	27.805254
446.000000	27.614062
445.000000	27.456366
444.000000	27.247835
443.000000	27.058041
442.000000	26.859371
441.000000	26.663143
440.000000	26.501600
439.000000	26.336174
438.000000	26.140730
437.000000	25.943394
436.000000	25.758411
435.000000	25.561575
434.000000	25.395907
433.000000	25.205027
432.000000	25.036854
431.000000	24.867332
430.000000	24.675738
429.000000	24.451919
428.000000	24.283698
427.000000	24.127129
426.000000	23.952293
425.000000	23.753980
424.000000	23.534673
423.000000	23.381029
422.000000	23.251074
421.000000	23.043221
420.000000	22.856578
419.000000	22.702102
418.000000	22.509391
417.000000	22.297311
416.000000	22.155151
415.000000	21.986815
414.000000	21.786598
413.000000	21.653395
412.000000	21.496897
411.000000	21.292984
410.000000	21.146181
409.000000	20.977659
408.000000	20.781987
407.000000	20.625302
406.000000	20.474483
405.000000	20.286882
404.000000	20.139408
403.000000	19.986798
402.000000	19.851499
401.000000	19.663251
400.000000	19.515137
399.000000	19.353025
398.000000	19.189051
397.000000	19.023123
396.000000	18.903506
395.000000	18.711328
394.000000	18.594897
393.000000	18.419492
392.000000	18.307964
391.000000	18.161876
390.000000	17.988486
389.000000	17.830729
388.000000	17.697675
387.000000	17.555661
386.000000	17.399518
385.000000	17.242131
384.000000	17.097783
383.000000	16.954206
382.000000	16.792963
381.000000	16.619665
380.000000	16.541735
379.000000	16.404606
378.000000	16.226336
377.000000	16.125982
376.000000	15.953375
375.000000	15.777901
374.000000	15.666741
373.000000	15.560675
372.000000	15.361426
371.000000	15.297688
370.000000	15.182535
369.000000	14.945677
368.000000	14.826886
367.000000	14.769896
366.000000	14.613334
365.000000	14.466402
364.000000	14.343790
363.000000	14.241138
362.000000	14.195947
361.000000	13.966702
360.000000	13.946224
359.000000	13.788546
358.000000	13.712747
357.000000	13.580010
356.000000	13.480497
355.000000	13.404144
354.000000	13.308109
353.000000	13.139636
352.000000	13.043812
351.000000	12.984666
350.000000	12.856258
349.000000	12.767180
348.000000	12.745681
347.000000	12.590721
346.000000	12.493315
345.000000	12.421074
344.000000	12.309336
343.000000	12.253685
342.000000	12.205229
341.000000	12.029678
340.000000	12.002328
339.000000	11.925723
338.000000	11.751035
337.000000	11.741284
336.000000	11.679042
335.000000	11.509384
334.000000	11.461698
333.000000	11.365782
332.000000	11.301635
331.000000	11.196695
330.000000	11.148065
329.000000	11.086067
328.000000	11.091787
327.000000	10.918514
326.000000	10.952039
325.000000	10.759159
324.000000	10.774983
323.000000	10.681217
322.000000	10.726033
321.000000	10.665952
320.000000	10.672275
319.000000	10.583825
318.000000	10.516505
317.000000	10.484124
316.000000	10.436907
315.000000	10.460490
314.000000	10.381905
313.000000	10.342127
312.000000	10.281062
311.000000	10.229430
310.000000	10.227545
309.000000	10.203316
308.000000	10.238943
307.000000	10.144253
306.000000	10.194378
305.000000	10.117725
304.000000	10.113962
303.000000	10.083558
302.000000	10.081506
301.000000	10.043325
300.000000	10.038945
299.000000	9.924301
298.000000	9.885003
297.000000	9.866499
296.000000	9.856505
295.000000	9.847214
294.000000	9.840566
293.000000	9.745233
292.000000	9.700970
291.000000	9.698885
290.000000	9.639052
289.000000	9.634694
288.000000	9.571365
287.000000	9.557346
286.000000	9.570287
285.000000	9.552538
284.000000	9.568864
283.000000	9.615433
282.000000	9.601040
281.000000	9.667007
280.000000	9.707364
279.000000	9.694873
278.000000	9.756059
277.000000	9.765137
276.000000	9.809110
275.000000	9.894425
274.000000	9.954089
273.000000	9.947078
272.000000	9.993502
271.000000	10.083000
270.000000	10.183921
269.000000	10.232522
268.000000	10.340887
267.000000	10.371171
266.000000	10.446849
265.000000	10.570708
264.000000	10.605023
263.000000	10.689710
262.000000	10.824347
261.000000	10.928960
260.000000	11.103627
259.000000	11.178276
258.000000	11.259509
257.000000	11.397384
256.000000	11.478674
255.000000	11.595198
254.000000	11.710788
253.000000	11.831012
252.000000	11.915984
251.000000	12.100927
250.000000	12.198468
249.000000	12.298226
248.000000	12.428609
247.000000	12.500101
246.000000	12.595973
245.000000	12.671443
244.000000	12.643642
243.000000	12.701152
242.000000	12.755863
241.000000	12.805480
240.000000	12.806814
239.000000	12.760993
238.000000	12.800713
237.000000	12.842143
236.000000	12.874055
235.000000	12.882725
234.000000	12.840414
233.000000	12.840831
232.000000	12.811502
231.000000	12.836093
230.000000	12.859087
229.000000	12.848250
228.000000	12.864105
227.000000	12.930039
226.000000	12.925041
225.000000	12.958880
224.000000	13.035990
223.000000	13.076477
222.000000	13.173961
221.000000	13.261256
220.000000	13.364207
219.000000	13.420471
218.000000	13.435791
217.000000	13.558078
216.000000	13.762922
215.000000	13.908175
214.000000	14.009598
213.000000	14.181138
212.000000	14.336630
211.000000	14.574591
210.000000	14.914532
209.000000	15.226580
208.000000	15.524473
207.000000	15.789362
206.000000	16.073302
205.000000	16.453183
204.000000	16.994010
203.000000	17.456854
202.000000	17.879271
201.000000	18.432266
200.000000	19.110943
