PE UV       SUBTECH     SPECTRUM    ASCII       PEDS        4.00        
   -1
RDms499181.Sample.asc
18/03/15
15:40:33.00
18/03/15
15:40:33.00
Administrator

200.000000
1
Lambda 750
750N8071901
PerkinElmer UV WinLab 6.0.4.0738 / 1.61.00 Lambda 900

0
0
3350/servo 860.8/2
0
0
UV/VIS
1
1
1
CommonBeamDepol,150mm sphere / downward view
0
0
0
0
Program
Program
3350/servo 860.8/2
3350/0.2 860.8/0.2
3350/0.2 860.8/0.2
0
1
 
 
 
0
 
860.8
319.2
860.8
Front
100
on
 
 
0
0
0
 
0
 
 
 
0
 
 
0
0
0
0
0
 
 
 
 
0
0


0
0
#HDR
-1
-1
#GR
nm
%R
1.0
0.0
2350.000000
-1.000000
2151
8
56.096057
7.254621
#DATA
2350.000000	25.024426
2349.000000	24.964473
2348.000000	25.084530
2347.000000	25.151863
2346.000000	25.115948
2345.000000	24.653622
2344.000000	24.948712
2343.000000	24.666720
2342.000000	24.713844
2341.000000	25.286520
2340.000000	25.270547
2339.000000	25.067510
2338.000000	25.386057
2337.000000	25.856446
2336.000000	25.680281
2335.000000	25.806828
2334.000000	25.831031
2333.000000	25.882090
2332.000000	25.694483
2331.000000	26.015346
2330.000000	25.767911
2329.000000	25.386539
2328.000000	25.427437
2327.000000	25.583044
2326.000000	25.760428
2325.000000	25.560880
2324.000000	25.345083
2323.000000	25.255839
2322.000000	25.326401
2321.000000	24.919715
2320.000000	25.176676
2319.000000	25.298974
2318.000000	24.961911
2317.000000	24.895621
2316.000000	24.711453
2315.000000	24.564984
2314.000000	24.850884
2313.000000	24.669996
2312.000000	24.579148
2311.000000	24.839799
2310.000000	24.646483
2309.000000	24.333899
2308.000000	24.493794
2307.000000	24.357880
2306.000000	24.268977
2305.000000	24.210239
2304.000000	24.399962
2303.000000	24.551134
2302.000000	24.459798
2301.000000	24.353810
2300.000000	24.334638
2299.000000	24.273838
2298.000000	24.256886
2297.000000	24.299276
2296.000000	24.494890
2295.000000	24.371532
2294.000000	24.356436
2293.000000	24.519249
2292.000000	24.339548
2291.000000	24.265693
2290.000000	24.154794
2289.000000	24.041494
2288.000000	24.333006
2287.000000	24.432197
2286.000000	24.322969
2285.000000	24.111297
2284.000000	24.215253
2283.000000	24.109041
2282.000000	24.148668
2281.000000	24.087618
2280.000000	24.203768
2279.000000	24.195023
2278.000000	24.049843
2277.000000	24.254930
2276.000000	24.315493
2275.000000	24.399780
2274.000000	24.497298
2273.000000	24.726858
2272.000000	24.633452
2271.000000	24.627982
2270.000000	24.645942
2269.000000	24.508892
2268.000000	24.640099
2267.000000	24.930630
2266.000000	25.059350
2265.000000	25.172270
2264.000000	25.258694
2263.000000	25.378084
2262.000000	25.474719
2261.000000	25.579594
2260.000000	25.778256
2259.000000	25.893355
2258.000000	26.059807
2257.000000	26.182537
2256.000000	26.419650
2255.000000	26.789296
2254.000000	26.844119
2253.000000	26.947177
2252.000000	27.229037
2251.000000	27.274814
2250.000000	27.477326
2249.000000	27.687215
2248.000000	27.746599
2247.000000	27.953572
2246.000000	28.265795
2245.000000	28.384240
2244.000000	28.577682
2243.000000	28.760215
2242.000000	28.765789
2241.000000	28.908290
2240.000000	28.963145
2239.000000	29.102359
2238.000000	29.313444
2237.000000	29.354285
2236.000000	29.430861
2235.000000	29.506804
2234.000000	29.603578
2233.000000	29.777606
2232.000000	29.807123
2231.000000	29.770941
2230.000000	29.842620
2229.000000	29.919070
2228.000000	29.971919
2227.000000	29.901751
2226.000000	29.866937
2225.000000	29.849304
2224.000000	29.778947
2223.000000	29.835463
2222.000000	29.845706
2221.000000	29.871675
2220.000000	29.977934
2219.000000	29.964121
2218.000000	29.829352
2217.000000	29.755190
2216.000000	29.806650
2215.000000	29.751750
2214.000000	29.747746
2213.000000	29.810718
2212.000000	29.704610
2211.000000	29.526259
2210.000000	29.433395
2209.000000	29.433190
2208.000000	29.317615
2207.000000	29.245723
2206.000000	29.261764
2205.000000	29.199011
2204.000000	29.210137
2203.000000	29.183233
2202.000000	29.115810
2201.000000	28.955270
2200.000000	28.755563
2199.000000	28.970436
2198.000000	28.950946
2197.000000	28.778922
2196.000000	28.696892
2195.000000	28.626794
2194.000000	28.506570
2193.000000	28.415413
2192.000000	28.432315
2191.000000	28.369022
2190.000000	28.320369
2189.000000	28.221066
2188.000000	28.195065
2187.000000	28.085861
2186.000000	27.968399
2185.000000	27.984242
2184.000000	28.153805
2183.000000	28.124565
2182.000000	28.100054
2181.000000	27.867197
2180.000000	27.958118
2179.000000	27.954451
2178.000000	28.017131
2177.000000	27.836277
2176.000000	27.810937
2175.000000	27.940929
2174.000000	27.950195
2173.000000	27.796948
2172.000000	28.002550
2171.000000	28.182702
2170.000000	28.168324
2169.000000	28.238347
2168.000000	28.465364
2167.000000	28.420070
2166.000000	28.425090
2165.000000	28.325308
2164.000000	28.378177
2163.000000	28.435384
2162.000000	28.828120
2161.000000	28.816967
2160.000000	29.033903
2159.000000	28.947681
2158.000000	28.984558
2157.000000	29.176331
2156.000000	29.183199
2155.000000	29.430420
2154.000000	29.716444
2153.000000	29.750558
2152.000000	29.750591
2151.000000	30.058452
2150.000000	29.910405
2149.000000	30.175448
2148.000000	30.022035
2147.000000	30.325317
2146.000000	30.433170
2145.000000	30.609890
2144.000000	30.816998
2143.000000	30.858822
2142.000000	30.951448
2141.000000	30.916218
2140.000000	31.241693
2139.000000	31.331397
2138.000000	31.513022
2137.000000	31.596108
2136.000000	31.529543
2135.000000	31.589633
2134.000000	31.681215
2133.000000	31.544838
2132.000000	31.897482
2131.000000	31.954349
2130.000000	31.925291
2129.000000	31.954454
2128.000000	32.140099
2127.000000	32.085605
2126.000000	32.038884
2125.000000	31.965784
2124.000000	32.141490
2123.000000	32.258769
2122.000000	32.338417
2121.000000	32.237005
2120.000000	32.400603
2119.000000	32.358295
2118.000000	32.214962
2117.000000	32.344735
2116.000000	32.395443
2115.000000	32.667686
2114.000000	32.469910
2113.000000	32.467823
2112.000000	32.501381
2111.000000	32.527198
2110.000000	32.378165
2109.000000	32.596666
2108.000000	32.600818
2107.000000	32.690022
2106.000000	32.622821
2105.000000	32.597598
2104.000000	32.581448
2103.000000	32.603966
2102.000000	32.635088
2101.000000	32.590285
2100.000000	32.828339
2099.000000	32.695867
2098.000000	32.672880
2097.000000	32.696826
2096.000000	32.603071
2095.000000	32.531308
2094.000000	32.648518
2093.000000	32.570815
2092.000000	32.745431
2091.000000	32.657240
2090.000000	32.481888
2089.000000	32.707751
2088.000000	32.681527
2087.000000	32.529630
2086.000000	32.613503
2085.000000	32.628163
2084.000000	32.438956
2083.000000	32.398292
2082.000000	32.314465
2081.000000	32.304047
2080.000000	32.191073
2079.000000	32.171697
2078.000000	32.080114
2077.000000	31.978448
2076.000000	31.950034
2075.000000	31.791655
2074.000000	31.771821
2073.000000	31.702380
2072.000000	31.554012
2071.000000	31.509712
2070.000000	31.437889
2069.000000	31.241071
2068.000000	31.067014
2067.000000	31.082191
2066.000000	30.964244
2065.000000	30.789916
2064.000000	30.693683
2063.000000	30.517555
2062.000000	30.436065
2061.000000	30.329938
2060.000000	30.118635
2059.000000	29.967370
2058.000000	29.918206
2057.000000	29.827569
2056.000000	29.727095
2055.000000	29.608185
2054.000000	29.494538
2053.000000	29.417167
2052.000000	29.293680
2051.000000	29.175623
2050.000000	29.122717
2049.000000	29.029144
2048.000000	28.977613
2047.000000	28.994205
2046.000000	28.913968
2045.000000	28.859749
2044.000000	28.839619
2043.000000	28.822604
2042.000000	28.851110
2041.000000	28.910034
2040.000000	28.953802
2039.000000	28.954210
2038.000000	28.944719
2037.000000	29.019512
2036.000000	29.107522
2035.000000	29.198634
2034.000000	29.242373
2033.000000	29.279968
2032.000000	29.383806
2031.000000	29.470674
2030.000000	29.549538
2029.000000	29.649757
2028.000000	29.769675
2027.000000	29.836516
2026.000000	29.917188
2025.000000	30.010986
2024.000000	30.024726
2023.000000	30.033497
2022.000000	30.098467
2021.000000	30.110986
2020.000000	30.141757
2019.000000	30.194440
2018.000000	30.151603
2017.000000	30.143103
2016.000000	30.092735
2015.000000	30.054324
2014.000000	30.066652
2013.000000	30.016331
2012.000000	29.951869
2011.000000	29.969685
2010.000000	29.943356
2009.000000	29.807597
2008.000000	29.710300
2007.000000	29.652766
2006.000000	29.583031
2005.000000	29.482961
2004.000000	29.406048
2003.000000	29.369625
2002.000000	29.269575
2001.000000	29.102641
2000.000000	29.014626
1999.000000	28.943512
1998.000000	28.851737
1997.000000	28.771588
1996.000000	28.696339
1995.000000	28.558300
1994.000000	28.461311
1993.000000	28.341347
1992.000000	28.190880
1991.000000	28.119515
1990.000000	28.022794
1989.000000	27.926013
1988.000000	27.834506
1987.000000	27.743787
1986.000000	27.651486
1985.000000	27.526469
1984.000000	27.436688
1983.000000	27.323296
1982.000000	27.274709
1981.000000	27.164621
1980.000000	27.037094
1979.000000	26.957213
1978.000000	26.830905
1977.000000	26.717893
1976.000000	26.587014
1975.000000	26.535608
1974.000000	26.465728
1973.000000	26.373270
1972.000000	26.280148
1971.000000	26.158919
1970.000000	26.090975
1969.000000	25.997995
1968.000000	25.887837
1967.000000	25.850207
1966.000000	25.821938
1965.000000	25.654179
1964.000000	25.552119
1963.000000	25.463865
1962.000000	25.401903
1961.000000	25.308947
1960.000000	25.235099
1959.000000	25.147587
1958.000000	25.051519
1957.000000	24.995059
1956.000000	24.962951
1955.000000	24.905480
1954.000000	24.866306
1953.000000	24.788335
1952.000000	24.727132
1951.000000	24.693774
1950.000000	24.597049
1949.000000	24.627178
1948.000000	24.642478
1947.000000	24.551514
1946.000000	24.526690
1945.000000	24.507622
1944.000000	24.500447
1943.000000	24.477922
1942.000000	24.546941
1941.000000	24.556207
1940.000000	24.576683
1939.000000	24.584475
1938.000000	24.682027
1937.000000	24.715579
1936.000000	24.826500
1935.000000	24.939145
1934.000000	24.996432
1933.000000	25.034364
1932.000000	25.137353
1931.000000	25.228738
1930.000000	25.459579
1929.000000	25.596249
1928.000000	25.733760
1927.000000	25.819886
1926.000000	26.020991
1925.000000	26.268380
1924.000000	26.455318
1923.000000	26.686655
1922.000000	26.890679
1921.000000	27.177385
1920.000000	27.426095
1919.000000	27.656694
1918.000000	27.906179
1917.000000	28.251023
1916.000000	28.403860
1915.000000	28.794073
1914.000000	29.167522
1913.000000	29.507590
1912.000000	29.759693
1911.000000	30.099588
1910.000000	30.578328
1909.000000	30.958093
1908.000000	31.314494
1907.000000	31.838218
1906.000000	32.179285
1905.000000	32.589718
1904.000000	33.157048
1903.000000	33.659580
1902.000000	34.079743
1901.000000	34.531607
1900.000000	35.066207
1899.000000	35.477655
1898.000000	35.979486
1897.000000	36.426796
1896.000000	36.879309
1895.000000	37.464338
1894.000000	37.853132
1893.000000	38.365178
1892.000000	38.821167
1891.000000	39.271585
1890.000000	39.696422
1889.000000	40.147136
1888.000000	40.489228
1887.000000	40.972630
1886.000000	41.298332
1885.000000	41.717148
1884.000000	42.050262
1883.000000	42.398541
1882.000000	42.716113
1881.000000	43.116187
1880.000000	43.333000
1879.000000	43.668701
1878.000000	44.000820
1877.000000	44.282408
1876.000000	44.510472
1875.000000	44.759228
1874.000000	45.021401
1873.000000	45.237420
1872.000000	45.483225
1871.000000	45.696027
1870.000000	45.934218
1869.000000	46.068441
1868.000000	46.196603
1867.000000	46.308820
1866.000000	46.441020
1865.000000	46.559692
1864.000000	46.603126
1863.000000	46.735018
1862.000000	46.795658
1861.000000	46.870535
1860.000000	46.922697
1859.000000	46.956578
1858.000000	46.977796
1857.000000	46.975420
1856.000000	46.993348
1855.000000	47.076473
1854.000000	47.134089
1853.000000	47.138227
1852.000000	47.139308
1851.000000	47.155612
1850.000000	47.128146
1849.000000	47.119411
1848.000000	47.124050
1847.000000	47.136000
1846.000000	47.141481
1845.000000	47.145167
1844.000000	47.096298
1843.000000	47.050009
1842.000000	47.038991
1841.000000	47.023238
1840.000000	46.977414
1839.000000	46.980250
1838.000000	46.976476
1837.000000	46.898069
1836.000000	46.821852
1835.000000	46.793438
1834.000000	46.755007
1833.000000	46.727851
1832.000000	46.716232
1831.000000	46.667301
1830.000000	46.613456
1829.000000	46.564695
1828.000000	46.524260
1827.000000	46.483627
1826.000000	46.437855
1825.000000	46.393872
1824.000000	46.356502
1823.000000	46.323101
1822.000000	46.285396
1821.000000	46.261813
1820.000000	46.207586
1819.000000	46.164419
1818.000000	46.179349
1817.000000	46.135965
1816.000000	46.069930
1815.000000	46.026866
1814.000000	45.990454
1813.000000	45.958420
1812.000000	45.918212
1811.000000	45.904378
1810.000000	45.883578
1809.000000	45.867731
1808.000000	45.834166
1807.000000	45.766211
1806.000000	45.743678
1805.000000	45.690251
1804.000000	45.655015
1803.000000	45.663438
1802.000000	45.616450
1801.000000	45.580667
1800.000000	45.582876
1799.000000	45.536792
1798.000000	45.484471
1797.000000	45.463692
1796.000000	45.430985
1795.000000	45.405044
1794.000000	45.403612
1793.000000	45.370089
1792.000000	45.320532
1791.000000	45.319109
1790.000000	45.285234
1789.000000	45.236363
1788.000000	45.200155
1787.000000	45.170546
1786.000000	45.135741
1785.000000	45.116926
1784.000000	45.069785
1783.000000	45.041124
1782.000000	44.995263
1781.000000	44.939676
1780.000000	44.884920
1779.000000	44.873055
1778.000000	44.847664
1777.000000	44.769755
1776.000000	44.701887
1775.000000	44.628592
1774.000000	44.565622
1773.000000	44.520989
1772.000000	44.475767
1771.000000	44.427736
1770.000000	44.363126
1769.000000	44.302557
1768.000000	44.274115
1767.000000	44.228233
1766.000000	44.151030
1765.000000	44.106116
1764.000000	44.043367
1763.000000	43.980839
1762.000000	43.934587
1761.000000	43.937912
1760.000000	43.887923
1759.000000	43.837052
1758.000000	43.786150
1757.000000	43.742094
1756.000000	43.706738
1755.000000	43.660093
1754.000000	43.586633
1753.000000	43.565648
1752.000000	43.507304
1751.000000	43.447843
1750.000000	43.402657
1749.000000	43.352475
1748.000000	43.260471
1747.000000	43.169376
1746.000000	43.098133
1745.000000	43.012628
1744.000000	42.908733
1743.000000	42.848855
1742.000000	42.785645
1741.000000	42.718571
1740.000000	42.615196
1739.000000	42.592818
1738.000000	42.479418
1737.000000	42.471536
1736.000000	42.435652
1735.000000	42.421167
1734.000000	42.422150
1733.000000	42.402725
1732.000000	42.383234
1731.000000	42.392365
1730.000000	42.391703
1729.000000	42.441157
1728.000000	42.495805
1727.000000	42.580136
1726.000000	42.601139
1725.000000	42.718647
1724.000000	42.766704
1723.000000	42.905927
1722.000000	42.988006
1721.000000	43.106090
1720.000000	43.235037
1719.000000	43.328949
1718.000000	43.458642
1717.000000	43.564676
1716.000000	43.683599
1715.000000	43.801987
1714.000000	43.911858
1713.000000	43.967251
1712.000000	44.060737
1711.000000	44.157269
1710.000000	44.239967
1709.000000	44.308795
1708.000000	44.398702
1707.000000	44.493259
1706.000000	44.493266
1705.000000	44.576935
1704.000000	44.599955
1703.000000	44.652692
1702.000000	44.702148
1701.000000	44.696944
1700.000000	44.769579
1699.000000	44.785547
1698.000000	44.858588
1697.000000	44.905263
1696.000000	44.998382
1695.000000	45.034275
1694.000000	45.063100
1693.000000	45.104187
1692.000000	45.151751
1691.000000	45.269841
1690.000000	45.387667
1689.000000	45.440771
1688.000000	45.577295
1687.000000	45.718544
1686.000000	45.803435
1685.000000	45.924907
1684.000000	46.052874
1683.000000	46.186876
1682.000000	46.351795
1681.000000	46.552511
1680.000000	46.671499
1679.000000	46.826473
1678.000000	47.019530
1677.000000	47.152557
1676.000000	47.314000
1675.000000	47.512198
1674.000000	47.666007
1673.000000	47.780506
1672.000000	47.939465
1671.000000	48.058869
1670.000000	48.222824
1669.000000	48.331237
1668.000000	48.443866
1667.000000	48.569645
1666.000000	48.650826
1665.000000	48.761674
1664.000000	48.829592
1663.000000	48.875321
1662.000000	48.963797
1661.000000	49.039241
1660.000000	49.101897
1659.000000	49.152025
1658.000000	49.206607
1657.000000	49.244835
1656.000000	49.272728
1655.000000	49.313412
1654.000000	49.336532
1653.000000	49.354944
1652.000000	49.368362
1651.000000	49.359675
1650.000000	49.347107
1649.000000	49.349114
1648.000000	49.313346
1647.000000	49.308337
1646.000000	49.331366
1645.000000	49.299368
1644.000000	49.296620
1643.000000	49.276840
1642.000000	49.265118
1641.000000	49.204951
1640.000000	49.187136
1639.000000	49.143471
1638.000000	49.110213
1637.000000	49.103099
1636.000000	49.047676
1635.000000	49.012795
1634.000000	48.987181
1633.000000	48.971548
1632.000000	48.916395
1631.000000	48.867842
1630.000000	48.815668
1629.000000	48.780396
1628.000000	48.731085
1627.000000	48.668240
1626.000000	48.640685
1625.000000	48.606831
1624.000000	48.567529
1623.000000	48.543519
1622.000000	48.485681
1621.000000	48.404911
1620.000000	48.372497
1619.000000	48.325975
1618.000000	48.244156
1617.000000	48.194056
1616.000000	48.142193
1615.000000	48.085307
1614.000000	48.043999
1613.000000	47.982972
1612.000000	47.911510
1611.000000	47.857951
1610.000000	47.792093
1609.000000	47.726421
1608.000000	47.680508
1607.000000	47.618642
1606.000000	47.538122
1605.000000	47.479515
1604.000000	47.403836
1603.000000	47.337457
1602.000000	47.296793
1601.000000	47.225498
1600.000000	47.152710
1599.000000	47.101391
1598.000000	47.046220
1597.000000	47.000853
1596.000000	46.945310
1595.000000	46.864722
1594.000000	46.799593
1593.000000	46.767286
1592.000000	46.718614
1591.000000	46.654833
1590.000000	46.603358
1589.000000	46.551839
1588.000000	46.483045
1587.000000	46.440226
1586.000000	46.402143
1585.000000	46.363532
1584.000000	46.314483
1583.000000	46.262520
1582.000000	46.211513
1581.000000	46.170366
1580.000000	46.151080
1579.000000	46.093185
1578.000000	46.041013
1577.000000	45.997447
1576.000000	45.950001
1575.000000	45.913737
1574.000000	45.858087
1573.000000	45.808358
1572.000000	45.764506
1571.000000	45.730105
1570.000000	45.689915
1569.000000	45.651967
1568.000000	45.613422
1567.000000	45.565737
1566.000000	45.528107
1565.000000	45.486461
1564.000000	45.467712
1563.000000	45.446839
1562.000000	45.431626
1561.000000	45.414940
1560.000000	45.365127
1559.000000	45.334064
1558.000000	45.321917
1557.000000	45.292693
1556.000000	45.272107
1555.000000	45.266506
1554.000000	45.229543
1553.000000	45.190887
1552.000000	45.119355
1551.000000	45.098720
1550.000000	45.071576
1549.000000	45.025321
1548.000000	44.997312
1547.000000	44.939543
1546.000000	44.875279
1545.000000	44.798389
1544.000000	44.722403
1543.000000	44.668805
1542.000000	44.605664
1541.000000	44.532349
1540.000000	44.445873
1539.000000	44.377950
1538.000000	44.295185
1537.000000	44.210999
1536.000000	44.134528
1535.000000	44.040714
1534.000000	43.965762
1533.000000	43.906566
1532.000000	43.810654
1531.000000	43.731642
1530.000000	43.660136
1529.000000	43.594224
1528.000000	43.519169
1527.000000	43.470022
1526.000000	43.423180
1525.000000	43.346119
1524.000000	43.287562
1523.000000	43.200178
1522.000000	43.164944
1521.000000	43.131736
1520.000000	43.095341
1519.000000	43.053814
1518.000000	43.029506
1517.000000	42.991949
1516.000000	42.937507
1515.000000	42.889724
1514.000000	42.853815
1513.000000	42.840470
1512.000000	42.812858
1511.000000	42.777548
1510.000000	42.752616
1509.000000	42.731441
1508.000000	42.696334
1507.000000	42.708946
1506.000000	42.673433
1505.000000	42.641664
1504.000000	42.627535
1503.000000	42.619394
1502.000000	42.610541
1501.000000	42.586055
1500.000000	42.595959
1499.000000	42.563260
1498.000000	42.563219
1497.000000	42.574099
1496.000000	42.560051
1495.000000	42.590234
1494.000000	42.593013
1493.000000	42.598318
1492.000000	42.589751
1491.000000	42.596126
1490.000000	42.638616
1489.000000	42.634737
1488.000000	42.679761
1487.000000	42.698483
1486.000000	42.709501
1485.000000	42.728756
1484.000000	42.734358
1483.000000	42.778115
1482.000000	42.786557
1481.000000	42.818122
1480.000000	42.859399
1479.000000	42.862175
1478.000000	42.912500
1477.000000	42.910850
1476.000000	42.955507
1475.000000	42.981682
1474.000000	43.001219
1473.000000	43.038285
1472.000000	43.068569
1471.000000	43.087848
1470.000000	43.122858
1469.000000	43.147459
1468.000000	43.188696
1467.000000	43.215464
1466.000000	43.256825
1465.000000	43.264346
1464.000000	43.272987
1463.000000	43.306960
1462.000000	43.337392
1461.000000	43.374738
1460.000000	43.401130
1459.000000	43.452868
1458.000000	43.482829
1457.000000	43.511057
1456.000000	43.581744
1455.000000	43.617255
1454.000000	43.631601
1453.000000	43.697385
1452.000000	43.754067
1451.000000	43.812935
1450.000000	43.860413
1449.000000	43.913639
1448.000000	43.963516
1447.000000	44.036305
1446.000000	44.088788
1445.000000	44.166843
1444.000000	44.235515
1443.000000	44.318329
1442.000000	44.403097
1441.000000	44.457040
1440.000000	44.545462
1439.000000	44.611357
1438.000000	44.708715
1437.000000	44.802653
1436.000000	44.917469
1435.000000	45.012827
1434.000000	45.112398
1433.000000	45.219143
1432.000000	45.332451
1431.000000	45.444656
1430.000000	45.560209
1429.000000	45.686469
1428.000000	45.800643
1427.000000	45.941535
1426.000000	46.086706
1425.000000	46.243523
1424.000000	46.381538
1423.000000	46.525342
1422.000000	46.679591
1421.000000	46.837874
1420.000000	47.012982
1419.000000	47.172396
1418.000000	47.338821
1417.000000	47.515573
1416.000000	47.683660
1415.000000	47.867467
1414.000000	48.051822
1413.000000	48.245825
1412.000000	48.441810
1411.000000	48.616739
1410.000000	48.797824
1409.000000	49.001588
1408.000000	49.202464
1407.000000	49.398706
1406.000000	49.585198
1405.000000	49.758535
1404.000000	49.919020
1403.000000	50.106496
1402.000000	50.269287
1401.000000	50.441633
1400.000000	50.635297
1399.000000	50.807989
1398.000000	50.958545
1397.000000	51.116958
1396.000000	51.283274
1395.000000	51.435134
1394.000000	51.584230
1393.000000	51.711667
1392.000000	51.845901
1391.000000	51.994649
1390.000000	52.110122
1389.000000	52.218077
1388.000000	52.350654
1387.000000	52.468850
1386.000000	52.568142
1385.000000	52.683700
1384.000000	52.788764
1383.000000	52.885653
1382.000000	52.971188
1381.000000	53.079875
1380.000000	53.186515
1379.000000	53.255634
1378.000000	53.315981
1377.000000	53.382479
1376.000000	53.451363
1375.000000	53.484343
1374.000000	53.508302
1373.000000	53.567462
1372.000000	53.609335
1371.000000	53.651898
1370.000000	53.696859
1369.000000	53.737134
1368.000000	53.762427
1367.000000	53.799384
1366.000000	53.852697
1365.000000	53.902949
1364.000000	53.956986
1363.000000	54.003650
1362.000000	54.065246
1361.000000	54.137326
1360.000000	54.176717
1359.000000	54.245064
1358.000000	54.303335
1357.000000	54.347171
1356.000000	54.412128
1355.000000	54.453026
1354.000000	54.523370
1353.000000	54.574959
1352.000000	54.615388
1351.000000	54.659435
1350.000000	54.700166
1349.000000	54.739603
1348.000000	54.781859
1347.000000	54.823431
1346.000000	54.882955
1345.000000	54.910328
1344.000000	54.934569
1343.000000	54.968786
1342.000000	55.022196
1341.000000	55.048034
1340.000000	55.079584
1339.000000	55.126841
1338.000000	55.150101
1337.000000	55.188850
1336.000000	55.239262
1335.000000	55.272217
1334.000000	55.305671
1333.000000	55.333426
1332.000000	55.362148
1331.000000	55.382025
1330.000000	55.414763
1329.000000	55.430526
1328.000000	55.446542
1327.000000	55.492166
1326.000000	55.571818
1325.000000	55.650297
1324.000000	55.722593
1323.000000	55.758831
1322.000000	55.778420
1321.000000	55.773214
1320.000000	55.785047
1319.000000	55.827318
1318.000000	55.865209
1317.000000	55.906008
1316.000000	55.911707
1315.000000	55.904927
1314.000000	55.919228
1313.000000	55.969203
1312.000000	55.989184
1311.000000	55.998036
1310.000000	55.998832
1309.000000	55.982012
1308.000000	55.993485
1307.000000	56.044858
1306.000000	56.031522
1305.000000	56.021110
1304.000000	56.010011
1303.000000	56.058926
1302.000000	56.080482
1301.000000	56.096057
1300.000000	56.074501
1299.000000	56.057061
1298.000000	56.051155
1297.000000	56.043075
1296.000000	56.038657
1295.000000	56.019373
1294.000000	56.007114
1293.000000	56.003250
1292.000000	56.002478
1291.000000	55.979052
1290.000000	55.996948
1289.000000	55.973131
1288.000000	55.966785
1287.000000	55.941083
1286.000000	55.918317
1285.000000	55.863891
1284.000000	55.842692
1283.000000	55.859789
1282.000000	55.863815
1281.000000	55.847910
1280.000000	55.845198
1279.000000	55.849795
1278.000000	55.823096
1277.000000	55.826309
1276.000000	55.833227
1275.000000	55.830700
1274.000000	55.807815
1273.000000	55.802323
1272.000000	55.812716
1271.000000	55.801143
1270.000000	55.804902
1269.000000	55.826437
1268.000000	55.786053
1267.000000	55.807018
1266.000000	55.811280
1265.000000	55.810801
1264.000000	55.842868
1263.000000	55.841965
1262.000000	55.889231
1261.000000	55.842467
1260.000000	55.823746
1259.000000	55.841444
1258.000000	55.846282
1257.000000	55.851099
1256.000000	55.854586
1255.000000	55.853322
1254.000000	55.827741
1253.000000	55.838729
1252.000000	55.813440
1251.000000	55.798367
1250.000000	55.795656
1249.000000	55.762952
1248.000000	55.721494
1247.000000	55.719938
1246.000000	55.703856
1245.000000	55.676574
1244.000000	55.651306
1243.000000	55.630923
1242.000000	55.546454
1241.000000	55.536279
1240.000000	55.505898
1239.000000	55.472023
1238.000000	55.435771
1237.000000	55.352667
1236.000000	55.332829
1235.000000	55.291879
1234.000000	55.212622
1233.000000	55.187225
1232.000000	55.163207
1231.000000	55.135142
1230.000000	55.110598
1229.000000	55.010821
1228.000000	54.979184
1227.000000	54.962611
1226.000000	54.928738
1225.000000	54.911301
1224.000000	54.884145
1223.000000	54.848893
1222.000000	54.829952
1221.000000	54.798794
1220.000000	54.750923
1219.000000	54.729039
1218.000000	54.716410
1217.000000	54.684409
1216.000000	54.659287
1215.000000	54.628418
1214.000000	54.604064
1213.000000	54.606705
1212.000000	54.620630
1211.000000	54.606649
1210.000000	54.585711
1209.000000	54.578912
1208.000000	54.544302
1207.000000	54.518932
1206.000000	54.512551
1205.000000	54.510532
1204.000000	54.459984
1203.000000	54.428185
1202.000000	54.466746
1201.000000	54.440299
1200.000000	54.389206
1199.000000	54.375762
1198.000000	54.390434
1197.000000	54.387386
1196.000000	54.336916
1195.000000	54.307405
1194.000000	54.289422
1193.000000	54.265420
1192.000000	54.245832
1191.000000	54.226817
1190.000000	54.177707
1189.000000	54.100416
1188.000000	54.097526
1187.000000	54.098343
1186.000000	54.085292
1185.000000	54.098788
1184.000000	54.107320
1183.000000	54.117228
1182.000000	54.137993
1181.000000	54.153575
1180.000000	54.179166
1179.000000	54.205948
1178.000000	54.230390
1177.000000	54.264155
1176.000000	54.307319
1175.000000	54.350157
1174.000000	54.373051
1173.000000	54.405425
1172.000000	54.453516
1171.000000	54.498611
1170.000000	54.541373
1169.000000	54.580263
1168.000000	54.620211
1167.000000	54.668423
1166.000000	54.729257
1165.000000	54.779762
1164.000000	54.824654
1163.000000	54.875505
1162.000000	54.921834
1161.000000	54.935353
1160.000000	54.951223
1159.000000	55.000733
1158.000000	55.060524
1157.000000	55.115571
1156.000000	55.160818
1155.000000	55.211198
1154.000000	55.248080
1153.000000	55.275606
1152.000000	55.313186
1151.000000	55.367966
1150.000000	55.401622
1149.000000	55.426664
1148.000000	55.461404
1147.000000	55.489860
1146.000000	55.487452
1145.000000	55.489827
1144.000000	55.527990
1143.000000	55.556468
1142.000000	55.577463
1141.000000	55.615184
1140.000000	55.645701
1139.000000	55.672699
1138.000000	55.695850
1137.000000	55.721456
1136.000000	55.746827
1135.000000	55.750146
1134.000000	55.773481
1133.000000	55.755286
1132.000000	55.744994
1131.000000	55.759028
1130.000000	55.780580
1129.000000	55.800576
1128.000000	55.815837
1127.000000	55.817410
1126.000000	55.820413
1125.000000	55.843602
1124.000000	55.843691
1123.000000	55.852919
1122.000000	55.857531
1121.000000	55.859544
1120.000000	55.861000
1119.000000	55.858221
1118.000000	55.854943
1117.000000	55.793114
1116.000000	55.783099
1115.000000	55.794654
1114.000000	55.783185
1113.000000	55.796728
1112.000000	55.793446
1111.000000	55.790126
1110.000000	55.785823
1109.000000	55.779614
1108.000000	55.769357
1107.000000	55.761493
1106.000000	55.742846
1105.000000	55.751910
1104.000000	55.735807
1103.000000	55.719408
1102.000000	55.707263
1101.000000	55.650274
1100.000000	55.629710
1099.000000	55.636854
1098.000000	55.637539
1097.000000	55.619683
1096.000000	55.617265
1095.000000	55.605564
1094.000000	55.577468
1093.000000	55.520373
1092.000000	55.519925
1091.000000	55.508488
1090.000000	55.508296
1089.000000	55.498082
1088.000000	55.490511
1087.000000	55.421259
1086.000000	55.405612
1085.000000	55.392975
1084.000000	55.382089
1083.000000	55.382843
1082.000000	55.363358
1081.000000	55.317433
1080.000000	55.294703
1079.000000	55.292305
1078.000000	55.274055
1077.000000	55.242552
1076.000000	55.233560
1075.000000	55.234747
1074.000000	55.197471
1073.000000	55.193570
1072.000000	55.145728
1071.000000	55.141916
1070.000000	55.139498
1069.000000	55.110516
1068.000000	55.079519
1067.000000	55.051641
1066.000000	55.049985
1065.000000	55.050051
1064.000000	55.039974
1063.000000	55.021560
1062.000000	55.017697
1061.000000	54.997472
1060.000000	54.988582
1059.000000	54.963412
1058.000000	54.946154
1057.000000	54.914398
1056.000000	54.910486
1055.000000	54.891632
1054.000000	54.869814
1053.000000	54.864751
1052.000000	54.853928
1051.000000	54.814318
1050.000000	54.818559
1049.000000	54.807288
1048.000000	54.754220
1047.000000	54.774847
1046.000000	54.742171
1045.000000	54.724847
1044.000000	54.697218
1043.000000	54.670338
1042.000000	54.677968
1041.000000	54.670991
1040.000000	54.642994
1039.000000	54.635002
1038.000000	54.607924
1037.000000	54.615723
1036.000000	54.573115
1035.000000	54.564387
1034.000000	54.561685
1033.000000	54.538377
1032.000000	54.537709
1031.000000	54.511255
1030.000000	54.488182
1029.000000	54.461346
1028.000000	54.439048
1027.000000	54.450379
1026.000000	54.436704
1025.000000	54.427871
1024.000000	54.410394
1023.000000	54.376261
1022.000000	54.370837
1021.000000	54.347775
1020.000000	54.341912
1019.000000	54.323240
1018.000000	54.319667
1017.000000	54.304375
1016.000000	54.285524
1015.000000	54.270593
1014.000000	54.275233
1013.000000	54.236326
1012.000000	54.243068
1011.000000	54.236097
1010.000000	54.211362
1009.000000	54.201611
1008.000000	54.207129
1007.000000	54.184688
1006.000000	54.167170
1005.000000	54.163391
1004.000000	54.149581
1003.000000	54.142954
1002.000000	54.123170
1001.000000	54.123143
1000.000000	54.092984
999.000000	54.075115
998.000000	54.069319
997.000000	54.055810
996.000000	54.038741
995.000000	54.023842
994.000000	54.007852
993.000000	54.000942
992.000000	53.983801
991.000000	53.989870
990.000000	53.963403
989.000000	53.944913
988.000000	53.935951
987.000000	53.946894
986.000000	53.925780
985.000000	53.922707
984.000000	53.905063
983.000000	53.875884
982.000000	53.857899
981.000000	53.851134
980.000000	53.851859
979.000000	53.829338
978.000000	53.826692
977.000000	53.811349
976.000000	53.814267
975.000000	53.801172
974.000000	53.797802
973.000000	53.792327
972.000000	53.775431
971.000000	53.753856
970.000000	53.747308
969.000000	53.726008
968.000000	53.726703
967.000000	53.703139
966.000000	53.687132
965.000000	53.713247
964.000000	53.689353
963.000000	53.669211
962.000000	53.673648
961.000000	53.663935
960.000000	53.653872
959.000000	53.651492
958.000000	53.642539
957.000000	53.619447
956.000000	53.616850
955.000000	53.617673
954.000000	53.596530
953.000000	53.582655
952.000000	53.577715
951.000000	53.567963
950.000000	53.557698
949.000000	53.541368
948.000000	53.524860
947.000000	53.500067
946.000000	53.485923
945.000000	53.476700
944.000000	53.451379
943.000000	53.441811
942.000000	53.430133
941.000000	53.420794
940.000000	53.382519
939.000000	53.363844
938.000000	53.370150
937.000000	53.363412
936.000000	53.333333
935.000000	53.291161
934.000000	53.292121
933.000000	53.277865
932.000000	53.234974
931.000000	53.225882
930.000000	53.219664
929.000000	53.209371
928.000000	53.174854
927.000000	53.160550
926.000000	53.137272
925.000000	53.098011
924.000000	53.057677
923.000000	53.040350
922.000000	53.058251
921.000000	53.040615
920.000000	53.016557
919.000000	52.970780
918.000000	52.965477
917.000000	52.962821
916.000000	52.956872
915.000000	52.914807
914.000000	52.887726
913.000000	52.912978
912.000000	52.846822
911.000000	52.780249
910.000000	52.759389
909.000000	52.720551
908.000000	52.725537
907.000000	52.716392
906.000000	52.667994
905.000000	52.655248
904.000000	52.641010
903.000000	52.611441
902.000000	52.597787
901.000000	52.578022
900.000000	52.583681
899.000000	52.584363
898.000000	52.543177
897.000000	52.541205
896.000000	52.482769
895.000000	52.447250
894.000000	52.436097
893.000000	52.411706
892.000000	52.372703
891.000000	52.433496
890.000000	52.394413
889.000000	52.367192
888.000000	52.349930
887.000000	52.354548
886.000000	52.303946
885.000000	52.399413
884.000000	52.358631
883.000000	52.269726
882.000000	52.260067
881.000000	52.253899
880.000000	52.212548
879.000000	52.187214
878.000000	52.164580
877.000000	52.014546
876.000000	52.074066
875.000000	52.114077
874.000000	52.077761
873.000000	52.085478
872.000000	52.005114
871.000000	52.058908
870.000000	51.957430
869.000000	51.947403
868.000000	51.977948
867.000000	51.895567
866.000000	51.863879
865.000000	51.899597
864.000000	51.888356
863.000000	51.791380
862.000000	51.772920
861.000000	51.725449
860.000000	51.841706
859.000000	52.002297
858.000000	52.231546
857.000000	52.213936
856.000000	52.527246
855.000000	52.357252
854.000000	52.356465
853.000000	51.849583
852.000000	52.166218
851.000000	52.343995
850.000000	52.016911
849.000000	52.175616
848.000000	52.196226
847.000000	52.136144
846.000000	51.826453
845.000000	51.722428
844.000000	51.966233
843.000000	52.061964
842.000000	51.655332
841.000000	51.698582
840.000000	51.697067
839.000000	51.673025
838.000000	51.788145
837.000000	51.495264
836.000000	51.694847
835.000000	51.510666
834.000000	51.731334
833.000000	51.349261
832.000000	51.304305
831.000000	51.356663
830.000000	51.456690
829.000000	51.347989
828.000000	51.296076
827.000000	51.365298
826.000000	51.182331
825.000000	51.256712
824.000000	51.180382
823.000000	51.200544
822.000000	51.109846
821.000000	51.063587
820.000000	51.020949
819.000000	50.894539
818.000000	50.952339
817.000000	51.029533
816.000000	50.860230
815.000000	50.856366
814.000000	50.782618
813.000000	50.646145
812.000000	50.624624
811.000000	50.662461
810.000000	50.524902
809.000000	50.580625
808.000000	50.487616
807.000000	50.601437
806.000000	50.463585
805.000000	50.603617
804.000000	50.393394
803.000000	50.436221
802.000000	50.207870
801.000000	50.128010
800.000000	50.117556
799.000000	50.194256
798.000000	50.149268
797.000000	50.105352
796.000000	49.928989
795.000000	49.920286
794.000000	49.945592
793.000000	49.850512
792.000000	49.756581
791.000000	49.879969
790.000000	49.709375
789.000000	49.750528
788.000000	49.674643
787.000000	49.532405
786.000000	49.611347
785.000000	49.564547
784.000000	49.437640
783.000000	49.462951
782.000000	49.419919
781.000000	49.377164
780.000000	49.269967
779.000000	49.270236
778.000000	49.120670
777.000000	49.083101
776.000000	49.164175
775.000000	49.047402
774.000000	48.915029
773.000000	48.978259
772.000000	48.852598
771.000000	48.810842
770.000000	48.781437
769.000000	48.716835
768.000000	48.615115
767.000000	48.546663
766.000000	48.591053
765.000000	48.574447
764.000000	48.356625
763.000000	48.339870
762.000000	48.366914
761.000000	48.244975
760.000000	48.220746
759.000000	48.231909
758.000000	48.121181
757.000000	48.061726
756.000000	48.055384
755.000000	47.978173
754.000000	47.862999
753.000000	47.821315
752.000000	47.822063
751.000000	47.743680
750.000000	47.712559
749.000000	47.641948
748.000000	47.572640
747.000000	47.528027
746.000000	47.495343
745.000000	47.397206
744.000000	47.310159
743.000000	47.240443
742.000000	47.132936
741.000000	47.049331
740.000000	47.126654
739.000000	47.070038
738.000000	46.940552
737.000000	46.864846
736.000000	46.763507
735.000000	46.747371
734.000000	46.700647
733.000000	46.575908
732.000000	46.548906
731.000000	46.479338
730.000000	46.393343
729.000000	46.334815
728.000000	46.189421
727.000000	46.156693
726.000000	46.154578
725.000000	46.075540
724.000000	45.964617
723.000000	45.870977
722.000000	45.785327
721.000000	45.790005
720.000000	45.771740
719.000000	45.641279
718.000000	45.508617
717.000000	45.476386
716.000000	45.437293
715.000000	45.353003
714.000000	45.283120
713.000000	45.192488
712.000000	45.109445
711.000000	45.019571
710.000000	44.939985
709.000000	44.909817
708.000000	44.821074
707.000000	44.716018
706.000000	44.619992
705.000000	44.576162
704.000000	44.538380
703.000000	44.447700
702.000000	44.314155
701.000000	44.232691
700.000000	44.238644
699.000000	44.117161
698.000000	44.019172
697.000000	43.961202
696.000000	43.854711
695.000000	43.742570
694.000000	43.655706
693.000000	43.622047
692.000000	43.570905
691.000000	43.474636
690.000000	43.408151
689.000000	43.294941
688.000000	43.184335
687.000000	43.078786
686.000000	42.961591
685.000000	42.881055
684.000000	42.826352
683.000000	42.717926
682.000000	42.606608
681.000000	42.516713
680.000000	42.426102
679.000000	42.355418
678.000000	42.288630
677.000000	42.225523
676.000000	42.098900
675.000000	42.025777
674.000000	41.949488
673.000000	41.864993
672.000000	41.748750
671.000000	41.686634
670.000000	41.568078
669.000000	41.471784
668.000000	41.415078
667.000000	41.321250
666.000000	41.236684
665.000000	41.146368
664.000000	41.042130
663.000000	40.912736
662.000000	40.814016
661.000000	40.736561
660.000000	40.662686
659.000000	40.576862
658.000000	40.480965
657.000000	40.384929
656.000000	40.292855
655.000000	40.220586
654.000000	40.126804
653.000000	40.032284
652.000000	39.943757
651.000000	39.837270
650.000000	39.733981
649.000000	39.641234
648.000000	39.563978
647.000000	39.451345
646.000000	39.344865
645.000000	39.241525
644.000000	39.171215
643.000000	39.043734
642.000000	38.979648
641.000000	38.917372
640.000000	38.802725
639.000000	38.675973
638.000000	38.600246
637.000000	38.474123
636.000000	38.368367
635.000000	38.246058
634.000000	38.152410
633.000000	38.093109
632.000000	37.957257
631.000000	37.907334
630.000000	37.833751
629.000000	37.715490
628.000000	37.621776
627.000000	37.500370
626.000000	37.390967
625.000000	37.301377
624.000000	37.193341
623.000000	37.095865
622.000000	36.997738
621.000000	36.893072
620.000000	36.766121
619.000000	36.677655
618.000000	36.614242
617.000000	36.504846
616.000000	36.398233
615.000000	36.245713
614.000000	36.176967
613.000000	36.085804
612.000000	35.991823
611.000000	35.933548
610.000000	35.785546
609.000000	35.676191
608.000000	35.567097
607.000000	35.509994
606.000000	35.377720
605.000000	35.270798
604.000000	35.207630
603.000000	35.042055
602.000000	34.961030
601.000000	34.844343
600.000000	34.709521
599.000000	34.596485
598.000000	34.544354
597.000000	34.429342
596.000000	34.296430
595.000000	34.220529
594.000000	34.090463
593.000000	33.999993
592.000000	33.873926
591.000000	33.779194
590.000000	33.675119
589.000000	33.534720
588.000000	33.443999
587.000000	33.342054
586.000000	33.228299
585.000000	33.135412
584.000000	33.016600
583.000000	32.923012
582.000000	32.828748
581.000000	32.697019
580.000000	32.585038
579.000000	32.466463
578.000000	32.370971
577.000000	32.253782
576.000000	32.116737
575.000000	32.014917
574.000000	31.938888
573.000000	31.819368
572.000000	31.677291
571.000000	31.589604
570.000000	31.484217
569.000000	31.367612
568.000000	31.266535
567.000000	31.128305
566.000000	31.023659
565.000000	30.921812
564.000000	30.789510
563.000000	30.704630
562.000000	30.573620
561.000000	30.555669
560.000000	30.436205
559.000000	30.305058
558.000000	30.221262
557.000000	30.092521
556.000000	29.991901
555.000000	29.882924
554.000000	29.739852
553.000000	29.639608
552.000000	29.512825
551.000000	29.436102
550.000000	29.316014
549.000000	29.185076
548.000000	29.051015
547.000000	28.958791
546.000000	28.858046
545.000000	28.721290
544.000000	28.595727
543.000000	28.495375
542.000000	28.373961
541.000000	28.263204
540.000000	28.135478
539.000000	28.031223
538.000000	27.918455
537.000000	27.780269
536.000000	27.682130
535.000000	27.558769
534.000000	27.430930
533.000000	27.316871
532.000000	27.203980
531.000000	27.103360
530.000000	26.965291
529.000000	26.846660
528.000000	26.715972
527.000000	26.589454
526.000000	26.481344
525.000000	26.358146
524.000000	26.232418
523.000000	26.112730
522.000000	26.009418
521.000000	25.879637
520.000000	25.754931
519.000000	25.632122
518.000000	25.519791
517.000000	25.392896
516.000000	25.276948
515.000000	25.173731
514.000000	25.066535
513.000000	24.940166
512.000000	24.837523
511.000000	24.696866
510.000000	24.601223
509.000000	24.488375
508.000000	24.377376
507.000000	24.273063
506.000000	24.152947
505.000000	24.037412
504.000000	23.924402
503.000000	23.804205
502.000000	23.697773
501.000000	23.595221
500.000000	23.482066
499.000000	23.383674
498.000000	23.269120
497.000000	23.132618
496.000000	23.013442
495.000000	22.909816
494.000000	22.818618
493.000000	22.715868
492.000000	22.593276
491.000000	22.497785
490.000000	22.396872
489.000000	22.292286
488.000000	22.161152
487.000000	22.062531
486.000000	21.958479
485.000000	21.837134
484.000000	21.733761
483.000000	21.686374
482.000000	21.580719
481.000000	21.445415
480.000000	21.322772
479.000000	21.205849
478.000000	21.089801
477.000000	20.976991
476.000000	20.867074
475.000000	20.753648
474.000000	20.638845
473.000000	20.547290
472.000000	20.427173
471.000000	20.321505
470.000000	20.224038
469.000000	20.102349
468.000000	19.994694
467.000000	19.901079
466.000000	19.789238
465.000000	19.679350
464.000000	19.570016
463.000000	19.453436
462.000000	19.346986
461.000000	19.250410
460.000000	19.135408
459.000000	19.017258
458.000000	18.899291
457.000000	18.788320
456.000000	18.682024
455.000000	18.555337
454.000000	18.431499
453.000000	18.314814
452.000000	18.198602
451.000000	18.071749
450.000000	17.959757
449.000000	17.860163
448.000000	17.746436
447.000000	17.627904
446.000000	17.516468
445.000000	17.411726
444.000000	17.301869
443.000000	17.190052
442.000000	17.066761
441.000000	16.944613
440.000000	16.845741
439.000000	16.752983
438.000000	16.618471
437.000000	16.512359
436.000000	16.426648
435.000000	16.312625
434.000000	16.214483
433.000000	16.094132
432.000000	15.991811
431.000000	15.880775
430.000000	15.776548
429.000000	15.659691
428.000000	15.554021
427.000000	15.468579
426.000000	15.362898
425.000000	15.257690
424.000000	15.143716
423.000000	15.042081
422.000000	14.949993
421.000000	14.826836
420.000000	14.709892
419.000000	14.617287
418.000000	14.514811
417.000000	14.391976
416.000000	14.305032
415.000000	14.194458
414.000000	14.085868
413.000000	13.984682
412.000000	13.873842
411.000000	13.756097
410.000000	13.660462
409.000000	13.537434
408.000000	13.430920
407.000000	13.321510
406.000000	13.229734
405.000000	13.117925
404.000000	13.017263
403.000000	12.923002
402.000000	12.810074
401.000000	12.708720
400.000000	12.617867
399.000000	12.494086
398.000000	12.391364
397.000000	12.308864
396.000000	12.210925
395.000000	12.111214
394.000000	12.010701
393.000000	11.902348
392.000000	11.796402
391.000000	11.731977
390.000000	11.652605
389.000000	11.515761
388.000000	11.432946
387.000000	11.339699
386.000000	11.254247
385.000000	11.122549
384.000000	11.024432
383.000000	10.949740
382.000000	10.845935
381.000000	10.773262
380.000000	10.680217
379.000000	10.587365
378.000000	10.474391
377.000000	10.401573
376.000000	10.374913
375.000000	10.223931
374.000000	10.186875
373.000000	10.093228
372.000000	10.022044
371.000000	9.904589
370.000000	9.850739
369.000000	9.773747
368.000000	9.705892
367.000000	9.619457
366.000000	9.548470
365.000000	9.470953
364.000000	9.391679
363.000000	9.333999
362.000000	9.306787
361.000000	9.229869
360.000000	9.165719
359.000000	9.093099
358.000000	9.032294
357.000000	8.948550
356.000000	8.886689
355.000000	8.879703
354.000000	8.838422
353.000000	8.734624
352.000000	8.719713
351.000000	8.662219
350.000000	8.628867
349.000000	8.588309
348.000000	8.504508
347.000000	8.449146
346.000000	8.433284
345.000000	8.392698
344.000000	8.348308
343.000000	8.279734
342.000000	8.229304
341.000000	8.170450
340.000000	8.201337
339.000000	8.099815
338.000000	8.037057
337.000000	8.088247
336.000000	7.920823
335.000000	7.899157
334.000000	7.813066
333.000000	7.801664
332.000000	7.758819
331.000000	7.750564
330.000000	7.682482
329.000000	7.638240
328.000000	7.672265
327.000000	7.612821
326.000000	7.573275
325.000000	7.489697
324.000000	7.459697
323.000000	7.447246
322.000000	7.394677
321.000000	7.391971
320.000000	7.344916
319.000000	7.374842
318.000000	7.465309
317.000000	7.500627
316.000000	7.402251
315.000000	7.439414
314.000000	7.391220
313.000000	7.368585
312.000000	7.369360
311.000000	7.355575
310.000000	7.339860
309.000000	7.322605
308.000000	7.299045
307.000000	7.294015
306.000000	7.255152
305.000000	7.272363
304.000000	7.287645
303.000000	7.269781
302.000000	7.254651
301.000000	7.254621
300.000000	7.291607
299.000000	7.306126
298.000000	7.276686
297.000000	7.298579
296.000000	7.255707
295.000000	7.293980
294.000000	7.312903
293.000000	7.299044
292.000000	7.312481
291.000000	7.336839
290.000000	7.348496
289.000000	7.325182
288.000000	7.381819
287.000000	7.416975
286.000000	7.452086
285.000000	7.442254
284.000000	7.462029
283.000000	7.481426
282.000000	7.588778
281.000000	7.615040
280.000000	7.640232
279.000000	7.663169
278.000000	7.678646
277.000000	7.771905
276.000000	7.825764
275.000000	7.850362
274.000000	7.917970
273.000000	7.947856
272.000000	8.034657
271.000000	8.103291
270.000000	8.116472
269.000000	8.188590
268.000000	8.257300
267.000000	8.321475
266.000000	8.413294
265.000000	8.481666
264.000000	8.596047
263.000000	8.649849
262.000000	8.726695
261.000000	8.829898
260.000000	8.927488
259.000000	9.004733
258.000000	9.091546
257.000000	9.176920
256.000000	9.269467
255.000000	9.407648
254.000000	9.488933
253.000000	9.597127
252.000000	9.652870
251.000000	9.777072
250.000000	9.917110
249.000000	10.046613
248.000000	10.170493
247.000000	10.279854
246.000000	10.356572
245.000000	10.433327
244.000000	10.555004
243.000000	10.643858
242.000000	10.727449
241.000000	10.783364
240.000000	10.831275
239.000000	10.868053
238.000000	10.863312
237.000000	10.909857
236.000000	10.989853
235.000000	11.059793
234.000000	11.095453
233.000000	11.119516
232.000000	11.108312
231.000000	11.161495
230.000000	11.264341
229.000000	11.313976
228.000000	11.320648
227.000000	11.371896
226.000000	11.455558
225.000000	11.584812
224.000000	11.695784
223.000000	11.789957
222.000000	11.948971
221.000000	12.113241
220.000000	12.246362
219.000000	12.389629
218.000000	12.571384
217.000000	12.757990
216.000000	12.912041
215.000000	13.086441
214.000000	13.408606
213.000000	13.697105
212.000000	13.878018
211.000000	14.229214
210.000000	14.509647
209.000000	14.765305
208.000000	15.132485
207.000000	15.610890
206.000000	16.076491
205.000000	16.593122
204.000000	16.992725
203.000000	17.293238
202.000000	17.724135
201.000000	18.421106
200.000000	19.033416
