PE UV       SUBTECH     SPECTRUM    ASCII       PEDS        4.00        
   -1
RDms1556131.Sample.asc
18/03/15
09:43:35.00
18/03/15
09:43:35.00
Administrator

200.000000
1
Lambda 750
750N8071901
PerkinElmer UV WinLab 6.0.4.0738 / 1.61.00 Lambda 900

0
0
3350/servo 860.8/2
0
0
UV/VIS
1
1
1
CommonBeamDepol,150mm sphere / downward view
0
0
0
0
Program
Program
3350/servo 860.8/2
3350/0.2 860.8/0.2
3350/0.2 860.8/0.2
0
1
 
 
 
0
 
860.8
319.2
860.8
Front
100
on
 
 
0
0
0
 
0
 
 
 
0
 
 
0
0
0
0
0
 
 
 
 
0
0


0
0
#HDR
-1
-1
#GR
nm
%R
1.0
0.0
2350.000000
-1.000000
2151
8
65.887697
8.602459
#DATA
2350.000000	32.316471
2349.000000	32.296941
2348.000000	31.985269
2347.000000	32.787976
2346.000000	32.848935
2345.000000	32.816237
2344.000000	32.634299
2343.000000	32.423126
2342.000000	32.653705
2341.000000	32.449176
2340.000000	32.784244
2339.000000	32.876639
2338.000000	32.977511
2337.000000	33.156733
2336.000000	33.462551
2335.000000	33.384054
2334.000000	33.572800
2333.000000	33.403043
2332.000000	33.564299
2331.000000	33.897288
2330.000000	33.447326
2329.000000	33.273336
2328.000000	33.272180
2327.000000	33.313472
2326.000000	33.498111
2325.000000	33.403950
2324.000000	33.045987
2323.000000	33.110099
2322.000000	33.015900
2321.000000	33.045813
2320.000000	33.227533
2319.000000	32.959516
2318.000000	32.856475
2317.000000	32.821421
2316.000000	32.775504
2315.000000	32.680397
2314.000000	32.752966
2313.000000	32.262463
2312.000000	32.282580
2311.000000	32.449861
2310.000000	32.241637
2309.000000	32.302918
2308.000000	32.133006
2307.000000	31.864781
2306.000000	31.873813
2305.000000	31.916696
2304.000000	32.113827
2303.000000	32.029676
2302.000000	32.137728
2301.000000	31.950148
2300.000000	31.960440
2299.000000	31.844634
2298.000000	31.765848
2297.000000	31.604907
2296.000000	31.980638
2295.000000	31.957529
2294.000000	31.688531
2293.000000	31.721126
2292.000000	31.695138
2291.000000	31.637130
2290.000000	31.490868
2289.000000	31.472248
2288.000000	31.469919
2287.000000	31.498284
2286.000000	31.630487
2285.000000	31.680903
2284.000000	31.600917
2283.000000	31.632136
2282.000000	31.476666
2281.000000	31.441869
2280.000000	31.535333
2279.000000	31.653593
2278.000000	31.619085
2277.000000	31.628614
2276.000000	31.691459
2275.000000	31.805942
2274.000000	31.903878
2273.000000	31.943127
2272.000000	32.065535
2271.000000	32.125556
2270.000000	32.135911
2269.000000	32.143670
2268.000000	32.310178
2267.000000	32.451340
2266.000000	32.576214
2265.000000	32.753182
2264.000000	32.830768
2263.000000	32.662385
2262.000000	32.904446
2261.000000	33.107929
2260.000000	33.350859
2259.000000	33.480509
2258.000000	33.660057
2257.000000	33.799725
2256.000000	33.814088
2255.000000	34.072064
2254.000000	34.224138
2253.000000	34.359664
2252.000000	34.725252
2251.000000	34.852302
2250.000000	34.938620
2249.000000	35.164512
2248.000000	35.323506
2247.000000	35.352688
2246.000000	35.502608
2245.000000	35.715296
2244.000000	36.012435
2243.000000	36.288083
2242.000000	36.312473
2241.000000	36.607276
2240.000000	36.818532
2239.000000	36.686950
2238.000000	36.802172
2237.000000	36.857232
2236.000000	36.929680
2235.000000	37.172778
2234.000000	37.280767
2233.000000	37.274617
2232.000000	37.319424
2231.000000	37.390634
2230.000000	37.459373
2229.000000	37.524572
2228.000000	37.591919
2227.000000	37.521475
2226.000000	37.464253
2225.000000	37.484429
2224.000000	37.498711
2223.000000	37.485302
2222.000000	37.427733
2221.000000	37.444602
2220.000000	37.502677
2219.000000	37.415938
2218.000000	37.310169
2217.000000	37.293693
2216.000000	37.279260
2215.000000	37.271609
2214.000000	37.259074
2213.000000	37.226823
2212.000000	37.102944
2211.000000	36.938244
2210.000000	36.978412
2209.000000	36.964328
2208.000000	36.859082
2207.000000	36.838155
2206.000000	36.855795
2205.000000	36.704660
2204.000000	36.646572
2203.000000	36.603138
2202.000000	36.523165
2201.000000	36.513495
2200.000000	36.484460
2199.000000	36.415648
2198.000000	36.389043
2197.000000	36.337979
2196.000000	36.159880
2195.000000	35.994962
2194.000000	35.949861
2193.000000	35.915661
2192.000000	35.821494
2191.000000	35.950017
2190.000000	35.913218
2189.000000	35.764918
2188.000000	35.582852
2187.000000	35.680672
2186.000000	35.655278
2185.000000	35.390102
2184.000000	35.516940
2183.000000	35.627536
2182.000000	35.536941
2181.000000	35.548293
2180.000000	35.483790
2179.000000	35.493646
2178.000000	35.505970
2177.000000	35.567578
2176.000000	35.472334
2175.000000	35.602556
2174.000000	35.683206
2173.000000	35.573106
2172.000000	35.754165
2171.000000	35.848333
2170.000000	35.864557
2169.000000	36.056520
2168.000000	36.011259
2167.000000	35.941309
2166.000000	36.151552
2165.000000	36.159321
2164.000000	36.326402
2163.000000	36.273311
2162.000000	36.427300
2161.000000	36.529369
2160.000000	36.774309
2159.000000	36.881572
2158.000000	36.880796
2157.000000	36.900370
2156.000000	37.065438
2155.000000	37.166895
2154.000000	37.453871
2153.000000	37.578441
2152.000000	37.730346
2151.000000	37.938644
2150.000000	37.835102
2149.000000	38.073314
2148.000000	38.056105
2147.000000	38.351725
2146.000000	38.413454
2145.000000	38.562153
2144.000000	38.655048
2143.000000	38.736104
2142.000000	38.785463
2141.000000	39.008814
2140.000000	39.241037
2139.000000	39.322151
2138.000000	39.407740
2137.000000	39.356484
2136.000000	39.429632
2135.000000	39.653037
2134.000000	39.690265
2133.000000	39.503422
2132.000000	39.818527
2131.000000	39.923473
2130.000000	39.949369
2129.000000	40.001549
2128.000000	39.991292
2127.000000	40.144251
2126.000000	40.074937
2125.000000	40.116735
2124.000000	40.053539
2123.000000	40.226644
2122.000000	40.371372
2121.000000	40.424004
2120.000000	40.313894
2119.000000	40.290842
2118.000000	40.238664
2117.000000	40.251178
2116.000000	40.637602
2115.000000	40.534654
2114.000000	40.532502
2113.000000	40.723213
2112.000000	40.527707
2111.000000	40.545436
2110.000000	40.526333
2109.000000	40.622520
2108.000000	40.675691
2107.000000	40.682608
2106.000000	40.650610
2105.000000	40.686221
2104.000000	40.631189
2103.000000	40.598198
2102.000000	40.680930
2101.000000	40.845762
2100.000000	40.701310
2099.000000	40.531655
2098.000000	40.628337
2097.000000	40.762759
2096.000000	40.730108
2095.000000	40.695012
2094.000000	40.670446
2093.000000	40.554964
2092.000000	40.647009
2091.000000	40.585993
2090.000000	40.476671
2089.000000	40.484910
2088.000000	40.444732
2087.000000	40.414527
2086.000000	40.397640
2085.000000	40.423769
2084.000000	40.283669
2083.000000	40.285627
2082.000000	40.156014
2081.000000	40.167289
2080.000000	40.114960
2079.000000	40.109088
2078.000000	40.001980
2077.000000	39.896703
2076.000000	39.799689
2075.000000	39.622843
2074.000000	39.514260
2073.000000	39.456773
2072.000000	39.309691
2071.000000	39.212270
2070.000000	39.106260
2069.000000	38.899696
2068.000000	38.788591
2067.000000	38.805999
2066.000000	38.628452
2065.000000	38.445192
2064.000000	38.411160
2063.000000	38.264313
2062.000000	38.032837
2061.000000	37.974941
2060.000000	37.871012
2059.000000	37.726170
2058.000000	37.597800
2057.000000	37.497740
2056.000000	37.426374
2055.000000	37.304085
2054.000000	37.146431
2053.000000	36.995054
2052.000000	36.951186
2051.000000	36.837533
2050.000000	36.780313
2049.000000	36.707035
2048.000000	36.641778
2047.000000	36.550981
2046.000000	36.495163
2045.000000	36.474355
2044.000000	36.477316
2043.000000	36.449010
2042.000000	36.458428
2041.000000	36.498538
2040.000000	36.506203
2039.000000	36.496311
2038.000000	36.535203
2037.000000	36.598592
2036.000000	36.642164
2035.000000	36.729177
2034.000000	36.813281
2033.000000	36.876726
2032.000000	36.975096
2031.000000	37.022491
2030.000000	37.120872
2029.000000	37.213641
2028.000000	37.286467
2027.000000	37.371554
2026.000000	37.445770
2025.000000	37.507865
2024.000000	37.551986
2023.000000	37.563307
2022.000000	37.567342
2021.000000	37.620967
2020.000000	37.672715
2019.000000	37.677349
2018.000000	37.689150
2017.000000	37.663366
2016.000000	37.587379
2015.000000	37.604683
2014.000000	37.578559
2013.000000	37.542041
2012.000000	37.522712
2011.000000	37.451652
2010.000000	37.347797
2009.000000	37.234902
2008.000000	37.188534
2007.000000	37.139207
2006.000000	37.053501
2005.000000	36.992990
2004.000000	36.899705
2003.000000	36.801058
2002.000000	36.771820
2001.000000	36.641132
2000.000000	36.515826
1999.000000	36.432055
1998.000000	36.366407
1997.000000	36.270200
1996.000000	36.188832
1995.000000	36.095645
1994.000000	35.970132
1993.000000	35.857660
1992.000000	35.742352
1991.000000	35.625362
1990.000000	35.498424
1989.000000	35.385495
1988.000000	35.333616
1987.000000	35.249962
1986.000000	35.085532
1985.000000	35.007612
1984.000000	34.987039
1983.000000	34.835226
1982.000000	34.694337
1981.000000	34.609398
1980.000000	34.522628
1979.000000	34.418303
1978.000000	34.325636
1977.000000	34.221129
1976.000000	34.113543
1975.000000	34.038989
1974.000000	33.924491
1973.000000	33.859409
1972.000000	33.764714
1971.000000	33.624700
1970.000000	33.570096
1969.000000	33.484567
1968.000000	33.421155
1967.000000	33.356679
1966.000000	33.276253
1965.000000	33.182617
1964.000000	33.077171
1963.000000	32.989910
1962.000000	32.867905
1961.000000	32.823845
1960.000000	32.761316
1959.000000	32.614069
1958.000000	32.586032
1957.000000	32.505415
1956.000000	32.506117
1955.000000	32.435949
1954.000000	32.373748
1953.000000	32.328743
1952.000000	32.280903
1951.000000	32.264720
1950.000000	32.169416
1949.000000	32.097497
1948.000000	32.148415
1947.000000	32.133119
1946.000000	32.134581
1945.000000	32.153011
1944.000000	32.118268
1943.000000	32.156929
1942.000000	32.193705
1941.000000	32.174063
1940.000000	32.251656
1939.000000	32.241652
1938.000000	32.350591
1937.000000	32.396056
1936.000000	32.476879
1935.000000	32.533831
1934.000000	32.677061
1933.000000	32.765940
1932.000000	32.860151
1931.000000	32.922057
1930.000000	33.153217
1929.000000	33.320316
1928.000000	33.449408
1927.000000	33.564021
1926.000000	33.784568
1925.000000	34.040014
1924.000000	34.213176
1923.000000	34.544234
1922.000000	34.747867
1921.000000	35.074270
1920.000000	35.147598
1919.000000	35.513083
1918.000000	35.760926
1917.000000	36.062984
1916.000000	36.274806
1915.000000	36.766587
1914.000000	37.037427
1913.000000	37.470740
1912.000000	37.787660
1911.000000	38.052247
1910.000000	38.473569
1909.000000	38.819557
1908.000000	39.247083
1907.000000	39.754149
1906.000000	40.169620
1905.000000	40.648423
1904.000000	41.108736
1903.000000	41.511259
1902.000000	42.037872
1901.000000	42.567328
1900.000000	42.955535
1899.000000	43.415653
1898.000000	43.988780
1897.000000	44.433943
1896.000000	44.825365
1895.000000	45.296565
1894.000000	45.784582
1893.000000	46.303429
1892.000000	46.777762
1891.000000	47.237699
1890.000000	47.663110
1889.000000	48.038131
1888.000000	48.434808
1887.000000	48.935623
1886.000000	49.286485
1885.000000	49.681534
1884.000000	49.986154
1883.000000	50.365040
1882.000000	50.622967
1881.000000	50.953104
1880.000000	51.308126
1879.000000	51.608611
1878.000000	51.858637
1877.000000	52.122557
1876.000000	52.400074
1875.000000	52.631728
1874.000000	52.865630
1873.000000	53.032082
1872.000000	53.284551
1871.000000	53.482004
1870.000000	53.598810
1869.000000	53.785968
1868.000000	54.009928
1867.000000	54.082150
1866.000000	54.121782
1865.000000	54.249745
1864.000000	54.351202
1863.000000	54.431935
1862.000000	54.516627
1861.000000	54.546144
1860.000000	54.593612
1859.000000	54.653093
1858.000000	54.693877
1857.000000	54.730312
1856.000000	54.758233
1855.000000	54.803421
1854.000000	54.849719
1853.000000	54.908546
1852.000000	54.944989
1851.000000	54.937226
1850.000000	54.928528
1849.000000	54.904779
1848.000000	54.924808
1847.000000	54.942425
1846.000000	54.982502
1845.000000	54.967409
1844.000000	54.918509
1843.000000	54.880680
1842.000000	54.849540
1841.000000	54.795552
1840.000000	54.757631
1839.000000	54.752512
1838.000000	54.763573
1837.000000	54.704318
1836.000000	54.664363
1835.000000	54.600970
1834.000000	54.579192
1833.000000	54.583314
1832.000000	54.537242
1831.000000	54.498754
1830.000000	54.477403
1829.000000	54.411803
1828.000000	54.390116
1827.000000	54.383724
1826.000000	54.331463
1825.000000	54.288638
1824.000000	54.273457
1823.000000	54.263785
1822.000000	54.246101
1821.000000	54.191426
1820.000000	54.127191
1819.000000	54.110676
1818.000000	54.103752
1817.000000	54.087579
1816.000000	54.036151
1815.000000	54.003332
1814.000000	53.982995
1813.000000	53.948766
1812.000000	53.924005
1811.000000	53.904256
1810.000000	53.883095
1809.000000	53.887593
1808.000000	53.873703
1807.000000	53.792978
1806.000000	53.760111
1805.000000	53.762159
1804.000000	53.733159
1803.000000	53.729578
1802.000000	53.711928
1801.000000	53.686404
1800.000000	53.661555
1799.000000	53.638318
1798.000000	53.618548
1797.000000	53.605568
1796.000000	53.607203
1795.000000	53.576920
1794.000000	53.563383
1793.000000	53.556024
1792.000000	53.525525
1791.000000	53.516134
1790.000000	53.492423
1789.000000	53.470102
1788.000000	53.451881
1787.000000	53.417665
1786.000000	53.425624
1785.000000	53.414433
1784.000000	53.369354
1783.000000	53.342402
1782.000000	53.304709
1781.000000	53.261564
1780.000000	53.242031
1779.000000	53.215086
1778.000000	53.196649
1777.000000	53.146994
1776.000000	53.075262
1775.000000	53.023490
1774.000000	52.976651
1773.000000	52.944805
1772.000000	52.881097
1771.000000	52.831768
1770.000000	52.792513
1769.000000	52.733801
1768.000000	52.681655
1767.000000	52.618744
1766.000000	52.586000
1765.000000	52.548760
1764.000000	52.521411
1763.000000	52.475966
1762.000000	52.442732
1761.000000	52.411890
1760.000000	52.339174
1759.000000	52.294874
1758.000000	52.241831
1757.000000	52.219530
1756.000000	52.196126
1755.000000	52.151181
1754.000000	52.102689
1753.000000	52.050321
1752.000000	52.010946
1751.000000	51.957305
1750.000000	51.909098
1749.000000	51.881461
1748.000000	51.802972
1747.000000	51.748628
1746.000000	51.709300
1745.000000	51.625903
1744.000000	51.571691
1743.000000	51.534877
1742.000000	51.489593
1741.000000	51.423875
1740.000000	51.371015
1739.000000	51.338794
1738.000000	51.305917
1737.000000	51.276722
1736.000000	51.232921
1735.000000	51.250556
1734.000000	51.279142
1733.000000	51.206627
1732.000000	51.207264
1731.000000	51.218268
1730.000000	51.265581
1729.000000	51.276853
1728.000000	51.341067
1727.000000	51.372106
1726.000000	51.429939
1725.000000	51.487126
1724.000000	51.552401
1723.000000	51.660749
1722.000000	51.766806
1721.000000	51.833038
1720.000000	51.934781
1719.000000	52.045185
1718.000000	52.120814
1717.000000	52.182797
1716.000000	52.282334
1715.000000	52.387791
1714.000000	52.438827
1713.000000	52.568590
1712.000000	52.604114
1711.000000	52.695912
1710.000000	52.759534
1709.000000	52.800071
1708.000000	52.853971
1707.000000	52.916156
1706.000000	52.987258
1705.000000	53.022719
1704.000000	53.058741
1703.000000	53.089540
1702.000000	53.151972
1701.000000	53.167740
1700.000000	53.166506
1699.000000	53.196063
1698.000000	53.281266
1697.000000	53.288716
1696.000000	53.337945
1695.000000	53.370718
1694.000000	53.402636
1693.000000	53.462677
1692.000000	53.515405
1691.000000	53.600048
1690.000000	53.675184
1689.000000	53.760574
1688.000000	53.896522
1687.000000	53.951005
1686.000000	54.101762
1685.000000	54.196639
1684.000000	54.350233
1683.000000	54.442613
1682.000000	54.618147
1681.000000	54.778416
1680.000000	54.872967
1679.000000	55.005363
1678.000000	55.204440
1677.000000	55.293959
1676.000000	55.482849
1675.000000	55.646224
1674.000000	55.778383
1673.000000	55.905774
1672.000000	56.019581
1671.000000	56.169044
1670.000000	56.315571
1669.000000	56.433486
1668.000000	56.540058
1667.000000	56.677693
1666.000000	56.745767
1665.000000	56.809146
1664.000000	56.899417
1663.000000	56.960549
1662.000000	57.057603
1661.000000	57.113061
1660.000000	57.144898
1659.000000	57.209862
1658.000000	57.257908
1657.000000	57.269731
1656.000000	57.279812
1655.000000	57.341269
1654.000000	57.360375
1653.000000	57.380172
1652.000000	57.400182
1651.000000	57.389449
1650.000000	57.388875
1649.000000	57.388671
1648.000000	57.350362
1647.000000	57.379981
1646.000000	57.379494
1645.000000	57.337263
1644.000000	57.368797
1643.000000	57.338762
1642.000000	57.310969
1641.000000	57.286459
1640.000000	57.251533
1639.000000	57.248348
1638.000000	57.216980
1637.000000	57.181494
1636.000000	57.138862
1635.000000	57.132550
1634.000000	57.098449
1633.000000	57.065386
1632.000000	57.038185
1631.000000	57.008581
1630.000000	56.972958
1629.000000	56.955708
1628.000000	56.903413
1627.000000	56.868212
1626.000000	56.836803
1625.000000	56.806987
1624.000000	56.787747
1623.000000	56.755428
1622.000000	56.709384
1621.000000	56.652420
1620.000000	56.611552
1619.000000	56.570394
1618.000000	56.511554
1617.000000	56.467587
1616.000000	56.422664
1615.000000	56.390398
1614.000000	56.347366
1613.000000	56.295288
1612.000000	56.251995
1611.000000	56.209218
1610.000000	56.161145
1609.000000	56.111479
1608.000000	56.063524
1607.000000	56.007777
1606.000000	55.945077
1605.000000	55.886468
1604.000000	55.839875
1603.000000	55.787495
1602.000000	55.745783
1601.000000	55.703221
1600.000000	55.647519
1599.000000	55.601189
1598.000000	55.560238
1597.000000	55.514613
1596.000000	55.463670
1595.000000	55.411657
1594.000000	55.374437
1593.000000	55.347396
1592.000000	55.293951
1591.000000	55.223720
1590.000000	55.197924
1589.000000	55.149799
1588.000000	55.083051
1587.000000	55.053773
1586.000000	55.032561
1585.000000	55.003684
1584.000000	54.947948
1583.000000	54.910324
1582.000000	54.871259
1581.000000	54.835376
1580.000000	54.808174
1579.000000	54.768851
1578.000000	54.728719
1577.000000	54.687813
1576.000000	54.640676
1575.000000	54.613794
1574.000000	54.583023
1573.000000	54.532221
1572.000000	54.486726
1571.000000	54.449491
1570.000000	54.419888
1569.000000	54.384300
1568.000000	54.360240
1567.000000	54.319803
1566.000000	54.292087
1565.000000	54.260719
1564.000000	54.248798
1563.000000	54.236849
1562.000000	54.198561
1561.000000	54.175838
1560.000000	54.148692
1559.000000	54.109180
1558.000000	54.081758
1557.000000	54.068065
1556.000000	54.066213
1555.000000	54.035473
1554.000000	53.997917
1553.000000	53.967985
1552.000000	53.942772
1551.000000	53.907090
1550.000000	53.857791
1549.000000	53.833348
1548.000000	53.799265
1547.000000	53.747738
1546.000000	53.720979
1545.000000	53.665322
1544.000000	53.579631
1543.000000	53.525523
1542.000000	53.457367
1541.000000	53.390654
1540.000000	53.304368
1539.000000	53.245784
1538.000000	53.162647
1537.000000	53.069803
1536.000000	53.006061
1535.000000	52.940688
1534.000000	52.867911
1533.000000	52.810333
1532.000000	52.736799
1531.000000	52.679364
1530.000000	52.616871
1529.000000	52.550865
1528.000000	52.480053
1527.000000	52.409577
1526.000000	52.355333
1525.000000	52.324678
1524.000000	52.267422
1523.000000	52.206249
1522.000000	52.162505
1521.000000	52.142148
1520.000000	52.094210
1519.000000	52.052034
1518.000000	52.047196
1517.000000	52.006410
1516.000000	51.970655
1515.000000	51.945786
1514.000000	51.907496
1513.000000	51.902994
1512.000000	51.903131
1511.000000	51.858357
1510.000000	51.841831
1509.000000	51.815684
1508.000000	51.799150
1507.000000	51.807666
1506.000000	51.791234
1505.000000	51.753972
1504.000000	51.752653
1503.000000	51.767199
1502.000000	51.740496
1501.000000	51.724438
1500.000000	51.712972
1499.000000	51.720900
1498.000000	51.715144
1497.000000	51.719817
1496.000000	51.728395
1495.000000	51.743197
1494.000000	51.746998
1493.000000	51.770245
1492.000000	51.763520
1491.000000	51.788326
1490.000000	51.819784
1489.000000	51.830137
1488.000000	51.857696
1487.000000	51.885367
1486.000000	51.894631
1485.000000	51.900657
1484.000000	51.916163
1483.000000	51.968390
1482.000000	51.983549
1481.000000	52.008403
1480.000000	52.061265
1479.000000	52.094817
1478.000000	52.126812
1477.000000	52.127433
1476.000000	52.152391
1475.000000	52.196742
1474.000000	52.230980
1473.000000	52.261917
1472.000000	52.308655
1471.000000	52.351635
1470.000000	52.356470
1469.000000	52.391080
1468.000000	52.426725
1467.000000	52.460671
1466.000000	52.479995
1465.000000	52.532514
1464.000000	52.546530
1463.000000	52.583075
1462.000000	52.619103
1461.000000	52.661962
1460.000000	52.713418
1459.000000	52.744232
1458.000000	52.797657
1457.000000	52.836923
1456.000000	52.871034
1455.000000	52.919999
1454.000000	52.984874
1453.000000	53.027834
1452.000000	53.091869
1451.000000	53.157081
1450.000000	53.222814
1449.000000	53.269159
1448.000000	53.338016
1447.000000	53.408671
1446.000000	53.461773
1445.000000	53.544092
1444.000000	53.630844
1443.000000	53.710890
1442.000000	53.790742
1441.000000	53.869161
1440.000000	53.955942
1439.000000	54.035385
1438.000000	54.127926
1437.000000	54.232522
1436.000000	54.346682
1435.000000	54.429372
1434.000000	54.534092
1433.000000	54.641695
1432.000000	54.748706
1431.000000	54.875337
1430.000000	54.990786
1429.000000	55.117100
1428.000000	55.237383
1427.000000	55.361240
1426.000000	55.507774
1425.000000	55.652902
1424.000000	55.788082
1423.000000	55.930796
1422.000000	56.085958
1421.000000	56.232184
1420.000000	56.388662
1419.000000	56.539549
1418.000000	56.689817
1417.000000	56.849976
1416.000000	57.011673
1415.000000	57.178089
1414.000000	57.345370
1413.000000	57.517143
1412.000000	57.698015
1411.000000	57.865378
1410.000000	58.038773
1409.000000	58.219490
1408.000000	58.395457
1407.000000	58.548757
1406.000000	58.719730
1405.000000	58.886282
1404.000000	59.041101
1403.000000	59.193856
1402.000000	59.338678
1401.000000	59.496957
1400.000000	59.676752
1399.000000	59.832571
1398.000000	59.974623
1397.000000	60.112624
1396.000000	60.249959
1395.000000	60.383623
1394.000000	60.510612
1393.000000	60.631654
1392.000000	60.756001
1391.000000	60.874474
1390.000000	60.969722
1389.000000	61.083934
1388.000000	61.190881
1387.000000	61.289539
1386.000000	61.390895
1385.000000	61.476007
1384.000000	61.574360
1383.000000	61.671991
1382.000000	61.732712
1381.000000	61.818259
1380.000000	61.898723
1379.000000	61.955840
1378.000000	62.024791
1377.000000	62.098992
1376.000000	62.156089
1375.000000	62.195552
1374.000000	62.250631
1373.000000	62.310076
1372.000000	62.356692
1371.000000	62.416695
1370.000000	62.460500
1369.000000	62.500857
1368.000000	62.535072
1367.000000	62.580094
1366.000000	62.634774
1365.000000	62.672303
1364.000000	62.700746
1363.000000	62.740929
1362.000000	62.792066
1361.000000	62.844097
1360.000000	62.877584
1359.000000	62.938573
1358.000000	62.986450
1357.000000	63.000062
1356.000000	63.054196
1355.000000	63.097385
1354.000000	63.157619
1353.000000	63.208932
1352.000000	63.256844
1351.000000	63.308892
1350.000000	63.337645
1349.000000	63.388291
1348.000000	63.440946
1347.000000	63.496778
1346.000000	63.572039
1345.000000	63.596047
1344.000000	63.619270
1343.000000	63.663569
1342.000000	63.709747
1341.000000	63.750211
1340.000000	63.787630
1339.000000	63.817046
1338.000000	63.853370
1337.000000	63.894808
1336.000000	63.947909
1335.000000	63.969002
1334.000000	63.993170
1333.000000	64.015661
1332.000000	64.057388
1331.000000	64.087580
1330.000000	64.144690
1329.000000	64.190742
1328.000000	64.226073
1327.000000	64.244971
1326.000000	64.256522
1325.000000	64.277215
1324.000000	64.288052
1323.000000	64.319539
1322.000000	64.374931
1321.000000	64.387117
1320.000000	64.380312
1319.000000	64.395160
1318.000000	64.389178
1317.000000	64.434249
1316.000000	64.496619
1315.000000	64.499102
1314.000000	64.485845
1313.000000	64.508325
1312.000000	64.525709
1311.000000	64.558705
1310.000000	64.563122
1309.000000	64.588840
1308.000000	64.594765
1307.000000	64.608364
1306.000000	64.598924
1305.000000	64.628744
1304.000000	64.653882
1303.000000	64.681736
1302.000000	64.683161
1301.000000	64.696547
1300.000000	64.682596
1299.000000	64.679429
1298.000000	64.694926
1297.000000	64.698463
1296.000000	64.694866
1295.000000	64.704283
1294.000000	64.712361
1293.000000	64.710335
1292.000000	64.713420
1291.000000	64.713139
1290.000000	64.722932
1289.000000	64.726953
1288.000000	64.724246
1287.000000	64.693124
1286.000000	64.698456
1285.000000	64.689881
1284.000000	64.686818
1283.000000	64.696417
1282.000000	64.700951
1281.000000	64.718306
1280.000000	64.650936
1279.000000	64.669778
1278.000000	64.669117
1277.000000	64.682613
1276.000000	64.672962
1275.000000	64.673706
1274.000000	64.685393
1273.000000	64.672314
1272.000000	64.659015
1271.000000	64.671752
1270.000000	64.658372
1269.000000	64.700919
1268.000000	64.704006
1267.000000	64.739758
1266.000000	64.747488
1265.000000	64.702079
1264.000000	64.717430
1263.000000	64.724355
1262.000000	64.763225
1261.000000	64.746840
1260.000000	64.787562
1259.000000	64.765001
1258.000000	64.775816
1257.000000	64.743417
1256.000000	64.749203
1255.000000	64.793273
1254.000000	64.782825
1253.000000	64.811088
1252.000000	64.777766
1251.000000	64.800223
1250.000000	64.805426
1249.000000	64.811063
1248.000000	64.796859
1247.000000	64.794558
1246.000000	64.783979
1245.000000	64.730346
1244.000000	64.745911
1243.000000	64.748904
1242.000000	64.729815
1241.000000	64.713531
1240.000000	64.678881
1239.000000	64.671134
1238.000000	64.647218
1237.000000	64.642776
1236.000000	64.625290
1235.000000	64.583785
1234.000000	64.576772
1233.000000	64.560292
1232.000000	64.543114
1231.000000	64.501522
1230.000000	64.493001
1229.000000	64.465539
1228.000000	64.447193
1227.000000	64.452141
1226.000000	64.418066
1225.000000	64.358260
1224.000000	64.345401
1223.000000	64.337033
1222.000000	64.325607
1221.000000	64.298535
1220.000000	64.276621
1219.000000	64.248406
1218.000000	64.234175
1217.000000	64.237535
1216.000000	64.230991
1215.000000	64.220953
1214.000000	64.180325
1213.000000	64.151407
1212.000000	64.147463
1211.000000	64.126890
1210.000000	64.120178
1209.000000	64.109697
1208.000000	64.067872
1207.000000	64.068865
1206.000000	64.052590
1205.000000	64.040101
1204.000000	64.007508
1203.000000	64.003617
1202.000000	64.003626
1201.000000	63.970724
1200.000000	63.962009
1199.000000	63.943416
1198.000000	63.927091
1197.000000	63.928152
1196.000000	63.901640
1195.000000	63.882835
1194.000000	63.878132
1193.000000	63.879412
1192.000000	63.878691
1191.000000	63.867162
1190.000000	63.844275
1189.000000	63.806457
1188.000000	63.814238
1187.000000	63.804260
1186.000000	63.799363
1185.000000	63.819863
1184.000000	63.831554
1183.000000	63.846775
1182.000000	63.872946
1181.000000	63.900734
1180.000000	63.918757
1179.000000	63.951936
1178.000000	63.974465
1177.000000	64.004133
1176.000000	64.047180
1175.000000	64.080693
1174.000000	64.106908
1173.000000	64.162414
1172.000000	64.203789
1171.000000	64.241173
1170.000000	64.289295
1169.000000	64.327377
1168.000000	64.362980
1167.000000	64.416590
1166.000000	64.477495
1165.000000	64.533290
1164.000000	64.564421
1163.000000	64.605735
1162.000000	64.659814
1161.000000	64.713226
1160.000000	64.767163
1159.000000	64.818561
1158.000000	64.849153
1157.000000	64.882683
1156.000000	64.928386
1155.000000	64.971616
1154.000000	65.005882
1153.000000	65.045388
1152.000000	65.099155
1151.000000	65.131558
1150.000000	65.171226
1149.000000	65.206767
1148.000000	65.233821
1147.000000	65.264606
1146.000000	65.294395
1145.000000	65.323428
1144.000000	65.358432
1143.000000	65.397208
1142.000000	65.394298
1141.000000	65.416312
1140.000000	65.465978
1139.000000	65.500585
1138.000000	65.525701
1137.000000	65.548066
1136.000000	65.579476
1135.000000	65.593062
1134.000000	65.616224
1133.000000	65.658179
1132.000000	65.673681
1131.000000	65.690252
1130.000000	65.717385
1129.000000	65.705770
1128.000000	65.713232
1127.000000	65.737664
1126.000000	65.747562
1125.000000	65.760819
1124.000000	65.772880
1123.000000	65.786034
1122.000000	65.789879
1121.000000	65.795419
1120.000000	65.810193
1119.000000	65.820197
1118.000000	65.846443
1117.000000	65.847346
1116.000000	65.841912
1115.000000	65.843407
1114.000000	65.844127
1113.000000	65.857401
1112.000000	65.852853
1111.000000	65.859759
1110.000000	65.854737
1109.000000	65.853245
1108.000000	65.858524
1107.000000	65.863548
1106.000000	65.856444
1105.000000	65.870866
1104.000000	65.880333
1103.000000	65.868471
1102.000000	65.861571
1101.000000	65.881974
1100.000000	65.887697
1099.000000	65.857525
1098.000000	65.853066
1097.000000	65.850981
1096.000000	65.873202
1095.000000	65.875512
1094.000000	65.878366
1093.000000	65.870195
1092.000000	65.854433
1091.000000	65.844528
1090.000000	65.861261
1089.000000	65.857895
1088.000000	65.859675
1087.000000	65.851607
1086.000000	65.825573
1085.000000	65.839438
1084.000000	65.829993
1083.000000	65.828745
1082.000000	65.839599
1081.000000	65.833380
1080.000000	65.798189
1079.000000	65.779908
1078.000000	65.795757
1077.000000	65.807973
1076.000000	65.817996
1075.000000	65.817274
1074.000000	65.795113
1073.000000	65.784563
1072.000000	65.785995
1071.000000	65.786044
1070.000000	65.783645
1069.000000	65.791039
1068.000000	65.762602
1067.000000	65.751240
1066.000000	65.744649
1065.000000	65.741028
1064.000000	65.737900
1063.000000	65.731589
1062.000000	65.720077
1061.000000	65.708057
1060.000000	65.734247
1059.000000	65.699728
1058.000000	65.698541
1057.000000	65.705292
1056.000000	65.711747
1055.000000	65.727444
1054.000000	65.710405
1053.000000	65.707752
1052.000000	65.669151
1051.000000	65.669582
1050.000000	65.689895
1049.000000	65.681445
1048.000000	65.662608
1047.000000	65.661109
1046.000000	65.640965
1045.000000	65.662855
1044.000000	65.633725
1043.000000	65.621546
1042.000000	65.636773
1041.000000	65.631601
1040.000000	65.635722
1039.000000	65.641808
1038.000000	65.614059
1037.000000	65.618810
1036.000000	65.633149
1035.000000	65.606843
1034.000000	65.622275
1033.000000	65.610080
1032.000000	65.605365
1031.000000	65.591132
1030.000000	65.589471
1029.000000	65.584084
1028.000000	65.580366
1027.000000	65.585745
1026.000000	65.572947
1025.000000	65.576248
1024.000000	65.582175
1023.000000	65.568907
1022.000000	65.554913
1021.000000	65.538944
1020.000000	65.544965
1019.000000	65.538268
1018.000000	65.548230
1017.000000	65.552869
1016.000000	65.542175
1015.000000	65.544582
1014.000000	65.552858
1013.000000	65.542508
1012.000000	65.548182
1011.000000	65.546639
1010.000000	65.544964
1009.000000	65.541230
1008.000000	65.532303
1007.000000	65.524294
1006.000000	65.536998
1005.000000	65.554013
1004.000000	65.536696
1003.000000	65.532050
1002.000000	65.524542
1001.000000	65.539326
1000.000000	65.530726
999.000000	65.551040
998.000000	65.540040
997.000000	65.543144
996.000000	65.533957
995.000000	65.532217
994.000000	65.522014
993.000000	65.524288
992.000000	65.523925
991.000000	65.540188
990.000000	65.542054
989.000000	65.535479
988.000000	65.525945
987.000000	65.532121
986.000000	65.544808
985.000000	65.546579
984.000000	65.544742
983.000000	65.567227
982.000000	65.566046
981.000000	65.574098
980.000000	65.564207
979.000000	65.541359
978.000000	65.562182
977.000000	65.566735
976.000000	65.559012
975.000000	65.567508
974.000000	65.566140
973.000000	65.559125
972.000000	65.575595
971.000000	65.594182
970.000000	65.576912
969.000000	65.596262
968.000000	65.612305
967.000000	65.596151
966.000000	65.601586
965.000000	65.612589
964.000000	65.597720
963.000000	65.605855
962.000000	65.617235
961.000000	65.616801
960.000000	65.615048
959.000000	65.636723
958.000000	65.639745
957.000000	65.630078
956.000000	65.644194
955.000000	65.639326
954.000000	65.635396
953.000000	65.638153
952.000000	65.661770
951.000000	65.661194
950.000000	65.642844
949.000000	65.650484
948.000000	65.649684
947.000000	65.637453
946.000000	65.645662
945.000000	65.646335
944.000000	65.627496
943.000000	65.623035
942.000000	65.646203
941.000000	65.653546
940.000000	65.645884
939.000000	65.646291
938.000000	65.649138
937.000000	65.651485
936.000000	65.649216
935.000000	65.628042
934.000000	65.628432
933.000000	65.623088
932.000000	65.599796
931.000000	65.587119
930.000000	65.599682
929.000000	65.619696
928.000000	65.587922
927.000000	65.595726
926.000000	65.578152
925.000000	65.542747
924.000000	65.559766
923.000000	65.556418
922.000000	65.581917
921.000000	65.575247
920.000000	65.561209
919.000000	65.519538
918.000000	65.520972
917.000000	65.496905
916.000000	65.506703
915.000000	65.531050
914.000000	65.508754
913.000000	65.502358
912.000000	65.502941
911.000000	65.459554
910.000000	65.461375
909.000000	65.509098
908.000000	65.526702
907.000000	65.518324
906.000000	65.525537
905.000000	65.529638
904.000000	65.501518
903.000000	65.455001
902.000000	65.485809
901.000000	65.499548
900.000000	65.461266
899.000000	65.454274
898.000000	65.458702
897.000000	65.452818
896.000000	65.472580
895.000000	65.468193
894.000000	65.522033
893.000000	65.506745
892.000000	65.516340
891.000000	65.551333
890.000000	65.509481
889.000000	65.496165
888.000000	65.498615
887.000000	65.503845
886.000000	65.490095
885.000000	65.563238
884.000000	65.497225
883.000000	65.506273
882.000000	65.493559
881.000000	65.539162
880.000000	65.492148
879.000000	65.526561
878.000000	65.500993
877.000000	65.475959
876.000000	65.435105
875.000000	65.459590
874.000000	65.446882
873.000000	65.485150
872.000000	65.483589
871.000000	65.476353
870.000000	65.420117
869.000000	65.334657
868.000000	65.355531
867.000000	65.427048
866.000000	65.384305
865.000000	65.337450
864.000000	65.425889
863.000000	65.324045
862.000000	65.360240
861.000000	65.335255
860.000000	65.418964
859.000000	65.153672
858.000000	65.485012
857.000000	65.379590
856.000000	65.362393
855.000000	65.508978
854.000000	65.502014
853.000000	65.098334
852.000000	65.345642
851.000000	65.293288
850.000000	65.373627
849.000000	65.322083
848.000000	65.681293
847.000000	65.443977
846.000000	65.332884
845.000000	65.228058
844.000000	65.316233
843.000000	65.271568
842.000000	65.203937
841.000000	65.505655
840.000000	65.278962
839.000000	65.190810
838.000000	65.374616
837.000000	65.212603
836.000000	65.298934
835.000000	65.236928
834.000000	65.115021
833.000000	64.986253
832.000000	65.264270
831.000000	65.224416
830.000000	65.296606
829.000000	65.200257
828.000000	65.120216
827.000000	65.142067
826.000000	65.080489
825.000000	65.038146
824.000000	65.029365
823.000000	65.092253
822.000000	65.091134
821.000000	65.143902
820.000000	65.043694
819.000000	65.068382
818.000000	64.799620
817.000000	65.008323
816.000000	64.911324
815.000000	64.824743
814.000000	64.862471
813.000000	64.947669
812.000000	64.740416
811.000000	64.831946
810.000000	64.742958
809.000000	65.023370
808.000000	64.899419
807.000000	64.942955
806.000000	64.760118
805.000000	64.837578
804.000000	64.778916
803.000000	64.942665
802.000000	64.704995
801.000000	64.715054
800.000000	64.539663
799.000000	64.597004
798.000000	64.611864
797.000000	64.678407
796.000000	64.596786
795.000000	64.506425
794.000000	64.529418
793.000000	64.499633
792.000000	64.513845
791.000000	64.540894
790.000000	64.438895
789.000000	64.400296
788.000000	64.451337
787.000000	64.498546
786.000000	64.373449
785.000000	64.354122
784.000000	64.276955
783.000000	64.360629
782.000000	64.296304
781.000000	64.261357
780.000000	64.251436
779.000000	64.187084
778.000000	64.246418
777.000000	64.098169
776.000000	64.091962
775.000000	64.064702
774.000000	63.955792
773.000000	64.096556
772.000000	64.069321
771.000000	63.951461
770.000000	63.958560
769.000000	63.972635
768.000000	64.020526
767.000000	63.923911
766.000000	63.945176
765.000000	63.792482
764.000000	63.781818
763.000000	63.688743
762.000000	63.720572
761.000000	63.671718
760.000000	63.561763
759.000000	63.696248
758.000000	63.528219
757.000000	63.533883
756.000000	63.575306
755.000000	63.533623
754.000000	63.538494
753.000000	63.451177
752.000000	63.444070
751.000000	63.346339
750.000000	63.316788
749.000000	63.306564
748.000000	63.216605
747.000000	63.180586
746.000000	63.165714
745.000000	63.158776
744.000000	63.083573
743.000000	62.995000
742.000000	63.024675
741.000000	62.958805
740.000000	63.006984
739.000000	62.949279
738.000000	62.877623
737.000000	62.844492
736.000000	62.889742
735.000000	62.801118
734.000000	62.706690
733.000000	62.724790
732.000000	62.681052
731.000000	62.600437
730.000000	62.543799
729.000000	62.497060
728.000000	62.421640
727.000000	62.337351
726.000000	62.372598
725.000000	62.318699
724.000000	62.236575
723.000000	62.200175
722.000000	62.158037
721.000000	62.148774
720.000000	62.085257
719.000000	61.995963
718.000000	61.885590
717.000000	61.879378
716.000000	61.856535
715.000000	61.795985
714.000000	61.749693
713.000000	61.682156
712.000000	61.686030
711.000000	61.595040
710.000000	61.539169
709.000000	61.520132
708.000000	61.475289
707.000000	61.403309
706.000000	61.372061
705.000000	61.317106
704.000000	61.218508
703.000000	61.174430
702.000000	61.117653
701.000000	60.995514
700.000000	60.990796
699.000000	60.951104
698.000000	60.864914
697.000000	60.759076
696.000000	60.726556
695.000000	60.687936
694.000000	60.561966
693.000000	60.553634
692.000000	60.478653
691.000000	60.400611
690.000000	60.428664
689.000000	60.308079
688.000000	60.151378
687.000000	60.079791
686.000000	59.990789
685.000000	59.915647
684.000000	59.904735
683.000000	59.813487
682.000000	59.693383
681.000000	59.626905
680.000000	59.510093
679.000000	59.497992
678.000000	59.429428
677.000000	59.316253
676.000000	59.269214
675.000000	59.228219
674.000000	59.114703
673.000000	59.026157
672.000000	58.992753
671.000000	58.907293
670.000000	58.784410
669.000000	58.707861
668.000000	58.663856
667.000000	58.560274
666.000000	58.481971
665.000000	58.369178
664.000000	58.302733
663.000000	58.219445
662.000000	58.146875
661.000000	58.039668
660.000000	57.961698
659.000000	57.883746
658.000000	57.800490
657.000000	57.677540
656.000000	57.601970
655.000000	57.521536
654.000000	57.430221
653.000000	57.340574
652.000000	57.298801
651.000000	57.203174
650.000000	57.082788
649.000000	57.025682
648.000000	56.910650
647.000000	56.839742
646.000000	56.727462
645.000000	56.612194
644.000000	56.535438
643.000000	56.437079
642.000000	56.334017
641.000000	56.304486
640.000000	56.167493
639.000000	56.050828
638.000000	55.978352
637.000000	55.869900
636.000000	55.767784
635.000000	55.650434
634.000000	55.541393
633.000000	55.466447
632.000000	55.388897
631.000000	55.325608
630.000000	55.190603
629.000000	55.095109
628.000000	55.005967
627.000000	54.853250
626.000000	54.789701
625.000000	54.657609
624.000000	54.568784
623.000000	54.433765
622.000000	54.323603
621.000000	54.196173
620.000000	54.063624
619.000000	53.973729
618.000000	53.905128
617.000000	53.754020
616.000000	53.626422
615.000000	53.533874
614.000000	53.446408
613.000000	53.263804
612.000000	53.152636
611.000000	53.135245
610.000000	52.984360
609.000000	52.874420
608.000000	52.701218
607.000000	52.578315
606.000000	52.546746
605.000000	52.368178
604.000000	52.256380
603.000000	52.101563
602.000000	52.016285
601.000000	51.851560
600.000000	51.731478
599.000000	51.578785
598.000000	51.475795
597.000000	51.364840
596.000000	51.238572
595.000000	51.112271
594.000000	50.978033
593.000000	50.875037
592.000000	50.654460
591.000000	50.610062
590.000000	50.430873
589.000000	50.301478
588.000000	50.161175
587.000000	50.072920
586.000000	49.868606
585.000000	49.774240
584.000000	49.591393
583.000000	49.491475
582.000000	49.378141
581.000000	49.217268
580.000000	49.076490
579.000000	48.905091
578.000000	48.801278
577.000000	48.636542
576.000000	48.486733
575.000000	48.371933
574.000000	48.169495
573.000000	48.055617
572.000000	47.915738
571.000000	47.761385
570.000000	47.613513
569.000000	47.517338
568.000000	47.287031
567.000000	47.148315
566.000000	46.993024
565.000000	46.827268
564.000000	46.698609
563.000000	46.535097
562.000000	46.348099
561.000000	46.272574
560.000000	46.101205
559.000000	45.925885
558.000000	45.786670
557.000000	45.569984
556.000000	45.389076
555.000000	45.232557
554.000000	45.072778
553.000000	44.941838
552.000000	44.790178
551.000000	44.625076
550.000000	44.479720
549.000000	44.314091
548.000000	44.162022
547.000000	43.959549
546.000000	43.747007
545.000000	43.616308
544.000000	43.479684
543.000000	43.301994
542.000000	43.127423
541.000000	42.962064
540.000000	42.771693
539.000000	42.626387
538.000000	42.464910
537.000000	42.255826
536.000000	42.096956
535.000000	41.951357
534.000000	41.751230
533.000000	41.605896
532.000000	41.431656
531.000000	41.245939
530.000000	41.080179
529.000000	40.897949
528.000000	40.709977
527.000000	40.543302
526.000000	40.376083
525.000000	40.201813
524.000000	40.015310
523.000000	39.829012
522.000000	39.663959
521.000000	39.507461
520.000000	39.328965
519.000000	39.134362
518.000000	38.968812
517.000000	38.797065
516.000000	38.593939
515.000000	38.418351
514.000000	38.254300
513.000000	38.081627
512.000000	37.878425
511.000000	37.680248
510.000000	37.513235
509.000000	37.333543
508.000000	37.127371
507.000000	36.969425
506.000000	36.789994
505.000000	36.561852
504.000000	36.375609
503.000000	36.197023
502.000000	36.008976
501.000000	35.844524
500.000000	35.638663
499.000000	35.466374
498.000000	35.283784
497.000000	35.113730
496.000000	34.938232
495.000000	34.760754
494.000000	34.594004
493.000000	34.426124
492.000000	34.232262
491.000000	34.034309
490.000000	33.883267
489.000000	33.735180
488.000000	33.511236
487.000000	33.330974
486.000000	33.175814
485.000000	32.992737
484.000000	32.828677
483.000000	32.670910
482.000000	32.447233
481.000000	32.275870
480.000000	32.130375
479.000000	31.957515
478.000000	31.766122
477.000000	31.551870
476.000000	31.380504
475.000000	31.218874
474.000000	31.037515
473.000000	30.853615
472.000000	30.675859
471.000000	30.518909
470.000000	30.350956
469.000000	30.181128
468.000000	29.994143
467.000000	29.809203
466.000000	29.650785
465.000000	29.479418
464.000000	29.279890
463.000000	29.082500
462.000000	28.902595
461.000000	28.734359
460.000000	28.547589
459.000000	28.347730
458.000000	28.147826
457.000000	27.996534
456.000000	27.845195
455.000000	27.627383
454.000000	27.454475
453.000000	27.279018
452.000000	27.072406
451.000000	26.866189
450.000000	26.667090
449.000000	26.513689
448.000000	26.329727
447.000000	26.124744
446.000000	25.937570
445.000000	25.763004
444.000000	25.557411
443.000000	25.345696
442.000000	25.141784
441.000000	24.967494
440.000000	24.772476
439.000000	24.581009
438.000000	24.398776
437.000000	24.224202
436.000000	24.029901
435.000000	23.836511
434.000000	23.662269
433.000000	23.460505
432.000000	23.252421
431.000000	23.068373
430.000000	22.871407
429.000000	22.668983
428.000000	22.507637
427.000000	22.336817
426.000000	22.143990
425.000000	21.963079
424.000000	21.802628
423.000000	21.614768
422.000000	21.431466
421.000000	21.256390
420.000000	21.070795
419.000000	20.903070
418.000000	20.731077
417.000000	20.529284
416.000000	20.385309
415.000000	20.205220
414.000000	20.040663
413.000000	19.863488
412.000000	19.704887
411.000000	19.544400
410.000000	19.353080
409.000000	19.190004
408.000000	19.008400
407.000000	18.858767
406.000000	18.719050
405.000000	18.548717
404.000000	18.396761
403.000000	18.244558
402.000000	18.113507
401.000000	17.939913
400.000000	17.819169
399.000000	17.643547
398.000000	17.513784
397.000000	17.354395
396.000000	17.191785
395.000000	17.032865
394.000000	16.867005
393.000000	16.743054
392.000000	16.565521
391.000000	16.444204
390.000000	16.319680
389.000000	16.170038
388.000000	16.049572
387.000000	15.857084
386.000000	15.752918
385.000000	15.584306
384.000000	15.436496
383.000000	15.300552
382.000000	15.187257
381.000000	15.012552
380.000000	14.887336
379.000000	14.729106
378.000000	14.740536
377.000000	14.500774
376.000000	14.446066
375.000000	14.294727
374.000000	14.124885
373.000000	14.028869
372.000000	13.859373
371.000000	13.708448
370.000000	13.606293
369.000000	13.508383
368.000000	13.375329
367.000000	13.270433
366.000000	13.200138
365.000000	13.055954
364.000000	12.922018
363.000000	12.826438
362.000000	12.756298
361.000000	12.630274
360.000000	12.516131
359.000000	12.421333
358.000000	12.329466
357.000000	12.205939
356.000000	12.119626
355.000000	12.004943
354.000000	11.932015
353.000000	11.826991
352.000000	11.765444
351.000000	11.653796
350.000000	11.544038
349.000000	11.418203
348.000000	11.363751
347.000000	11.318367
346.000000	11.256222
345.000000	11.140491
344.000000	11.037484
343.000000	10.975989
342.000000	10.862308
341.000000	10.806399
340.000000	10.698619
339.000000	10.672934
338.000000	10.600234
337.000000	10.470041
336.000000	10.391090
335.000000	10.334889
334.000000	10.311951
333.000000	10.142805
332.000000	10.199419
331.000000	10.103550
330.000000	10.050395
329.000000	9.941688
328.000000	9.900579
327.000000	9.851426
326.000000	9.794724
325.000000	9.791018
324.000000	9.732791
323.000000	9.618879
322.000000	9.643752
321.000000	9.555629
320.000000	9.436181
319.000000	9.490586
318.000000	9.415746
317.000000	9.391584
316.000000	9.326602
315.000000	9.349625
314.000000	9.366688
313.000000	9.307463
312.000000	9.267518
311.000000	9.237296
310.000000	9.201654
309.000000	9.169905
308.000000	9.176491
307.000000	9.085733
306.000000	9.131052
305.000000	9.021588
304.000000	9.072619
303.000000	9.034505
302.000000	9.074408
301.000000	9.063288
300.000000	9.046077
299.000000	8.994866
298.000000	8.916864
297.000000	8.909408
296.000000	8.914172
295.000000	8.875059
294.000000	8.865050
293.000000	8.771005
292.000000	8.787510
291.000000	8.741264
290.000000	8.688349
289.000000	8.655468
288.000000	8.660473
287.000000	8.659081
286.000000	8.604402
285.000000	8.602459
284.000000	8.676454
283.000000	8.659709
282.000000	8.666647
281.000000	8.697578
280.000000	8.702538
279.000000	8.715742
278.000000	8.760732
277.000000	8.756021
276.000000	8.805324
275.000000	8.828867
274.000000	8.901435
273.000000	8.850108
272.000000	8.915474
271.000000	9.024719
270.000000	9.040937
269.000000	9.051752
268.000000	9.094649
267.000000	9.168900
266.000000	9.219477
265.000000	9.340335
264.000000	9.384716
263.000000	9.461583
262.000000	9.543402
261.000000	9.609387
260.000000	9.679946
259.000000	9.758274
258.000000	9.828638
257.000000	9.919618
256.000000	10.011464
255.000000	10.063026
254.000000	10.149567
253.000000	10.237293
252.000000	10.330561
251.000000	10.395635
250.000000	10.473314
249.000000	10.598843
248.000000	10.665230
247.000000	10.722509
246.000000	10.789841
245.000000	10.833027
244.000000	10.859115
243.000000	10.891281
242.000000	10.951768
241.000000	10.988483
240.000000	10.961941
239.000000	11.012962
238.000000	10.988880
237.000000	10.959871
236.000000	10.956313
235.000000	10.866647
234.000000	10.828648
233.000000	10.783068
232.000000	10.733091
231.000000	10.720995
230.000000	10.707654
229.000000	10.652445
228.000000	10.597367
227.000000	10.599888
226.000000	10.594253
225.000000	10.626459
224.000000	10.660806
223.000000	10.737678
222.000000	10.782476
221.000000	10.805617
220.000000	10.921828
219.000000	11.061210
218.000000	11.117258
217.000000	11.166152
216.000000	11.331453
215.000000	11.476542
214.000000	11.660221
213.000000	11.787496
212.000000	11.942817
211.000000	12.115454
210.000000	12.292023
209.000000	12.614401
208.000000	12.919395
207.000000	13.138830
206.000000	13.366623
205.000000	13.765851
204.000000	14.271717
203.000000	14.670349
202.000000	15.052117
201.000000	15.556409
200.000000	16.184530
