PE UV       SUBTECH     SPECTRUM    ASCII       PEDS        4.00        
   -1
RDms1482161.Sample.asc
18/03/15
12:32:00.00
18/03/15
12:32:00.00
Administrator

200.000000
1
Lambda 750
750N8071901
PerkinElmer UV WinLab 6.0.4.0738 / 1.61.00 Lambda 900

0
0
3350/servo 860.8/2
0
0
UV/VIS
1
1
1
CommonBeamDepol,150mm sphere / downward view
0
0
0
0
Program
Program
3350/servo 860.8/2
3350/0.2 860.8/0.2
3350/0.2 860.8/0.2
0
1
 
 
 
0
 
860.8
319.2
860.8
Front
100
on
 
 
0
0
0
 
0
 
 
 
0
 
 
0
0
0
0
0
 
 
 
 
0
0


0
0
#HDR
-1
-1
#GR
nm
%R
1.0
0.0
2350.000000
-1.000000
2151
8
71.791837
7.578283
#DATA
2350.000000	35.858701
2349.000000	36.311649
2348.000000	36.070370
2347.000000	36.388704
2346.000000	36.300598
2345.000000	36.088716
2344.000000	35.851172
2343.000000	36.091851
2342.000000	36.050367
2341.000000	36.493593
2340.000000	36.351502
2339.000000	36.541197
2338.000000	36.417787
2337.000000	36.592286
2336.000000	36.983773
2335.000000	36.861751
2334.000000	36.930181
2333.000000	37.083760
2332.000000	36.806310
2331.000000	37.014239
2330.000000	36.982862
2329.000000	36.798701
2328.000000	36.778814
2327.000000	36.681408
2326.000000	36.796505
2325.000000	36.712476
2324.000000	36.605896
2323.000000	36.368787
2322.000000	36.621163
2321.000000	36.469511
2320.000000	36.046272
2319.000000	36.139690
2318.000000	36.327959
2317.000000	36.166589
2316.000000	36.230890
2315.000000	35.962289
2314.000000	35.973841
2313.000000	35.732019
2312.000000	35.615742
2311.000000	35.617586
2310.000000	35.436739
2309.000000	35.451163
2308.000000	35.358597
2307.000000	35.335859
2306.000000	35.388135
2305.000000	35.259284
2304.000000	35.158013
2303.000000	35.107833
2302.000000	35.132861
2301.000000	34.774242
2300.000000	34.800101
2299.000000	35.115802
2298.000000	34.768604
2297.000000	34.603595
2296.000000	34.618850
2295.000000	34.422776
2294.000000	34.695154
2293.000000	34.583106
2292.000000	34.438817
2291.000000	34.535994
2290.000000	34.578121
2289.000000	34.395537
2288.000000	34.454166
2287.000000	34.499509
2286.000000	34.384218
2285.000000	34.254708
2284.000000	34.129920
2283.000000	34.140642
2282.000000	34.206689
2281.000000	34.331530
2280.000000	34.476854
2279.000000	34.485800
2278.000000	34.421079
2277.000000	34.298210
2276.000000	34.275394
2275.000000	34.578619
2274.000000	34.769794
2273.000000	34.794063
2272.000000	34.928881
2271.000000	35.032248
2270.000000	34.895182
2269.000000	34.988964
2268.000000	35.040153
2267.000000	34.967674
2266.000000	35.217217
2265.000000	35.459949
2264.000000	35.630443
2263.000000	35.599751
2262.000000	35.774179
2261.000000	35.961944
2260.000000	36.096139
2259.000000	36.544132
2258.000000	36.801075
2257.000000	36.939893
2256.000000	37.077496
2255.000000	37.178374
2254.000000	37.475607
2253.000000	37.649914
2252.000000	37.931226
2251.000000	38.119383
2250.000000	38.295197
2249.000000	38.597645
2248.000000	38.742995
2247.000000	38.793477
2246.000000	39.008700
2245.000000	39.411281
2244.000000	39.690231
2243.000000	39.975272
2242.000000	40.021198
2241.000000	40.115258
2240.000000	40.363213
2239.000000	40.481622
2238.000000	40.595669
2237.000000	40.686698
2236.000000	40.888078
2235.000000	41.030398
2234.000000	41.130185
2233.000000	41.198373
2232.000000	41.149078
2231.000000	41.090636
2230.000000	41.256092
2229.000000	41.238471
2228.000000	41.356364
2227.000000	41.373933
2226.000000	41.285605
2225.000000	41.378836
2224.000000	41.224921
2223.000000	41.206298
2222.000000	41.154386
2221.000000	41.104500
2220.000000	41.135016
2219.000000	41.010966
2218.000000	40.969399
2217.000000	40.897636
2216.000000	40.854963
2215.000000	40.916263
2214.000000	40.946209
2213.000000	40.948980
2212.000000	40.898024
2211.000000	40.714932
2210.000000	40.644701
2209.000000	40.408688
2208.000000	40.481227
2207.000000	40.443109
2206.000000	40.363222
2205.000000	40.197126
2204.000000	40.139052
2203.000000	40.056302
2202.000000	40.070807
2201.000000	40.008532
2200.000000	39.970715
2199.000000	39.874262
2198.000000	39.752366
2197.000000	39.641147
2196.000000	39.623345
2195.000000	39.510790
2194.000000	39.242868
2193.000000	39.068660
2192.000000	39.188942
2191.000000	39.209527
2190.000000	39.158593
2189.000000	38.858409
2188.000000	38.868621
2187.000000	38.863406
2186.000000	38.813719
2185.000000	38.793225
2184.000000	38.786898
2183.000000	38.751243
2182.000000	38.715572
2181.000000	38.696887
2180.000000	38.751504
2179.000000	38.605590
2178.000000	38.482759
2177.000000	38.556717
2176.000000	38.759277
2175.000000	38.694375
2174.000000	38.839483
2173.000000	38.765564
2172.000000	38.767540
2171.000000	38.860935
2170.000000	38.796402
2169.000000	39.046639
2168.000000	39.210142
2167.000000	39.098714
2166.000000	39.362217
2165.000000	39.568121
2164.000000	39.591212
2163.000000	39.691560
2162.000000	39.809829
2161.000000	39.949587
2160.000000	40.054254
2159.000000	40.061989
2158.000000	40.232206
2157.000000	40.425282
2156.000000	40.372782
2155.000000	40.701677
2154.000000	41.050337
2153.000000	40.969428
2152.000000	41.185732
2151.000000	41.190370
2150.000000	41.581940
2149.000000	41.785205
2148.000000	41.822883
2147.000000	42.097731
2146.000000	42.130200
2145.000000	42.296129
2144.000000	42.560230
2143.000000	42.427813
2142.000000	42.729189
2141.000000	42.782594
2140.000000	43.151577
2139.000000	43.271529
2138.000000	43.389684
2137.000000	43.525121
2136.000000	43.513156
2135.000000	43.705665
2134.000000	43.837289
2133.000000	43.718765
2132.000000	43.971856
2131.000000	44.027979
2130.000000	44.314618
2129.000000	44.231817
2128.000000	44.121107
2127.000000	44.307810
2126.000000	44.431971
2125.000000	44.387843
2124.000000	44.668834
2123.000000	44.543994
2122.000000	44.560818
2121.000000	44.627719
2120.000000	44.696454
2119.000000	44.825135
2118.000000	44.796037
2117.000000	44.861545
2116.000000	45.031828
2115.000000	45.128495
2114.000000	44.895932
2113.000000	44.939554
2112.000000	45.028960
2111.000000	44.999431
2110.000000	44.982296
2109.000000	45.204789
2108.000000	45.232634
2107.000000	45.221030
2106.000000	45.152784
2105.000000	45.188661
2104.000000	45.181462
2103.000000	45.186300
2102.000000	45.181425
2101.000000	45.215692
2100.000000	45.365482
2099.000000	45.209733
2098.000000	45.172326
2097.000000	45.208080
2096.000000	45.196518
2095.000000	45.146024
2094.000000	45.231920
2093.000000	45.080448
2092.000000	45.207409
2091.000000	45.159257
2090.000000	45.012680
2089.000000	45.063839
2088.000000	44.968564
2087.000000	44.893740
2086.000000	45.020872
2085.000000	44.985489
2084.000000	44.777871
2083.000000	44.722877
2082.000000	44.724524
2081.000000	44.639731
2080.000000	44.444938
2079.000000	44.485120
2078.000000	44.454986
2077.000000	44.279707
2076.000000	44.145474
2075.000000	43.938021
2074.000000	43.862248
2073.000000	43.784287
2072.000000	43.658430
2071.000000	43.560070
2070.000000	43.403824
2069.000000	43.189183
2068.000000	43.096909
2067.000000	43.029887
2066.000000	42.759887
2065.000000	42.457329
2064.000000	42.344278
2063.000000	42.200012
2062.000000	42.085593
2061.000000	41.959795
2060.000000	41.696558
2059.000000	41.566803
2058.000000	41.444664
2057.000000	41.281109
2056.000000	41.210999
2055.000000	41.071723
2054.000000	40.919888
2053.000000	40.828909
2052.000000	40.628862
2051.000000	40.451302
2050.000000	40.450037
2049.000000	40.349565
2048.000000	40.229593
2047.000000	40.181144
2046.000000	40.146397
2045.000000	40.112089
2044.000000	40.038024
2043.000000	40.062816
2042.000000	40.089363
2041.000000	40.133712
2040.000000	40.160261
2039.000000	40.176185
2038.000000	40.256794
2037.000000	40.309907
2036.000000	40.366192
2035.000000	40.471683
2034.000000	40.606276
2033.000000	40.734906
2032.000000	40.830925
2031.000000	40.922381
2030.000000	41.053871
2029.000000	41.184744
2028.000000	41.280481
2027.000000	41.375375
2026.000000	41.446705
2025.000000	41.529846
2024.000000	41.588994
2023.000000	41.647745
2022.000000	41.690223
2021.000000	41.732633
2020.000000	41.803902
2019.000000	41.785625
2018.000000	41.768306
2017.000000	41.805321
2016.000000	41.753443
2015.000000	41.684365
2014.000000	41.667316
2013.000000	41.606161
2012.000000	41.578849
2011.000000	41.531629
2010.000000	41.409979
2009.000000	41.304616
2008.000000	41.217269
2007.000000	41.121007
2006.000000	41.038737
2005.000000	40.956177
2004.000000	40.838812
2003.000000	40.750043
2002.000000	40.595494
2001.000000	40.430742
2000.000000	40.302531
1999.000000	40.203570
1998.000000	40.097921
1997.000000	39.969170
1996.000000	39.842404
1995.000000	39.721300
1994.000000	39.615206
1993.000000	39.473543
1992.000000	39.316912
1991.000000	39.180257
1990.000000	39.034786
1989.000000	38.927674
1988.000000	38.777082
1987.000000	38.649582
1986.000000	38.491599
1985.000000	38.374075
1984.000000	38.303541
1983.000000	38.116920
1982.000000	38.013620
1981.000000	37.921185
1980.000000	37.798316
1979.000000	37.617883
1978.000000	37.470413
1977.000000	37.365561
1976.000000	37.241851
1975.000000	37.148735
1974.000000	37.001734
1973.000000	36.891881
1972.000000	36.797764
1971.000000	36.634530
1970.000000	36.540177
1969.000000	36.417709
1968.000000	36.320480
1967.000000	36.213338
1966.000000	36.138283
1965.000000	36.010963
1964.000000	35.872729
1963.000000	35.794234
1962.000000	35.678210
1961.000000	35.607260
1960.000000	35.452944
1959.000000	35.287214
1958.000000	35.250429
1957.000000	35.173951
1956.000000	35.068757
1955.000000	35.021599
1954.000000	34.930706
1953.000000	34.901149
1952.000000	34.800312
1951.000000	34.774897
1950.000000	34.728589
1949.000000	34.664280
1948.000000	34.556952
1947.000000	34.496421
1946.000000	34.478632
1945.000000	34.545898
1944.000000	34.466498
1943.000000	34.475655
1942.000000	34.534403
1941.000000	34.476214
1940.000000	34.566660
1939.000000	34.640836
1938.000000	34.703832
1937.000000	34.857901
1936.000000	34.959479
1935.000000	35.006467
1934.000000	35.150834
1933.000000	35.235917
1932.000000	35.358492
1931.000000	35.492803
1930.000000	35.692509
1929.000000	35.894904
1928.000000	36.119031
1927.000000	36.253616
1926.000000	36.521097
1925.000000	36.752087
1924.000000	37.050931
1923.000000	37.358123
1922.000000	37.681972
1921.000000	37.957048
1920.000000	38.240305
1919.000000	38.616801
1918.000000	38.946289
1917.000000	39.210380
1916.000000	39.561100
1915.000000	40.059736
1914.000000	40.536926
1913.000000	41.007682
1912.000000	41.381739
1911.000000	41.854690
1910.000000	42.382167
1909.000000	42.840867
1908.000000	43.282164
1907.000000	43.843339
1906.000000	44.306863
1905.000000	44.856185
1904.000000	45.515099
1903.000000	45.967806
1902.000000	46.616049
1901.000000	47.186466
1900.000000	47.699111
1899.000000	48.327903
1898.000000	48.901518
1897.000000	49.415694
1896.000000	49.937545
1895.000000	50.499698
1894.000000	51.105245
1893.000000	51.592661
1892.000000	52.143889
1891.000000	52.656232
1890.000000	53.149669
1889.000000	53.722283
1888.000000	54.094991
1887.000000	54.631455
1886.000000	55.007043
1885.000000	55.528342
1884.000000	55.899617
1883.000000	56.303527
1882.000000	56.682750
1881.000000	56.994706
1880.000000	57.364054
1879.000000	57.675732
1878.000000	58.034793
1877.000000	58.329021
1876.000000	58.655979
1875.000000	58.932860
1874.000000	59.230094
1873.000000	59.383031
1872.000000	59.665718
1871.000000	59.922712
1870.000000	60.057738
1869.000000	60.236825
1868.000000	60.435837
1867.000000	60.551237
1866.000000	60.645425
1865.000000	60.797896
1864.000000	60.888840
1863.000000	60.989085
1862.000000	61.094224
1861.000000	61.155325
1860.000000	61.173014
1859.000000	61.226347
1858.000000	61.292005
1857.000000	61.343299
1856.000000	61.339092
1855.000000	61.382847
1854.000000	61.451667
1853.000000	61.475742
1852.000000	61.474704
1851.000000	61.478621
1850.000000	61.479989
1849.000000	61.495927
1848.000000	61.505770
1847.000000	61.516895
1846.000000	61.518760
1845.000000	61.547685
1844.000000	61.540973
1843.000000	61.465250
1842.000000	61.424137
1841.000000	61.365037
1840.000000	61.324690
1839.000000	61.318492
1838.000000	61.321038
1837.000000	61.265952
1836.000000	61.204843
1835.000000	61.177049
1834.000000	61.127729
1833.000000	61.069664
1832.000000	61.058745
1831.000000	61.041394
1830.000000	60.988454
1829.000000	60.913632
1828.000000	60.874036
1827.000000	60.859900
1826.000000	60.813169
1825.000000	60.749455
1824.000000	60.734510
1823.000000	60.712951
1822.000000	60.654041
1821.000000	60.615474
1820.000000	60.571895
1819.000000	60.535402
1818.000000	60.533819
1817.000000	60.529817
1816.000000	60.459989
1815.000000	60.426842
1814.000000	60.374961
1813.000000	60.327829
1812.000000	60.334030
1811.000000	60.299212
1810.000000	60.241010
1809.000000	60.220674
1808.000000	60.215514
1807.000000	60.159227
1806.000000	60.118385
1805.000000	60.088592
1804.000000	60.036766
1803.000000	60.042920
1802.000000	60.039338
1801.000000	60.001055
1800.000000	59.968414
1799.000000	59.919063
1798.000000	59.876725
1797.000000	59.840526
1796.000000	59.823685
1795.000000	59.802275
1794.000000	59.797720
1793.000000	59.784898
1792.000000	59.747607
1791.000000	59.739434
1790.000000	59.720001
1789.000000	59.672898
1788.000000	59.658276
1787.000000	59.640595
1786.000000	59.623351
1785.000000	59.597762
1784.000000	59.540669
1783.000000	59.496768
1782.000000	59.476034
1781.000000	59.448332
1780.000000	59.402117
1779.000000	59.360137
1778.000000	59.329670
1777.000000	59.280577
1776.000000	59.225481
1775.000000	59.182678
1774.000000	59.110317
1773.000000	59.071826
1772.000000	59.036509
1771.000000	58.979315
1770.000000	58.915707
1769.000000	58.825135
1768.000000	58.749525
1767.000000	58.730940
1766.000000	58.679799
1765.000000	58.635535
1764.000000	58.585113
1763.000000	58.506336
1762.000000	58.457368
1761.000000	58.396977
1760.000000	58.347237
1759.000000	58.320061
1758.000000	58.261544
1757.000000	58.194066
1756.000000	58.171699
1755.000000	58.142468
1754.000000	58.092820
1753.000000	58.016835
1752.000000	57.968729
1751.000000	57.917205
1750.000000	57.874369
1749.000000	57.830317
1748.000000	57.723088
1747.000000	57.673803
1746.000000	57.627156
1745.000000	57.542674
1744.000000	57.450267
1743.000000	57.437765
1742.000000	57.357685
1741.000000	57.271592
1740.000000	57.216678
1739.000000	57.149464
1738.000000	57.118871
1737.000000	57.076747
1736.000000	57.049748
1735.000000	57.011989
1734.000000	57.027090
1733.000000	57.003241
1732.000000	56.977996
1731.000000	57.002050
1730.000000	57.038896
1729.000000	57.051266
1728.000000	57.148335
1727.000000	57.171396
1726.000000	57.223218
1725.000000	57.305291
1724.000000	57.396584
1723.000000	57.471366
1722.000000	57.581844
1721.000000	57.652660
1720.000000	57.766354
1719.000000	57.902189
1718.000000	58.011932
1717.000000	58.096442
1716.000000	58.221980
1715.000000	58.324967
1714.000000	58.439042
1713.000000	58.511406
1712.000000	58.588645
1711.000000	58.688202
1710.000000	58.752723
1709.000000	58.851780
1708.000000	58.857722
1707.000000	58.975285
1706.000000	59.005775
1705.000000	59.054566
1704.000000	59.069258
1703.000000	59.074567
1702.000000	59.153334
1701.000000	59.157676
1700.000000	59.176219
1699.000000	59.222131
1698.000000	59.262959
1697.000000	59.318147
1696.000000	59.371549
1695.000000	59.390249
1694.000000	59.410509
1693.000000	59.464853
1692.000000	59.533429
1691.000000	59.630483
1690.000000	59.710175
1689.000000	59.824975
1688.000000	59.931093
1687.000000	60.031027
1686.000000	60.174277
1685.000000	60.277904
1684.000000	60.396233
1683.000000	60.563155
1682.000000	60.739110
1681.000000	60.917775
1680.000000	61.042621
1679.000000	61.189507
1678.000000	61.391183
1677.000000	61.507161
1676.000000	61.669169
1675.000000	61.863398
1674.000000	62.062921
1673.000000	62.202095
1672.000000	62.370561
1671.000000	62.516793
1670.000000	62.671493
1669.000000	62.830943
1668.000000	62.938217
1667.000000	63.058755
1666.000000	63.150288
1665.000000	63.226630
1664.000000	63.332962
1663.000000	63.387331
1662.000000	63.503985
1661.000000	63.575381
1660.000000	63.634180
1659.000000	63.707657
1658.000000	63.763673
1657.000000	63.783994
1656.000000	63.799728
1655.000000	63.836540
1654.000000	63.856528
1653.000000	63.890828
1652.000000	63.901804
1651.000000	63.902044
1650.000000	63.917700
1649.000000	63.916486
1648.000000	63.893406
1647.000000	63.886910
1646.000000	63.859016
1645.000000	63.877545
1644.000000	63.865577
1643.000000	63.839858
1642.000000	63.835879
1641.000000	63.810498
1640.000000	63.800645
1639.000000	63.750001
1638.000000	63.742049
1637.000000	63.739484
1636.000000	63.659475
1635.000000	63.642886
1634.000000	63.603351
1633.000000	63.554219
1632.000000	63.521064
1631.000000	63.493590
1630.000000	63.459882
1629.000000	63.431347
1628.000000	63.381388
1627.000000	63.324789
1626.000000	63.280656
1625.000000	63.246710
1624.000000	63.206457
1623.000000	63.166093
1622.000000	63.129522
1621.000000	63.084758
1620.000000	63.037755
1619.000000	62.979004
1618.000000	62.907754
1617.000000	62.851941
1616.000000	62.791782
1615.000000	62.745485
1614.000000	62.696200
1613.000000	62.637644
1612.000000	62.571318
1611.000000	62.521784
1610.000000	62.478847
1609.000000	62.413952
1608.000000	62.342986
1607.000000	62.284000
1606.000000	62.217185
1605.000000	62.163186
1604.000000	62.103376
1603.000000	62.049863
1602.000000	61.970272
1601.000000	61.885611
1600.000000	61.830858
1599.000000	61.767775
1598.000000	61.711941
1597.000000	61.674302
1596.000000	61.618239
1595.000000	61.559918
1594.000000	61.508184
1593.000000	61.464684
1592.000000	61.414328
1591.000000	61.352777
1590.000000	61.318171
1589.000000	61.262627
1588.000000	61.194464
1587.000000	61.148412
1586.000000	61.108544
1585.000000	61.059582
1584.000000	61.005081
1583.000000	60.965733
1582.000000	60.920417
1581.000000	60.862034
1580.000000	60.812200
1579.000000	60.775447
1578.000000	60.747486
1577.000000	60.691339
1576.000000	60.633749
1575.000000	60.606291
1574.000000	60.557050
1573.000000	60.508356
1572.000000	60.458864
1571.000000	60.404836
1570.000000	60.369660
1569.000000	60.340824
1568.000000	60.306800
1567.000000	60.252379
1566.000000	60.217469
1565.000000	60.187002
1564.000000	60.154679
1563.000000	60.119780
1562.000000	60.095011
1561.000000	60.067218
1560.000000	60.045964
1559.000000	60.015942
1558.000000	59.983431
1557.000000	59.948464
1556.000000	59.932090
1555.000000	59.904378
1554.000000	59.870106
1553.000000	59.859323
1552.000000	59.803920
1551.000000	59.760232
1550.000000	59.710778
1549.000000	59.685620
1548.000000	59.634325
1547.000000	59.580141
1546.000000	59.524834
1545.000000	59.438814
1544.000000	59.355569
1543.000000	59.284921
1542.000000	59.229284
1541.000000	59.134627
1540.000000	59.034828
1539.000000	58.943272
1538.000000	58.875917
1537.000000	58.775379
1536.000000	58.672034
1535.000000	58.593346
1534.000000	58.526472
1533.000000	58.451656
1532.000000	58.358164
1531.000000	58.289680
1530.000000	58.196398
1529.000000	58.118102
1528.000000	58.060400
1527.000000	57.977416
1526.000000	57.923911
1525.000000	57.848403
1524.000000	57.773866
1523.000000	57.726759
1522.000000	57.663806
1521.000000	57.635423
1520.000000	57.583200
1519.000000	57.528242
1518.000000	57.505136
1517.000000	57.456171
1516.000000	57.427027
1515.000000	57.382603
1514.000000	57.355850
1513.000000	57.334795
1512.000000	57.312660
1511.000000	57.279880
1510.000000	57.265719
1509.000000	57.211532
1508.000000	57.212705
1507.000000	57.202394
1506.000000	57.185753
1505.000000	57.171868
1504.000000	57.139095
1503.000000	57.141265
1502.000000	57.151354
1501.000000	57.111554
1500.000000	57.121660
1499.000000	57.122238
1498.000000	57.125608
1497.000000	57.113410
1496.000000	57.146532
1495.000000	57.134319
1494.000000	57.169631
1493.000000	57.182985
1492.000000	57.192689
1491.000000	57.215085
1490.000000	57.231226
1489.000000	57.247781
1488.000000	57.306465
1487.000000	57.319242
1486.000000	57.357149
1485.000000	57.376659
1484.000000	57.419069
1483.000000	57.450131
1482.000000	57.485200
1481.000000	57.531359
1480.000000	57.579470
1479.000000	57.585568
1478.000000	57.650680
1477.000000	57.662384
1476.000000	57.694169
1475.000000	57.748069
1474.000000	57.774162
1473.000000	57.801746
1472.000000	57.850459
1471.000000	57.898669
1470.000000	57.932438
1469.000000	57.961528
1468.000000	58.019782
1467.000000	58.030917
1466.000000	58.058225
1465.000000	58.106091
1464.000000	58.135048
1463.000000	58.172308
1462.000000	58.207300
1461.000000	58.268806
1460.000000	58.296560
1459.000000	58.341424
1458.000000	58.383052
1457.000000	58.443557
1456.000000	58.504477
1455.000000	58.555045
1454.000000	58.590785
1453.000000	58.654381
1452.000000	58.724610
1451.000000	58.801997
1450.000000	58.857766
1449.000000	58.913077
1448.000000	58.991217
1447.000000	59.061337
1446.000000	59.122445
1445.000000	59.212190
1444.000000	59.300374
1443.000000	59.367965
1442.000000	59.450053
1441.000000	59.531859
1440.000000	59.622411
1439.000000	59.696845
1438.000000	59.795544
1437.000000	59.897709
1436.000000	60.013359
1435.000000	60.123967
1434.000000	60.234472
1433.000000	60.343301
1432.000000	60.445292
1431.000000	60.562447
1430.000000	60.688254
1429.000000	60.826580
1428.000000	60.946274
1427.000000	61.089730
1426.000000	61.250753
1425.000000	61.398031
1424.000000	61.531147
1423.000000	61.688046
1422.000000	61.858761
1421.000000	62.010700
1420.000000	62.190699
1419.000000	62.337396
1418.000000	62.525763
1417.000000	62.709284
1416.000000	62.871164
1415.000000	63.052229
1414.000000	63.234860
1413.000000	63.427293
1412.000000	63.611367
1411.000000	63.802211
1410.000000	63.983811
1409.000000	64.176637
1408.000000	64.374376
1407.000000	64.549383
1406.000000	64.736003
1405.000000	64.907123
1404.000000	65.072034
1403.000000	65.244125
1402.000000	65.412617
1401.000000	65.579137
1400.000000	65.754396
1399.000000	65.925631
1398.000000	66.072554
1397.000000	66.221504
1396.000000	66.375915
1395.000000	66.509134
1394.000000	66.653323
1393.000000	66.795451
1392.000000	66.934675
1391.000000	67.071581
1390.000000	67.175957
1389.000000	67.291465
1388.000000	67.412315
1387.000000	67.507323
1386.000000	67.604082
1385.000000	67.711148
1384.000000	67.814205
1383.000000	67.923106
1382.000000	67.995392
1381.000000	68.078308
1380.000000	68.160052
1379.000000	68.237155
1378.000000	68.314408
1377.000000	68.384254
1376.000000	68.455426
1375.000000	68.489221
1374.000000	68.532634
1373.000000	68.591360
1372.000000	68.635331
1371.000000	68.690744
1370.000000	68.740015
1369.000000	68.786261
1368.000000	68.816164
1367.000000	68.865002
1366.000000	68.920918
1365.000000	68.947414
1364.000000	68.979124
1363.000000	69.036748
1362.000000	69.099512
1361.000000	69.148868
1360.000000	69.175139
1359.000000	69.243552
1358.000000	69.288333
1357.000000	69.305826
1356.000000	69.365739
1355.000000	69.405570
1354.000000	69.466800
1353.000000	69.524031
1352.000000	69.588083
1351.000000	69.631055
1350.000000	69.645971
1349.000000	69.705405
1348.000000	69.767292
1347.000000	69.805236
1346.000000	69.865245
1345.000000	69.905695
1344.000000	69.936509
1343.000000	69.972792
1342.000000	70.029821
1341.000000	70.074969
1340.000000	70.104825
1339.000000	70.141072
1338.000000	70.175029
1337.000000	70.211405
1336.000000	70.270044
1335.000000	70.294470
1334.000000	70.317239
1333.000000	70.334275
1332.000000	70.374669
1331.000000	70.413053
1330.000000	70.464801
1329.000000	70.524663
1328.000000	70.574606
1327.000000	70.571839
1326.000000	70.597849
1325.000000	70.608658
1324.000000	70.637231
1323.000000	70.658722
1322.000000	70.677651
1321.000000	70.705980
1320.000000	70.702115
1319.000000	70.707116
1318.000000	70.755111
1317.000000	70.766437
1316.000000	70.794485
1315.000000	70.817293
1314.000000	70.799823
1313.000000	70.812335
1312.000000	70.832622
1311.000000	70.858138
1310.000000	70.880830
1309.000000	70.882839
1308.000000	70.876344
1307.000000	70.900489
1306.000000	70.896820
1305.000000	70.924290
1304.000000	70.920788
1303.000000	70.933120
1302.000000	70.938480
1301.000000	70.967687
1300.000000	70.955083
1299.000000	70.948965
1298.000000	70.964886
1297.000000	70.985416
1296.000000	70.994434
1295.000000	70.974613
1294.000000	70.975233
1293.000000	70.975879
1292.000000	70.969893
1291.000000	70.948280
1290.000000	70.963344
1289.000000	70.934401
1288.000000	70.930576
1287.000000	70.924682
1286.000000	70.908606
1285.000000	70.931762
1284.000000	70.926012
1283.000000	70.932926
1282.000000	70.936671
1281.000000	70.939229
1280.000000	70.912390
1279.000000	70.919564
1278.000000	70.895879
1277.000000	70.869819
1276.000000	70.868993
1275.000000	70.886875
1274.000000	70.885174
1273.000000	70.898574
1272.000000	70.867784
1271.000000	70.886869
1270.000000	70.889918
1269.000000	70.919647
1268.000000	70.917348
1267.000000	70.943565
1266.000000	70.935677
1265.000000	70.882804
1264.000000	70.910446
1263.000000	70.919098
1262.000000	70.960152
1261.000000	70.956312
1260.000000	70.945632
1259.000000	70.935484
1258.000000	70.934045
1257.000000	70.946091
1256.000000	70.935798
1255.000000	70.961384
1254.000000	70.967488
1253.000000	70.994276
1252.000000	70.957670
1251.000000	70.974311
1250.000000	70.962645
1249.000000	70.953584
1248.000000	70.940714
1247.000000	70.945094
1246.000000	70.928332
1245.000000	70.886898
1244.000000	70.848826
1243.000000	70.884117
1242.000000	70.874484
1241.000000	70.854663
1240.000000	70.828227
1239.000000	70.792982
1238.000000	70.777662
1237.000000	70.756292
1236.000000	70.741253
1235.000000	70.705695
1234.000000	70.689801
1233.000000	70.657189
1232.000000	70.643053
1231.000000	70.605220
1230.000000	70.587245
1229.000000	70.551064
1228.000000	70.537591
1227.000000	70.538637
1226.000000	70.497880
1225.000000	70.484156
1224.000000	70.464126
1223.000000	70.415153
1222.000000	70.415564
1221.000000	70.369998
1220.000000	70.332280
1219.000000	70.306487
1218.000000	70.304752
1217.000000	70.304141
1216.000000	70.284753
1215.000000	70.262500
1214.000000	70.226584
1213.000000	70.201190
1212.000000	70.191881
1211.000000	70.167344
1210.000000	70.135441
1209.000000	70.121446
1208.000000	70.081943
1207.000000	70.086126
1206.000000	70.050548
1205.000000	70.038414
1204.000000	70.018126
1203.000000	69.982831
1202.000000	69.970087
1201.000000	69.932533
1200.000000	69.920430
1199.000000	69.900845
1198.000000	69.876537
1197.000000	69.876101
1196.000000	69.844647
1195.000000	69.804265
1194.000000	69.815428
1193.000000	69.811452
1192.000000	69.794975
1191.000000	69.786839
1190.000000	69.754528
1189.000000	69.736747
1188.000000	69.729266
1187.000000	69.721909
1186.000000	69.720085
1185.000000	69.731937
1184.000000	69.734893
1183.000000	69.751123
1182.000000	69.772055
1181.000000	69.791781
1180.000000	69.811429
1179.000000	69.836382
1178.000000	69.866645
1177.000000	69.902170
1176.000000	69.932784
1175.000000	69.969803
1174.000000	70.007807
1173.000000	70.053561
1172.000000	70.100650
1171.000000	70.137183
1170.000000	70.175134
1169.000000	70.220985
1168.000000	70.247147
1167.000000	70.282421
1166.000000	70.349776
1165.000000	70.406435
1164.000000	70.463540
1163.000000	70.510970
1162.000000	70.557924
1161.000000	70.620014
1160.000000	70.674510
1159.000000	70.721721
1158.000000	70.770673
1157.000000	70.821770
1156.000000	70.865733
1155.000000	70.920979
1154.000000	70.958369
1153.000000	70.982112
1152.000000	71.026101
1151.000000	71.063046
1150.000000	71.082049
1149.000000	71.115020
1148.000000	71.152626
1147.000000	71.188971
1146.000000	71.216150
1145.000000	71.241297
1144.000000	71.285402
1143.000000	71.326211
1142.000000	71.348965
1141.000000	71.377667
1140.000000	71.414354
1139.000000	71.443188
1138.000000	71.474202
1137.000000	71.487347
1136.000000	71.486249
1135.000000	71.508375
1134.000000	71.544820
1133.000000	71.580245
1132.000000	71.601484
1131.000000	71.616244
1130.000000	71.632953
1129.000000	71.662324
1128.000000	71.674583
1127.000000	71.681920
1126.000000	71.697455
1125.000000	71.714108
1124.000000	71.727995
1123.000000	71.701501
1122.000000	71.702554
1121.000000	71.717990
1120.000000	71.734564
1119.000000	71.738195
1118.000000	71.753771
1117.000000	71.754945
1116.000000	71.756917
1115.000000	71.760616
1114.000000	71.763320
1113.000000	71.773018
1112.000000	71.780543
1111.000000	71.785767
1110.000000	71.789815
1109.000000	71.791837
1108.000000	71.783243
1107.000000	71.779236
1106.000000	71.780042
1105.000000	71.791744
1104.000000	71.786812
1103.000000	71.742743
1102.000000	71.734086
1101.000000	71.753962
1100.000000	71.761561
1099.000000	71.761325
1098.000000	71.760349
1097.000000	71.742106
1096.000000	71.748437
1095.000000	71.732602
1094.000000	71.708590
1093.000000	71.720103
1092.000000	71.719416
1091.000000	71.720899
1090.000000	71.702564
1089.000000	71.696191
1088.000000	71.695656
1087.000000	71.679070
1086.000000	71.691256
1085.000000	71.703470
1084.000000	71.690420
1083.000000	71.651368
1082.000000	71.645833
1081.000000	71.660163
1080.000000	71.664935
1079.000000	71.641790
1078.000000	71.634264
1077.000000	71.629270
1076.000000	71.609054
1075.000000	71.619523
1074.000000	71.605149
1073.000000	71.602933
1072.000000	71.601624
1071.000000	71.568419
1070.000000	71.559259
1069.000000	71.567346
1068.000000	71.563179
1067.000000	71.544288
1066.000000	71.520716
1065.000000	71.502019
1064.000000	71.514973
1063.000000	71.508359
1062.000000	71.495916
1061.000000	71.486432
1060.000000	71.483415
1059.000000	71.460615
1058.000000	71.465271
1057.000000	71.460489
1056.000000	71.460934
1055.000000	71.454889
1054.000000	71.433652
1053.000000	71.434470
1052.000000	71.429376
1051.000000	71.388225
1050.000000	71.398901
1049.000000	71.407438
1048.000000	71.386986
1047.000000	71.388498
1046.000000	71.381802
1045.000000	71.364399
1044.000000	71.338837
1043.000000	71.318550
1042.000000	71.328838
1041.000000	71.334128
1040.000000	71.333033
1039.000000	71.312285
1038.000000	71.301685
1037.000000	71.309532
1036.000000	71.308854
1035.000000	71.271385
1034.000000	71.270740
1033.000000	71.269645
1032.000000	71.272540
1031.000000	71.245401
1030.000000	71.259013
1029.000000	71.239200
1028.000000	71.237736
1027.000000	71.238732
1026.000000	71.221106
1025.000000	71.222418
1024.000000	71.209877
1023.000000	71.192959
1022.000000	71.191423
1021.000000	71.192343
1020.000000	71.175271
1019.000000	71.169758
1018.000000	71.174300
1017.000000	71.171346
1016.000000	71.124844
1015.000000	71.152401
1014.000000	71.159619
1013.000000	71.150572
1012.000000	71.161729
1011.000000	71.151201
1010.000000	71.150095
1009.000000	71.143150
1008.000000	71.124970
1007.000000	71.138581
1006.000000	71.127005
1005.000000	71.143680
1004.000000	71.133804
1003.000000	71.124348
1002.000000	71.118548
1001.000000	71.113296
1000.000000	71.104485
999.000000	71.116832
998.000000	71.104620
997.000000	71.098797
996.000000	71.097036
995.000000	71.090554
994.000000	71.067655
993.000000	71.056545
992.000000	71.069014
991.000000	71.075862
990.000000	71.061894
989.000000	71.037279
988.000000	71.036140
987.000000	71.030936
986.000000	71.036926
985.000000	71.057940
984.000000	71.060033
983.000000	71.062332
982.000000	71.045245
981.000000	71.045850
980.000000	71.047863
979.000000	71.029645
978.000000	71.015589
977.000000	71.015990
976.000000	71.035098
975.000000	71.047585
974.000000	71.029881
973.000000	71.025502
972.000000	71.020833
971.000000	71.013047
970.000000	71.042806
969.000000	71.053973
968.000000	71.045111
967.000000	71.034912
966.000000	71.006090
965.000000	71.043617
964.000000	71.042349
963.000000	71.040805
962.000000	71.052486
961.000000	71.036698
960.000000	71.020249
959.000000	71.031920
958.000000	71.043368
957.000000	71.054910
956.000000	71.070541
955.000000	71.073005
954.000000	71.060374
953.000000	71.042391
952.000000	71.052664
951.000000	71.069624
950.000000	71.066193
949.000000	71.077765
948.000000	71.070152
947.000000	71.057967
946.000000	71.056478
945.000000	71.035897
944.000000	71.020660
943.000000	71.036113
942.000000	71.023845
941.000000	71.028175
940.000000	71.064051
939.000000	71.065450
938.000000	71.031685
937.000000	70.983332
936.000000	70.967693
935.000000	70.962605
934.000000	70.957597
933.000000	70.976128
932.000000	70.962314
931.000000	70.952706
930.000000	70.957051
929.000000	70.953201
928.000000	70.968567
927.000000	70.975199
926.000000	70.968505
925.000000	70.919490
924.000000	70.913816
923.000000	70.919008
922.000000	70.885067
921.000000	70.896767
920.000000	70.904944
919.000000	70.867350
918.000000	70.851367
917.000000	70.841537
916.000000	70.844687
915.000000	70.837103
914.000000	70.839000
913.000000	70.829218
912.000000	70.789546
911.000000	70.793371
910.000000	70.806097
909.000000	70.774081
908.000000	70.771331
907.000000	70.782015
906.000000	70.811553
905.000000	70.819078
904.000000	70.761862
903.000000	70.719632
902.000000	70.732090
901.000000	70.731613
900.000000	70.700287
899.000000	70.756528
898.000000	70.758768
897.000000	70.752776
896.000000	70.721267
895.000000	70.723346
894.000000	70.660830
893.000000	70.708028
892.000000	70.689860
891.000000	70.627115
890.000000	70.653000
889.000000	70.631982
888.000000	70.648427
887.000000	70.713968
886.000000	70.658625
885.000000	70.678108
884.000000	70.682054
883.000000	70.691090
882.000000	70.694712
881.000000	70.785745
880.000000	70.692765
879.000000	70.608966
878.000000	70.654133
877.000000	70.585733
876.000000	70.509995
875.000000	70.623895
874.000000	70.550967
873.000000	70.550590
872.000000	70.510659
871.000000	70.490601
870.000000	70.408304
869.000000	70.370143
868.000000	70.394914
867.000000	70.265922
866.000000	70.401428
865.000000	70.536487
864.000000	70.436175
863.000000	70.338460
862.000000	70.288856
861.000000	70.307973
860.000000	70.345575
859.000000	70.100362
858.000000	69.763589
857.000000	70.019409
856.000000	70.228326
855.000000	69.935221
854.000000	69.947253
853.000000	69.539631
852.000000	69.813824
851.000000	70.345504
850.000000	69.631453
849.000000	70.128666
848.000000	69.863650
847.000000	69.986497
846.000000	69.385457
845.000000	69.685272
844.000000	69.719545
843.000000	69.841121
842.000000	69.395064
841.000000	69.768382
840.000000	69.666494
839.000000	69.651711
838.000000	69.543512
837.000000	69.475282
836.000000	69.736710
835.000000	69.288668
834.000000	69.580845
833.000000	69.197322
832.000000	69.314980
831.000000	69.448253
830.000000	69.381983
829.000000	69.283580
828.000000	69.126388
827.000000	69.219474
826.000000	69.033602
825.000000	69.300336
824.000000	69.101850
823.000000	69.102642
822.000000	69.174216
821.000000	69.283427
820.000000	69.240899
819.000000	69.065698
818.000000	68.924396
817.000000	69.204648
816.000000	69.069291
815.000000	68.858817
814.000000	68.951935
813.000000	68.866479
812.000000	68.902676
811.000000	68.839901
810.000000	68.763096
809.000000	68.894756
808.000000	68.711589
807.000000	68.642692
806.000000	68.748050
805.000000	68.803024
804.000000	68.783970
803.000000	68.764772
802.000000	68.686765
801.000000	68.472255
800.000000	68.635876
799.000000	68.674186
798.000000	68.507681
797.000000	68.531473
796.000000	68.404020
795.000000	68.446591
794.000000	68.436091
793.000000	68.434802
792.000000	68.370321
791.000000	68.340509
790.000000	68.234026
789.000000	68.214213
788.000000	68.195695
787.000000	68.158798
786.000000	68.177428
785.000000	68.168799
784.000000	68.023604
783.000000	67.967065
782.000000	68.021501
781.000000	68.089776
780.000000	67.919358
779.000000	68.000099
778.000000	67.973523
777.000000	67.797937
776.000000	67.809885
775.000000	67.854229
774.000000	67.787670
773.000000	67.731829
772.000000	67.690936
771.000000	67.653683
770.000000	67.627335
769.000000	67.590427
768.000000	67.547406
767.000000	67.432733
766.000000	67.506884
765.000000	67.379295
764.000000	67.343467
763.000000	67.338521
762.000000	67.323551
761.000000	67.299516
760.000000	67.190101
759.000000	67.219176
758.000000	67.105933
757.000000	67.157046
756.000000	67.080105
755.000000	66.980341
754.000000	66.905077
753.000000	66.895826
752.000000	66.900366
751.000000	66.922021
750.000000	66.867147
749.000000	66.686311
748.000000	66.547068
747.000000	66.639387
746.000000	66.634421
745.000000	66.602378
744.000000	66.552471
743.000000	66.462038
742.000000	66.420817
741.000000	66.363177
740.000000	66.371486
739.000000	66.271759
738.000000	66.154196
737.000000	66.119830
736.000000	66.080844
735.000000	65.989279
734.000000	65.991225
733.000000	65.954819
732.000000	65.805879
731.000000	65.743683
730.000000	65.734698
729.000000	65.630259
728.000000	65.554671
727.000000	65.544631
726.000000	65.519009
725.000000	65.469664
724.000000	65.420922
723.000000	65.285051
722.000000	65.246851
721.000000	65.261188
720.000000	65.210836
719.000000	65.139854
718.000000	65.008874
717.000000	64.910102
716.000000	64.854611
715.000000	64.876283
714.000000	64.819924
713.000000	64.715775
712.000000	64.624348
711.000000	64.495097
710.000000	64.449614
709.000000	64.492047
708.000000	64.391282
707.000000	64.263089
706.000000	64.254780
705.000000	64.192991
704.000000	64.153669
703.000000	64.120729
702.000000	63.998138
701.000000	63.852905
700.000000	63.765858
699.000000	63.662121
698.000000	63.622204
697.000000	63.593089
696.000000	63.492759
695.000000	63.431889
694.000000	63.320681
693.000000	63.260400
692.000000	63.195965
691.000000	63.075343
690.000000	63.047451
689.000000	62.941827
688.000000	62.792345
687.000000	62.708871
686.000000	62.621871
685.000000	62.500366
684.000000	62.434666
683.000000	62.348382
682.000000	62.214401
681.000000	62.148071
680.000000	62.056451
679.000000	62.009223
678.000000	61.932990
677.000000	61.877324
676.000000	61.802068
675.000000	61.680690
674.000000	61.525554
673.000000	61.457644
672.000000	61.375218
671.000000	61.267111
670.000000	61.170471
669.000000	61.089441
668.000000	61.018184
667.000000	60.911318
666.000000	60.864254
665.000000	60.697795
664.000000	60.596630
663.000000	60.478110
662.000000	60.388238
661.000000	60.347239
660.000000	60.198361
659.000000	60.077200
658.000000	59.978026
657.000000	59.840601
656.000000	59.736699
655.000000	59.672058
654.000000	59.581557
653.000000	59.463282
652.000000	59.341037
651.000000	59.261355
650.000000	59.173580
649.000000	59.020721
648.000000	58.908118
647.000000	58.801543
646.000000	58.675346
645.000000	58.519493
644.000000	58.435845
643.000000	58.366547
642.000000	58.237489
641.000000	58.145237
640.000000	57.999887
639.000000	57.805638
638.000000	57.738431
637.000000	57.645540
636.000000	57.550057
635.000000	57.430793
634.000000	57.300611
633.000000	57.219002
632.000000	57.072263
631.000000	56.989878
630.000000	56.839451
629.000000	56.714922
628.000000	56.571877
627.000000	56.475933
626.000000	56.339104
625.000000	56.226159
624.000000	56.092497
623.000000	55.995397
622.000000	55.824919
621.000000	55.708018
620.000000	55.558392
619.000000	55.436580
618.000000	55.329726
617.000000	55.151797
616.000000	55.053151
615.000000	54.925619
614.000000	54.793256
613.000000	54.672620
612.000000	54.558601
611.000000	54.464628
610.000000	54.287311
609.000000	54.163701
608.000000	53.944476
607.000000	53.922282
606.000000	53.737334
605.000000	53.554398
604.000000	53.476764
603.000000	53.303582
602.000000	53.191973
601.000000	53.045403
600.000000	52.886352
599.000000	52.766466
598.000000	52.579001
597.000000	52.468547
596.000000	52.300788
595.000000	52.170027
594.000000	51.995551
593.000000	51.907585
592.000000	51.685388
591.000000	51.607241
590.000000	51.447975
589.000000	51.277166
588.000000	51.155402
587.000000	51.004279
586.000000	50.826441
585.000000	50.731967
584.000000	50.560988
583.000000	50.411079
582.000000	50.286005
581.000000	50.090672
580.000000	49.967742
579.000000	49.834670
578.000000	49.625829
577.000000	49.495968
576.000000	49.308211
575.000000	49.109826
574.000000	48.985436
573.000000	48.905800
572.000000	48.713948
571.000000	48.538831
570.000000	48.358550
569.000000	48.232245
568.000000	48.032970
567.000000	47.875514
566.000000	47.707263
565.000000	47.558665
564.000000	47.388334
563.000000	47.221900
562.000000	47.066599
561.000000	47.034311
560.000000	46.824030
559.000000	46.632653
558.000000	46.486498
557.000000	46.313740
556.000000	46.083232
555.000000	45.961550
554.000000	45.803577
553.000000	45.622011
552.000000	45.453869
551.000000	45.292827
550.000000	45.147227
549.000000	44.989103
548.000000	44.793333
547.000000	44.632338
546.000000	44.428614
545.000000	44.269255
544.000000	44.078100
543.000000	43.940227
542.000000	43.729116
541.000000	43.566911
540.000000	43.372258
539.000000	43.180968
538.000000	43.034691
537.000000	42.805898
536.000000	42.652381
535.000000	42.480671
534.000000	42.280857
533.000000	42.117162
532.000000	41.939000
531.000000	41.775351
530.000000	41.560540
529.000000	41.398826
528.000000	41.190401
527.000000	41.011935
526.000000	40.827333
525.000000	40.635627
524.000000	40.431579
523.000000	40.233210
522.000000	40.064150
521.000000	39.891797
520.000000	39.710250
519.000000	39.509277
518.000000	39.345351
517.000000	39.129288
516.000000	38.938180
515.000000	38.753889
514.000000	38.582015
513.000000	38.387947
512.000000	38.203518
511.000000	38.001332
510.000000	37.815700
509.000000	37.616856
508.000000	37.429441
507.000000	37.245382
506.000000	37.053541
505.000000	36.860059
504.000000	36.665438
503.000000	36.469999
502.000000	36.299658
501.000000	36.103365
500.000000	35.909532
499.000000	35.733714
498.000000	35.526760
497.000000	35.337261
496.000000	35.131981
495.000000	34.932156
494.000000	34.783026
493.000000	34.584823
492.000000	34.372125
491.000000	34.221250
490.000000	34.039353
489.000000	33.841844
488.000000	33.650205
487.000000	33.485956
486.000000	33.311137
485.000000	33.074666
484.000000	32.902252
483.000000	32.757155
482.000000	32.541004
481.000000	32.326109
480.000000	32.127857
479.000000	31.930369
478.000000	31.752126
477.000000	31.535638
476.000000	31.354278
475.000000	31.167252
474.000000	30.961908
473.000000	30.793672
472.000000	30.602112
471.000000	30.408722
470.000000	30.217097
469.000000	30.027642
468.000000	29.830011
467.000000	29.649350
466.000000	29.456091
465.000000	29.248500
464.000000	29.053927
463.000000	28.849065
462.000000	28.637590
461.000000	28.454743
460.000000	28.281486
459.000000	28.090471
458.000000	27.871832
457.000000	27.680721
456.000000	27.500362
455.000000	27.266983
454.000000	27.040797
453.000000	26.843423
452.000000	26.649283
451.000000	26.442501
450.000000	26.251614
449.000000	26.045981
448.000000	25.815277
447.000000	25.621760
446.000000	25.404128
445.000000	25.172638
444.000000	24.982840
443.000000	24.810898
442.000000	24.614663
441.000000	24.442719
440.000000	24.225240
439.000000	24.045884
438.000000	23.843080
437.000000	23.638786
436.000000	23.431765
435.000000	23.249946
434.000000	23.101745
433.000000	22.903123
432.000000	22.712679
431.000000	22.523282
430.000000	22.327420
429.000000	22.123758
428.000000	21.947934
427.000000	21.785007
426.000000	21.578485
425.000000	21.389747
424.000000	21.192436
423.000000	20.986718
422.000000	20.804199
421.000000	20.619736
420.000000	20.423873
419.000000	20.247666
418.000000	20.057398
417.000000	19.837553
416.000000	19.664824
415.000000	19.484128
414.000000	19.296489
413.000000	19.126445
412.000000	18.941024
411.000000	18.756233
410.000000	18.555667
409.000000	18.347369
408.000000	18.153110
407.000000	17.976062
406.000000	17.810747
405.000000	17.631542
404.000000	17.469003
403.000000	17.270481
402.000000	17.100844
401.000000	16.903770
400.000000	16.725852
399.000000	16.550517
398.000000	16.380570
397.000000	16.230234
396.000000	16.077654
395.000000	15.893227
394.000000	15.699076
393.000000	15.558579
392.000000	15.398661
391.000000	15.237623
390.000000	15.082689
389.000000	14.924801
388.000000	14.784049
387.000000	14.588555
386.000000	14.430747
385.000000	14.318911
384.000000	14.148830
383.000000	13.992603
382.000000	13.835553
381.000000	13.671022
380.000000	13.561070
379.000000	13.393182
378.000000	13.235535
377.000000	13.058968
376.000000	12.946376
375.000000	12.800287
374.000000	12.654033
373.000000	12.551112
372.000000	12.419001
371.000000	12.304721
370.000000	12.140153
369.000000	12.028115
368.000000	11.926771
367.000000	11.760274
366.000000	11.634360
365.000000	11.512541
364.000000	11.401825
363.000000	11.309257
362.000000	11.151279
361.000000	11.030584
360.000000	10.906385
359.000000	10.816597
358.000000	10.769846
357.000000	10.623693
356.000000	10.551767
355.000000	10.389567
354.000000	10.342695
353.000000	10.266542
352.000000	10.112654
351.000000	10.027271
350.000000	9.934071
349.000000	9.820785
348.000000	9.760944
347.000000	9.615509
346.000000	9.508249
345.000000	9.458978
344.000000	9.349918
343.000000	9.258406
342.000000	9.212619
341.000000	9.111327
340.000000	9.066086
339.000000	9.009097
338.000000	8.818147
337.000000	8.788303
336.000000	8.703412
335.000000	8.623798
334.000000	8.541488
333.000000	8.492576
332.000000	8.497533
331.000000	8.343064
330.000000	8.320208
329.000000	8.221634
328.000000	8.162483
327.000000	8.071180
326.000000	8.050894
325.000000	7.983288
324.000000	7.940493
323.000000	7.929831
322.000000	7.848843
321.000000	7.851036
320.000000	7.780797
319.000000	7.734830
318.000000	7.830076
317.000000	7.804254
316.000000	7.848993
315.000000	7.816691
314.000000	7.734483
313.000000	7.668915
312.000000	7.651013
311.000000	7.637438
310.000000	7.688560
309.000000	7.603556
308.000000	7.579167
307.000000	7.602570
306.000000	7.650171
305.000000	7.633836
304.000000	7.643142
303.000000	7.586891
302.000000	7.621188
301.000000	7.602239
300.000000	7.578283
299.000000	7.634647
298.000000	7.604076
297.000000	7.588811
296.000000	7.640072
295.000000	7.607035
294.000000	7.598627
293.000000	7.595560
292.000000	7.594235
291.000000	7.644438
290.000000	7.683805
289.000000	7.644469
288.000000	7.663551
287.000000	7.662853
286.000000	7.726802
285.000000	7.744736
284.000000	7.783123
283.000000	7.809317
282.000000	7.839884
281.000000	7.878438
280.000000	7.871724
279.000000	7.926799
278.000000	7.996611
277.000000	8.056387
276.000000	8.052555
275.000000	8.115257
274.000000	8.199697
273.000000	8.251607
272.000000	8.321115
271.000000	8.371144
270.000000	8.384150
269.000000	8.493241
268.000000	8.592467
267.000000	8.627492
266.000000	8.672751
265.000000	8.727874
264.000000	8.798201
263.000000	8.903125
262.000000	8.985987
261.000000	9.108287
260.000000	9.200209
259.000000	9.302647
258.000000	9.328938
257.000000	9.399417
256.000000	9.558610
255.000000	9.670331
254.000000	9.784943
253.000000	9.876301
252.000000	10.001164
251.000000	10.130394
250.000000	10.183603
249.000000	10.257077
248.000000	10.368327
247.000000	10.463460
246.000000	10.612162
245.000000	10.730797
244.000000	10.812890
243.000000	10.917149
242.000000	11.025321
241.000000	11.092668
240.000000	11.131421
239.000000	11.223683
238.000000	11.341622
237.000000	11.445993
236.000000	11.539492
235.000000	11.573510
234.000000	11.625952
233.000000	11.713661
232.000000	11.795985
231.000000	11.854635
230.000000	11.939777
229.000000	12.035484
228.000000	12.113837
227.000000	12.097643
226.000000	12.187263
225.000000	12.357026
224.000000	12.485176
223.000000	12.616318
222.000000	12.756536
221.000000	12.868333
220.000000	12.992872
219.000000	13.150760
218.000000	13.313017
217.000000	13.475619
216.000000	13.680506
215.000000	13.897531
214.000000	14.192589
213.000000	14.417788
212.000000	14.603448
211.000000	14.937232
210.000000	15.250596
209.000000	15.615729
208.000000	15.992880
207.000000	16.457232
206.000000	16.952534
205.000000	17.447056
204.000000	17.870994
203.000000	18.291414
202.000000	18.705946
201.000000	19.223204
200.000000	20.094346
