PE UV       SUBTECH     SPECTRUM    ASCII       PEDS        4.00        
   -1
RTms499171.Sample.asc
18/03/15
14:37:43.00
18/03/15
14:37:43.00
Administrator

200.000000
1
Lambda 750
750N8071901
PerkinElmer UV WinLab 6.0.4.0738 / 1.61.00 Lambda 900

0
0
3350/servo 860.8/2
0
0
UV/VIS
1
1
1
CommonBeamDepol,150mm sphere / downward view
0
0
0
0
Program
Program
3350/servo 860.8/2
3350/0.2 860.8/0.2
3350/0.2 860.8/0.2
0
1
 
 
 
0
 
860.8
319.2
860.8
Front
100
on
 
 
0
0
0
 
0
 
 
 
0
 
 
0
0
0
0
0
 
 
 
 
0
0


0
0
#HDR
-1
-1
#GR
nm
%R
1.0
0.0
2350.000000
-1.000000
2151
8
54.578034
6.313071
#DATA
2350.000000	28.158529
2349.000000	28.417694
2348.000000	28.343927
2347.000000	28.396433
2346.000000	28.204464
2345.000000	28.277792
2344.000000	28.151896
2343.000000	28.194618
2342.000000	28.583903
2341.000000	28.388193
2340.000000	28.562451
2339.000000	29.153127
2338.000000	28.968655
2337.000000	28.617862
2336.000000	28.834212
2335.000000	29.316024
2334.000000	29.462651
2333.000000	29.354687
2332.000000	29.199438
2331.000000	29.319407
2330.000000	29.264022
2329.000000	28.989706
2328.000000	28.892013
2327.000000	28.794546
2326.000000	29.125320
2325.000000	28.930960
2324.000000	28.864712
2323.000000	28.936329
2322.000000	28.652792
2321.000000	28.508274
2320.000000	28.887632
2319.000000	28.642152
2318.000000	28.523355
2317.000000	28.639404
2316.000000	28.713544
2315.000000	28.352770
2314.000000	28.145772
2313.000000	28.094981
2312.000000	28.028431
2311.000000	28.046661
2310.000000	28.058994
2309.000000	28.091625
2308.000000	27.786397
2307.000000	27.809085
2306.000000	27.918232
2305.000000	27.938971
2304.000000	27.920178
2303.000000	27.723331
2302.000000	27.752694
2301.000000	27.793937
2300.000000	27.711461
2299.000000	27.739694
2298.000000	27.629217
2297.000000	27.741735
2296.000000	27.649853
2295.000000	27.628840
2294.000000	27.912596
2293.000000	27.921589
2292.000000	27.688470
2291.000000	27.745965
2290.000000	27.817178
2289.000000	27.766557
2288.000000	27.932807
2287.000000	27.928193
2286.000000	27.899421
2285.000000	27.804478
2284.000000	27.846087
2283.000000	27.774006
2282.000000	27.693261
2281.000000	27.946295
2280.000000	27.820828
2279.000000	27.864052
2278.000000	27.948335
2277.000000	27.782542
2276.000000	28.013523
2275.000000	28.145333
2274.000000	28.190130
2273.000000	28.221486
2272.000000	28.312604
2271.000000	28.414577
2270.000000	28.530282
2269.000000	28.663537
2268.000000	28.597901
2267.000000	28.599131
2266.000000	28.775519
2265.000000	28.982803
2264.000000	29.186941
2263.000000	29.155694
2262.000000	29.245803
2261.000000	29.405010
2260.000000	29.584590
2259.000000	29.742779
2258.000000	29.934716
2257.000000	30.134615
2256.000000	30.299539
2255.000000	30.532331
2254.000000	30.738073
2253.000000	30.744948
2252.000000	30.844506
2251.000000	31.199598
2250.000000	31.335595
2249.000000	31.438032
2248.000000	31.612543
2247.000000	31.807785
2246.000000	32.134363
2245.000000	32.313983
2244.000000	32.516315
2243.000000	32.793945
2242.000000	32.874235
2241.000000	32.988623
2240.000000	33.107447
2239.000000	33.261948
2238.000000	33.415088
2237.000000	33.553748
2236.000000	33.685474
2235.000000	33.790722
2234.000000	33.870245
2233.000000	33.894611
2232.000000	33.909270
2231.000000	33.943640
2230.000000	34.001801
2229.000000	34.056691
2228.000000	34.128081
2227.000000	34.216856
2226.000000	34.211423
2225.000000	34.225608
2224.000000	34.226295
2223.000000	34.224826
2222.000000	34.149886
2221.000000	33.994165
2220.000000	33.982994
2219.000000	33.992218
2218.000000	34.051376
2217.000000	34.019457
2216.000000	34.036184
2215.000000	33.919466
2214.000000	33.926714
2213.000000	34.115826
2212.000000	33.884151
2211.000000	33.687498
2210.000000	33.631085
2209.000000	33.627054
2208.000000	33.505499
2207.000000	33.545532
2206.000000	33.616871
2205.000000	33.460370
2204.000000	33.400911
2203.000000	33.346647
2202.000000	33.205782
2201.000000	33.224994
2200.000000	33.177172
2199.000000	33.147642
2198.000000	33.082986
2197.000000	32.862847
2196.000000	32.830379
2195.000000	32.802706
2194.000000	32.647269
2193.000000	32.622203
2192.000000	32.694514
2191.000000	32.584785
2190.000000	32.568828
2189.000000	32.520193
2188.000000	32.325210
2187.000000	32.273229
2186.000000	32.294065
2185.000000	32.355808
2184.000000	32.285144
2183.000000	32.278177
2182.000000	32.107167
2181.000000	32.130079
2180.000000	32.169152
2179.000000	32.123643
2178.000000	32.160787
2177.000000	32.288253
2176.000000	32.262572
2175.000000	32.275264
2174.000000	32.373382
2173.000000	32.163785
2172.000000	32.262746
2171.000000	32.422074
2170.000000	32.394433
2169.000000	32.500332
2168.000000	32.559318
2167.000000	32.555630
2166.000000	32.610073
2165.000000	32.721195
2164.000000	32.833146
2163.000000	32.909814
2162.000000	32.999524
2161.000000	33.146900
2160.000000	33.276197
2159.000000	33.261741
2158.000000	33.263120
2157.000000	33.520236
2156.000000	33.582511
2155.000000	33.681593
2154.000000	33.842917
2153.000000	33.894796
2152.000000	34.067839
2151.000000	34.228039
2150.000000	34.313383
2149.000000	34.533169
2148.000000	34.593315
2147.000000	34.667109
2146.000000	34.750793
2145.000000	34.837733
2144.000000	34.967129
2143.000000	34.919320
2142.000000	35.193801
2141.000000	35.207320
2140.000000	35.443709
2139.000000	35.597690
2138.000000	35.579115
2137.000000	35.587709
2136.000000	35.831742
2135.000000	35.936326
2134.000000	36.139381
2133.000000	35.977580
2132.000000	36.191171
2131.000000	36.311701
2130.000000	36.507459
2129.000000	36.337991
2128.000000	36.409478
2127.000000	36.480086
2126.000000	36.385062
2125.000000	36.467143
2124.000000	36.649626
2123.000000	36.476357
2122.000000	36.509264
2121.000000	36.638818
2120.000000	36.576296
2119.000000	36.656369
2118.000000	36.724715
2117.000000	36.669347
2116.000000	36.914985
2115.000000	36.899034
2114.000000	36.864573
2113.000000	36.810385
2112.000000	36.890304
2111.000000	36.888006
2110.000000	36.825065
2109.000000	36.904626
2108.000000	36.831041
2107.000000	36.973129
2106.000000	36.929139
2105.000000	36.925902
2104.000000	36.951805
2103.000000	36.990340
2102.000000	36.981482
2101.000000	37.026890
2100.000000	37.067670
2099.000000	37.083675
2098.000000	36.929558
2097.000000	37.086635
2096.000000	37.039723
2095.000000	37.033782
2094.000000	36.979713
2093.000000	36.864215
2092.000000	36.948488
2091.000000	36.888086
2090.000000	36.866586
2089.000000	36.875779
2088.000000	36.882279
2087.000000	36.875004
2086.000000	36.898087
2085.000000	36.871199
2084.000000	36.752676
2083.000000	36.714076
2082.000000	36.696308
2081.000000	36.614269
2080.000000	36.561647
2079.000000	36.528945
2078.000000	36.444810
2077.000000	36.414645
2076.000000	36.323587
2075.000000	36.162546
2074.000000	36.174505
2073.000000	35.998616
2072.000000	35.955729
2071.000000	35.907583
2070.000000	35.758876
2069.000000	35.588270
2068.000000	35.552911
2067.000000	35.488587
2066.000000	35.319041
2065.000000	35.212316
2064.000000	35.095187
2063.000000	34.871621
2062.000000	34.698962
2061.000000	34.570518
2060.000000	34.478079
2059.000000	34.441108
2058.000000	34.320796
2057.000000	34.166686
2056.000000	34.097802
2055.000000	34.031055
2054.000000	33.832291
2053.000000	33.682248
2052.000000	33.581422
2051.000000	33.512166
2050.000000	33.448142
2049.000000	33.314699
2048.000000	33.228498
2047.000000	33.219996
2046.000000	33.206839
2045.000000	33.177374
2044.000000	33.146348
2043.000000	33.094394
2042.000000	33.078341
2041.000000	33.146033
2040.000000	33.196833
2039.000000	33.194784
2038.000000	33.200016
2037.000000	33.260451
2036.000000	33.331243
2035.000000	33.402201
2034.000000	33.494259
2033.000000	33.574862
2032.000000	33.615305
2031.000000	33.717667
2030.000000	33.820899
2029.000000	33.933614
2028.000000	33.987214
2027.000000	34.050889
2026.000000	34.142476
2025.000000	34.185923
2024.000000	34.276712
2023.000000	34.342464
2022.000000	34.404133
2021.000000	34.450617
2020.000000	34.472329
2019.000000	34.450619
2018.000000	34.449793
2017.000000	34.458964
2016.000000	34.434797
2015.000000	34.379569
2014.000000	34.315891
2013.000000	34.279675
2012.000000	34.247395
2011.000000	34.212679
2010.000000	34.154058
2009.000000	34.072245
2008.000000	34.047489
2007.000000	33.937689
2006.000000	33.793921
2005.000000	33.730601
2004.000000	33.644796
2003.000000	33.576648
2002.000000	33.481747
2001.000000	33.358189
2000.000000	33.262643
1999.000000	33.171693
1998.000000	33.059790
1997.000000	32.967238
1996.000000	32.843462
1995.000000	32.734647
1994.000000	32.620031
1993.000000	32.502907
1992.000000	32.380117
1991.000000	32.252585
1990.000000	32.174109
1989.000000	32.073966
1988.000000	31.955028
1987.000000	31.866465
1986.000000	31.729441
1985.000000	31.596146
1984.000000	31.503876
1983.000000	31.405981
1982.000000	31.308757
1981.000000	31.250463
1980.000000	31.122886
1979.000000	31.017667
1978.000000	30.867730
1977.000000	30.739377
1976.000000	30.637624
1975.000000	30.566039
1974.000000	30.465038
1973.000000	30.354726
1972.000000	30.245118
1971.000000	30.097182
1970.000000	30.053414
1969.000000	29.953789
1968.000000	29.858759
1967.000000	29.793988
1966.000000	29.681810
1965.000000	29.535616
1964.000000	29.425565
1963.000000	29.376415
1962.000000	29.257190
1961.000000	29.142024
1960.000000	29.111955
1959.000000	28.968595
1958.000000	28.861248
1957.000000	28.839587
1956.000000	28.794594
1955.000000	28.704712
1954.000000	28.624637
1953.000000	28.564669
1952.000000	28.480867
1951.000000	28.459546
1950.000000	28.379434
1949.000000	28.323544
1948.000000	28.332381
1947.000000	28.309408
1946.000000	28.217604
1945.000000	28.196467
1944.000000	28.202357
1943.000000	28.237145
1942.000000	28.218712
1941.000000	28.272972
1940.000000	28.295780
1939.000000	28.280202
1938.000000	28.327589
1937.000000	28.396963
1936.000000	28.484088
1935.000000	28.578016
1934.000000	28.714632
1933.000000	28.800321
1932.000000	28.935992
1931.000000	29.018946
1930.000000	29.210558
1929.000000	29.302631
1928.000000	29.509634
1927.000000	29.666627
1926.000000	29.821232
1925.000000	30.016758
1924.000000	30.264701
1923.000000	30.440057
1922.000000	30.734603
1921.000000	31.030935
1920.000000	31.221179
1919.000000	31.561057
1918.000000	31.723781
1917.000000	32.064424
1916.000000	32.254754
1915.000000	32.676288
1914.000000	32.981701
1913.000000	33.359533
1912.000000	33.692832
1911.000000	34.050932
1910.000000	34.480954
1909.000000	34.894082
1908.000000	35.300616
1907.000000	35.689452
1906.000000	36.112247
1905.000000	36.524428
1904.000000	36.954648
1903.000000	37.403930
1902.000000	37.917787
1901.000000	38.342803
1900.000000	38.834713
1899.000000	39.309938
1898.000000	39.774870
1897.000000	40.188228
1896.000000	40.586032
1895.000000	41.119748
1894.000000	41.537485
1893.000000	41.969885
1892.000000	42.393185
1891.000000	42.769538
1890.000000	43.200215
1889.000000	43.580622
1888.000000	43.953944
1887.000000	44.386628
1886.000000	44.725408
1885.000000	45.079354
1884.000000	45.400494
1883.000000	45.770375
1882.000000	46.052485
1881.000000	46.369793
1880.000000	46.627401
1879.000000	46.873093
1878.000000	47.123455
1877.000000	47.394736
1876.000000	47.543139
1875.000000	47.777584
1874.000000	47.920520
1873.000000	48.105359
1872.000000	48.277896
1871.000000	48.413433
1870.000000	48.544133
1869.000000	48.652300
1868.000000	48.734794
1867.000000	48.797086
1866.000000	48.900202
1865.000000	49.020036
1864.000000	49.068758
1863.000000	49.141789
1862.000000	49.221696
1861.000000	49.266888
1860.000000	49.307809
1859.000000	49.361935
1858.000000	49.411351
1857.000000	49.450880
1856.000000	49.447906
1855.000000	49.489957
1854.000000	49.538712
1853.000000	49.578124
1852.000000	49.587446
1851.000000	49.598048
1850.000000	49.597489
1849.000000	49.574554
1848.000000	49.568999
1847.000000	49.605671
1846.000000	49.596306
1845.000000	49.586129
1844.000000	49.524296
1843.000000	49.488858
1842.000000	49.474420
1841.000000	49.437582
1840.000000	49.425660
1839.000000	49.413434
1838.000000	49.376185
1837.000000	49.287188
1836.000000	49.228385
1835.000000	49.188819
1834.000000	49.141376
1833.000000	49.109591
1832.000000	49.079015
1831.000000	49.078450
1830.000000	49.046889
1829.000000	48.968852
1828.000000	48.919043
1827.000000	48.926542
1826.000000	48.902608
1825.000000	48.879168
1824.000000	48.864697
1823.000000	48.841467
1822.000000	48.806968
1821.000000	48.756301
1820.000000	48.707576
1819.000000	48.686360
1818.000000	48.680043
1817.000000	48.651086
1816.000000	48.635433
1815.000000	48.615564
1814.000000	48.567650
1813.000000	48.520847
1812.000000	48.511853
1811.000000	48.511337
1810.000000	48.489403
1809.000000	48.453953
1808.000000	48.438604
1807.000000	48.423040
1806.000000	48.393955
1805.000000	48.368180
1804.000000	48.356416
1803.000000	48.334268
1802.000000	48.320691
1801.000000	48.306047
1800.000000	48.285844
1799.000000	48.264516
1798.000000	48.232000
1797.000000	48.226907
1796.000000	48.235274
1795.000000	48.219096
1794.000000	48.194905
1793.000000	48.196932
1792.000000	48.184647
1791.000000	48.188037
1790.000000	48.170747
1789.000000	48.132131
1788.000000	48.126983
1787.000000	48.132005
1786.000000	48.128476
1785.000000	48.091142
1784.000000	48.060742
1783.000000	48.054146
1782.000000	48.033708
1781.000000	48.008817
1780.000000	47.968260
1779.000000	47.950754
1778.000000	47.935382
1777.000000	47.890319
1776.000000	47.828729
1775.000000	47.773217
1774.000000	47.721774
1773.000000	47.692653
1772.000000	47.655912
1771.000000	47.621497
1770.000000	47.565556
1769.000000	47.506744
1768.000000	47.446861
1767.000000	47.409861
1766.000000	47.375250
1765.000000	47.334684
1764.000000	47.289913
1763.000000	47.250950
1762.000000	47.215270
1761.000000	47.167191
1760.000000	47.125593
1759.000000	47.114516
1758.000000	47.090281
1757.000000	47.044735
1756.000000	47.033467
1755.000000	47.004255
1754.000000	46.945233
1753.000000	46.918155
1752.000000	46.888800
1751.000000	46.855746
1750.000000	46.825643
1749.000000	46.807932
1748.000000	46.712055
1747.000000	46.658215
1746.000000	46.603971
1745.000000	46.569566
1744.000000	46.504211
1743.000000	46.465174
1742.000000	46.394445
1741.000000	46.335428
1740.000000	46.303314
1739.000000	46.269633
1738.000000	46.194894
1737.000000	46.137997
1736.000000	46.081649
1735.000000	46.075641
1734.000000	46.078709
1733.000000	46.048164
1732.000000	46.025307
1731.000000	46.007013
1730.000000	46.024443
1729.000000	46.049062
1728.000000	46.096601
1727.000000	46.142194
1726.000000	46.170891
1725.000000	46.233727
1724.000000	46.275973
1723.000000	46.368707
1722.000000	46.444225
1721.000000	46.531622
1720.000000	46.603193
1719.000000	46.690108
1718.000000	46.747780
1717.000000	46.840266
1716.000000	46.924909
1715.000000	47.005551
1714.000000	47.102068
1713.000000	47.179256
1712.000000	47.226168
1711.000000	47.289994
1710.000000	47.378493
1709.000000	47.430936
1708.000000	47.495666
1707.000000	47.530783
1706.000000	47.558589
1705.000000	47.622674
1704.000000	47.655857
1703.000000	47.671971
1702.000000	47.711857
1701.000000	47.739009
1700.000000	47.789394
1699.000000	47.815819
1698.000000	47.858712
1697.000000	47.856358
1696.000000	47.910622
1695.000000	47.900805
1694.000000	47.952760
1693.000000	47.988712
1692.000000	48.052336
1691.000000	48.105868
1690.000000	48.161800
1689.000000	48.239866
1688.000000	48.338639
1687.000000	48.374517
1686.000000	48.448310
1685.000000	48.554016
1684.000000	48.648536
1683.000000	48.763829
1682.000000	48.874231
1681.000000	48.991461
1680.000000	49.092623
1679.000000	49.186470
1678.000000	49.313463
1677.000000	49.425524
1676.000000	49.540329
1675.000000	49.635185
1674.000000	49.779990
1673.000000	49.858867
1672.000000	49.985146
1671.000000	50.086641
1670.000000	50.175599
1669.000000	50.301361
1668.000000	50.396204
1667.000000	50.481075
1666.000000	50.546582
1665.000000	50.583311
1664.000000	50.633494
1663.000000	50.683724
1662.000000	50.748659
1661.000000	50.799822
1660.000000	50.844498
1659.000000	50.882940
1658.000000	50.903767
1657.000000	50.938991
1656.000000	50.950986
1655.000000	50.979464
1654.000000	50.983093
1653.000000	50.987269
1652.000000	51.004966
1651.000000	51.013666
1650.000000	51.006095
1649.000000	50.977495
1648.000000	50.962734
1647.000000	50.977833
1646.000000	50.952462
1645.000000	50.927169
1644.000000	50.924210
1643.000000	50.888130
1642.000000	50.896725
1641.000000	50.865069
1640.000000	50.845186
1639.000000	50.823497
1638.000000	50.793027
1637.000000	50.789285
1636.000000	50.743996
1635.000000	50.723849
1634.000000	50.676125
1633.000000	50.655907
1632.000000	50.626753
1631.000000	50.602710
1630.000000	50.568812
1629.000000	50.533675
1628.000000	50.496267
1627.000000	50.460670
1626.000000	50.438041
1625.000000	50.406776
1624.000000	50.370252
1623.000000	50.343852
1622.000000	50.311031
1621.000000	50.258890
1620.000000	50.224567
1619.000000	50.191070
1618.000000	50.151424
1617.000000	50.109981
1616.000000	50.067325
1615.000000	50.025989
1614.000000	49.985764
1613.000000	49.947258
1612.000000	49.907139
1611.000000	49.866458
1610.000000	49.831587
1609.000000	49.792390
1608.000000	49.739183
1607.000000	49.694066
1606.000000	49.658479
1605.000000	49.616235
1604.000000	49.572017
1603.000000	49.533233
1602.000000	49.493123
1601.000000	49.444127
1600.000000	49.390927
1599.000000	49.346769
1598.000000	49.316247
1597.000000	49.286738
1596.000000	49.245877
1595.000000	49.204123
1594.000000	49.166629
1593.000000	49.142972
1592.000000	49.097680
1591.000000	49.041170
1590.000000	49.010201
1589.000000	48.979726
1588.000000	48.945602
1587.000000	48.911921
1586.000000	48.886551
1585.000000	48.852428
1584.000000	48.805098
1583.000000	48.772647
1582.000000	48.739434
1581.000000	48.700122
1580.000000	48.673668
1579.000000	48.627327
1578.000000	48.599123
1577.000000	48.571733
1576.000000	48.531311
1575.000000	48.498507
1574.000000	48.452874
1573.000000	48.410413
1572.000000	48.386440
1571.000000	48.341596
1570.000000	48.303285
1569.000000	48.287875
1568.000000	48.258082
1567.000000	48.225363
1566.000000	48.203311
1565.000000	48.171966
1564.000000	48.140657
1563.000000	48.108099
1562.000000	48.085550
1561.000000	48.067591
1560.000000	48.033652
1559.000000	48.001471
1558.000000	47.990695
1557.000000	47.976274
1556.000000	47.949724
1555.000000	47.916776
1554.000000	47.891344
1553.000000	47.861429
1552.000000	47.825132
1551.000000	47.789857
1550.000000	47.759752
1549.000000	47.724578
1548.000000	47.691928
1547.000000	47.667049
1546.000000	47.618450
1545.000000	47.558950
1544.000000	47.500800
1543.000000	47.438023
1542.000000	47.382455
1541.000000	47.333647
1540.000000	47.270349
1539.000000	47.209075
1538.000000	47.144479
1537.000000	47.073152
1536.000000	47.001431
1535.000000	46.942371
1534.000000	46.880253
1533.000000	46.824901
1532.000000	46.770472
1531.000000	46.718200
1530.000000	46.641325
1529.000000	46.588211
1528.000000	46.529931
1527.000000	46.479752
1526.000000	46.450033
1525.000000	46.386507
1524.000000	46.333611
1523.000000	46.291186
1522.000000	46.261109
1521.000000	46.232680
1520.000000	46.176321
1519.000000	46.152070
1518.000000	46.143654
1517.000000	46.097184
1516.000000	46.057981
1515.000000	46.033080
1514.000000	46.021682
1513.000000	46.016011
1512.000000	46.030635
1511.000000	46.036863
1510.000000	46.049313
1509.000000	45.994111
1508.000000	45.958446
1507.000000	45.950281
1506.000000	45.923719
1505.000000	45.895177
1504.000000	45.879213
1503.000000	45.851957
1502.000000	45.854239
1501.000000	45.835161
1500.000000	45.819436
1499.000000	45.809978
1498.000000	45.813206
1497.000000	45.809322
1496.000000	45.801817
1495.000000	45.815061
1494.000000	45.813081
1493.000000	45.816991
1492.000000	45.814760
1491.000000	45.821635
1490.000000	45.839698
1489.000000	45.822653
1488.000000	45.845820
1487.000000	45.883673
1486.000000	45.877029
1485.000000	45.878948
1484.000000	45.908519
1483.000000	45.928490
1482.000000	45.918742
1481.000000	45.957682
1480.000000	45.960940
1479.000000	45.985546
1478.000000	46.003109
1477.000000	46.009430
1476.000000	46.020460
1475.000000	46.046654
1474.000000	46.049392
1473.000000	46.066222
1472.000000	46.079048
1471.000000	46.089923
1470.000000	46.105287
1469.000000	46.116064
1468.000000	46.132639
1467.000000	46.171671
1466.000000	46.211232
1465.000000	46.219756
1464.000000	46.217099
1463.000000	46.231385
1462.000000	46.251578
1461.000000	46.297191
1460.000000	46.323646
1459.000000	46.344449
1458.000000	46.367236
1457.000000	46.406031
1456.000000	46.429240
1455.000000	46.449858
1454.000000	46.480859
1453.000000	46.513998
1452.000000	46.557432
1451.000000	46.639948
1450.000000	46.652584
1449.000000	46.684689
1448.000000	46.732831
1447.000000	46.777127
1446.000000	46.837398
1445.000000	46.889081
1444.000000	46.939389
1443.000000	46.991146
1442.000000	47.041072
1441.000000	47.094207
1440.000000	47.160997
1439.000000	47.215262
1438.000000	47.288346
1437.000000	47.396368
1436.000000	47.466578
1435.000000	47.549650
1434.000000	47.636759
1433.000000	47.714854
1432.000000	47.789631
1431.000000	47.890951
1430.000000	47.982566
1429.000000	48.090397
1428.000000	48.194407
1427.000000	48.299016
1426.000000	48.414880
1425.000000	48.529494
1424.000000	48.628042
1423.000000	48.738961
1422.000000	48.875364
1421.000000	49.009797
1420.000000	49.142890
1419.000000	49.265072
1418.000000	49.392460
1417.000000	49.533699
1416.000000	49.681726
1415.000000	49.808540
1414.000000	49.950497
1413.000000	50.088492
1412.000000	50.227635
1411.000000	50.370055
1410.000000	50.522272
1409.000000	50.667207
1408.000000	50.791679
1407.000000	50.916883
1406.000000	51.044046
1405.000000	51.164837
1404.000000	51.292393
1403.000000	51.405541
1402.000000	51.524614
1401.000000	51.642997
1400.000000	51.771103
1399.000000	51.883425
1398.000000	51.991475
1397.000000	52.097775
1396.000000	52.199294
1395.000000	52.295529
1394.000000	52.388597
1393.000000	52.482558
1392.000000	52.574725
1391.000000	52.657163
1390.000000	52.728911
1389.000000	52.810082
1388.000000	52.883404
1387.000000	52.939961
1386.000000	53.000012
1385.000000	53.063652
1384.000000	53.129750
1383.000000	53.178377
1382.000000	53.215599
1381.000000	53.287730
1380.000000	53.346405
1379.000000	53.389513
1378.000000	53.438564
1377.000000	53.499833
1376.000000	53.558531
1375.000000	53.591789
1374.000000	53.623914
1373.000000	53.672591
1372.000000	53.721623
1371.000000	53.754621
1370.000000	53.778907
1369.000000	53.806077
1368.000000	53.817958
1367.000000	53.831029
1366.000000	53.859954
1365.000000	53.870904
1364.000000	53.877081
1363.000000	53.892400
1362.000000	53.929694
1361.000000	53.940570
1360.000000	53.928665
1359.000000	53.942868
1358.000000	53.947224
1357.000000	53.965749
1356.000000	53.980363
1355.000000	53.996425
1354.000000	54.029632
1353.000000	54.055784
1352.000000	54.090090
1351.000000	54.120511
1350.000000	54.122725
1349.000000	54.141585
1348.000000	54.178469
1347.000000	54.225440
1346.000000	54.266326
1345.000000	54.273543
1344.000000	54.282184
1343.000000	54.324002
1342.000000	54.359489
1341.000000	54.370187
1340.000000	54.407931
1339.000000	54.422140
1338.000000	54.430789
1337.000000	54.431024
1336.000000	54.457432
1335.000000	54.468373
1334.000000	54.489942
1333.000000	54.503093
1332.000000	54.507372
1331.000000	54.492411
1330.000000	54.508556
1329.000000	54.513645
1328.000000	54.520562
1327.000000	54.517994
1326.000000	54.524022
1325.000000	54.540845
1324.000000	54.527596
1323.000000	54.528341
1322.000000	54.534342
1321.000000	54.546235
1320.000000	54.546217
1319.000000	54.544950
1318.000000	54.524189
1317.000000	54.522515
1316.000000	54.519231
1315.000000	54.547420
1314.000000	54.548007
1313.000000	54.540679
1312.000000	54.527860
1311.000000	54.533587
1310.000000	54.523979
1309.000000	54.539374
1308.000000	54.540844
1307.000000	54.538923
1306.000000	54.542396
1305.000000	54.553951
1304.000000	54.548973
1303.000000	54.561917
1302.000000	54.545050
1301.000000	54.561353
1300.000000	54.578034
1299.000000	54.571812
1298.000000	54.566311
1297.000000	54.558584
1296.000000	54.554450
1295.000000	54.548798
1294.000000	54.555835
1293.000000	54.541155
1292.000000	54.537922
1291.000000	54.532751
1290.000000	54.536772
1289.000000	54.497303
1288.000000	54.483651
1287.000000	54.478452
1286.000000	54.473544
1285.000000	54.478906
1284.000000	54.467561
1283.000000	54.492001
1282.000000	54.486898
1281.000000	54.489791
1280.000000	54.454011
1279.000000	54.442609
1278.000000	54.409937
1277.000000	54.415734
1276.000000	54.390189
1275.000000	54.402879
1274.000000	54.397407
1273.000000	54.369250
1272.000000	54.387268
1271.000000	54.359270
1270.000000	54.369570
1269.000000	54.361437
1268.000000	54.344233
1267.000000	54.360146
1266.000000	54.359760
1265.000000	54.306092
1264.000000	54.325760
1263.000000	54.312623
1262.000000	54.320418
1261.000000	54.320670
1260.000000	54.312324
1259.000000	54.292644
1258.000000	54.289675
1257.000000	54.269792
1256.000000	54.282817
1255.000000	54.288964
1254.000000	54.284426
1253.000000	54.321923
1252.000000	54.285942
1251.000000	54.287211
1250.000000	54.285435
1249.000000	54.264249
1248.000000	54.241062
1247.000000	54.245537
1246.000000	54.258773
1245.000000	54.242338
1244.000000	54.241506
1243.000000	54.219636
1242.000000	54.210810
1241.000000	54.205328
1240.000000	54.204276
1239.000000	54.185485
1238.000000	54.150390
1237.000000	54.141720
1236.000000	54.118428
1235.000000	54.101455
1234.000000	54.098908
1233.000000	54.067924
1232.000000	54.061485
1231.000000	54.042173
1230.000000	54.000337
1229.000000	53.975610
1228.000000	53.965729
1227.000000	53.944753
1226.000000	53.913639
1225.000000	53.893138
1224.000000	53.845526
1223.000000	53.827247
1222.000000	53.825936
1221.000000	53.783075
1220.000000	53.744230
1219.000000	53.721137
1218.000000	53.709931
1217.000000	53.693423
1216.000000	53.664787
1215.000000	53.640446
1214.000000	53.598568
1213.000000	53.569064
1212.000000	53.549985
1211.000000	53.525862
1210.000000	53.512063
1209.000000	53.473711
1208.000000	53.435563
1207.000000	53.439966
1206.000000	53.407135
1205.000000	53.392206
1204.000000	53.365005
1203.000000	53.335157
1202.000000	53.316316
1201.000000	53.302599
1200.000000	53.301221
1199.000000	53.282727
1198.000000	53.262030
1197.000000	53.250318
1196.000000	53.239194
1195.000000	53.244999
1194.000000	53.243746
1193.000000	53.211537
1192.000000	53.200291
1191.000000	53.190280
1190.000000	53.166728
1189.000000	53.152479
1188.000000	53.151456
1187.000000	53.148308
1186.000000	53.130619
1185.000000	53.131930
1184.000000	53.124016
1183.000000	53.133606
1182.000000	53.156233
1181.000000	53.169941
1180.000000	53.168654
1179.000000	53.179065
1178.000000	53.200095
1177.000000	53.212086
1176.000000	53.226419
1175.000000	53.243663
1174.000000	53.260510
1173.000000	53.287177
1172.000000	53.306655
1171.000000	53.317962
1170.000000	53.343110
1169.000000	53.365100
1168.000000	53.387539
1167.000000	53.402027
1166.000000	53.430979
1165.000000	53.469732
1164.000000	53.498389
1163.000000	53.534186
1162.000000	53.561148
1161.000000	53.592336
1160.000000	53.624240
1159.000000	53.649951
1158.000000	53.676969
1157.000000	53.713347
1156.000000	53.746505
1155.000000	53.773989
1154.000000	53.783100
1153.000000	53.788041
1152.000000	53.813854
1151.000000	53.836567
1150.000000	53.854019
1149.000000	53.865336
1148.000000	53.866889
1147.000000	53.871072
1146.000000	53.896108
1145.000000	53.909171
1144.000000	53.931666
1143.000000	53.949447
1142.000000	53.960399
1141.000000	53.978392
1140.000000	54.004966
1139.000000	54.013727
1138.000000	54.019387
1137.000000	54.026291
1136.000000	54.043196
1135.000000	54.056555
1134.000000	54.051456
1133.000000	54.070170
1132.000000	54.087462
1131.000000	54.082489
1130.000000	54.086332
1129.000000	54.110116
1128.000000	54.117949
1127.000000	54.115139
1126.000000	54.096742
1125.000000	54.105997
1124.000000	54.103985
1123.000000	54.097083
1122.000000	54.094497
1121.000000	54.079627
1120.000000	54.062425
1119.000000	54.084579
1118.000000	54.065146
1117.000000	54.048724
1116.000000	54.052643
1115.000000	54.053018
1114.000000	54.042874
1113.000000	54.056013
1112.000000	54.043784
1111.000000	54.032394
1110.000000	54.042167
1109.000000	54.050310
1108.000000	54.037423
1107.000000	54.033868
1106.000000	54.023214
1105.000000	54.049857
1104.000000	54.032371
1103.000000	54.018245
1102.000000	54.011988
1101.000000	54.006835
1100.000000	54.000450
1099.000000	53.971506
1098.000000	53.955408
1097.000000	53.958761
1096.000000	53.961577
1095.000000	53.948141
1094.000000	53.945152
1093.000000	53.946807
1092.000000	53.933576
1091.000000	53.923319
1090.000000	53.925841
1089.000000	53.912278
1088.000000	53.910084
1087.000000	53.905128
1086.000000	53.904092
1085.000000	53.904898
1084.000000	53.885499
1083.000000	53.861725
1082.000000	53.860109
1081.000000	53.860414
1080.000000	53.847063
1079.000000	53.834033
1078.000000	53.809886
1077.000000	53.838059
1076.000000	53.814653
1075.000000	53.813634
1074.000000	53.811016
1073.000000	53.806085
1072.000000	53.780437
1071.000000	53.754884
1070.000000	53.752454
1069.000000	53.752959
1068.000000	53.730854
1067.000000	53.725956
1066.000000	53.713908
1065.000000	53.705015
1064.000000	53.705196
1063.000000	53.676459
1062.000000	53.687582
1061.000000	53.677215
1060.000000	53.674500
1059.000000	53.655468
1058.000000	53.645354
1057.000000	53.632488
1056.000000	53.618162
1055.000000	53.633120
1054.000000	53.612065
1053.000000	53.595780
1052.000000	53.594277
1051.000000	53.566168
1050.000000	53.575261
1049.000000	53.575242
1048.000000	53.534198
1047.000000	53.533952
1046.000000	53.523754
1045.000000	53.539223
1044.000000	53.522433
1043.000000	53.493937
1042.000000	53.508008
1041.000000	53.484790
1040.000000	53.498765
1039.000000	53.475821
1038.000000	53.463176
1037.000000	53.463035
1036.000000	53.454244
1035.000000	53.437634
1034.000000	53.448311
1033.000000	53.444762
1032.000000	53.425048
1031.000000	53.400164
1030.000000	53.414523
1029.000000	53.397546
1028.000000	53.393902
1027.000000	53.373250
1026.000000	53.390033
1025.000000	53.396293
1024.000000	53.387728
1023.000000	53.359371
1022.000000	53.349855
1021.000000	53.341656
1020.000000	53.325411
1019.000000	53.338761
1018.000000	53.334912
1017.000000	53.319875
1016.000000	53.308951
1015.000000	53.292804
1014.000000	53.304291
1013.000000	53.286966
1012.000000	53.301064
1011.000000	53.297172
1010.000000	53.277434
1009.000000	53.271550
1008.000000	53.265688
1007.000000	53.265058
1006.000000	53.265547
1005.000000	53.252188
1004.000000	53.233868
1003.000000	53.219648
1002.000000	53.222163
1001.000000	53.215707
1000.000000	53.224646
999.000000	53.212567
998.000000	53.200549
997.000000	53.191876
996.000000	53.191805
995.000000	53.196388
994.000000	53.180424
993.000000	53.162481
992.000000	53.165217
991.000000	53.164266
990.000000	53.131418
989.000000	53.112515
988.000000	53.114437
987.000000	53.115592
986.000000	53.100338
985.000000	53.114245
984.000000	53.122630
983.000000	53.090055
982.000000	53.069545
981.000000	53.074568
980.000000	53.069981
979.000000	53.058130
978.000000	53.037710
977.000000	53.037685
976.000000	53.037002
975.000000	53.014042
974.000000	53.002730
973.000000	52.998273
972.000000	52.992104
971.000000	52.976577
970.000000	52.970745
969.000000	52.973465
968.000000	52.961880
967.000000	52.940827
966.000000	52.926570
965.000000	52.931092
964.000000	52.920068
963.000000	52.920796
962.000000	52.924400
961.000000	52.906117
960.000000	52.892167
959.000000	52.883546
958.000000	52.861160
957.000000	52.848681
956.000000	52.862317
955.000000	52.863961
954.000000	52.837026
953.000000	52.806489
952.000000	52.820643
951.000000	52.819609
950.000000	52.806669
949.000000	52.810210
948.000000	52.787440
947.000000	52.767014
946.000000	52.756305
945.000000	52.731767
944.000000	52.704815
943.000000	52.694197
942.000000	52.693028
941.000000	52.688448
940.000000	52.664093
939.000000	52.652632
938.000000	52.631589
937.000000	52.611046
936.000000	52.590134
935.000000	52.558684
934.000000	52.561301
933.000000	52.574878
932.000000	52.548170
931.000000	52.515837
930.000000	52.502703
929.000000	52.483255
928.000000	52.457491
927.000000	52.451966
926.000000	52.439290
925.000000	52.421585
924.000000	52.402797
923.000000	52.376439
922.000000	52.379883
921.000000	52.370057
920.000000	52.353711
919.000000	52.334808
918.000000	52.339268
917.000000	52.329616
916.000000	52.287966
915.000000	52.295582
914.000000	52.290042
913.000000	52.241347
912.000000	52.210003
911.000000	52.208745
910.000000	52.202703
909.000000	52.180019
908.000000	52.185646
907.000000	52.169604
906.000000	52.133199
905.000000	52.150467
904.000000	52.143418
903.000000	52.101384
902.000000	52.119777
901.000000	52.068591
900.000000	52.042253
899.000000	52.019795
898.000000	51.991305
897.000000	52.020201
896.000000	52.015962
895.000000	51.992700
894.000000	51.943564
893.000000	51.938729
892.000000	51.899551
891.000000	51.875209
890.000000	51.869356
889.000000	51.869522
888.000000	51.898167
887.000000	51.888352
886.000000	51.803664
885.000000	51.816100
884.000000	51.842242
883.000000	51.809589
882.000000	51.800829
881.000000	51.803929
880.000000	51.708926
879.000000	51.675374
878.000000	51.670785
877.000000	51.563845
876.000000	51.511084
875.000000	51.585077
874.000000	51.569800
873.000000	51.505402
872.000000	51.449354
871.000000	51.409144
870.000000	51.406885
869.000000	51.397343
868.000000	51.296424
867.000000	51.306790
866.000000	51.316094
865.000000	51.302643
864.000000	51.242741
863.000000	51.099328
862.000000	51.161769
861.000000	51.074540
860.000000	51.139393
859.000000	49.813795
858.000000	49.715630
857.000000	49.752033
856.000000	49.894430
855.000000	49.656670
854.000000	49.761957
853.000000	49.422605
852.000000	49.676609
851.000000	49.792290
850.000000	49.363481
849.000000	49.552667
848.000000	49.490646
847.000000	49.602663
846.000000	49.320442
845.000000	49.260684
844.000000	49.367728
843.000000	49.437678
842.000000	49.279793
841.000000	49.262977
840.000000	49.095648
839.000000	49.249232
838.000000	49.065051
837.000000	49.132608
836.000000	49.102170
835.000000	48.971565
834.000000	49.015282
833.000000	48.851304
832.000000	48.963233
831.000000	48.850395
830.000000	48.860260
829.000000	48.768200
828.000000	48.734997
827.000000	48.725115
826.000000	48.650114
825.000000	48.715223
824.000000	48.624432
823.000000	48.627850
822.000000	48.619665
821.000000	48.632293
820.000000	48.485365
819.000000	48.513214
818.000000	48.492811
817.000000	48.352791
816.000000	48.406521
815.000000	48.280139
814.000000	48.320099
813.000000	48.315119
812.000000	48.166049
811.000000	48.302383
810.000000	48.144242
809.000000	48.145994
808.000000	48.003270
807.000000	48.122480
806.000000	48.048019
805.000000	48.117484
804.000000	47.928765
803.000000	47.899964
802.000000	47.820808
801.000000	47.878322
800.000000	47.788455
799.000000	47.777178
798.000000	47.688567
797.000000	47.688671
796.000000	47.641958
795.000000	47.421121
794.000000	47.409465
793.000000	47.379253
792.000000	47.436723
791.000000	47.458369
790.000000	47.381291
789.000000	47.361612
788.000000	47.258601
787.000000	47.162813
786.000000	47.208356
785.000000	47.184230
784.000000	47.076967
783.000000	47.010536
782.000000	46.952221
781.000000	47.000345
780.000000	46.905893
779.000000	46.900352
778.000000	46.923366
777.000000	46.783100
776.000000	46.748514
775.000000	46.702464
774.000000	46.656247
773.000000	46.593147
772.000000	46.567663
771.000000	46.466934
770.000000	46.455129
769.000000	46.411010
768.000000	46.418213
767.000000	46.304332
766.000000	46.422358
765.000000	46.300860
764.000000	46.173037
763.000000	46.144740
762.000000	46.092411
761.000000	46.021232
760.000000	45.954208
759.000000	45.964911
758.000000	45.869140
757.000000	45.848347
756.000000	45.852910
755.000000	45.752304
754.000000	45.623361
753.000000	45.635771
752.000000	45.576036
751.000000	45.534795
750.000000	45.517843
749.000000	45.410524
748.000000	45.325398
747.000000	45.253187
746.000000	45.238875
745.000000	45.224289
744.000000	45.148601
743.000000	45.034129
742.000000	44.991030
741.000000	44.969803
740.000000	44.954329
739.000000	44.885547
738.000000	44.782294
737.000000	44.709802
736.000000	44.659983
735.000000	44.616269
734.000000	44.552430
733.000000	44.486203
732.000000	44.436476
731.000000	44.408866
730.000000	44.296776
729.000000	44.216370
728.000000	44.176680
727.000000	44.096848
726.000000	44.064428
725.000000	43.968645
724.000000	43.890753
723.000000	43.838726
722.000000	43.727659
721.000000	43.698341
720.000000	43.686083
719.000000	43.600473
718.000000	43.487856
717.000000	43.442345
716.000000	43.400570
715.000000	43.385399
714.000000	43.329667
713.000000	43.220768
712.000000	43.141285
711.000000	43.068670
710.000000	43.013976
709.000000	42.951767
708.000000	42.864900
707.000000	42.810682
706.000000	42.779159
705.000000	42.699078
704.000000	42.623494
703.000000	42.521200
702.000000	42.441785
701.000000	42.382224
700.000000	42.296356
699.000000	42.222774
698.000000	42.167977
697.000000	42.089013
696.000000	42.010210
695.000000	41.927260
694.000000	41.799341
693.000000	41.762477
692.000000	41.731445
691.000000	41.641059
690.000000	41.592650
689.000000	41.473789
688.000000	41.357825
687.000000	41.275625
686.000000	41.196335
685.000000	41.137123
684.000000	41.051489
683.000000	40.959695
682.000000	40.825305
681.000000	40.751833
680.000000	40.690424
679.000000	40.631134
678.000000	40.545085
677.000000	40.450514
676.000000	40.369631
675.000000	40.304836
674.000000	40.222838
673.000000	40.092969
672.000000	40.020320
671.000000	39.990541
670.000000	39.876707
669.000000	39.825039
668.000000	39.760956
667.000000	39.669848
666.000000	39.547882
665.000000	39.483175
664.000000	39.405025
663.000000	39.297026
662.000000	39.220912
661.000000	39.126540
660.000000	38.997051
659.000000	38.977584
658.000000	38.876523
657.000000	38.764796
656.000000	38.683016
655.000000	38.606842
654.000000	38.517031
653.000000	38.422389
652.000000	38.326664
651.000000	38.231066
650.000000	38.147895
649.000000	38.077831
648.000000	38.026393
647.000000	37.910438
646.000000	37.804723
645.000000	37.708605
644.000000	37.627111
643.000000	37.536354
642.000000	37.456261
641.000000	37.345704
640.000000	37.238010
639.000000	37.130499
638.000000	37.049651
637.000000	36.939642
636.000000	36.860303
635.000000	36.751196
634.000000	36.638875
633.000000	36.561483
632.000000	36.467674
631.000000	36.386128
630.000000	36.287315
629.000000	36.206530
628.000000	36.081749
627.000000	36.006699
626.000000	35.886417
625.000000	35.807916
624.000000	35.725759
623.000000	35.638497
622.000000	35.497162
621.000000	35.402503
620.000000	35.292534
619.000000	35.203057
618.000000	35.087114
617.000000	34.982161
616.000000	34.883120
615.000000	34.770304
614.000000	34.689870
613.000000	34.599981
612.000000	34.495589
611.000000	34.436950
610.000000	34.296817
609.000000	34.201536
608.000000	34.053819
607.000000	34.006769
606.000000	33.873423
605.000000	33.759320
604.000000	33.700719
603.000000	33.539092
602.000000	33.471022
601.000000	33.327248
600.000000	33.237179
599.000000	33.121778
598.000000	32.989646
597.000000	32.898807
596.000000	32.761706
595.000000	32.649239
594.000000	32.550005
593.000000	32.470325
592.000000	32.320765
591.000000	32.223862
590.000000	32.108841
589.000000	31.982409
588.000000	31.904792
587.000000	31.795975
586.000000	31.642668
585.000000	31.569995
584.000000	31.446021
583.000000	31.325561
582.000000	31.224762
581.000000	31.102693
580.000000	30.991999
579.000000	30.888750
578.000000	30.765775
577.000000	30.646245
576.000000	30.526212
575.000000	30.391814
574.000000	30.293728
573.000000	30.199646
572.000000	30.062668
571.000000	29.944936
570.000000	29.831116
569.000000	29.717336
568.000000	29.580045
567.000000	29.440639
566.000000	29.344561
565.000000	29.238715
564.000000	29.134913
563.000000	28.979587
562.000000	28.886748
561.000000	28.817797
560.000000	28.656893
559.000000	28.547106
558.000000	28.451147
557.000000	28.304627
556.000000	28.180540
555.000000	28.079633
554.000000	27.931910
553.000000	27.823891
552.000000	27.709731
551.000000	27.612384
550.000000	27.481531
549.000000	27.369051
548.000000	27.253261
547.000000	27.157118
546.000000	27.005644
545.000000	26.863075
544.000000	26.755656
543.000000	26.656862
542.000000	26.528418
541.000000	26.394887
540.000000	26.273793
539.000000	26.155897
538.000000	26.051035
537.000000	25.926322
536.000000	25.803287
535.000000	25.686013
534.000000	25.570628
533.000000	25.461959
532.000000	25.333948
531.000000	25.225794
530.000000	25.095327
529.000000	24.975352
528.000000	24.849757
527.000000	24.728693
526.000000	24.613220
525.000000	24.507339
524.000000	24.379042
523.000000	24.253254
522.000000	24.147883
521.000000	24.034059
520.000000	23.921075
519.000000	23.793400
518.000000	23.669793
517.000000	23.565669
516.000000	23.450496
515.000000	23.327527
514.000000	23.215572
513.000000	23.119298
512.000000	23.006324
511.000000	22.864140
510.000000	22.752073
509.000000	22.615418
508.000000	22.520071
507.000000	22.403762
506.000000	22.281295
505.000000	22.156647
504.000000	22.036045
503.000000	21.930043
502.000000	21.819092
501.000000	21.704685
500.000000	21.579191
499.000000	21.463146
498.000000	21.346628
497.000000	21.245406
496.000000	21.108707
495.000000	20.993872
494.000000	20.897489
493.000000	20.775630
492.000000	20.667133
491.000000	20.573883
490.000000	20.448310
489.000000	20.326588
488.000000	20.193327
487.000000	20.091350
486.000000	19.976791
485.000000	19.872693
484.000000	19.773967
483.000000	19.662181
482.000000	19.554393
481.000000	19.442306
480.000000	19.326379
479.000000	19.230181
478.000000	19.122187
477.000000	19.006404
476.000000	18.902485
475.000000	18.791721
474.000000	18.684375
473.000000	18.583652
472.000000	18.471010
471.000000	18.365954
470.000000	18.256980
469.000000	18.155143
468.000000	18.048929
467.000000	17.944624
466.000000	17.834735
465.000000	17.711041
464.000000	17.603071
463.000000	17.488487
462.000000	17.374531
461.000000	17.265540
460.000000	17.150380
459.000000	17.033476
458.000000	16.905102
457.000000	16.802968
456.000000	16.719369
455.000000	16.595104
454.000000	16.469657
453.000000	16.347623
452.000000	16.228516
451.000000	16.098679
450.000000	15.966949
449.000000	15.874557
448.000000	15.766022
447.000000	15.645998
446.000000	15.545700
445.000000	15.433892
444.000000	15.321728
443.000000	15.218681
442.000000	15.090007
441.000000	14.996024
440.000000	14.897142
439.000000	14.794760
438.000000	14.689726
437.000000	14.585614
436.000000	14.497074
435.000000	14.399901
434.000000	14.301058
433.000000	14.193248
432.000000	14.100516
431.000000	13.989671
430.000000	13.896658
429.000000	13.803453
428.000000	13.710984
427.000000	13.624651
426.000000	13.516831
425.000000	13.404407
424.000000	13.301246
423.000000	13.205162
422.000000	13.110311
421.000000	12.996586
420.000000	12.887284
419.000000	12.809254
418.000000	12.721117
417.000000	12.600147
416.000000	12.513996
415.000000	12.391960
414.000000	12.284066
413.000000	12.203308
412.000000	12.096092
411.000000	12.008545
410.000000	11.908556
409.000000	11.789569
408.000000	11.680492
407.000000	11.591926
406.000000	11.504793
405.000000	11.394023
404.000000	11.293867
403.000000	11.198695
402.000000	11.090481
401.000000	11.002271
400.000000	10.913168
399.000000	10.807231
398.000000	10.716566
397.000000	10.608208
396.000000	10.516672
395.000000	10.437822
394.000000	10.357396
393.000000	10.255042
392.000000	10.183360
391.000000	10.096448
390.000000	9.984457
389.000000	9.869257
388.000000	9.802139
387.000000	9.694784
386.000000	9.633413
385.000000	9.543248
384.000000	9.453028
383.000000	9.357994
382.000000	9.278071
381.000000	9.170279
380.000000	9.114436
379.000000	9.034835
378.000000	8.932306
377.000000	8.856163
376.000000	8.834312
375.000000	8.728365
374.000000	8.693546
373.000000	8.558978
372.000000	8.521399
371.000000	8.438118
370.000000	8.350150
369.000000	8.290195
368.000000	8.225181
367.000000	8.193279
366.000000	8.127209
365.000000	8.051028
364.000000	8.005620
363.000000	7.957801
362.000000	7.920135
361.000000	7.841313
360.000000	7.829997
359.000000	7.766192
358.000000	7.719624
357.000000	7.640500
356.000000	7.626407
355.000000	7.589480
354.000000	7.559631
353.000000	7.503178
352.000000	7.452016
351.000000	7.432773
350.000000	7.416831
349.000000	7.369028
348.000000	7.303619
347.000000	7.281661
346.000000	7.212180
345.000000	7.207019
344.000000	7.162620
343.000000	7.114581
342.000000	7.072067
341.000000	7.026830
340.000000	7.017013
339.000000	7.014570
338.000000	6.960086
337.000000	6.947927
336.000000	6.875351
335.000000	6.854725
334.000000	6.790685
333.000000	6.748880
332.000000	6.657440
331.000000	6.750761
330.000000	6.719334
329.000000	6.646173
328.000000	6.629016
327.000000	6.582000
326.000000	6.544385
325.000000	6.544219
324.000000	6.537704
323.000000	6.588356
322.000000	6.584709
321.000000	6.493861
320.000000	6.508836
319.000000	6.498449
318.000000	6.457102
317.000000	6.432351
316.000000	6.481733
315.000000	6.430973
314.000000	6.422392
313.000000	6.403291
312.000000	6.385512
311.000000	6.376329
310.000000	6.429494
309.000000	6.406980
308.000000	6.397414
307.000000	6.313071
306.000000	6.385871
305.000000	6.394659
304.000000	6.390627
303.000000	6.411641
302.000000	6.423251
301.000000	6.386916
300.000000	6.420477
299.000000	6.400362
298.000000	6.415154
297.000000	6.432227
296.000000	6.433915
295.000000	6.476043
294.000000	6.505786
293.000000	6.471089
292.000000	6.474604
291.000000	6.540129
290.000000	6.523084
289.000000	6.528392
288.000000	6.527328
287.000000	6.629207
286.000000	6.638350
285.000000	6.658656
284.000000	6.671459
283.000000	6.718840
282.000000	6.807931
281.000000	6.809864
280.000000	6.904477
279.000000	6.939044
278.000000	6.956511
277.000000	6.983794
276.000000	7.038613
275.000000	7.104528
274.000000	7.197763
273.000000	7.225605
272.000000	7.271865
271.000000	7.331752
270.000000	7.407226
269.000000	7.447535
268.000000	7.534524
267.000000	7.614733
266.000000	7.646925
265.000000	7.763797
264.000000	7.807858
263.000000	7.841959
262.000000	7.942171
261.000000	8.012679
260.000000	8.162511
259.000000	8.279116
258.000000	8.326715
257.000000	8.406056
256.000000	8.493412
255.000000	8.624030
254.000000	8.719939
253.000000	8.799672
252.000000	8.903471
251.000000	9.022393
250.000000	9.118929
249.000000	9.195214
248.000000	9.325841
247.000000	9.473317
246.000000	9.557928
245.000000	9.610827
244.000000	9.724880
243.000000	9.793449
242.000000	9.839523
241.000000	9.923045
240.000000	10.039860
239.000000	10.067252
238.000000	10.118096
237.000000	10.205631
236.000000	10.259117
235.000000	10.259873
234.000000	10.287818
233.000000	10.352339
232.000000	10.377360
231.000000	10.410751
230.000000	10.452423
229.000000	10.479690
228.000000	10.547475
227.000000	10.643761
226.000000	10.711609
225.000000	10.780043
224.000000	10.836338
223.000000	10.882274
222.000000	11.042435
221.000000	11.159519
220.000000	11.340969
219.000000	11.528831
218.000000	11.563522
217.000000	11.670159
216.000000	11.821562
215.000000	12.004954
214.000000	12.249287
213.000000	12.575263
212.000000	12.807752
211.000000	13.028037
210.000000	13.252175
209.000000	13.482647
208.000000	13.847156
207.000000	14.304772
206.000000	14.663257
205.000000	15.118910
204.000000	15.458377
203.000000	15.773073
202.000000	16.339271
201.000000	16.897710
200.000000	17.294022
