PE UV       SUBTECH     SPECTRUM    ASCII       PEDS        4.00        
   -1
RTms1482161.Sample.asc
18/03/15
12:22:22.00
18/03/15
12:22:22.00
Administrator

200.000000
1
Lambda 750
750N8071901
PerkinElmer UV WinLab 6.0.4.0738 / 1.61.00 Lambda 900

0
0
3350/servo 860.8/2
0
0
UV/VIS
1
1
1
CommonBeamDepol,150mm sphere / downward view
0
0
0
0
Program
Program
3350/servo 860.8/2
3350/0.2 860.8/0.2
3350/0.2 860.8/0.2
0
1
 
 
 
0
 
860.8
319.2
860.8
Front
100
on
 
 
0
0
0
 
0
 
 
 
0
 
 
0
0
0
0
0
 
 
 
 
0
0


0
0
#HDR
-1
-1
#GR
nm
%R
1.0
0.0
2350.000000
-1.000000
2151
8
71.338550
7.809145
#DATA
2350.000000	35.958720
2349.000000	36.025719
2348.000000	35.812558
2347.000000	36.337782
2346.000000	36.338718
2345.000000	36.109060
2344.000000	36.086521
2343.000000	35.911191
2342.000000	36.102496
2341.000000	36.451269
2340.000000	36.269432
2339.000000	36.564617
2338.000000	36.537179
2337.000000	36.375128
2336.000000	36.568504
2335.000000	36.637532
2334.000000	36.791494
2333.000000	36.874430
2332.000000	36.663764
2331.000000	36.873578
2330.000000	36.935452
2329.000000	36.528512
2328.000000	36.669988
2327.000000	36.693426
2326.000000	36.710371
2325.000000	36.704694
2324.000000	36.433872
2323.000000	36.385925
2322.000000	36.306487
2321.000000	36.555525
2320.000000	36.481020
2319.000000	36.375218
2318.000000	36.258495
2317.000000	35.948787
2316.000000	35.825362
2315.000000	35.620682
2314.000000	35.707350
2313.000000	35.599009
2312.000000	35.472839
2311.000000	35.618295
2310.000000	35.549691
2309.000000	35.526893
2308.000000	35.430259
2307.000000	35.079617
2306.000000	35.211490
2305.000000	35.288933
2304.000000	35.142556
2303.000000	35.256579
2302.000000	35.163608
2301.000000	34.990580
2300.000000	34.805155
2299.000000	34.857498
2298.000000	34.823248
2297.000000	34.657600
2296.000000	34.587470
2295.000000	34.438951
2294.000000	34.464957
2293.000000	34.601736
2292.000000	34.533908
2291.000000	34.446244
2290.000000	34.385401
2289.000000	34.421870
2288.000000	34.427574
2287.000000	34.389279
2286.000000	34.366218
2285.000000	34.188607
2284.000000	34.238568
2283.000000	34.300568
2282.000000	34.358182
2281.000000	34.369134
2280.000000	34.317142
2279.000000	34.269119
2278.000000	34.434107
2277.000000	34.418403
2276.000000	34.359307
2275.000000	34.470342
2274.000000	34.597722
2273.000000	34.750154
2272.000000	34.835017
2271.000000	34.816417
2270.000000	34.952078
2269.000000	35.009002
2268.000000	35.035404
2267.000000	35.189478
2266.000000	35.441067
2265.000000	35.549460
2264.000000	35.630443
2263.000000	35.651692
2262.000000	35.773674
2261.000000	36.011428
2260.000000	36.199075
2259.000000	36.415068
2258.000000	36.721744
2257.000000	36.788581
2256.000000	36.995534
2255.000000	37.368622
2254.000000	37.456993
2253.000000	37.610493
2252.000000	37.846981
2251.000000	38.018883
2250.000000	38.323501
2249.000000	38.576843
2248.000000	38.739560
2247.000000	38.952424
2246.000000	39.093365
2245.000000	39.303595
2244.000000	39.564362
2243.000000	39.794362
2242.000000	39.852560
2241.000000	40.041478
2240.000000	40.335480
2239.000000	40.367162
2238.000000	40.434620
2237.000000	40.588335
2236.000000	40.767428
2235.000000	40.912645
2234.000000	40.985235
2233.000000	41.059124
2232.000000	41.019955
2231.000000	41.106588
2230.000000	41.122149
2229.000000	41.124342
2228.000000	41.209394
2227.000000	41.173130
2226.000000	41.149135
2225.000000	41.154672
2224.000000	41.216731
2223.000000	41.161066
2222.000000	41.031230
2221.000000	40.970655
2220.000000	40.993566
2219.000000	40.912830
2218.000000	40.862845
2217.000000	40.795076
2216.000000	40.815444
2215.000000	40.873306
2214.000000	40.912449
2213.000000	40.721805
2212.000000	40.558033
2211.000000	40.519271
2210.000000	40.528568
2209.000000	40.359442
2208.000000	40.319645
2207.000000	40.299587
2206.000000	40.294352
2205.000000	40.178323
2204.000000	40.092641
2203.000000	39.962870
2202.000000	39.917705
2201.000000	39.893992
2200.000000	39.775782
2199.000000	39.674866
2198.000000	39.607935
2197.000000	39.502303
2196.000000	39.358751
2195.000000	39.372911
2194.000000	39.191009
2193.000000	39.165055
2192.000000	39.151745
2191.000000	39.130083
2190.000000	39.018456
2189.000000	38.843679
2188.000000	38.709544
2187.000000	38.692756
2186.000000	38.749994
2185.000000	38.774557
2184.000000	38.819104
2183.000000	38.775755
2182.000000	38.676586
2181.000000	38.684984
2180.000000	38.565827
2179.000000	38.534193
2178.000000	38.512795
2177.000000	38.619275
2176.000000	38.541755
2175.000000	38.544821
2174.000000	38.688358
2173.000000	38.642189
2172.000000	38.602687
2171.000000	38.801122
2170.000000	38.908326
2169.000000	39.049259
2168.000000	39.202284
2167.000000	39.125061
2166.000000	39.280244
2165.000000	39.419780
2164.000000	39.382498
2163.000000	39.483020
2162.000000	39.621509
2161.000000	39.848216
2160.000000	39.901589
2159.000000	40.047503
2158.000000	40.275561
2157.000000	40.329065
2156.000000	40.687485
2155.000000	40.597802
2154.000000	40.844491
2153.000000	40.980885
2152.000000	41.102281
2151.000000	41.265575
2150.000000	41.434913
2149.000000	41.715480
2148.000000	41.695316
2147.000000	41.962975
2146.000000	42.042838
2145.000000	42.375087
2144.000000	42.397636
2143.000000	42.371107
2142.000000	42.495349
2141.000000	42.643624
2140.000000	42.900118
2139.000000	43.062196
2138.000000	43.108785
2137.000000	43.244755
2136.000000	43.448378
2135.000000	43.514015
2134.000000	43.763978
2133.000000	43.710821
2132.000000	43.780556
2131.000000	44.054599
2130.000000	44.094478
2129.000000	44.142713
2128.000000	44.212407
2127.000000	44.245902
2126.000000	44.298398
2125.000000	44.350307
2124.000000	44.417755
2123.000000	44.441715
2122.000000	44.504620
2121.000000	44.576510
2120.000000	44.635048
2119.000000	44.594951
2118.000000	44.675580
2117.000000	44.764049
2116.000000	44.904396
2115.000000	44.907654
2114.000000	44.935528
2113.000000	44.847886
2112.000000	44.882447
2111.000000	44.862724
2110.000000	44.930029
2109.000000	45.099099
2108.000000	45.048716
2107.000000	45.018531
2106.000000	44.987470
2105.000000	45.057681
2104.000000	45.094877
2103.000000	45.103614
2102.000000	44.977535
2101.000000	45.196527
2100.000000	45.139445
2099.000000	45.029989
2098.000000	45.032600
2097.000000	45.105938
2096.000000	45.119349
2095.000000	45.176800
2094.000000	45.142776
2093.000000	44.973130
2092.000000	44.811124
2091.000000	44.867471
2090.000000	44.907972
2089.000000	44.758060
2088.000000	44.829050
2087.000000	44.676919
2086.000000	44.699374
2085.000000	44.677808
2084.000000	44.626226
2083.000000	44.544209
2082.000000	44.430901
2081.000000	44.444501
2080.000000	44.336179
2079.000000	44.230730
2078.000000	44.177627
2077.000000	44.044327
2076.000000	44.019258
2075.000000	43.813674
2074.000000	43.741857
2073.000000	43.530523
2072.000000	43.364680
2071.000000	43.285285
2070.000000	43.202298
2069.000000	42.993248
2068.000000	42.885410
2067.000000	42.776195
2066.000000	42.577742
2065.000000	42.331808
2064.000000	42.216526
2063.000000	42.077896
2062.000000	41.888580
2061.000000	41.754063
2060.000000	41.620921
2059.000000	41.420313
2058.000000	41.318960
2057.000000	41.209797
2056.000000	41.099158
2055.000000	40.976400
2054.000000	40.734080
2053.000000	40.555502
2052.000000	40.455655
2051.000000	40.368569
2050.000000	40.303899
2049.000000	40.197831
2048.000000	40.129845
2047.000000	40.073400
2046.000000	39.989550
2045.000000	39.941308
2044.000000	39.933110
2043.000000	39.979924
2042.000000	39.935034
2041.000000	39.972966
2040.000000	40.039939
2039.000000	40.002224
2038.000000	40.076533
2037.000000	40.202910
2036.000000	40.307018
2035.000000	40.401467
2034.000000	40.505976
2033.000000	40.574528
2032.000000	40.666253
2031.000000	40.768708
2030.000000	40.870983
2029.000000	41.017995
2028.000000	41.133757
2027.000000	41.216930
2026.000000	41.297203
2025.000000	41.383364
2024.000000	41.471788
2023.000000	41.547932
2022.000000	41.582030
2021.000000	41.583525
2020.000000	41.648364
2019.000000	41.663739
2018.000000	41.653627
2017.000000	41.653887
2016.000000	41.625619
2015.000000	41.580149
2014.000000	41.529904
2013.000000	41.506397
2012.000000	41.508095
2011.000000	41.461866
2010.000000	41.370192
2009.000000	41.258363
2008.000000	41.171699
2007.000000	41.066437
2006.000000	40.947524
2005.000000	40.820738
2004.000000	40.744167
2003.000000	40.648327
2002.000000	40.512302
2001.000000	40.347767
2000.000000	40.213814
1999.000000	40.133080
1998.000000	39.996152
1997.000000	39.874372
1996.000000	39.771202
1995.000000	39.653109
1994.000000	39.525427
1993.000000	39.376734
1992.000000	39.228333
1991.000000	39.121983
1990.000000	38.978734
1989.000000	38.858428
1988.000000	38.723559
1987.000000	38.579416
1986.000000	38.423275
1985.000000	38.287719
1984.000000	38.168407
1983.000000	38.072938
1982.000000	37.955433
1981.000000	37.826684
1980.000000	37.691187
1979.000000	37.563666
1978.000000	37.448618
1977.000000	37.297144
1976.000000	37.173119
1975.000000	37.064170
1974.000000	36.952057
1973.000000	36.843525
1972.000000	36.740166
1971.000000	36.622771
1970.000000	36.512000
1969.000000	36.389226
1968.000000	36.249418
1967.000000	36.157188
1966.000000	36.102392
1965.000000	35.946601
1964.000000	35.821348
1963.000000	35.723475
1962.000000	35.615167
1961.000000	35.506897
1960.000000	35.448382
1959.000000	35.304646
1958.000000	35.212316
1957.000000	35.163916
1956.000000	35.053146
1955.000000	34.978127
1954.000000	34.902539
1953.000000	34.820292
1952.000000	34.735065
1951.000000	34.716959
1950.000000	34.654436
1949.000000	34.570182
1948.000000	34.540743
1947.000000	34.531253
1946.000000	34.516394
1945.000000	34.528173
1944.000000	34.472069
1943.000000	34.466948
1942.000000	34.466142
1941.000000	34.509903
1940.000000	34.575257
1939.000000	34.572660
1938.000000	34.604112
1937.000000	34.758945
1936.000000	34.869983
1935.000000	34.944677
1934.000000	35.122292
1933.000000	35.215385
1932.000000	35.337556
1931.000000	35.480056
1930.000000	35.661658
1929.000000	35.852210
1928.000000	36.024594
1927.000000	36.310639
1926.000000	36.517963
1925.000000	36.754109
1924.000000	37.013226
1923.000000	37.341949
1922.000000	37.651928
1921.000000	37.926395
1920.000000	38.230194
1919.000000	38.578955
1918.000000	38.961256
1917.000000	39.251437
1916.000000	39.511960
1915.000000	40.012416
1914.000000	40.499501
1913.000000	40.932017
1912.000000	41.324773
1911.000000	41.765268
1910.000000	42.240047
1909.000000	42.684378
1908.000000	43.199215
1907.000000	43.753764
1906.000000	44.278721
1905.000000	44.798823
1904.000000	45.376656
1903.000000	45.849714
1902.000000	46.468144
1901.000000	47.065179
1900.000000	47.609842
1899.000000	48.177683
1898.000000	48.777153
1897.000000	49.270997
1896.000000	49.772382
1895.000000	50.416204
1894.000000	50.995126
1893.000000	51.514918
1892.000000	52.065823
1891.000000	52.549859
1890.000000	53.078733
1889.000000	53.549318
1888.000000	53.984322
1887.000000	54.459556
1886.000000	54.880144
1885.000000	55.312457
1884.000000	55.667570
1883.000000	56.091467
1882.000000	56.480012
1881.000000	56.880174
1880.000000	57.192394
1879.000000	57.507223
1878.000000	57.852309
1877.000000	58.178630
1876.000000	58.457223
1875.000000	58.764023
1874.000000	58.968852
1873.000000	59.176123
1872.000000	59.383767
1871.000000	59.613135
1870.000000	59.822383
1869.000000	60.011215
1868.000000	60.187677
1867.000000	60.297662
1866.000000	60.383215
1865.000000	60.514442
1864.000000	60.591913
1863.000000	60.686710
1862.000000	60.792385
1861.000000	60.898905
1860.000000	60.946867
1859.000000	60.978744
1858.000000	61.021464
1857.000000	61.082107
1856.000000	61.082298
1855.000000	61.114536
1854.000000	61.196187
1853.000000	61.201667
1852.000000	61.194143
1851.000000	61.204117
1850.000000	61.215084
1849.000000	61.245279
1848.000000	61.196678
1847.000000	61.227225
1846.000000	61.260517
1845.000000	61.254483
1844.000000	61.198029
1843.000000	61.159585
1842.000000	61.143970
1841.000000	61.125603
1840.000000	61.098411
1839.000000	61.083906
1838.000000	61.049247
1837.000000	60.985641
1836.000000	60.896521
1835.000000	60.871561
1834.000000	60.861475
1833.000000	60.819061
1832.000000	60.781544
1831.000000	60.742644
1830.000000	60.711336
1829.000000	60.668824
1828.000000	60.613841
1827.000000	60.577869
1826.000000	60.521436
1825.000000	60.470905
1824.000000	60.448736
1823.000000	60.412521
1822.000000	60.370772
1821.000000	60.324489
1820.000000	60.293826
1819.000000	60.283502
1818.000000	60.273313
1817.000000	60.233718
1816.000000	60.164238
1815.000000	60.138140
1814.000000	60.104888
1813.000000	60.051919
1812.000000	60.026976
1811.000000	60.005575
1810.000000	59.964504
1809.000000	59.935760
1808.000000	59.910404
1807.000000	59.867382
1806.000000	59.822220
1805.000000	59.794976
1804.000000	59.761272
1803.000000	59.724875
1802.000000	59.716561
1801.000000	59.713260
1800.000000	59.687852
1799.000000	59.630711
1798.000000	59.593078
1797.000000	59.593261
1796.000000	59.572936
1795.000000	59.519825
1794.000000	59.510588
1793.000000	59.494057
1792.000000	59.451540
1791.000000	59.443096
1790.000000	59.424663
1789.000000	59.407618
1788.000000	59.396637
1787.000000	59.344337
1786.000000	59.325153
1785.000000	59.294882
1784.000000	59.258748
1783.000000	59.238599
1782.000000	59.195164
1781.000000	59.178614
1780.000000	59.140422
1779.000000	59.094187
1778.000000	59.060869
1777.000000	58.987564
1776.000000	58.919553
1775.000000	58.880146
1774.000000	58.825063
1773.000000	58.783281
1772.000000	58.740910
1771.000000	58.691851
1770.000000	58.616893
1769.000000	58.558314
1768.000000	58.480116
1767.000000	58.435651
1766.000000	58.409457
1765.000000	58.363774
1764.000000	58.297230
1763.000000	58.224426
1762.000000	58.169445
1761.000000	58.140915
1760.000000	58.096813
1759.000000	58.044538
1758.000000	57.999685
1757.000000	57.937122
1756.000000	57.915336
1755.000000	57.870247
1754.000000	57.813334
1753.000000	57.753223
1752.000000	57.692854
1751.000000	57.675514
1750.000000	57.621784
1749.000000	57.586962
1748.000000	57.465180
1747.000000	57.385475
1746.000000	57.366762
1745.000000	57.254477
1744.000000	57.195215
1743.000000	57.140394
1742.000000	57.065852
1741.000000	57.017251
1740.000000	56.957189
1739.000000	56.901584
1738.000000	56.837916
1737.000000	56.818290
1736.000000	56.767103
1735.000000	56.762233
1734.000000	56.753484
1733.000000	56.741064
1732.000000	56.721637
1731.000000	56.720756
1730.000000	56.757645
1729.000000	56.775623
1728.000000	56.870079
1727.000000	56.917347
1726.000000	56.954378
1725.000000	57.058409
1724.000000	57.121124
1723.000000	57.209188
1722.000000	57.325624
1721.000000	57.399642
1720.000000	57.521635
1719.000000	57.637482
1718.000000	57.740719
1717.000000	57.829747
1716.000000	57.940251
1715.000000	58.032793
1714.000000	58.139259
1713.000000	58.229646
1712.000000	58.304160
1711.000000	58.387563
1710.000000	58.494822
1709.000000	58.534983
1708.000000	58.608749
1707.000000	58.675162
1706.000000	58.720381
1705.000000	58.772334
1704.000000	58.789319
1703.000000	58.802548
1702.000000	58.870226
1701.000000	58.881788
1700.000000	58.942467
1699.000000	58.931921
1698.000000	58.991603
1697.000000	59.013679
1696.000000	59.083215
1695.000000	59.114730
1694.000000	59.170194
1693.000000	59.229191
1692.000000	59.274504
1691.000000	59.345521
1690.000000	59.439637
1689.000000	59.519002
1688.000000	59.652788
1687.000000	59.770135
1686.000000	59.878813
1685.000000	59.986862
1684.000000	60.132733
1683.000000	60.274765
1682.000000	60.451585
1681.000000	60.617394
1680.000000	60.728537
1679.000000	60.907991
1678.000000	61.096229
1677.000000	61.268936
1676.000000	61.415841
1675.000000	61.617619
1674.000000	61.791586
1673.000000	61.918918
1672.000000	62.078248
1671.000000	62.216567
1670.000000	62.370582
1669.000000	62.535105
1668.000000	62.648944
1667.000000	62.773474
1666.000000	62.853839
1665.000000	62.953091
1664.000000	63.044844
1663.000000	63.093091
1662.000000	63.199413
1661.000000	63.265567
1660.000000	63.323396
1659.000000	63.383649
1658.000000	63.450086
1657.000000	63.496094
1656.000000	63.510156
1655.000000	63.575688
1654.000000	63.582304
1653.000000	63.595129
1652.000000	63.614410
1651.000000	63.615755
1650.000000	63.615375
1649.000000	63.617036
1648.000000	63.601420
1647.000000	63.598814
1646.000000	63.585016
1645.000000	63.576847
1644.000000	63.580698
1643.000000	63.559876
1642.000000	63.543000
1641.000000	63.510049
1640.000000	63.493535
1639.000000	63.483726
1638.000000	63.455518
1637.000000	63.422007
1636.000000	63.369375
1635.000000	63.344469
1634.000000	63.321877
1633.000000	63.298727
1632.000000	63.259600
1631.000000	63.222431
1630.000000	63.176490
1629.000000	63.154199
1628.000000	63.093507
1627.000000	63.058640
1626.000000	63.034429
1625.000000	62.979342
1624.000000	62.938749
1623.000000	62.900274
1622.000000	62.856946
1621.000000	62.801752
1620.000000	62.752993
1619.000000	62.704079
1618.000000	62.639355
1617.000000	62.584765
1616.000000	62.530079
1615.000000	62.477494
1614.000000	62.432759
1613.000000	62.375098
1612.000000	62.317913
1611.000000	62.268783
1610.000000	62.217210
1609.000000	62.166724
1608.000000	62.097719
1607.000000	62.034856
1606.000000	61.970253
1605.000000	61.919502
1604.000000	61.848856
1603.000000	61.780635
1602.000000	61.733757
1601.000000	61.666950
1600.000000	61.596002
1599.000000	61.545405
1598.000000	61.487451
1597.000000	61.430030
1596.000000	61.378821
1595.000000	61.330933
1594.000000	61.270801
1593.000000	61.217865
1592.000000	61.170534
1591.000000	61.106282
1590.000000	61.055562
1589.000000	61.006900
1588.000000	60.943325
1587.000000	60.900696
1586.000000	60.865525
1585.000000	60.814553
1584.000000	60.761714
1583.000000	60.717810
1582.000000	60.673835
1581.000000	60.632885
1580.000000	60.589634
1579.000000	60.536691
1578.000000	60.498472
1577.000000	60.447689
1576.000000	60.398431
1575.000000	60.362636
1574.000000	60.292425
1573.000000	60.243855
1572.000000	60.203073
1571.000000	60.173276
1570.000000	60.130304
1569.000000	60.092226
1568.000000	60.048381
1567.000000	60.003707
1566.000000	59.964221
1565.000000	59.936511
1564.000000	59.918792
1563.000000	59.899282
1562.000000	59.853128
1561.000000	59.814290
1560.000000	59.784743
1559.000000	59.762226
1558.000000	59.739553
1557.000000	59.719953
1556.000000	59.697483
1555.000000	59.666336
1554.000000	59.651522
1553.000000	59.608757
1552.000000	59.559781
1551.000000	59.516798
1550.000000	59.470587
1549.000000	59.429628
1548.000000	59.387565
1547.000000	59.332462
1546.000000	59.287029
1545.000000	59.224017
1544.000000	59.136931
1543.000000	59.067402
1542.000000	59.002138
1541.000000	58.903928
1540.000000	58.820778
1539.000000	58.745512
1538.000000	58.645649
1537.000000	58.547784
1536.000000	58.471775
1535.000000	58.383763
1534.000000	58.297419
1533.000000	58.244867
1532.000000	58.149931
1531.000000	58.070603
1530.000000	57.990690
1529.000000	57.904796
1528.000000	57.839203
1527.000000	57.768671
1526.000000	57.701253
1525.000000	57.636521
1524.000000	57.561500
1523.000000	57.515710
1522.000000	57.458340
1521.000000	57.420489
1520.000000	57.347736
1519.000000	57.311503
1518.000000	57.288767
1517.000000	57.261891
1516.000000	57.242380
1515.000000	57.251351
1514.000000	57.249296
1513.000000	57.254558
1512.000000	57.204567
1511.000000	57.162492
1510.000000	57.130687
1509.000000	57.083805
1508.000000	57.060261
1507.000000	57.054254
1506.000000	57.023563
1505.000000	56.988844
1504.000000	56.967106
1503.000000	56.974649
1502.000000	56.980323
1501.000000	56.951697
1500.000000	56.945324
1499.000000	56.973950
1498.000000	56.974277
1497.000000	56.975650
1496.000000	56.969692
1495.000000	56.987832
1494.000000	56.986472
1493.000000	57.001767
1492.000000	57.005312
1491.000000	57.026803
1490.000000	57.069364
1489.000000	57.087965
1488.000000	57.101376
1487.000000	57.140976
1486.000000	57.144029
1485.000000	57.158032
1484.000000	57.197283
1483.000000	57.258745
1482.000000	57.279459
1481.000000	57.336168
1480.000000	57.366768
1479.000000	57.409123
1478.000000	57.455967
1477.000000	57.453558
1476.000000	57.516313
1475.000000	57.548245
1474.000000	57.590314
1473.000000	57.624466
1472.000000	57.659628
1471.000000	57.702864
1470.000000	57.731463
1469.000000	57.786398
1468.000000	57.852421
1467.000000	57.874309
1466.000000	57.915259
1465.000000	57.933167
1464.000000	57.958829
1463.000000	58.027063
1462.000000	58.045159
1461.000000	58.115802
1460.000000	58.139142
1459.000000	58.192709
1458.000000	58.256925
1457.000000	58.275324
1456.000000	58.315879
1455.000000	58.360011
1454.000000	58.421771
1453.000000	58.493866
1452.000000	58.560343
1451.000000	58.632433
1450.000000	58.666155
1449.000000	58.748913
1448.000000	58.827155
1447.000000	58.869568
1446.000000	58.947962
1445.000000	59.020861
1444.000000	59.106922
1443.000000	59.173428
1442.000000	59.265509
1441.000000	59.360602
1440.000000	59.448636
1439.000000	59.511864
1438.000000	59.603760
1437.000000	59.697235
1436.000000	59.792128
1435.000000	59.894856
1434.000000	60.001295
1433.000000	60.113050
1432.000000	60.216696
1431.000000	60.339302
1430.000000	60.448831
1429.000000	60.578457
1428.000000	60.700706
1427.000000	60.831947
1426.000000	60.978362
1425.000000	61.124135
1424.000000	61.279152
1423.000000	61.419940
1422.000000	61.580245
1421.000000	61.720389
1420.000000	61.886036
1419.000000	62.054544
1418.000000	62.209080
1417.000000	62.372913
1416.000000	62.555063
1415.000000	62.738315
1414.000000	62.924611
1413.000000	63.106259
1412.000000	63.306911
1411.000000	63.490835
1410.000000	63.657340
1409.000000	63.856237
1408.000000	64.061258
1407.000000	64.235510
1406.000000	64.392412
1405.000000	64.570737
1404.000000	64.764564
1403.000000	64.938912
1402.000000	65.108118
1401.000000	65.288784
1400.000000	65.470495
1399.000000	65.636293
1398.000000	65.773094
1397.000000	65.924516
1396.000000	66.066642
1395.000000	66.185768
1394.000000	66.336194
1393.000000	66.475137
1392.000000	66.597884
1391.000000	66.740627
1390.000000	66.859860
1389.000000	66.993497
1388.000000	67.133793
1387.000000	67.247476
1386.000000	67.340022
1385.000000	67.436313
1384.000000	67.556475
1383.000000	67.652962
1382.000000	67.713185
1381.000000	67.801100
1380.000000	67.890980
1379.000000	67.973329
1378.000000	68.047872
1377.000000	68.120813
1376.000000	68.165981
1375.000000	68.201555
1374.000000	68.255143
1373.000000	68.293912
1372.000000	68.339391
1371.000000	68.402133
1370.000000	68.449520
1369.000000	68.493555
1368.000000	68.520467
1367.000000	68.556516
1366.000000	68.622394
1365.000000	68.662841
1364.000000	68.692653
1363.000000	68.735546
1362.000000	68.783057
1361.000000	68.829239
1360.000000	68.861874
1359.000000	68.939137
1358.000000	68.992935
1357.000000	69.029795
1356.000000	69.086806
1355.000000	69.106852
1354.000000	69.177542
1353.000000	69.232796
1352.000000	69.295140
1351.000000	69.340383
1350.000000	69.365532
1349.000000	69.407860
1348.000000	69.473224
1347.000000	69.525891
1346.000000	69.571180
1345.000000	69.611048
1344.000000	69.654418
1343.000000	69.681619
1342.000000	69.749398
1341.000000	69.787177
1340.000000	69.814217
1339.000000	69.838681
1338.000000	69.882657
1337.000000	69.928117
1336.000000	69.956523
1335.000000	70.002273
1334.000000	70.032633
1333.000000	70.038708
1332.000000	70.062840
1331.000000	70.110656
1330.000000	70.148219
1329.000000	70.166275
1328.000000	70.182317
1327.000000	70.201904
1326.000000	70.233600
1325.000000	70.264499
1324.000000	70.250109
1323.000000	70.285455
1322.000000	70.310338
1321.000000	70.321065
1320.000000	70.323508
1319.000000	70.328980
1318.000000	70.343825
1317.000000	70.388845
1316.000000	70.402567
1315.000000	70.419589
1314.000000	70.400932
1313.000000	70.413739
1312.000000	70.416457
1311.000000	70.459845
1310.000000	70.455864
1309.000000	70.456180
1308.000000	70.478277
1307.000000	70.488006
1306.000000	70.473491
1305.000000	70.495762
1304.000000	70.481466
1303.000000	70.528703
1302.000000	70.528573
1301.000000	70.540796
1300.000000	70.519392
1299.000000	70.512697
1298.000000	70.540313
1297.000000	70.534045
1296.000000	70.531838
1295.000000	70.509684
1294.000000	70.513131
1293.000000	70.523042
1292.000000	70.516066
1291.000000	70.499860
1290.000000	70.504411
1289.000000	70.506890
1288.000000	70.490889
1287.000000	70.491318
1286.000000	70.480174
1285.000000	70.481649
1284.000000	70.434273
1283.000000	70.474640
1282.000000	70.462649
1281.000000	70.468241
1280.000000	70.455998
1279.000000	70.468476
1278.000000	70.477019
1277.000000	70.453442
1276.000000	70.458037
1275.000000	70.450907
1274.000000	70.445317
1273.000000	70.454756
1272.000000	70.460427
1271.000000	70.452360
1270.000000	70.462971
1269.000000	70.469064
1268.000000	70.462408
1267.000000	70.469012
1266.000000	70.485748
1265.000000	70.439702
1264.000000	70.495736
1263.000000	70.484103
1262.000000	70.527651
1261.000000	70.504807
1260.000000	70.497815
1259.000000	70.490275
1258.000000	70.509305
1257.000000	70.500456
1256.000000	70.493120
1255.000000	70.531538
1254.000000	70.506088
1253.000000	70.521541
1252.000000	70.502477
1251.000000	70.502175
1250.000000	70.492063
1249.000000	70.483108
1248.000000	70.473666
1247.000000	70.484432
1246.000000	70.479159
1245.000000	70.429363
1244.000000	70.440896
1243.000000	70.440757
1242.000000	70.415886
1241.000000	70.406003
1240.000000	70.386351
1239.000000	70.350520
1238.000000	70.312598
1237.000000	70.295406
1236.000000	70.294310
1235.000000	70.283950
1234.000000	70.254920
1233.000000	70.224727
1232.000000	70.201295
1231.000000	70.169947
1230.000000	70.152331
1229.000000	70.131338
1228.000000	70.088230
1227.000000	70.087128
1226.000000	70.074939
1225.000000	70.045067
1224.000000	70.034741
1223.000000	70.032313
1222.000000	70.020000
1221.000000	69.964717
1220.000000	69.955487
1219.000000	69.937946
1218.000000	69.919270
1217.000000	69.905532
1216.000000	69.881860
1215.000000	69.851935
1214.000000	69.809757
1213.000000	69.788106
1212.000000	69.792100
1211.000000	69.739175
1210.000000	69.713446
1209.000000	69.728665
1208.000000	69.680777
1207.000000	69.658161
1206.000000	69.614276
1205.000000	69.618049
1204.000000	69.563577
1203.000000	69.533630
1202.000000	69.556158
1201.000000	69.513465
1200.000000	69.469023
1199.000000	69.443897
1198.000000	69.447488
1197.000000	69.426244
1196.000000	69.378981
1195.000000	69.350457
1194.000000	69.342983
1193.000000	69.321222
1192.000000	69.310979
1191.000000	69.301110
1190.000000	69.281732
1189.000000	69.255534
1188.000000	69.251754
1187.000000	69.233315
1186.000000	69.238374
1185.000000	69.253033
1184.000000	69.248118
1183.000000	69.254637
1182.000000	69.290024
1181.000000	69.312180
1180.000000	69.326379
1179.000000	69.354456
1178.000000	69.380647
1177.000000	69.407995
1176.000000	69.444746
1175.000000	69.487652
1174.000000	69.512775
1173.000000	69.557634
1172.000000	69.607546
1171.000000	69.658675
1170.000000	69.699706
1169.000000	69.742474
1168.000000	69.793708
1167.000000	69.843686
1166.000000	69.910121
1165.000000	69.956470
1164.000000	69.999699
1163.000000	70.049609
1162.000000	70.099143
1161.000000	70.162372
1160.000000	70.217999
1159.000000	70.266745
1158.000000	70.315441
1157.000000	70.371084
1156.000000	70.414693
1155.000000	70.448497
1154.000000	70.466934
1153.000000	70.498455
1152.000000	70.544839
1151.000000	70.596327
1150.000000	70.637356
1149.000000	70.660092
1148.000000	70.691468
1147.000000	70.730869
1146.000000	70.764214
1145.000000	70.785059
1144.000000	70.826877
1143.000000	70.865288
1142.000000	70.881940
1141.000000	70.899985
1140.000000	70.936962
1139.000000	70.974159
1138.000000	70.993125
1137.000000	71.009363
1136.000000	71.037278
1135.000000	71.050589
1134.000000	71.086728
1133.000000	71.129827
1132.000000	71.142837
1131.000000	71.166907
1130.000000	71.182394
1129.000000	71.202489
1128.000000	71.222093
1127.000000	71.235511
1126.000000	71.231306
1125.000000	71.246176
1124.000000	71.267710
1123.000000	71.274957
1122.000000	71.271786
1121.000000	71.277106
1120.000000	71.288117
1119.000000	71.303923
1118.000000	71.311016
1117.000000	71.301297
1116.000000	71.307578
1115.000000	71.304440
1114.000000	71.304934
1113.000000	71.320221
1112.000000	71.326409
1111.000000	71.323778
1110.000000	71.323736
1109.000000	71.320989
1108.000000	71.326736
1107.000000	71.338550
1106.000000	71.314398
1105.000000	71.328327
1104.000000	71.312838
1103.000000	71.295446
1102.000000	71.301023
1101.000000	71.296382
1100.000000	71.282121
1099.000000	71.303362
1098.000000	71.290700
1097.000000	71.293754
1096.000000	71.295147
1095.000000	71.284913
1094.000000	71.288690
1093.000000	71.271963
1092.000000	71.264083
1091.000000	71.271419
1090.000000	71.273446
1089.000000	71.262206
1088.000000	71.272896
1087.000000	71.270877
1086.000000	71.246299
1085.000000	71.238527
1084.000000	71.237676
1083.000000	71.234693
1082.000000	71.218804
1081.000000	71.240224
1080.000000	71.213479
1079.000000	71.191112
1078.000000	71.218383
1077.000000	71.223717
1076.000000	71.213833
1075.000000	71.211052
1074.000000	71.204809
1073.000000	71.161898
1072.000000	71.166032
1071.000000	71.160819
1070.000000	71.152961
1069.000000	71.171401
1068.000000	71.157757
1067.000000	71.138488
1066.000000	71.135215
1065.000000	71.089190
1064.000000	71.116223
1063.000000	71.098236
1062.000000	71.093289
1061.000000	71.083883
1060.000000	71.085163
1059.000000	71.057996
1058.000000	71.029595
1057.000000	71.026496
1056.000000	71.038198
1055.000000	71.051362
1054.000000	71.020989
1053.000000	71.001635
1052.000000	70.997213
1051.000000	70.993959
1050.000000	70.981145
1049.000000	70.981097
1048.000000	70.937468
1047.000000	70.956192
1046.000000	70.958177
1045.000000	70.943983
1044.000000	70.916462
1043.000000	70.892792
1042.000000	70.910608
1041.000000	70.909676
1040.000000	70.916860
1039.000000	70.878798
1038.000000	70.874311
1037.000000	70.895159
1036.000000	70.880154
1035.000000	70.842769
1034.000000	70.845839
1033.000000	70.875157
1032.000000	70.857073
1031.000000	70.831492
1030.000000	70.831651
1029.000000	70.825439
1028.000000	70.820423
1027.000000	70.798031
1026.000000	70.805714
1025.000000	70.810042
1024.000000	70.787655
1023.000000	70.773681
1022.000000	70.775899
1021.000000	70.772017
1020.000000	70.776756
1019.000000	70.776554
1018.000000	70.765037
1017.000000	70.753036
1016.000000	70.744441
1015.000000	70.749420
1014.000000	70.744018
1013.000000	70.729806
1012.000000	70.745557
1011.000000	70.726493
1010.000000	70.725139
1009.000000	70.727135
1008.000000	70.719489
1007.000000	70.721657
1006.000000	70.721065
1005.000000	70.707171
1004.000000	70.701070
1003.000000	70.682454
1002.000000	70.685509
1001.000000	70.697704
1000.000000	70.689615
999.000000	70.679387
998.000000	70.664649
997.000000	70.678192
996.000000	70.672258
995.000000	70.663146
994.000000	70.677170
993.000000	70.672068
992.000000	70.678377
991.000000	70.688443
990.000000	70.667689
989.000000	70.671938
988.000000	70.670948
987.000000	70.670022
986.000000	70.678926
985.000000	70.699665
984.000000	70.707465
983.000000	70.697183
982.000000	70.691026
981.000000	70.689357
980.000000	70.691017
979.000000	70.691513
978.000000	70.690612
977.000000	70.690075
976.000000	70.683240
975.000000	70.683465
974.000000	70.696886
973.000000	70.686924
972.000000	70.680290
971.000000	70.686307
970.000000	70.692974
969.000000	70.695934
968.000000	70.700735
967.000000	70.684816
966.000000	70.682571
965.000000	70.681893
964.000000	70.679291
963.000000	70.704009
962.000000	70.712866
961.000000	70.708779
960.000000	70.707123
959.000000	70.698885
958.000000	70.673623
957.000000	70.673865
956.000000	70.700758
955.000000	70.693100
954.000000	70.681240
953.000000	70.674859
952.000000	70.676173
951.000000	70.659089
950.000000	70.647551
949.000000	70.684079
948.000000	70.687585
947.000000	70.664224
946.000000	70.660486
945.000000	70.654385
944.000000	70.635407
943.000000	70.628875
942.000000	70.645603
941.000000	70.644381
940.000000	70.634072
939.000000	70.633363
938.000000	70.604747
937.000000	70.598765
936.000000	70.601743
935.000000	70.568006
934.000000	70.584054
933.000000	70.600011
932.000000	70.581497
931.000000	70.587551
930.000000	70.588583
929.000000	70.567557
928.000000	70.541108
927.000000	70.543834
926.000000	70.541186
925.000000	70.532881
924.000000	70.513887
923.000000	70.500811
922.000000	70.490556
921.000000	70.480812
920.000000	70.482193
919.000000	70.465381
918.000000	70.453039
917.000000	70.462524
916.000000	70.463753
915.000000	70.449346
914.000000	70.445855
913.000000	70.430275
912.000000	70.425227
911.000000	70.390538
910.000000	70.396242
909.000000	70.391319
908.000000	70.416687
907.000000	70.450001
906.000000	70.421523
905.000000	70.406794
904.000000	70.399368
903.000000	70.397302
902.000000	70.403269
901.000000	70.340427
900.000000	70.346016
899.000000	70.367467
898.000000	70.365788
897.000000	70.366519
896.000000	70.355317
895.000000	70.338285
894.000000	70.309241
893.000000	70.291878
892.000000	70.310231
891.000000	70.285516
890.000000	70.311822
889.000000	70.348441
888.000000	70.388853
887.000000	70.311735
886.000000	70.206501
885.000000	70.314824
884.000000	70.345255
883.000000	70.277822
882.000000	70.360778
881.000000	70.349550
880.000000	70.257096
879.000000	70.231145
878.000000	70.236223
877.000000	70.208104
876.000000	70.189710
875.000000	70.219875
874.000000	70.167182
873.000000	70.257874
872.000000	70.253373
871.000000	70.147012
870.000000	70.033592
869.000000	70.038808
868.000000	70.108509
867.000000	70.146497
866.000000	70.119424
865.000000	70.158156
864.000000	69.994429
863.000000	69.935691
862.000000	70.006610
861.000000	69.827645
860.000000	70.034643
859.000000	69.558948
858.000000	69.622804
857.000000	69.758962
856.000000	69.639976
855.000000	69.431563
854.000000	69.893643
853.000000	69.424355
852.000000	69.539147
851.000000	69.607205
850.000000	69.569500
849.000000	69.736225
848.000000	69.629394
847.000000	69.717504
846.000000	69.576695
845.000000	69.352635
844.000000	69.189150
843.000000	69.472471
842.000000	69.107367
841.000000	69.264704
840.000000	69.279454
839.000000	69.302314
838.000000	69.305591
837.000000	69.244843
836.000000	68.820703
835.000000	69.087409
834.000000	69.138354
833.000000	69.036310
832.000000	68.995457
831.000000	69.139331
830.000000	69.045223
829.000000	68.976691
828.000000	68.820214
827.000000	69.038825
826.000000	68.772999
825.000000	68.743410
824.000000	68.829010
823.000000	68.837225
822.000000	68.994619
821.000000	69.048956
820.000000	68.812880
819.000000	68.818578
818.000000	68.815612
817.000000	68.881012
816.000000	68.840813
815.000000	68.618539
814.000000	68.631833
813.000000	68.716500
812.000000	68.582529
811.000000	68.599085
810.000000	68.452636
809.000000	68.626357
808.000000	68.532927
807.000000	68.633739
806.000000	68.467217
805.000000	68.567303
804.000000	68.250618
803.000000	68.410760
802.000000	68.376736
801.000000	68.322486
800.000000	68.200480
799.000000	68.371590
798.000000	68.290173
797.000000	68.332826
796.000000	68.299285
795.000000	68.063050
794.000000	68.068031
793.000000	68.053119
792.000000	68.066609
791.000000	68.172414
790.000000	67.964198
789.000000	67.996774
788.000000	67.888544
787.000000	67.799272
786.000000	67.898608
785.000000	67.872133
784.000000	67.786556
783.000000	67.774861
782.000000	67.785543
781.000000	67.793061
780.000000	67.696014
779.000000	67.702556
778.000000	67.703329
777.000000	67.589031
776.000000	67.566615
775.000000	67.461453
774.000000	67.390070
773.000000	67.494393
772.000000	67.412576
771.000000	67.356182
770.000000	67.400623
769.000000	67.339002
768.000000	67.378942
767.000000	67.211137
766.000000	67.241064
765.000000	67.170610
764.000000	67.110298
763.000000	67.125323
762.000000	67.062393
761.000000	66.907406
760.000000	66.924554
759.000000	66.946548
758.000000	66.796189
757.000000	66.820722
756.000000	66.791466
755.000000	66.763527
754.000000	66.577087
753.000000	66.627363
752.000000	66.629263
751.000000	66.551331
750.000000	66.576799
749.000000	66.494864
748.000000	66.491163
747.000000	66.423459
746.000000	66.329809
745.000000	66.276674
744.000000	66.240578
743.000000	66.185439
742.000000	66.184190
741.000000	66.081612
740.000000	66.027875
739.000000	65.965269
738.000000	65.885800
737.000000	65.853449
736.000000	65.873987
735.000000	65.762940
734.000000	65.705790
733.000000	65.695979
732.000000	65.616948
731.000000	65.609089
730.000000	65.497484
729.000000	65.356304
728.000000	65.275164
727.000000	65.245261
726.000000	65.223716
725.000000	65.132724
724.000000	65.096805
723.000000	65.044474
722.000000	64.944133
721.000000	64.956405
720.000000	64.927469
719.000000	64.838542
718.000000	64.715291
717.000000	64.680657
716.000000	64.664375
715.000000	64.581492
714.000000	64.510709
713.000000	64.442637
712.000000	64.345002
711.000000	64.264177
710.000000	64.226279
709.000000	64.196386
708.000000	64.141738
707.000000	64.061794
706.000000	63.978646
705.000000	63.940827
704.000000	63.873230
703.000000	63.819317
702.000000	63.742640
701.000000	63.650735
700.000000	63.582219
699.000000	63.424751
698.000000	63.342675
697.000000	63.374455
696.000000	63.295564
695.000000	63.163218
694.000000	63.081286
693.000000	63.054778
692.000000	62.980301
691.000000	62.890403
690.000000	62.798313
689.000000	62.661713
688.000000	62.541299
687.000000	62.478453
686.000000	62.418600
685.000000	62.318510
684.000000	62.235616
683.000000	62.137064
682.000000	61.992368
681.000000	61.926819
680.000000	61.812239
679.000000	61.780113
678.000000	61.715987
677.000000	61.594217
676.000000	61.476873
675.000000	61.411701
674.000000	61.250883
673.000000	61.166405
672.000000	61.141175
671.000000	61.065798
670.000000	60.945610
669.000000	60.828699
668.000000	60.737367
667.000000	60.697344
666.000000	60.571145
665.000000	60.460668
664.000000	60.378497
663.000000	60.269984
662.000000	60.172397
661.000000	60.042745
660.000000	59.925169
659.000000	59.856511
658.000000	59.767671
657.000000	59.647198
656.000000	59.520979
655.000000	59.440129
654.000000	59.330344
653.000000	59.265211
652.000000	59.198770
651.000000	59.016430
650.000000	58.872434
649.000000	58.795916
648.000000	58.711091
647.000000	58.583903
646.000000	58.449530
645.000000	58.358399
644.000000	58.216787
643.000000	58.140929
642.000000	58.027653
641.000000	57.948524
640.000000	57.839132
639.000000	57.658419
638.000000	57.567169
637.000000	57.470765
636.000000	57.371867
635.000000	57.203817
634.000000	57.109792
633.000000	56.935176
632.000000	56.820844
631.000000	56.727410
630.000000	56.661617
629.000000	56.557286
628.000000	56.406874
627.000000	56.341464
626.000000	56.134724
625.000000	56.000244
624.000000	55.895710
623.000000	55.775029
622.000000	55.600772
621.000000	55.482300
620.000000	55.383386
619.000000	55.250856
618.000000	55.129107
617.000000	55.000241
616.000000	54.866110
615.000000	54.694803
614.000000	54.532107
613.000000	54.457517
612.000000	54.347605
611.000000	54.253198
610.000000	54.074662
609.000000	53.986575
608.000000	53.815490
607.000000	53.676441
606.000000	53.579924
605.000000	53.396402
604.000000	53.286024
603.000000	53.100882
602.000000	52.995221
601.000000	52.849210
600.000000	52.691201
599.000000	52.558309
598.000000	52.434343
597.000000	52.283977
596.000000	52.139638
595.000000	51.988960
594.000000	51.798406
593.000000	51.713988
592.000000	51.551306
591.000000	51.429478
590.000000	51.270821
589.000000	51.102389
588.000000	50.991584
587.000000	50.840254
586.000000	50.666616
585.000000	50.562984
584.000000	50.376033
583.000000	50.252569
582.000000	50.098398
581.000000	49.933829
580.000000	49.785054
579.000000	49.642645
578.000000	49.469143
577.000000	49.360421
576.000000	49.153975
575.000000	48.980041
574.000000	48.836307
573.000000	48.721289
572.000000	48.536475
571.000000	48.388708
570.000000	48.243800
569.000000	48.098089
568.000000	47.921962
567.000000	47.710684
566.000000	47.596165
565.000000	47.422509
564.000000	47.267481
563.000000	47.087660
562.000000	46.928472
561.000000	46.843993
560.000000	46.693132
559.000000	46.515462
558.000000	46.349656
557.000000	46.172700
556.000000	45.983947
555.000000	45.810919
554.000000	45.639049
553.000000	45.501149
552.000000	45.336824
551.000000	45.163870
550.000000	45.017036
549.000000	44.822024
548.000000	44.649993
547.000000	44.497706
546.000000	44.284554
545.000000	44.137661
544.000000	43.950233
543.000000	43.739855
542.000000	43.559250
541.000000	43.408279
540.000000	43.195074
539.000000	43.066109
538.000000	42.901736
537.000000	42.720220
536.000000	42.530742
535.000000	42.357956
534.000000	42.171022
533.000000	41.992440
532.000000	41.814560
531.000000	41.639810
530.000000	41.445105
529.000000	41.233946
528.000000	41.077486
527.000000	40.895242
526.000000	40.713659
525.000000	40.515976
524.000000	40.349815
523.000000	40.139188
522.000000	39.969061
521.000000	39.801255
520.000000	39.613554
519.000000	39.411404
518.000000	39.220708
517.000000	39.050751
516.000000	38.854541
515.000000	38.665207
514.000000	38.480198
513.000000	38.299629
512.000000	38.111273
511.000000	37.912494
510.000000	37.728164
509.000000	37.522450
508.000000	37.343494
507.000000	37.161747
506.000000	36.958366
505.000000	36.773102
504.000000	36.561476
503.000000	36.361851
502.000000	36.188058
501.000000	35.992885
500.000000	35.814588
499.000000	35.650031
498.000000	35.455450
497.000000	35.268554
496.000000	35.047111
495.000000	34.857063
494.000000	34.714214
493.000000	34.552133
492.000000	34.340558
491.000000	34.155770
490.000000	33.949203
489.000000	33.791447
488.000000	33.600932
487.000000	33.378568
486.000000	33.188760
485.000000	33.019457
484.000000	32.862205
483.000000	32.687879
482.000000	32.473332
481.000000	32.262448
480.000000	32.086081
479.000000	31.902663
478.000000	31.709393
477.000000	31.483491
476.000000	31.304250
475.000000	31.126738
474.000000	30.948187
473.000000	30.759966
472.000000	30.558610
471.000000	30.375385
470.000000	30.182815
469.000000	29.997655
468.000000	29.796101
467.000000	29.605065
466.000000	29.425262
465.000000	29.239626
464.000000	29.049254
463.000000	28.861400
462.000000	28.667761
461.000000	28.476511
460.000000	28.268499
459.000000	28.073464
458.000000	27.879119
457.000000	27.678665
456.000000	27.513176
455.000000	27.281470
454.000000	27.049115
453.000000	26.850905
452.000000	26.652743
451.000000	26.454654
450.000000	26.246194
449.000000	26.077037
448.000000	25.865618
447.000000	25.641030
446.000000	25.454656
445.000000	25.266839
444.000000	25.038576
443.000000	24.835501
442.000000	24.645890
441.000000	24.465450
440.000000	24.267357
439.000000	24.073221
438.000000	23.878454
437.000000	23.699143
436.000000	23.498225
435.000000	23.303389
434.000000	23.148096
433.000000	22.939639
432.000000	22.763722
431.000000	22.569541
430.000000	22.366651
429.000000	22.171409
428.000000	21.994396
427.000000	21.820719
426.000000	21.633489
425.000000	21.436767
424.000000	21.253127
423.000000	21.052597
422.000000	20.880462
421.000000	20.691288
420.000000	20.491432
419.000000	20.321926
418.000000	20.142558
417.000000	19.931445
416.000000	19.742096
415.000000	19.559208
414.000000	19.377853
413.000000	19.184865
412.000000	19.006321
411.000000	18.829599
410.000000	18.652693
409.000000	18.457544
408.000000	18.249497
407.000000	18.078569
406.000000	17.905790
405.000000	17.706519
404.000000	17.514639
403.000000	17.371419
402.000000	17.196966
401.000000	17.004166
400.000000	16.825074
399.000000	16.657342
398.000000	16.489300
397.000000	16.356633
396.000000	16.176736
395.000000	15.995037
394.000000	15.857173
393.000000	15.694375
392.000000	15.517348
391.000000	15.365630
390.000000	15.207205
389.000000	15.039234
388.000000	14.914051
387.000000	14.748977
386.000000	14.570205
385.000000	14.443929
384.000000	14.276845
383.000000	14.129288
382.000000	14.000255
381.000000	13.830335
380.000000	13.727018
379.000000	13.559021
378.000000	13.361658
377.000000	13.270035
376.000000	13.083592
375.000000	12.986177
374.000000	12.842403
373.000000	12.803499
372.000000	12.596536
371.000000	12.424020
370.000000	12.302066
369.000000	12.158352
368.000000	12.023979
367.000000	11.941936
366.000000	11.837023
365.000000	11.736152
364.000000	11.541771
363.000000	11.424479
362.000000	11.324340
361.000000	11.239659
360.000000	11.134863
359.000000	11.001160
358.000000	10.883816
357.000000	10.800591
356.000000	10.667717
355.000000	10.592636
354.000000	10.465166
353.000000	10.404336
352.000000	10.323360
351.000000	10.229557
350.000000	10.119567
349.000000	10.072689
348.000000	9.920570
347.000000	9.830948
346.000000	9.773694
345.000000	9.635694
344.000000	9.596288
343.000000	9.492278
342.000000	9.481671
341.000000	9.318366
340.000000	9.256654
339.000000	9.143712
338.000000	9.040570
337.000000	9.030271
336.000000	8.939559
335.000000	8.904374
334.000000	8.795849
333.000000	8.662677
332.000000	8.603675
331.000000	8.542764
330.000000	8.468499
329.000000	8.426947
328.000000	8.329518
327.000000	8.238845
326.000000	8.218749
325.000000	8.196088
324.000000	8.141104
323.000000	8.130025
322.000000	8.029394
321.000000	8.012314
320.000000	7.963472
319.000000	7.943230
318.000000	8.040926
317.000000	8.029184
316.000000	8.024849
315.000000	8.012579
314.000000	7.967721
313.000000	7.966481
312.000000	7.915788
311.000000	7.885149
310.000000	7.869877
309.000000	7.908948
308.000000	7.867870
307.000000	7.874271
306.000000	7.858994
305.000000	7.827815
304.000000	7.850430
303.000000	7.845294
302.000000	7.872408
301.000000	7.836971
300.000000	7.823332
299.000000	7.822716
298.000000	7.824950
297.000000	7.873776
296.000000	7.809145
295.000000	7.847279
294.000000	7.898786
293.000000	7.868621
292.000000	7.898598
291.000000	7.888208
290.000000	7.884879
289.000000	7.898370
288.000000	7.902131
287.000000	7.970568
286.000000	7.978019
285.000000	8.006611
284.000000	8.009290
283.000000	8.051706
282.000000	8.128221
281.000000	8.157003
280.000000	8.186704
279.000000	8.224183
278.000000	8.306774
277.000000	8.357412
276.000000	8.398052
275.000000	8.457585
274.000000	8.514987
273.000000	8.562107
272.000000	8.627323
271.000000	8.729666
270.000000	8.784581
269.000000	8.842251
268.000000	8.906640
267.000000	8.993665
266.000000	9.066508
265.000000	9.162900
264.000000	9.245088
263.000000	9.304715
262.000000	9.403879
261.000000	9.461074
260.000000	9.633069
259.000000	9.737161
258.000000	9.803916
257.000000	9.890864
256.000000	10.011758
255.000000	10.125964
254.000000	10.275920
253.000000	10.344896
252.000000	10.434492
251.000000	10.587974
250.000000	10.662752
249.000000	10.790822
248.000000	10.899649
247.000000	11.011352
246.000000	11.122432
245.000000	11.224216
244.000000	11.293285
243.000000	11.393127
242.000000	11.505655
241.000000	11.588592
240.000000	11.632037
239.000000	11.692177
238.000000	11.774739
237.000000	11.809903
236.000000	11.852132
235.000000	11.919807
234.000000	12.019740
233.000000	12.106116
232.000000	12.117732
231.000000	12.145744
230.000000	12.286261
229.000000	12.323907
228.000000	12.330234
227.000000	12.367050
226.000000	12.467762
225.000000	12.585804
224.000000	12.648899
223.000000	12.786484
222.000000	12.953066
221.000000	13.055670
220.000000	13.180662
219.000000	13.336974
218.000000	13.450768
217.000000	13.570076
216.000000	13.782608
215.000000	13.991280
214.000000	14.214075
213.000000	14.484355
212.000000	14.709678
211.000000	14.990167
210.000000	15.380510
209.000000	15.835358
208.000000	16.169612
207.000000	16.469822
206.000000	16.844012
205.000000	17.383118
204.000000	17.921322
203.000000	18.393073
202.000000	18.893330
201.000000	19.417103
200.000000	20.101021
