PE UV       SUBTECH     SPECTRUM    ASCII       PEDS        4.00        
   -1
RTms499181.Sample.asc
18/03/15
15:30:55.00
18/03/15
15:30:55.00
Administrator

200.000000
1
Lambda 750
750N8071901
PerkinElmer UV WinLab 6.0.4.0738 / 1.61.00 Lambda 900

0
0
3350/servo 860.8/2
0
0
UV/VIS
1
1
1
CommonBeamDepol,150mm sphere / downward view
0
0
0
0
Program
Program
3350/servo 860.8/2
3350/0.2 860.8/0.2
3350/0.2 860.8/0.2
0
1
 
 
 
0
 
860.8
319.2
860.8
Front
100
on
 
 
0
0
0
 
0
 
 
 
0
 
 
0
0
0
0
0
 
 
 
 
0
0


0
0
#HDR
-1
-1
#GR
nm
%R
1.0
0.0
2350.000000
-1.000000
2151
8
56.147814
7.368433
#DATA
2350.000000	24.472207
2349.000000	24.795070
2348.000000	24.597551
2347.000000	25.087052
2346.000000	25.066029
2345.000000	25.086185
2344.000000	24.839594
2343.000000	24.753831
2342.000000	25.035593
2341.000000	25.178640
2340.000000	24.977282
2339.000000	25.270519
2338.000000	25.487572
2337.000000	25.560019
2336.000000	25.481415
2335.000000	25.642388
2334.000000	25.845082
2333.000000	25.933010
2332.000000	25.752065
2331.000000	25.858732
2330.000000	25.605059
2329.000000	25.314381
2328.000000	25.257289
2327.000000	25.372984
2326.000000	25.399698
2325.000000	25.201363
2324.000000	25.345285
2323.000000	25.184060
2322.000000	25.115407
2321.000000	25.102444
2320.000000	25.020753
2319.000000	24.872200
2318.000000	24.783808
2317.000000	24.814665
2316.000000	24.734409
2315.000000	24.555588
2314.000000	24.667215
2313.000000	24.530834
2312.000000	24.322347
2311.000000	24.378967
2310.000000	24.358290
2309.000000	24.360120
2308.000000	24.415562
2307.000000	24.456947
2306.000000	24.511271
2305.000000	24.136116
2304.000000	24.321971
2303.000000	24.407141
2302.000000	24.359465
2301.000000	24.207769
2300.000000	24.266608
2299.000000	24.059630
2298.000000	24.098309
2297.000000	24.178524
2296.000000	24.198809
2295.000000	24.270844
2294.000000	24.053082
2293.000000	24.145745
2292.000000	24.191347
2291.000000	24.066001
2290.000000	24.006090
2289.000000	24.193737
2288.000000	24.157581
2287.000000	24.083488
2286.000000	23.958629
2285.000000	24.024375
2284.000000	23.912027
2283.000000	23.839601
2282.000000	23.873170
2281.000000	23.971975
2280.000000	24.108850
2279.000000	24.027638
2278.000000	24.160735
2277.000000	24.278464
2276.000000	24.249756
2275.000000	24.210094
2274.000000	24.276221
2273.000000	24.373468
2272.000000	24.365386
2271.000000	24.458249
2270.000000	24.484364
2269.000000	24.564857
2268.000000	24.668592
2267.000000	24.805732
2266.000000	24.998382
2265.000000	25.050091
2264.000000	25.208306
2263.000000	25.228124
2262.000000	25.279740
2261.000000	25.469517
2260.000000	25.677035
2259.000000	25.803474
2258.000000	25.908218
2257.000000	26.036680
2256.000000	26.211966
2255.000000	26.407686
2254.000000	26.561774
2253.000000	26.707213
2252.000000	26.916733
2251.000000	27.002835
2250.000000	27.215613
2249.000000	27.440419
2248.000000	27.617380
2247.000000	27.850166
2246.000000	28.011496
2245.000000	28.220892
2244.000000	28.419967
2243.000000	28.546018
2242.000000	28.612105
2241.000000	28.644501
2240.000000	28.762024
2239.000000	28.923692
2238.000000	29.012475
2237.000000	29.228324
2236.000000	29.314863
2235.000000	29.308323
2234.000000	29.384079
2233.000000	29.387060
2232.000000	29.464511
2231.000000	29.645548
2230.000000	29.603603
2229.000000	29.588993
2228.000000	29.701111
2227.000000	29.680230
2226.000000	29.761401
2225.000000	29.795512
2224.000000	29.616661
2223.000000	29.637736
2222.000000	29.674887
2221.000000	29.629967
2220.000000	29.621277
2219.000000	29.686998
2218.000000	29.593902
2217.000000	29.491768
2216.000000	29.458156
2215.000000	29.407591
2214.000000	29.559038
2213.000000	29.552302
2212.000000	29.492369
2211.000000	29.399120
2210.000000	29.349431
2209.000000	29.195760
2208.000000	29.205478
2207.000000	29.176339
2206.000000	28.971416
2205.000000	29.073558
2204.000000	29.089104
2203.000000	28.845197
2202.000000	28.760155
2201.000000	28.936163
2200.000000	28.796894
2199.000000	28.678717
2198.000000	28.619361
2197.000000	28.583430
2196.000000	28.449574
2195.000000	28.382472
2194.000000	28.338181
2193.000000	28.167771
2192.000000	28.309201
2191.000000	28.170818
2190.000000	28.089300
2189.000000	28.101713
2188.000000	27.991028
2187.000000	27.830795
2186.000000	27.787508
2185.000000	27.860928
2184.000000	27.907869
2183.000000	27.909707
2182.000000	27.812544
2181.000000	27.834012
2180.000000	27.805741
2179.000000	27.798042
2178.000000	27.734308
2177.000000	27.724581
2176.000000	27.706313
2175.000000	27.890304
2174.000000	27.872716
2173.000000	27.787489
2172.000000	27.969015
2171.000000	27.965703
2170.000000	28.001143
2169.000000	28.096805
2168.000000	28.215933
2167.000000	28.213519
2166.000000	28.231637
2165.000000	28.265448
2164.000000	28.260581
2163.000000	28.342487
2162.000000	28.540461
2161.000000	28.537317
2160.000000	28.851208
2159.000000	28.974641
2158.000000	28.975505
2157.000000	29.187793
2156.000000	29.221972
2155.000000	29.415165
2154.000000	29.576799
2153.000000	29.506744
2152.000000	29.515822
2151.000000	29.738505
2150.000000	29.861999
2149.000000	29.950881
2148.000000	30.180965
2147.000000	30.395061
2146.000000	30.208884
2145.000000	30.464245
2144.000000	30.503287
2143.000000	30.576399
2142.000000	30.734886
2141.000000	30.972549
2140.000000	31.033065
2139.000000	31.208934
2138.000000	31.133497
2137.000000	31.198956
2136.000000	31.139568
2135.000000	31.310960
2134.000000	31.566874
2133.000000	31.331763
2132.000000	31.605509
2131.000000	31.748717
2130.000000	31.819701
2129.000000	32.007957
2128.000000	31.926831
2127.000000	31.978800
2126.000000	31.849229
2125.000000	31.904398
2124.000000	31.886685
2123.000000	32.102331
2122.000000	32.026360
2121.000000	32.042529
2120.000000	32.091058
2119.000000	32.202626
2118.000000	32.248015
2117.000000	32.148637
2116.000000	32.304478
2115.000000	32.351839
2114.000000	32.392330
2113.000000	32.280558
2112.000000	32.420915
2111.000000	32.393816
2110.000000	32.338084
2109.000000	32.363403
2108.000000	32.362782
2107.000000	32.454060
2106.000000	32.470813
2105.000000	32.455223
2104.000000	32.455295
2103.000000	32.460148
2102.000000	32.484615
2101.000000	32.610862
2100.000000	32.614910
2099.000000	32.545140
2098.000000	32.418511
2097.000000	32.416338
2096.000000	32.473649
2095.000000	32.459666
2094.000000	32.509502
2093.000000	32.331873
2092.000000	32.512684
2091.000000	32.454412
2090.000000	32.418943
2089.000000	32.406712
2088.000000	32.378306
2087.000000	32.340605
2086.000000	32.418506
2085.000000	32.308873
2084.000000	32.262306
2083.000000	32.227493
2082.000000	32.167351
2081.000000	32.101044
2080.000000	31.988702
2079.000000	31.983353
2078.000000	31.927036
2077.000000	31.775468
2076.000000	31.757378
2075.000000	31.679825
2074.000000	31.592799
2073.000000	31.499066
2072.000000	31.386601
2071.000000	31.305289
2070.000000	31.155390
2069.000000	30.990754
2068.000000	30.915886
2067.000000	30.880470
2066.000000	30.706635
2065.000000	30.548963
2064.000000	30.452925
2063.000000	30.261606
2062.000000	30.203809
2061.000000	30.045429
2060.000000	29.955850
2059.000000	29.888422
2058.000000	29.780486
2057.000000	29.654743
2056.000000	29.573224
2055.000000	29.484760
2054.000000	29.366220
2053.000000	29.242070
2052.000000	29.125323
2051.000000	29.048949
2050.000000	29.032972
2049.000000	28.952114
2048.000000	28.833296
2047.000000	28.822987
2046.000000	28.777535
2045.000000	28.711605
2044.000000	28.706506
2043.000000	28.716664
2042.000000	28.682530
2041.000000	28.732708
2040.000000	28.778273
2039.000000	28.782472
2038.000000	28.844528
2037.000000	28.902706
2036.000000	28.929999
2035.000000	29.046364
2034.000000	29.099564
2033.000000	29.185462
2032.000000	29.285488
2031.000000	29.286752
2030.000000	29.401143
2029.000000	29.524494
2028.000000	29.597654
2027.000000	29.664008
2026.000000	29.770721
2025.000000	29.846801
2024.000000	29.876145
2023.000000	29.929939
2022.000000	29.979242
2021.000000	30.010366
2020.000000	29.998268
2019.000000	30.015256
2018.000000	30.083079
2017.000000	30.094312
2016.000000	30.010353
2015.000000	29.970445
2014.000000	29.982768
2013.000000	29.948742
2012.000000	29.882432
2011.000000	29.863775
2010.000000	29.770437
2009.000000	29.650314
2008.000000	29.616630
2007.000000	29.557496
2006.000000	29.448894
2005.000000	29.367580
2004.000000	29.304817
2003.000000	29.240961
2002.000000	29.111501
2001.000000	28.980154
2000.000000	28.896235
1999.000000	28.794734
1998.000000	28.701565
1997.000000	28.656736
1996.000000	28.560620
1995.000000	28.449073
1994.000000	28.344578
1993.000000	28.226393
1992.000000	28.092977
1991.000000	28.017358
1990.000000	27.899945
1989.000000	27.818039
1988.000000	27.726445
1987.000000	27.618461
1986.000000	27.501964
1985.000000	27.441026
1984.000000	27.360758
1983.000000	27.228847
1982.000000	27.137149
1981.000000	27.066064
1980.000000	26.926924
1979.000000	26.788990
1978.000000	26.685339
1977.000000	26.605994
1976.000000	26.545653
1975.000000	26.415148
1974.000000	26.319231
1973.000000	26.238541
1972.000000	26.147103
1971.000000	26.055017
1970.000000	25.967425
1969.000000	25.886192
1968.000000	25.833806
1967.000000	25.758178
1966.000000	25.728257
1965.000000	25.590425
1964.000000	25.443073
1963.000000	25.388746
1962.000000	25.279971
1961.000000	25.249946
1960.000000	25.135544
1959.000000	25.045024
1958.000000	24.975799
1957.000000	24.927552
1956.000000	24.857631
1955.000000	24.764727
1954.000000	24.708953
1953.000000	24.705047
1952.000000	24.661176
1951.000000	24.619528
1950.000000	24.504561
1949.000000	24.474636
1948.000000	24.473189
1947.000000	24.457549
1946.000000	24.436487
1945.000000	24.436114
1944.000000	24.437958
1943.000000	24.428114
1942.000000	24.454171
1941.000000	24.476285
1940.000000	24.491216
1939.000000	24.489899
1938.000000	24.539020
1937.000000	24.685933
1936.000000	24.784284
1935.000000	24.825373
1934.000000	24.897040
1933.000000	24.964169
1932.000000	25.137251
1931.000000	25.220139
1930.000000	25.296827
1929.000000	25.453800
1928.000000	25.666824
1927.000000	25.790464
1926.000000	25.950515
1925.000000	26.179181
1924.000000	26.426004
1923.000000	26.523196
1922.000000	26.769896
1921.000000	27.097566
1920.000000	27.366847
1919.000000	27.606906
1918.000000	27.810818
1917.000000	28.123404
1916.000000	28.324589
1915.000000	28.744832
1914.000000	29.054942
1913.000000	29.389742
1912.000000	29.783572
1911.000000	30.116076
1910.000000	30.542596
1909.000000	30.772994
1908.000000	31.199478
1907.000000	31.613217
1906.000000	32.087065
1905.000000	32.561796
1904.000000	33.059925
1903.000000	33.478242
1902.000000	33.948643
1901.000000	34.472329
1900.000000	34.939187
1899.000000	35.398751
1898.000000	35.854718
1897.000000	36.305472
1896.000000	36.795969
1895.000000	37.290064
1894.000000	37.791088
1893.000000	38.225788
1892.000000	38.701992
1891.000000	39.088291
1890.000000	39.511341
1889.000000	39.954335
1888.000000	40.314525
1887.000000	40.778067
1886.000000	41.156367
1885.000000	41.562973
1884.000000	41.913621
1883.000000	42.202350
1882.000000	42.510344
1881.000000	42.848911
1880.000000	43.201980
1879.000000	43.414624
1878.000000	43.764582
1877.000000	44.051566
1876.000000	44.309897
1875.000000	44.540679
1874.000000	44.765110
1873.000000	45.003146
1872.000000	45.199860
1871.000000	45.426549
1870.000000	45.632297
1869.000000	45.829999
1868.000000	45.951574
1867.000000	46.062115
1866.000000	46.197496
1865.000000	46.278966
1864.000000	46.365605
1863.000000	46.454775
1862.000000	46.550021
1861.000000	46.617149
1860.000000	46.622044
1859.000000	46.672376
1858.000000	46.681778
1857.000000	46.735657
1856.000000	46.773946
1855.000000	46.805333
1854.000000	46.855164
1853.000000	46.847780
1852.000000	46.832975
1851.000000	46.839165
1850.000000	46.850203
1849.000000	46.871087
1848.000000	46.847292
1847.000000	46.873114
1846.000000	46.879496
1845.000000	46.848830
1844.000000	46.817132
1843.000000	46.751013
1842.000000	46.751044
1841.000000	46.702275
1840.000000	46.699795
1839.000000	46.675925
1838.000000	46.644017
1837.000000	46.592072
1836.000000	46.510598
1835.000000	46.462172
1834.000000	46.432833
1833.000000	46.417682
1832.000000	46.417179
1831.000000	46.369361
1830.000000	46.328849
1829.000000	46.273841
1828.000000	46.218624
1827.000000	46.201394
1826.000000	46.146223
1825.000000	46.064004
1824.000000	46.030641
1823.000000	46.003635
1822.000000	45.955135
1821.000000	45.929809
1820.000000	45.901872
1819.000000	45.877980
1818.000000	45.856731
1817.000000	45.817572
1816.000000	45.769013
1815.000000	45.748499
1814.000000	45.689776
1813.000000	45.651504
1812.000000	45.638418
1811.000000	45.609828
1810.000000	45.582847
1809.000000	45.531429
1808.000000	45.500157
1807.000000	45.468991
1806.000000	45.432202
1805.000000	45.390653
1804.000000	45.334603
1803.000000	45.302189
1802.000000	45.288095
1801.000000	45.270555
1800.000000	45.250786
1799.000000	45.207059
1798.000000	45.166345
1797.000000	45.158922
1796.000000	45.155688
1795.000000	45.114379
1794.000000	45.081996
1793.000000	45.061495
1792.000000	45.015539
1791.000000	44.985437
1790.000000	44.952965
1789.000000	44.950692
1788.000000	44.930502
1787.000000	44.880376
1786.000000	44.853270
1785.000000	44.833324
1784.000000	44.773155
1783.000000	44.739234
1782.000000	44.707496
1781.000000	44.675639
1780.000000	44.630122
1779.000000	44.577791
1778.000000	44.541114
1777.000000	44.480902
1776.000000	44.379932
1775.000000	44.319568
1774.000000	44.263935
1773.000000	44.229907
1772.000000	44.186054
1771.000000	44.113890
1770.000000	44.062486
1769.000000	44.013619
1768.000000	43.967988
1767.000000	43.925134
1766.000000	43.870341
1765.000000	43.820457
1764.000000	43.784394
1763.000000	43.724798
1762.000000	43.672636
1761.000000	43.608806
1760.000000	43.564977
1759.000000	43.532922
1758.000000	43.500855
1757.000000	43.441836
1756.000000	43.424709
1755.000000	43.395786
1754.000000	43.308668
1753.000000	43.274853
1752.000000	43.242180
1751.000000	43.162845
1750.000000	43.086977
1749.000000	43.033750
1748.000000	42.961691
1747.000000	42.872529
1746.000000	42.819784
1745.000000	42.706279
1744.000000	42.653376
1743.000000	42.569842
1742.000000	42.488031
1741.000000	42.428532
1740.000000	42.366557
1739.000000	42.309440
1738.000000	42.250172
1737.000000	42.186412
1736.000000	42.157265
1735.000000	42.137744
1734.000000	42.114267
1733.000000	42.101906
1732.000000	42.117747
1731.000000	42.107318
1730.000000	42.129013
1729.000000	42.194417
1728.000000	42.242808
1727.000000	42.300419
1726.000000	42.376414
1725.000000	42.447827
1724.000000	42.541752
1723.000000	42.626710
1722.000000	42.737872
1721.000000	42.826908
1720.000000	42.966383
1719.000000	43.106230
1718.000000	43.195644
1717.000000	43.277091
1716.000000	43.380065
1715.000000	43.514479
1714.000000	43.611771
1713.000000	43.704147
1712.000000	43.799976
1711.000000	43.890497
1710.000000	43.964723
1709.000000	44.029214
1708.000000	44.092351
1707.000000	44.156737
1706.000000	44.214969
1705.000000	44.290139
1704.000000	44.315859
1703.000000	44.327343
1702.000000	44.428068
1701.000000	44.452691
1700.000000	44.485933
1699.000000	44.482966
1698.000000	44.553160
1697.000000	44.592583
1696.000000	44.667554
1695.000000	44.710082
1694.000000	44.740146
1693.000000	44.823401
1692.000000	44.883702
1691.000000	44.986604
1690.000000	45.078799
1689.000000	45.150720
1688.000000	45.288544
1687.000000	45.393975
1686.000000	45.485360
1685.000000	45.620281
1684.000000	45.774674
1683.000000	45.914706
1682.000000	46.075422
1681.000000	46.244220
1680.000000	46.382153
1679.000000	46.524884
1678.000000	46.695780
1677.000000	46.831106
1676.000000	47.013027
1675.000000	47.195747
1674.000000	47.335434
1673.000000	47.477355
1672.000000	47.627584
1671.000000	47.784397
1670.000000	47.923130
1669.000000	48.042291
1668.000000	48.137363
1667.000000	48.258725
1666.000000	48.346978
1665.000000	48.437258
1664.000000	48.514517
1663.000000	48.583512
1662.000000	48.661455
1661.000000	48.714225
1660.000000	48.788681
1659.000000	48.833997
1658.000000	48.898087
1657.000000	48.938695
1656.000000	48.942527
1655.000000	48.987701
1654.000000	48.999072
1653.000000	49.018710
1652.000000	49.031516
1651.000000	49.030316
1650.000000	49.038397
1649.000000	49.020275
1648.000000	49.008797
1647.000000	49.019532
1646.000000	49.004776
1645.000000	48.973848
1644.000000	48.961778
1643.000000	48.950143
1642.000000	48.933932
1641.000000	48.896802
1640.000000	48.876582
1639.000000	48.839808
1638.000000	48.815374
1637.000000	48.798592
1636.000000	48.752306
1635.000000	48.716811
1634.000000	48.694460
1633.000000	48.635386
1632.000000	48.600511
1631.000000	48.562129
1630.000000	48.521333
1629.000000	48.498182
1628.000000	48.439253
1627.000000	48.381828
1626.000000	48.346530
1625.000000	48.305523
1624.000000	48.273374
1623.000000	48.237569
1622.000000	48.180577
1621.000000	48.129808
1620.000000	48.086418
1619.000000	48.022878
1618.000000	47.956302
1617.000000	47.905807
1616.000000	47.850601
1615.000000	47.787731
1614.000000	47.737292
1613.000000	47.681819
1612.000000	47.617981
1611.000000	47.552971
1610.000000	47.503096
1609.000000	47.446264
1608.000000	47.371114
1607.000000	47.315698
1606.000000	47.249949
1605.000000	47.183142
1604.000000	47.117805
1603.000000	47.062757
1602.000000	47.013259
1601.000000	46.951615
1600.000000	46.883812
1599.000000	46.814589
1598.000000	46.763986
1597.000000	46.706430
1596.000000	46.644998
1595.000000	46.597235
1594.000000	46.542454
1593.000000	46.497669
1592.000000	46.436924
1591.000000	46.380882
1590.000000	46.333657
1589.000000	46.267946
1588.000000	46.204554
1587.000000	46.159177
1586.000000	46.127809
1585.000000	46.089724
1584.000000	46.042341
1583.000000	45.986634
1582.000000	45.936059
1581.000000	45.897150
1580.000000	45.857296
1579.000000	45.805097
1578.000000	45.770016
1577.000000	45.725835
1576.000000	45.673859
1575.000000	45.647895
1574.000000	45.592347
1573.000000	45.542743
1572.000000	45.513780
1571.000000	45.464104
1570.000000	45.418853
1569.000000	45.376828
1568.000000	45.343151
1567.000000	45.320812
1566.000000	45.295423
1565.000000	45.248125
1564.000000	45.208936
1563.000000	45.197171
1562.000000	45.168371
1561.000000	45.131422
1560.000000	45.112414
1559.000000	45.087033
1558.000000	45.062038
1557.000000	45.039569
1556.000000	45.023927
1555.000000	44.984299
1554.000000	44.950692
1553.000000	44.915305
1552.000000	44.878457
1551.000000	44.847489
1550.000000	44.817310
1549.000000	44.775607
1548.000000	44.718960
1547.000000	44.659057
1546.000000	44.613065
1545.000000	44.552805
1544.000000	44.481587
1543.000000	44.414222
1542.000000	44.345100
1541.000000	44.273193
1540.000000	44.190714
1539.000000	44.116092
1538.000000	44.037070
1537.000000	43.947766
1536.000000	43.864614
1535.000000	43.791138
1534.000000	43.720812
1533.000000	43.643776
1532.000000	43.563834
1531.000000	43.490384
1530.000000	43.405204
1529.000000	43.343543
1528.000000	43.271843
1527.000000	43.216611
1526.000000	43.155848
1525.000000	43.093318
1524.000000	43.027800
1523.000000	42.965228
1522.000000	42.917554
1521.000000	42.880237
1520.000000	42.840838
1519.000000	42.802133
1518.000000	42.786091
1517.000000	42.734868
1516.000000	42.688643
1515.000000	42.653046
1514.000000	42.609915
1513.000000	42.579599
1512.000000	42.554832
1511.000000	42.536594
1510.000000	42.539684
1509.000000	42.571504
1508.000000	42.602032
1507.000000	42.603161
1506.000000	42.567771
1505.000000	42.542707
1504.000000	42.510648
1503.000000	42.458652
1502.000000	42.451467
1501.000000	42.440786
1500.000000	42.396125
1499.000000	42.395931
1498.000000	42.395985
1497.000000	42.388833
1496.000000	42.403467
1495.000000	42.402517
1494.000000	42.413906
1493.000000	42.397853
1492.000000	42.416453
1491.000000	42.424353
1490.000000	42.444949
1489.000000	42.464287
1488.000000	42.470115
1487.000000	42.507860
1486.000000	42.523730
1485.000000	42.499901
1484.000000	42.510345
1483.000000	42.552705
1482.000000	42.562287
1481.000000	42.617565
1480.000000	42.648722
1479.000000	42.673380
1478.000000	42.702295
1477.000000	42.715588
1476.000000	42.751433
1475.000000	42.775076
1474.000000	42.816257
1473.000000	42.844502
1472.000000	42.867715
1471.000000	42.898320
1470.000000	42.931198
1469.000000	42.978403
1468.000000	43.040168
1467.000000	43.063817
1466.000000	43.100695
1465.000000	43.115315
1464.000000	43.158106
1463.000000	43.202303
1462.000000	43.219885
1461.000000	43.260821
1460.000000	43.281168
1459.000000	43.353253
1458.000000	43.404886
1457.000000	43.435039
1456.000000	43.466843
1455.000000	43.492360
1454.000000	43.567336
1453.000000	43.613686
1452.000000	43.653260
1451.000000	43.721522
1450.000000	43.772047
1449.000000	43.851900
1448.000000	43.928699
1447.000000	43.960610
1446.000000	44.027456
1445.000000	44.096891
1444.000000	44.163540
1443.000000	44.224502
1442.000000	44.292452
1441.000000	44.402283
1440.000000	44.492125
1439.000000	44.562481
1438.000000	44.651635
1437.000000	44.736570
1436.000000	44.823147
1435.000000	44.905861
1434.000000	45.015444
1433.000000	45.136050
1432.000000	45.237127
1431.000000	45.351350
1430.000000	45.466403
1429.000000	45.581634
1428.000000	45.703812
1427.000000	45.830349
1426.000000	45.976414
1425.000000	46.108043
1424.000000	46.257109
1423.000000	46.384665
1422.000000	46.528804
1421.000000	46.676691
1420.000000	46.852410
1419.000000	47.010550
1418.000000	47.154249
1417.000000	47.331114
1416.000000	47.517222
1415.000000	47.695406
1414.000000	47.845326
1413.000000	48.031061
1412.000000	48.217257
1411.000000	48.376163
1410.000000	48.561732
1409.000000	48.770048
1408.000000	48.949123
1407.000000	49.107044
1406.000000	49.282890
1405.000000	49.483410
1404.000000	49.682792
1403.000000	49.861721
1402.000000	50.040963
1401.000000	50.202733
1400.000000	50.349782
1399.000000	50.526923
1398.000000	50.688032
1397.000000	50.845887
1396.000000	51.006573
1395.000000	51.156537
1394.000000	51.301789
1393.000000	51.440555
1392.000000	51.577455
1391.000000	51.721055
1390.000000	51.841600
1389.000000	51.969199
1388.000000	52.093905
1387.000000	52.231379
1386.000000	52.364956
1385.000000	52.470141
1384.000000	52.577299
1383.000000	52.696956
1382.000000	52.813051
1381.000000	52.915264
1380.000000	52.989223
1379.000000	53.079414
1378.000000	53.184527
1377.000000	53.248390
1376.000000	53.306288
1375.000000	53.363995
1374.000000	53.411638
1373.000000	53.441669
1372.000000	53.463482
1371.000000	53.511272
1370.000000	53.535988
1369.000000	53.554495
1368.000000	53.600166
1367.000000	53.650130
1366.000000	53.686906
1365.000000	53.743733
1364.000000	53.828311
1363.000000	53.895523
1362.000000	53.953882
1361.000000	54.014958
1360.000000	54.055563
1359.000000	54.134350
1358.000000	54.212971
1357.000000	54.273145
1356.000000	54.349280
1355.000000	54.396733
1354.000000	54.458272
1353.000000	54.542656
1352.000000	54.631948
1351.000000	54.668727
1350.000000	54.695924
1349.000000	54.784649
1348.000000	54.861058
1347.000000	54.896172
1346.000000	54.929035
1345.000000	54.960850
1344.000000	55.043991
1343.000000	55.116798
1342.000000	55.150130
1341.000000	55.156967
1340.000000	55.181236
1339.000000	55.216356
1338.000000	55.279819
1337.000000	55.345851
1336.000000	55.385161
1335.000000	55.408514
1334.000000	55.436204
1333.000000	55.451814
1332.000000	55.503769
1331.000000	55.563927
1330.000000	55.593863
1329.000000	55.614367
1328.000000	55.664704
1327.000000	55.689404
1326.000000	55.716569
1325.000000	55.734847
1324.000000	55.761881
1323.000000	55.798924
1322.000000	55.833678
1321.000000	55.858481
1320.000000	55.858769
1319.000000	55.903672
1318.000000	55.952173
1317.000000	55.951566
1316.000000	55.960810
1315.000000	55.981517
1314.000000	55.990036
1313.000000	56.007891
1312.000000	56.033325
1311.000000	56.055021
1310.000000	56.053696
1309.000000	56.070213
1308.000000	56.082697
1307.000000	56.088612
1306.000000	56.071531
1305.000000	56.080726
1304.000000	56.091045
1303.000000	56.130371
1302.000000	56.131316
1301.000000	56.147814
1300.000000	56.127661
1299.000000	56.109814
1298.000000	56.103203
1297.000000	56.095227
1296.000000	56.094953
1295.000000	56.071919
1294.000000	56.064611
1293.000000	56.067118
1292.000000	56.044415
1291.000000	56.042607
1290.000000	56.068906
1289.000000	56.021833
1288.000000	56.006692
1287.000000	55.992399
1286.000000	55.976896
1285.000000	55.932580
1284.000000	55.921164
1283.000000	55.929082
1282.000000	55.925126
1281.000000	55.929219
1280.000000	55.924562
1279.000000	55.917958
1278.000000	55.891745
1277.000000	55.903950
1276.000000	55.911966
1275.000000	55.877537
1274.000000	55.876146
1273.000000	55.867008
1272.000000	55.883772
1271.000000	55.843827
1270.000000	55.846779
1269.000000	55.875593
1268.000000	55.877081
1267.000000	55.865757
1266.000000	55.856899
1265.000000	55.882012
1264.000000	55.914189
1263.000000	55.917827
1262.000000	55.935661
1261.000000	55.890493
1260.000000	55.883569
1259.000000	55.919126
1258.000000	55.941420
1257.000000	55.927355
1256.000000	55.905936
1255.000000	55.919933
1254.000000	55.904120
1253.000000	55.893633
1252.000000	55.862470
1251.000000	55.888274
1250.000000	55.863660
1249.000000	55.840137
1248.000000	55.804514
1247.000000	55.806098
1246.000000	55.799099
1245.000000	55.765035
1244.000000	55.756214
1243.000000	55.715963
1242.000000	55.677396
1241.000000	55.601843
1240.000000	55.575795
1239.000000	55.568947
1238.000000	55.509080
1237.000000	55.440992
1236.000000	55.413184
1235.000000	55.396232
1234.000000	55.353348
1233.000000	55.269263
1232.000000	55.264298
1231.000000	55.231690
1230.000000	55.197561
1229.000000	55.170107
1228.000000	55.064906
1227.000000	55.052268
1226.000000	55.016267
1225.000000	54.993681
1224.000000	54.974875
1223.000000	54.959455
1222.000000	54.926426
1221.000000	54.885870
1220.000000	54.849851
1219.000000	54.828974
1218.000000	54.813333
1217.000000	54.804395
1216.000000	54.772717
1215.000000	54.741525
1214.000000	54.699644
1213.000000	54.699664
1212.000000	54.710387
1211.000000	54.675261
1210.000000	54.667595
1209.000000	54.674693
1208.000000	54.632120
1207.000000	54.598911
1206.000000	54.587694
1205.000000	54.591829
1204.000000	54.546287
1203.000000	54.538725
1202.000000	54.549049
1201.000000	54.508299
1200.000000	54.471381
1199.000000	54.474836
1198.000000	54.465580
1197.000000	54.435279
1196.000000	54.394659
1195.000000	54.355481
1194.000000	54.334886
1193.000000	54.302534
1192.000000	54.283550
1191.000000	54.271276
1190.000000	54.217643
1189.000000	54.154644
1188.000000	54.158183
1187.000000	54.161001
1186.000000	54.148749
1185.000000	54.154100
1184.000000	54.161518
1183.000000	54.171623
1182.000000	54.196312
1181.000000	54.220739
1180.000000	54.240790
1179.000000	54.258222
1178.000000	54.284870
1177.000000	54.317824
1176.000000	54.364003
1175.000000	54.393066
1174.000000	54.423389
1173.000000	54.482185
1172.000000	54.516912
1171.000000	54.542413
1170.000000	54.593506
1169.000000	54.651176
1168.000000	54.695432
1167.000000	54.743839
1166.000000	54.806885
1165.000000	54.858087
1164.000000	54.905977
1163.000000	54.951194
1162.000000	54.994500
1161.000000	55.049563
1160.000000	55.108076
1159.000000	55.162594
1158.000000	55.215144
1157.000000	55.235366
1156.000000	55.249702
1155.000000	55.296264
1154.000000	55.327211
1153.000000	55.353809
1152.000000	55.412146
1151.000000	55.463415
1150.000000	55.508685
1149.000000	55.543328
1148.000000	55.562514
1147.000000	55.597672
1146.000000	55.636828
1145.000000	55.654293
1144.000000	55.686841
1143.000000	55.723630
1142.000000	55.741582
1141.000000	55.729623
1140.000000	55.740518
1139.000000	55.776216
1138.000000	55.797151
1137.000000	55.825940
1136.000000	55.855693
1135.000000	55.878899
1134.000000	55.903635
1133.000000	55.926969
1132.000000	55.934955
1131.000000	55.942143
1130.000000	55.961663
1129.000000	55.938657
1128.000000	55.939707
1127.000000	55.955851
1126.000000	55.950343
1125.000000	55.962334
1124.000000	55.971504
1123.000000	55.973019
1122.000000	55.977411
1121.000000	55.982800
1120.000000	55.989042
1119.000000	55.983968
1118.000000	55.989077
1117.000000	55.990030
1116.000000	55.976714
1115.000000	55.978961
1114.000000	55.976841
1113.000000	55.976011
1112.000000	55.963522
1111.000000	55.966079
1110.000000	55.948102
1109.000000	55.950368
1108.000000	55.942880
1107.000000	55.936789
1106.000000	55.926291
1105.000000	55.925167
1104.000000	55.859361
1103.000000	55.829563
1102.000000	55.829159
1101.000000	55.835658
1100.000000	55.830614
1099.000000	55.822789
1098.000000	55.821453
1097.000000	55.815320
1096.000000	55.808003
1095.000000	55.731128
1094.000000	55.711461
1093.000000	55.705024
1092.000000	55.700764
1091.000000	55.705714
1090.000000	55.699822
1089.000000	55.694778
1088.000000	55.694729
1087.000000	55.615760
1086.000000	55.593638
1085.000000	55.588715
1084.000000	55.607020
1083.000000	55.575331
1082.000000	55.585616
1081.000000	55.505794
1080.000000	55.483232
1079.000000	55.476388
1078.000000	55.474500
1077.000000	55.467418
1076.000000	55.462634
1075.000000	55.449601
1074.000000	55.395210
1073.000000	55.360323
1072.000000	55.363226
1071.000000	55.361287
1070.000000	55.342646
1069.000000	55.332579
1068.000000	55.330740
1067.000000	55.221847
1066.000000	55.213912
1065.000000	55.204726
1064.000000	55.192463
1063.000000	55.186085
1062.000000	55.191198
1061.000000	55.167575
1060.000000	55.077038
1059.000000	55.052718
1058.000000	55.050277
1057.000000	55.049044
1056.000000	55.035716
1055.000000	55.034146
1054.000000	54.947960
1053.000000	54.922733
1052.000000	54.921379
1051.000000	54.903457
1050.000000	54.831293
1049.000000	54.823572
1048.000000	54.797623
1047.000000	54.809565
1046.000000	54.806366
1045.000000	54.738946
1044.000000	54.694557
1043.000000	54.688267
1042.000000	54.705357
1041.000000	54.614069
1040.000000	54.620146
1039.000000	54.610684
1038.000000	54.599068
1037.000000	54.609524
1036.000000	54.518027
1035.000000	54.507750
1034.000000	54.513021
1033.000000	54.436929
1032.000000	54.419791
1031.000000	54.405175
1030.000000	54.411864
1029.000000	54.350127
1028.000000	54.347871
1027.000000	54.319601
1026.000000	54.313803
1025.000000	54.260861
1024.000000	54.239721
1023.000000	54.225854
1022.000000	54.160332
1021.000000	54.148431
1020.000000	54.153765
1019.000000	54.133879
1018.000000	54.087201
1017.000000	54.064168
1016.000000	54.017160
1015.000000	54.012951
1014.000000	54.016374
1013.000000	53.993517
1012.000000	53.944072
1011.000000	53.918079
1010.000000	53.867591
1009.000000	53.870554
1008.000000	53.869716
1007.000000	53.856959
1006.000000	53.799232
1005.000000	53.758152
1004.000000	53.748689
1003.000000	53.737657
1002.000000	53.727879
1001.000000	53.722140
1000.000000	53.722451
999.000000	53.715615
998.000000	53.717944
997.000000	53.710664
996.000000	53.702102
995.000000	53.672213
994.000000	53.659946
993.000000	53.660090
992.000000	53.643265
991.000000	53.636358
990.000000	53.629525
989.000000	53.603186
988.000000	53.586720
987.000000	53.579113
986.000000	53.588371
985.000000	53.584341
984.000000	53.573944
983.000000	53.562499
982.000000	53.532442
981.000000	53.528698
980.000000	53.519510
979.000000	53.488603
978.000000	53.482253
977.000000	53.473684
976.000000	53.468763
975.000000	53.458703
974.000000	53.443934
973.000000	53.433657
972.000000	53.420474
971.000000	53.417320
970.000000	53.418404
969.000000	53.409906
968.000000	53.404773
967.000000	53.377393
966.000000	53.359206
965.000000	53.355833
964.000000	53.336632
963.000000	53.352221
962.000000	53.351913
961.000000	53.314225
960.000000	53.300339
959.000000	53.293442
958.000000	53.271553
957.000000	53.246889
956.000000	53.264702
955.000000	53.261113
954.000000	53.241867
953.000000	53.223115
952.000000	53.199607
951.000000	53.196970
950.000000	53.181424
949.000000	53.176074
948.000000	53.162319
947.000000	53.135248
946.000000	53.125284
945.000000	53.109112
944.000000	53.071709
943.000000	53.057270
942.000000	53.073350
941.000000	53.071581
940.000000	53.045258
939.000000	53.022439
938.000000	52.998748
937.000000	52.978467
936.000000	52.956556
935.000000	52.914529
934.000000	52.899586
933.000000	52.897237
932.000000	52.867677
931.000000	52.853127
930.000000	52.866107
929.000000	52.870117
928.000000	52.843374
927.000000	52.825585
926.000000	52.797306
925.000000	52.772691
924.000000	52.752035
923.000000	52.709281
922.000000	52.688257
921.000000	52.687357
920.000000	52.657670
919.000000	52.607872
918.000000	52.591963
917.000000	52.562540
916.000000	52.542818
915.000000	52.536875
914.000000	52.532098
913.000000	52.500150
912.000000	52.452266
911.000000	52.425449
910.000000	52.423643
909.000000	52.418012
908.000000	52.402782
907.000000	52.382351
906.000000	52.371009
905.000000	52.356609
904.000000	52.305149
903.000000	52.320308
902.000000	52.327101
901.000000	52.274488
900.000000	52.234535
899.000000	52.222648
898.000000	52.204379
897.000000	52.172020
896.000000	52.184210
895.000000	52.148163
894.000000	52.110077
893.000000	52.091933
892.000000	52.034115
891.000000	52.066116
890.000000	52.052691
889.000000	52.052116
888.000000	52.001235
887.000000	51.950958
886.000000	51.934765
885.000000	51.968748
884.000000	51.937091
883.000000	51.913153
882.000000	51.886767
881.000000	51.932492
880.000000	51.928603
879.000000	51.810111
878.000000	51.813676
877.000000	51.671393
876.000000	51.719417
875.000000	51.721241
874.000000	51.706751
873.000000	51.718579
872.000000	51.734811
871.000000	51.628553
870.000000	51.520873
869.000000	51.559141
868.000000	51.619097
867.000000	51.580090
866.000000	51.479215
865.000000	51.614517
864.000000	51.501873
863.000000	51.351225
862.000000	51.429258
861.000000	51.339545
860.000000	51.358927
859.000000	51.894459
858.000000	51.929355
857.000000	52.033968
856.000000	52.038466
855.000000	51.909862
854.000000	52.141938
853.000000	51.651828
852.000000	51.768982
851.000000	51.879863
850.000000	51.972659
849.000000	51.932301
848.000000	51.844621
847.000000	51.992261
846.000000	51.660079
845.000000	51.474095
844.000000	51.632721
843.000000	51.708215
842.000000	51.395536
841.000000	51.414465
840.000000	51.503063
839.000000	51.389145
838.000000	51.328995
837.000000	51.292204
836.000000	51.412870
835.000000	51.252055
834.000000	51.238887
833.000000	51.024525
832.000000	50.942861
831.000000	51.064134
830.000000	50.968731
829.000000	50.957483
828.000000	51.037342
827.000000	50.865226
826.000000	50.910710
825.000000	50.772265
824.000000	50.902558
823.000000	50.728955
822.000000	50.768867
821.000000	50.770256
820.000000	50.669790
819.000000	50.530161
818.000000	50.653708
817.000000	50.668507
816.000000	50.623170
815.000000	50.468528
814.000000	50.440633
813.000000	50.435404
812.000000	50.383441
811.000000	50.435919
810.000000	50.239388
809.000000	50.391280
808.000000	50.166307
807.000000	50.307719
806.000000	50.097205
805.000000	50.226499
804.000000	50.054370
803.000000	50.073084
802.000000	49.936529
801.000000	49.999912
800.000000	49.857354
799.000000	49.923757
798.000000	49.850732
797.000000	49.851433
796.000000	49.672471
795.000000	49.739766
794.000000	49.716962
793.000000	49.614974
792.000000	49.538310
791.000000	49.498623
790.000000	49.376892
789.000000	49.382011
788.000000	49.222732
787.000000	49.230198
786.000000	49.289265
785.000000	49.200520
784.000000	49.200151
783.000000	49.119742
782.000000	49.022354
781.000000	49.039441
780.000000	49.008896
779.000000	48.916588
778.000000	48.911061
777.000000	48.795047
776.000000	48.780676
775.000000	48.749535
774.000000	48.676024
773.000000	48.661056
772.000000	48.570771
771.000000	48.502849
770.000000	48.493485
769.000000	48.423654
768.000000	48.387910
767.000000	48.371490
766.000000	48.335052
765.000000	48.204542
764.000000	48.083866
763.000000	48.049155
762.000000	48.000990
761.000000	47.947565
760.000000	48.016087
759.000000	48.008003
758.000000	47.852325
757.000000	47.831270
756.000000	47.784936
755.000000	47.702920
754.000000	47.646072
753.000000	47.569620
752.000000	47.568375
751.000000	47.499006
750.000000	47.419876
749.000000	47.323468
748.000000	47.248267
747.000000	47.215242
746.000000	47.156895
745.000000	47.031993
744.000000	47.004747
743.000000	46.973747
742.000000	46.921719
741.000000	46.839756
740.000000	46.843108
739.000000	46.797834
738.000000	46.659079
737.000000	46.576718
736.000000	46.567580
735.000000	46.444684
734.000000	46.376991
733.000000	46.358114
732.000000	46.295672
731.000000	46.195496
730.000000	46.100851
729.000000	46.014718
728.000000	45.919052
727.000000	45.866192
726.000000	45.857745
725.000000	45.770219
724.000000	45.707571
723.000000	45.676104
722.000000	45.555932
721.000000	45.510530
720.000000	45.488554
719.000000	45.348230
718.000000	45.211041
717.000000	45.156689
716.000000	45.121141
715.000000	45.080490
714.000000	45.035402
713.000000	44.903979
712.000000	44.838380
711.000000	44.753804
710.000000	44.698995
709.000000	44.654233
708.000000	44.559412
707.000000	44.506977
706.000000	44.429945
705.000000	44.311956
704.000000	44.254656
703.000000	44.219313
702.000000	44.133691
701.000000	44.031891
700.000000	43.959347
699.000000	43.863345
698.000000	43.758553
697.000000	43.700432
696.000000	43.618480
695.000000	43.536449
694.000000	43.428107
693.000000	43.362342
692.000000	43.312585
691.000000	43.212827
690.000000	43.139687
689.000000	43.012996
688.000000	42.916449
687.000000	42.828502
686.000000	42.742296
685.000000	42.669256
684.000000	42.576281
683.000000	42.493235
682.000000	42.373404
681.000000	42.276039
680.000000	42.160456
679.000000	42.104680
678.000000	42.029913
677.000000	41.952868
676.000000	41.861035
675.000000	41.775510
674.000000	41.687843
673.000000	41.598070
672.000000	41.509567
671.000000	41.464290
670.000000	41.354877
669.000000	41.242452
668.000000	41.174692
667.000000	41.105162
666.000000	40.995965
665.000000	40.896650
664.000000	40.837975
663.000000	40.734868
662.000000	40.613901
661.000000	40.522192
660.000000	40.427103
659.000000	40.346055
658.000000	40.244844
657.000000	40.150746
656.000000	40.083765
655.000000	39.981383
654.000000	39.883602
653.000000	39.794064
652.000000	39.719943
651.000000	39.627821
650.000000	39.514388
649.000000	39.397073
648.000000	39.341873
647.000000	39.269487
646.000000	39.173728
645.000000	39.006294
644.000000	38.949667
643.000000	38.870508
642.000000	38.738530
641.000000	38.690289
640.000000	38.588230
639.000000	38.446330
638.000000	38.373219
637.000000	38.285683
636.000000	38.181128
635.000000	38.057943
634.000000	37.972766
633.000000	37.875876
632.000000	37.780192
631.000000	37.693478
630.000000	37.612290
629.000000	37.543431
628.000000	37.392898
627.000000	37.294783
626.000000	37.204620
625.000000	37.085172
624.000000	37.000252
623.000000	36.936279
622.000000	36.824563
621.000000	36.700657
620.000000	36.589542
619.000000	36.469178
618.000000	36.396411
617.000000	36.296943
616.000000	36.203418
615.000000	36.106057
614.000000	35.976453
613.000000	35.882363
612.000000	35.787215
611.000000	35.725084
610.000000	35.599304
609.000000	35.507593
608.000000	35.404103
607.000000	35.280469
606.000000	35.187122
605.000000	35.061002
604.000000	34.964221
603.000000	34.852424
602.000000	34.748238
601.000000	34.644349
600.000000	34.536887
599.000000	34.403064
598.000000	34.343779
597.000000	34.226687
596.000000	34.116643
595.000000	34.022125
594.000000	33.902123
593.000000	33.819753
592.000000	33.691348
591.000000	33.590576
590.000000	33.489061
589.000000	33.372183
588.000000	33.300310
587.000000	33.149084
586.000000	33.050664
585.000000	32.964572
584.000000	32.834801
583.000000	32.762831
582.000000	32.650146
581.000000	32.541011
580.000000	32.401423
579.000000	32.316315
578.000000	32.178269
577.000000	32.105237
576.000000	31.988671
575.000000	31.868990
574.000000	31.753173
573.000000	31.668303
572.000000	31.521735
571.000000	31.421378
570.000000	31.323140
569.000000	31.211438
568.000000	31.093659
567.000000	30.957533
566.000000	30.865559
565.000000	30.756585
564.000000	30.635216
563.000000	30.521991
562.000000	30.415615
561.000000	30.393336
560.000000	30.267004
559.000000	30.162496
558.000000	30.045468
557.000000	29.946093
556.000000	29.805871
555.000000	29.695031
554.000000	29.579414
553.000000	29.465288
552.000000	29.342138
551.000000	29.243364
550.000000	29.133747
549.000000	29.021995
548.000000	28.906186
547.000000	28.826298
546.000000	28.685156
545.000000	28.577978
544.000000	28.453632
543.000000	28.340771
542.000000	28.218607
541.000000	28.101595
540.000000	27.967223
539.000000	27.874698
538.000000	27.765589
537.000000	27.647053
536.000000	27.510514
535.000000	27.397508
534.000000	27.291589
533.000000	27.191404
532.000000	27.063997
531.000000	26.938681
530.000000	26.805357
529.000000	26.673680
528.000000	26.552604
527.000000	26.443355
526.000000	26.340485
525.000000	26.220991
524.000000	26.096176
523.000000	25.962204
522.000000	25.866087
521.000000	25.753233
520.000000	25.623954
519.000000	25.492995
518.000000	25.375771
517.000000	25.273739
516.000000	25.139941
515.000000	25.041081
514.000000	24.933139
513.000000	24.811508
512.000000	24.687043
511.000000	24.559512
510.000000	24.465170
509.000000	24.352444
508.000000	24.242543
507.000000	24.138390
506.000000	24.022291
505.000000	23.915355
504.000000	23.802849
503.000000	23.681538
502.000000	23.574631
501.000000	23.469291
500.000000	23.355102
499.000000	23.240323
498.000000	23.143536
497.000000	23.043801
496.000000	22.926246
495.000000	22.812576
494.000000	22.712095
493.000000	22.596099
492.000000	22.488332
491.000000	22.401288
490.000000	22.292101
489.000000	22.172953
488.000000	22.058322
487.000000	21.967530
486.000000	21.869723
485.000000	21.753249
484.000000	21.661490
483.000000	21.590712
482.000000	21.463646
481.000000	21.353606
480.000000	21.252555
479.000000	21.131501
478.000000	20.996496
477.000000	20.869618
476.000000	20.752553
475.000000	20.656564
474.000000	20.565199
473.000000	20.458963
472.000000	20.325607
471.000000	20.218414
470.000000	20.130066
469.000000	20.025092
468.000000	19.924725
467.000000	19.818397
466.000000	19.706652
465.000000	19.594157
464.000000	19.489088
463.000000	19.383443
462.000000	19.272071
461.000000	19.163152
460.000000	19.065799
459.000000	18.956424
458.000000	18.828564
457.000000	18.714484
456.000000	18.614123
455.000000	18.491781
454.000000	18.371961
453.000000	18.240189
452.000000	18.134722
451.000000	18.036316
450.000000	17.905276
449.000000	17.808247
448.000000	17.689358
447.000000	17.558963
446.000000	17.478572
445.000000	17.371221
444.000000	17.240522
443.000000	17.135328
442.000000	16.993648
441.000000	16.896719
440.000000	16.824776
439.000000	16.712353
438.000000	16.576359
437.000000	16.488122
436.000000	16.394073
435.000000	16.264891
434.000000	16.168038
433.000000	16.063609
432.000000	15.974765
431.000000	15.862515
430.000000	15.762129
429.000000	15.648738
428.000000	15.530416
427.000000	15.446927
426.000000	15.343876
425.000000	15.217226
424.000000	15.124797
423.000000	15.032335
422.000000	14.923353
421.000000	14.827961
420.000000	14.710736
419.000000	14.593471
418.000000	14.480485
417.000000	14.358617
416.000000	14.270147
415.000000	14.178429
414.000000	14.069933
413.000000	13.973335
412.000000	13.880315
411.000000	13.766792
410.000000	13.662527
409.000000	13.548132
408.000000	13.423982
407.000000	13.321135
406.000000	13.227200
405.000000	13.100565
404.000000	12.996980
403.000000	12.902532
402.000000	12.790549
401.000000	12.681041
400.000000	12.609043
399.000000	12.496902
398.000000	12.418875
397.000000	12.326143
396.000000	12.222853
395.000000	12.110744
394.000000	12.028831
393.000000	11.920391
392.000000	11.820929
391.000000	11.733763
390.000000	11.643207
389.000000	11.535021
388.000000	11.454848
387.000000	11.322595
386.000000	11.252178
385.000000	11.177121
384.000000	11.064536
383.000000	10.976983
382.000000	10.879551
381.000000	10.825552
380.000000	10.736474
379.000000	10.631363
378.000000	10.513263
377.000000	10.461986
376.000000	10.395134
375.000000	10.298006
374.000000	10.156687
373.000000	10.109208
372.000000	10.010121
371.000000	9.945106
370.000000	9.881244
369.000000	9.771495
368.000000	9.735139
367.000000	9.682607
366.000000	9.574260
365.000000	9.542268
364.000000	9.445858
363.000000	9.422804
362.000000	9.312977
361.000000	9.276569
360.000000	9.207610
359.000000	9.137342
358.000000	9.099065
357.000000	9.061113
356.000000	8.998144
355.000000	8.971922
354.000000	8.885015
353.000000	8.838835
352.000000	8.817062
351.000000	8.738638
350.000000	8.696592
349.000000	8.643051
348.000000	8.656373
347.000000	8.523264
346.000000	8.499576
345.000000	8.419720
344.000000	8.441000
343.000000	8.379284
342.000000	8.339744
341.000000	8.287091
340.000000	8.243935
339.000000	8.159779
338.000000	8.126175
337.000000	8.099165
336.000000	8.085613
335.000000	7.981976
334.000000	7.961863
333.000000	7.895782
332.000000	7.850740
331.000000	7.842512
330.000000	7.764907
329.000000	7.679061
328.000000	7.685200
327.000000	7.616168
326.000000	7.629815
325.000000	7.585833
324.000000	7.602671
323.000000	7.613779
322.000000	7.572718
321.000000	7.514140
320.000000	7.511372
319.000000	7.457459
318.000000	7.604369
317.000000	7.569361
316.000000	7.546736
315.000000	7.605009
314.000000	7.511298
313.000000	7.495166
312.000000	7.478461
311.000000	7.435016
310.000000	7.454094
309.000000	7.413734
308.000000	7.455806
307.000000	7.402732
306.000000	7.457510
305.000000	7.409127
304.000000	7.408856
303.000000	7.432219
302.000000	7.417146
301.000000	7.397160
300.000000	7.445075
299.000000	7.394336
298.000000	7.368433
297.000000	7.446698
296.000000	7.408787
295.000000	7.414379
294.000000	7.505545
293.000000	7.460553
292.000000	7.488381
291.000000	7.499413
290.000000	7.498587
289.000000	7.521524
288.000000	7.512380
287.000000	7.539914
286.000000	7.579353
285.000000	7.637003
284.000000	7.655755
283.000000	7.659990
282.000000	7.732254
281.000000	7.759687
280.000000	7.806284
279.000000	7.878209
278.000000	7.967165
277.000000	7.943282
276.000000	8.014539
275.000000	8.106197
274.000000	8.161352
273.000000	8.204919
272.000000	8.265535
271.000000	8.327320
270.000000	8.430760
269.000000	8.466190
268.000000	8.528436
267.000000	8.595796
266.000000	8.662274
265.000000	8.769005
264.000000	8.863412
263.000000	8.913602
262.000000	9.002271
261.000000	9.094392
260.000000	9.230005
259.000000	9.292139
258.000000	9.357748
257.000000	9.473354
256.000000	9.655874
255.000000	9.770499
254.000000	9.839122
253.000000	9.933127
252.000000	10.073170
251.000000	10.185819
250.000000	10.304491
249.000000	10.427558
248.000000	10.536431
247.000000	10.628080
246.000000	10.698674
245.000000	10.821983
244.000000	10.923384
243.000000	10.959959
242.000000	11.045437
241.000000	11.094295
240.000000	11.152251
239.000000	11.174501
238.000000	11.221008
237.000000	11.253702
236.000000	11.268550
235.000000	11.342277
234.000000	11.370181
233.000000	11.355471
232.000000	11.381782
231.000000	11.403671
230.000000	11.467469
229.000000	11.493307
228.000000	11.498505
227.000000	11.526596
226.000000	11.616909
225.000000	11.699750
224.000000	11.736014
223.000000	11.842301
222.000000	12.017233
221.000000	12.129575
220.000000	12.271630
219.000000	12.429089
218.000000	12.591660
217.000000	12.698103
216.000000	12.849719
215.000000	13.128505
214.000000	13.376326
213.000000	13.551482
212.000000	13.782018
211.000000	14.083616
210.000000	14.365113
209.000000	14.786692
208.000000	15.205115
207.000000	15.549107
206.000000	15.934593
205.000000	16.389351
204.000000	16.850095
203.000000	17.292275
202.000000	17.918055
201.000000	18.375287
200.000000	19.020603
