PE UV       SUBTECH     SPECTRUM    ASCII       PEDS        4.00        
   -1
RTms1556141.Sample.asc
18/03/15
10:32:03.00
18/03/15
10:32:03.00
Administrator

200.000000
1
Lambda 750
750N8071901
PerkinElmer UV WinLab 6.0.4.0738 / 1.61.00 Lambda 900

0
0
3350/servo 860.8/2
0
0
UV/VIS
1
1
1
CommonBeamDepol,150mm sphere / downward view
0
0
0
0
Program
Program
3350/servo 860.8/2
3350/0.2 860.8/0.2
3350/0.2 860.8/0.2
0
1
 
 
 
0
 
860.8
319.2
860.8
Front
100
on
 
 
0
0
0
 
0
 
 
 
0
 
 
0
0
0
0
0
 
 
 
 
0
0


0
0
#HDR
-1
-1
#GR
nm
%R
1.0
0.0
2350.000000
-1.000000
2151
8
62.421453
8.727872
#DATA
2350.000000	30.918919
2349.000000	30.847246
2348.000000	30.452765
2347.000000	31.335970
2346.000000	31.129104
2345.000000	30.770548
2344.000000	30.861933
2343.000000	30.536357
2342.000000	30.885046
2341.000000	31.099151
2340.000000	31.375698
2339.000000	31.367650
2338.000000	31.493584
2337.000000	31.146104
2336.000000	31.753294
2335.000000	31.708154
2334.000000	31.829921
2333.000000	31.885199
2332.000000	31.470708
2331.000000	31.661663
2330.000000	31.617238
2329.000000	31.595056
2328.000000	31.654920
2327.000000	31.382329
2326.000000	31.660654
2325.000000	31.458091
2324.000000	31.662324
2323.000000	31.242735
2322.000000	31.359916
2321.000000	31.573076
2320.000000	31.489452
2319.000000	31.380826
2318.000000	31.341897
2317.000000	31.273960
2316.000000	30.971357
2315.000000	30.795648
2314.000000	30.775345
2313.000000	30.579113
2312.000000	30.599880
2311.000000	30.765620
2310.000000	30.477693
2309.000000	30.639905
2308.000000	30.695120
2307.000000	30.498523
2306.000000	30.495193
2305.000000	30.456930
2304.000000	30.504499
2303.000000	30.339071
2302.000000	30.299058
2301.000000	29.933011
2300.000000	29.909034
2299.000000	30.056131
2298.000000	30.102711
2297.000000	30.069812
2296.000000	30.132179
2295.000000	29.957612
2294.000000	29.726546
2293.000000	29.837811
2292.000000	29.908541
2291.000000	29.864234
2290.000000	29.743367
2289.000000	29.730583
2288.000000	29.837103
2287.000000	29.826202
2286.000000	29.901316
2285.000000	29.617108
2284.000000	29.526501
2283.000000	29.637959
2282.000000	29.575059
2281.000000	29.671742
2280.000000	29.707142
2279.000000	29.797916
2278.000000	29.844509
2277.000000	29.845416
2276.000000	29.853551
2275.000000	30.003818
2274.000000	30.229332
2273.000000	30.189302
2272.000000	30.069065
2271.000000	30.187424
2270.000000	30.187161
2269.000000	30.326488
2268.000000	30.372955
2267.000000	30.473094
2266.000000	30.616163
2265.000000	30.704648
2264.000000	30.783272
2263.000000	30.856695
2262.000000	31.045575
2261.000000	31.258540
2260.000000	31.288595
2259.000000	31.357100
2258.000000	31.625738
2257.000000	31.808737
2256.000000	31.961916
2255.000000	32.202772
2254.000000	32.336544
2253.000000	32.383048
2252.000000	32.647740
2251.000000	32.795375
2250.000000	32.937816
2249.000000	33.174996
2248.000000	33.367246
2247.000000	33.478446
2246.000000	33.676199
2245.000000	33.938774
2244.000000	34.113282
2243.000000	34.336833
2242.000000	34.418855
2241.000000	34.555183
2240.000000	34.696582
2239.000000	34.724548
2238.000000	34.824494
2237.000000	34.874211
2236.000000	35.087565
2235.000000	35.242703
2234.000000	35.213232
2233.000000	35.159586
2232.000000	35.250215
2231.000000	35.414332
2230.000000	35.423791
2229.000000	35.505157
2228.000000	35.551818
2227.000000	35.490498
2226.000000	35.534875
2225.000000	35.576861
2224.000000	35.542481
2223.000000	35.503476
2222.000000	35.539614
2221.000000	35.494153
2220.000000	35.448417
2219.000000	35.430492
2218.000000	35.415045
2217.000000	35.270081
2216.000000	35.352032
2215.000000	35.323394
2214.000000	35.286888
2213.000000	35.290222
2212.000000	35.121619
2211.000000	35.032265
2210.000000	35.128070
2209.000000	35.060536
2208.000000	34.992598
2207.000000	34.848462
2206.000000	34.723346
2205.000000	34.701758
2204.000000	34.658164
2203.000000	34.583416
2202.000000	34.618488
2201.000000	34.607258
2200.000000	34.581920
2199.000000	34.413712
2198.000000	34.369230
2197.000000	34.184538
2196.000000	34.090611
2195.000000	34.147133
2194.000000	34.046941
2193.000000	34.036465
2192.000000	34.078286
2191.000000	33.907833
2190.000000	33.761355
2189.000000	33.743687
2188.000000	33.825651
2187.000000	33.661824
2186.000000	33.588638
2185.000000	33.758774
2184.000000	33.636176
2183.000000	33.613119
2182.000000	33.527391
2181.000000	33.427544
2180.000000	33.575958
2179.000000	33.527088
2178.000000	33.443969
2177.000000	33.487036
2176.000000	33.494659
2175.000000	33.561042
2174.000000	33.534968
2173.000000	33.580486
2172.000000	33.758708
2171.000000	33.654988
2170.000000	33.660917
2169.000000	33.862463
2168.000000	34.050263
2167.000000	33.955938
2166.000000	34.015607
2165.000000	34.029753
2164.000000	34.061565
2163.000000	34.140919
2162.000000	34.410470
2161.000000	34.448508
2160.000000	34.676994
2159.000000	34.815583
2158.000000	34.622113
2157.000000	34.799600
2156.000000	35.015198
2155.000000	35.139966
2154.000000	35.345410
2153.000000	35.401700
2152.000000	35.668897
2151.000000	35.746128
2150.000000	35.792314
2149.000000	35.914979
2148.000000	36.056157
2147.000000	36.195422
2146.000000	36.271129
2145.000000	36.426556
2144.000000	36.477393
2143.000000	36.588723
2142.000000	36.603265
2141.000000	36.927376
2140.000000	36.828897
2139.000000	37.056386
2138.000000	37.330056
2137.000000	37.256249
2136.000000	37.458030
2135.000000	37.437538
2134.000000	37.550986
2133.000000	37.558699
2132.000000	37.667211
2131.000000	37.780559
2130.000000	37.944155
2129.000000	37.888778
2128.000000	37.836292
2127.000000	37.927935
2126.000000	37.905114
2125.000000	38.010063
2124.000000	38.186715
2123.000000	37.989498
2122.000000	38.036976
2121.000000	38.219274
2120.000000	38.312066
2119.000000	38.198371
2118.000000	38.211791
2117.000000	38.171392
2116.000000	38.349574
2115.000000	38.463259
2114.000000	38.378797
2113.000000	38.384461
2112.000000	38.428434
2111.000000	38.431975
2110.000000	38.320960
2109.000000	38.440554
2108.000000	38.338466
2107.000000	38.462283
2106.000000	38.460810
2105.000000	38.500793
2104.000000	38.525850
2103.000000	38.567814
2102.000000	38.613206
2101.000000	38.551857
2100.000000	38.586385
2099.000000	38.463693
2098.000000	38.513296
2097.000000	38.594551
2096.000000	38.512689
2095.000000	38.494884
2094.000000	38.510401
2093.000000	38.519263
2092.000000	38.506891
2091.000000	38.459374
2090.000000	38.357809
2089.000000	38.354842
2088.000000	38.387098
2087.000000	38.279957
2086.000000	38.367474
2085.000000	38.358830
2084.000000	38.244122
2083.000000	38.187207
2082.000000	38.077950
2081.000000	38.013591
2080.000000	38.003492
2079.000000	38.037713
2078.000000	37.901224
2077.000000	37.772323
2076.000000	37.667843
2075.000000	37.514610
2074.000000	37.482554
2073.000000	37.385188
2072.000000	37.310351
2071.000000	37.185706
2070.000000	37.056374
2069.000000	36.867499
2068.000000	36.782027
2067.000000	36.667765
2066.000000	36.525962
2065.000000	36.444119
2064.000000	36.410872
2063.000000	36.229445
2062.000000	36.022717
2061.000000	35.880859
2060.000000	35.737743
2059.000000	35.643514
2058.000000	35.489698
2057.000000	35.390907
2056.000000	35.359277
2055.000000	35.233259
2054.000000	35.066367
2053.000000	34.937332
2052.000000	34.829445
2051.000000	34.714668
2050.000000	34.682230
2049.000000	34.619350
2048.000000	34.508150
2047.000000	34.474220
2046.000000	34.426949
2045.000000	34.334035
2044.000000	34.363572
2043.000000	34.393885
2042.000000	34.350877
2041.000000	34.364767
2040.000000	34.391058
2039.000000	34.413626
2038.000000	34.465586
2037.000000	34.479386
2036.000000	34.529191
2035.000000	34.607816
2034.000000	34.703127
2033.000000	34.791306
2032.000000	34.869967
2031.000000	34.894847
2030.000000	34.975177
2029.000000	35.085676
2028.000000	35.169703
2027.000000	35.244689
2026.000000	35.299746
2025.000000	35.347156
2024.000000	35.408382
2023.000000	35.458629
2022.000000	35.490518
2021.000000	35.523226
2020.000000	35.541352
2019.000000	35.538580
2018.000000	35.555490
2017.000000	35.543496
2016.000000	35.519630
2015.000000	35.488502
2014.000000	35.436940
2013.000000	35.381633
2012.000000	35.334410
2011.000000	35.315321
2010.000000	35.247053
2009.000000	35.157333
2008.000000	35.098420
2007.000000	34.997099
2006.000000	34.921381
2005.000000	34.888468
2004.000000	34.810224
2003.000000	34.701600
2002.000000	34.606608
2001.000000	34.504038
2000.000000	34.408782
1999.000000	34.326877
1998.000000	34.234939
1997.000000	34.132268
1996.000000	34.026141
1995.000000	33.962585
1994.000000	33.863159
1993.000000	33.756352
1992.000000	33.671297
1991.000000	33.550618
1990.000000	33.446688
1989.000000	33.374428
1988.000000	33.273761
1987.000000	33.136050
1986.000000	33.042905
1985.000000	32.902635
1984.000000	32.818210
1983.000000	32.739211
1982.000000	32.661854
1981.000000	32.579456
1980.000000	32.464580
1979.000000	32.360816
1978.000000	32.274735
1977.000000	32.144504
1976.000000	32.049463
1975.000000	31.973937
1974.000000	31.891380
1973.000000	31.822352
1972.000000	31.721588
1971.000000	31.612842
1970.000000	31.507743
1969.000000	31.436020
1968.000000	31.360780
1967.000000	31.296458
1966.000000	31.271139
1965.000000	31.143532
1964.000000	31.023954
1963.000000	30.960493
1962.000000	30.865005
1961.000000	30.813330
1960.000000	30.733420
1959.000000	30.654918
1958.000000	30.612137
1957.000000	30.564551
1956.000000	30.506466
1955.000000	30.430438
1954.000000	30.378012
1953.000000	30.346649
1952.000000	30.265436
1951.000000	30.247827
1950.000000	30.253709
1949.000000	30.150506
1948.000000	30.169532
1947.000000	30.103655
1946.000000	30.141621
1945.000000	30.095179
1944.000000	30.107091
1943.000000	30.107088
1942.000000	30.158963
1941.000000	30.138791
1940.000000	30.185975
1939.000000	30.201147
1938.000000	30.308547
1937.000000	30.415835
1936.000000	30.549175
1935.000000	30.559564
1934.000000	30.666849
1933.000000	30.722898
1932.000000	30.787927
1931.000000	30.986941
1930.000000	31.120084
1929.000000	31.353257
1928.000000	31.402323
1927.000000	31.578016
1926.000000	31.794356
1925.000000	32.045781
1924.000000	32.224534
1923.000000	32.417037
1922.000000	32.741387
1921.000000	33.016689
1920.000000	33.205975
1919.000000	33.485967
1918.000000	33.731230
1917.000000	33.963844
1916.000000	34.239654
1915.000000	34.627203
1914.000000	34.943513
1913.000000	35.339674
1912.000000	35.603145
1911.000000	35.980983
1910.000000	36.377707
1909.000000	36.643567
1908.000000	37.143305
1907.000000	37.666183
1906.000000	37.995214
1905.000000	38.415756
1904.000000	38.984498
1903.000000	39.440847
1902.000000	39.934703
1901.000000	40.327001
1900.000000	40.766130
1899.000000	41.231138
1898.000000	41.689612
1897.000000	42.189408
1896.000000	42.623319
1895.000000	43.109634
1894.000000	43.606986
1893.000000	44.027534
1892.000000	44.470197
1891.000000	44.941424
1890.000000	45.363610
1889.000000	45.730991
1888.000000	46.180669
1887.000000	46.545633
1886.000000	46.929403
1885.000000	47.305784
1884.000000	47.665177
1883.000000	48.050575
1882.000000	48.376485
1881.000000	48.698750
1880.000000	49.014167
1879.000000	49.286061
1878.000000	49.609418
1877.000000	49.896707
1876.000000	50.121608
1875.000000	50.375514
1874.000000	50.617596
1873.000000	50.810922
1872.000000	50.978246
1871.000000	51.176896
1870.000000	51.291927
1869.000000	51.443582
1868.000000	51.550853
1867.000000	51.632678
1866.000000	51.744214
1865.000000	51.879844
1864.000000	51.948006
1863.000000	52.022840
1862.000000	52.077649
1861.000000	52.179619
1860.000000	52.268247
1859.000000	52.285852
1858.000000	52.334225
1857.000000	52.371600
1856.000000	52.430405
1855.000000	52.468257
1854.000000	52.502297
1853.000000	52.540806
1852.000000	52.560524
1851.000000	52.568166
1850.000000	52.584108
1849.000000	52.581024
1848.000000	52.590603
1847.000000	52.601923
1846.000000	52.612916
1845.000000	52.594793
1844.000000	52.559242
1843.000000	52.530650
1842.000000	52.543536
1841.000000	52.530020
1840.000000	52.516261
1839.000000	52.490744
1838.000000	52.464067
1837.000000	52.380322
1836.000000	52.298670
1835.000000	52.281203
1834.000000	52.258350
1833.000000	52.218362
1832.000000	52.212902
1831.000000	52.177068
1830.000000	52.128077
1829.000000	52.098627
1828.000000	52.064455
1827.000000	52.054997
1826.000000	52.032518
1825.000000	51.976323
1824.000000	51.951425
1823.000000	51.941048
1822.000000	51.889001
1821.000000	51.886438
1820.000000	51.832968
1819.000000	51.798804
1818.000000	51.826885
1817.000000	51.796204
1816.000000	51.740056
1815.000000	51.701411
1814.000000	51.659556
1813.000000	51.632459
1812.000000	51.626574
1811.000000	51.606949
1810.000000	51.582156
1809.000000	51.550507
1808.000000	51.536249
1807.000000	51.514900
1806.000000	51.494108
1805.000000	51.458753
1804.000000	51.436127
1803.000000	51.449713
1802.000000	51.438292
1801.000000	51.397333
1800.000000	51.350521
1799.000000	51.332826
1798.000000	51.311549
1797.000000	51.307976
1796.000000	51.306846
1795.000000	51.276957
1794.000000	51.260752
1793.000000	51.245836
1792.000000	51.225957
1791.000000	51.220606
1790.000000	51.222546
1789.000000	51.199240
1788.000000	51.175753
1787.000000	51.162456
1786.000000	51.151953
1785.000000	51.141155
1784.000000	51.095220
1783.000000	51.081368
1782.000000	51.050041
1781.000000	51.039209
1780.000000	51.004839
1779.000000	50.981490
1778.000000	50.959578
1777.000000	50.924441
1776.000000	50.871075
1775.000000	50.826027
1774.000000	50.771311
1773.000000	50.742263
1772.000000	50.693485
1771.000000	50.639412
1770.000000	50.606049
1769.000000	50.571129
1768.000000	50.508640
1767.000000	50.467126
1766.000000	50.431583
1765.000000	50.386744
1764.000000	50.340986
1763.000000	50.296771
1762.000000	50.252871
1761.000000	50.198133
1760.000000	50.144281
1759.000000	50.110574
1758.000000	50.096333
1757.000000	50.062436
1756.000000	50.014051
1755.000000	49.968243
1754.000000	49.946030
1753.000000	49.903795
1752.000000	49.857397
1751.000000	49.817896
1750.000000	49.808380
1749.000000	49.761768
1748.000000	49.684030
1747.000000	49.623541
1746.000000	49.587194
1745.000000	49.558526
1744.000000	49.494357
1743.000000	49.439590
1742.000000	49.407409
1741.000000	49.366226
1740.000000	49.306456
1739.000000	49.288208
1738.000000	49.257310
1737.000000	49.206327
1736.000000	49.172088
1735.000000	49.162054
1734.000000	49.166456
1733.000000	49.175027
1732.000000	49.151315
1731.000000	49.164329
1730.000000	49.184543
1729.000000	49.172005
1728.000000	49.270427
1727.000000	49.306541
1726.000000	49.352646
1725.000000	49.438023
1724.000000	49.482905
1723.000000	49.578740
1722.000000	49.650412
1721.000000	49.731821
1720.000000	49.822165
1719.000000	49.920436
1718.000000	49.986206
1717.000000	50.037571
1716.000000	50.163582
1715.000000	50.232339
1714.000000	50.311242
1713.000000	50.352428
1712.000000	50.432355
1711.000000	50.532429
1710.000000	50.599065
1709.000000	50.645359
1708.000000	50.678392
1707.000000	50.721409
1706.000000	50.759868
1705.000000	50.811203
1704.000000	50.837686
1703.000000	50.858538
1702.000000	50.907802
1701.000000	50.909638
1700.000000	50.944389
1699.000000	50.953171
1698.000000	51.030716
1697.000000	51.030303
1696.000000	51.092026
1695.000000	51.106030
1694.000000	51.133637
1693.000000	51.222065
1692.000000	51.232833
1691.000000	51.304637
1690.000000	51.391325
1689.000000	51.452538
1688.000000	51.560546
1687.000000	51.617675
1686.000000	51.729840
1685.000000	51.836575
1684.000000	51.981369
1683.000000	52.089580
1682.000000	52.220920
1681.000000	52.364210
1680.000000	52.479217
1679.000000	52.621036
1678.000000	52.763892
1677.000000	52.899447
1676.000000	53.030765
1675.000000	53.170386
1674.000000	53.349651
1673.000000	53.442137
1672.000000	53.582122
1671.000000	53.718055
1670.000000	53.814709
1669.000000	53.964015
1668.000000	54.082050
1667.000000	54.176446
1666.000000	54.248904
1665.000000	54.306650
1664.000000	54.394223
1663.000000	54.444611
1662.000000	54.529404
1661.000000	54.575563
1660.000000	54.628123
1659.000000	54.689147
1658.000000	54.740191
1657.000000	54.773187
1656.000000	54.787553
1655.000000	54.799527
1654.000000	54.836114
1653.000000	54.851527
1652.000000	54.871099
1651.000000	54.856931
1650.000000	54.861020
1649.000000	54.865080
1648.000000	54.838592
1647.000000	54.851367
1646.000000	54.845100
1645.000000	54.809192
1644.000000	54.810157
1643.000000	54.792881
1642.000000	54.788666
1641.000000	54.765427
1640.000000	54.753314
1639.000000	54.723598
1638.000000	54.694634
1637.000000	54.675520
1636.000000	54.631012
1635.000000	54.602955
1634.000000	54.585652
1633.000000	54.559726
1632.000000	54.534924
1631.000000	54.488811
1630.000000	54.442688
1629.000000	54.414964
1628.000000	54.382303
1627.000000	54.357979
1626.000000	54.338359
1625.000000	54.290548
1624.000000	54.247357
1623.000000	54.225031
1622.000000	54.192763
1621.000000	54.136978
1620.000000	54.101286
1619.000000	54.060192
1618.000000	54.018548
1617.000000	53.983674
1616.000000	53.934814
1615.000000	53.895091
1614.000000	53.846091
1613.000000	53.809355
1612.000000	53.760296
1611.000000	53.708894
1610.000000	53.669206
1609.000000	53.627250
1608.000000	53.578444
1607.000000	53.527785
1606.000000	53.470279
1605.000000	53.417912
1604.000000	53.369958
1603.000000	53.331509
1602.000000	53.292671
1601.000000	53.242424
1600.000000	53.188834
1599.000000	53.129692
1598.000000	53.081626
1597.000000	53.037343
1596.000000	52.998863
1595.000000	52.959486
1594.000000	52.912164
1593.000000	52.882446
1592.000000	52.840409
1591.000000	52.791793
1590.000000	52.754304
1589.000000	52.703472
1588.000000	52.655850
1587.000000	52.631926
1586.000000	52.609769
1585.000000	52.572650
1584.000000	52.532612
1583.000000	52.493511
1582.000000	52.447888
1581.000000	52.410572
1580.000000	52.378584
1579.000000	52.329117
1578.000000	52.308185
1577.000000	52.277650
1576.000000	52.226206
1575.000000	52.187577
1574.000000	52.152968
1573.000000	52.112105
1572.000000	52.076922
1571.000000	52.041908
1570.000000	51.995024
1569.000000	51.977235
1568.000000	51.948065
1567.000000	51.913914
1566.000000	51.899102
1565.000000	51.860649
1564.000000	51.821261
1563.000000	51.804694
1562.000000	51.777909
1561.000000	51.753628
1560.000000	51.726803
1559.000000	51.692146
1558.000000	51.669619
1557.000000	51.658474
1556.000000	51.638094
1555.000000	51.614736
1554.000000	51.588430
1553.000000	51.565227
1552.000000	51.524372
1551.000000	51.493613
1550.000000	51.454564
1549.000000	51.412563
1548.000000	51.380975
1547.000000	51.329983
1546.000000	51.281649
1545.000000	51.230855
1544.000000	51.159826
1543.000000	51.097469
1542.000000	51.034815
1541.000000	50.975203
1540.000000	50.887743
1539.000000	50.820408
1538.000000	50.749081
1537.000000	50.668814
1536.000000	50.603359
1535.000000	50.524311
1534.000000	50.459016
1533.000000	50.396514
1532.000000	50.328655
1531.000000	50.273568
1530.000000	50.203074
1529.000000	50.122150
1528.000000	50.069580
1527.000000	50.018079
1526.000000	49.963127
1525.000000	49.911125
1524.000000	49.851789
1523.000000	49.805913
1522.000000	49.771952
1521.000000	49.745969
1520.000000	49.709595
1519.000000	49.665472
1518.000000	49.633004
1517.000000	49.609617
1516.000000	49.577225
1515.000000	49.557937
1514.000000	49.563198
1513.000000	49.564471
1512.000000	49.579378
1511.000000	49.514445
1510.000000	49.476382
1509.000000	49.445485
1508.000000	49.408758
1507.000000	49.422135
1506.000000	49.379149
1505.000000	49.353997
1504.000000	49.343293
1503.000000	49.313732
1502.000000	49.335738
1501.000000	49.321419
1500.000000	49.307974
1499.000000	49.322680
1498.000000	49.305890
1497.000000	49.333841
1496.000000	49.294969
1495.000000	49.313510
1494.000000	49.330782
1493.000000	49.347453
1492.000000	49.347675
1491.000000	49.362839
1490.000000	49.388712
1489.000000	49.399576
1488.000000	49.422663
1487.000000	49.455579
1486.000000	49.472619
1485.000000	49.493634
1484.000000	49.526858
1483.000000	49.564521
1482.000000	49.572267
1481.000000	49.606581
1480.000000	49.625468
1479.000000	49.655259
1478.000000	49.698007
1477.000000	49.701287
1476.000000	49.745515
1475.000000	49.767885
1474.000000	49.783351
1473.000000	49.815531
1472.000000	49.842627
1471.000000	49.875521
1470.000000	49.900424
1469.000000	49.929239
1468.000000	49.963501
1467.000000	49.995141
1466.000000	50.034476
1465.000000	50.058418
1464.000000	50.068524
1463.000000	50.102380
1462.000000	50.151463
1461.000000	50.199228
1460.000000	50.208592
1459.000000	50.237245
1458.000000	50.278976
1457.000000	50.338742
1456.000000	50.391116
1455.000000	50.403074
1454.000000	50.452189
1453.000000	50.512921
1452.000000	50.558841
1451.000000	50.629513
1450.000000	50.671143
1449.000000	50.713688
1448.000000	50.781748
1447.000000	50.847171
1446.000000	50.903029
1445.000000	50.973804
1444.000000	51.057659
1443.000000	51.113176
1442.000000	51.193664
1441.000000	51.269747
1440.000000	51.333626
1439.000000	51.413265
1438.000000	51.505687
1437.000000	51.591446
1436.000000	51.675218
1435.000000	51.757146
1434.000000	51.852763
1433.000000	51.963504
1432.000000	52.050180
1431.000000	52.172602
1430.000000	52.290250
1429.000000	52.409089
1428.000000	52.521962
1427.000000	52.638128
1426.000000	52.768685
1425.000000	52.911418
1424.000000	53.057620
1423.000000	53.188247
1422.000000	53.323948
1421.000000	53.461134
1420.000000	53.609488
1419.000000	53.765725
1418.000000	53.910021
1417.000000	54.074812
1416.000000	54.237704
1415.000000	54.406716
1414.000000	54.572621
1413.000000	54.738445
1412.000000	54.915992
1411.000000	55.080475
1410.000000	55.238072
1409.000000	55.412729
1408.000000	55.587093
1407.000000	55.752678
1406.000000	55.923057
1405.000000	56.081447
1404.000000	56.221298
1403.000000	56.383682
1402.000000	56.537549
1401.000000	56.682207
1400.000000	56.849343
1399.000000	56.997496
1398.000000	57.123347
1397.000000	57.256092
1396.000000	57.389264
1395.000000	57.519909
1394.000000	57.643146
1393.000000	57.759417
1392.000000	57.872056
1391.000000	57.989534
1390.000000	58.089364
1389.000000	58.195076
1388.000000	58.299110
1387.000000	58.401285
1386.000000	58.491770
1385.000000	58.567713
1384.000000	58.659905
1383.000000	58.747882
1382.000000	58.799269
1381.000000	58.878046
1380.000000	58.957991
1379.000000	59.004055
1378.000000	59.044299
1377.000000	59.112833
1376.000000	59.166568
1375.000000	59.199757
1374.000000	59.250341
1373.000000	59.300821
1372.000000	59.342058
1371.000000	59.388240
1370.000000	59.430258
1369.000000	59.467567
1368.000000	59.495461
1367.000000	59.534439
1366.000000	59.583316
1365.000000	59.613348
1364.000000	59.643378
1363.000000	59.684267
1362.000000	59.730811
1361.000000	59.775726
1360.000000	59.791701
1359.000000	59.824652
1358.000000	59.838333
1357.000000	59.863870
1356.000000	59.911085
1355.000000	59.913280
1354.000000	59.961547
1353.000000	60.011811
1352.000000	60.067091
1351.000000	60.076455
1350.000000	60.104460
1349.000000	60.137521
1348.000000	60.180239
1347.000000	60.216263
1346.000000	60.245560
1345.000000	60.276823
1344.000000	60.323495
1343.000000	60.343568
1342.000000	60.394088
1341.000000	60.443329
1340.000000	60.468065
1339.000000	60.480753
1338.000000	60.508064
1337.000000	60.534954
1336.000000	60.590424
1335.000000	60.624605
1334.000000	60.643773
1333.000000	60.651801
1332.000000	60.668588
1331.000000	60.680321
1330.000000	60.708055
1329.000000	60.742212
1328.000000	60.743248
1327.000000	60.742354
1326.000000	60.776964
1325.000000	60.791880
1324.000000	60.792645
1323.000000	60.822077
1322.000000	60.846963
1321.000000	60.847014
1320.000000	60.820252
1319.000000	60.842463
1318.000000	60.863356
1317.000000	60.881270
1316.000000	60.894086
1315.000000	60.893297
1314.000000	60.863298
1313.000000	60.885802
1312.000000	60.910734
1311.000000	60.923752
1310.000000	60.919487
1309.000000	60.926727
1308.000000	60.921838
1307.000000	60.943111
1306.000000	60.941628
1305.000000	60.954785
1304.000000	60.947836
1303.000000	60.970944
1302.000000	61.008354
1301.000000	61.011518
1300.000000	61.007273
1299.000000	60.995664
1298.000000	60.997065
1297.000000	61.000778
1296.000000	61.004915
1295.000000	60.994752
1294.000000	61.001202
1293.000000	61.002851
1292.000000	61.024391
1291.000000	61.003115
1290.000000	61.027014
1289.000000	61.014750
1288.000000	61.011966
1287.000000	61.000839
1286.000000	60.995070
1285.000000	60.996652
1284.000000	60.989941
1283.000000	60.997300
1282.000000	61.003315
1281.000000	61.015650
1280.000000	61.006566
1279.000000	61.019980
1278.000000	61.006393
1277.000000	60.998418
1276.000000	60.994955
1275.000000	61.005885
1274.000000	61.000508
1273.000000	60.998054
1272.000000	61.016920
1271.000000	60.992348
1270.000000	60.983865
1269.000000	61.028124
1268.000000	61.010193
1267.000000	61.021954
1266.000000	61.020283
1265.000000	60.996993
1264.000000	61.000067
1263.000000	61.032548
1262.000000	61.056332
1261.000000	61.031892
1260.000000	61.022323
1259.000000	61.029803
1258.000000	61.034974
1257.000000	61.035107
1256.000000	61.066139
1255.000000	61.065156
1254.000000	61.058931
1253.000000	61.070091
1252.000000	61.030297
1251.000000	61.054217
1250.000000	61.044099
1249.000000	61.054318
1248.000000	61.035455
1247.000000	61.061541
1246.000000	61.055800
1245.000000	61.036777
1244.000000	61.027331
1243.000000	61.026799
1242.000000	61.038635
1241.000000	61.002505
1240.000000	60.987438
1239.000000	60.999114
1238.000000	60.978027
1237.000000	60.961639
1236.000000	60.962225
1235.000000	60.955748
1234.000000	60.938451
1233.000000	60.907394
1232.000000	60.900306
1231.000000	60.892859
1230.000000	60.864448
1229.000000	60.861396
1228.000000	60.835080
1227.000000	60.847731
1226.000000	60.837824
1225.000000	60.804560
1224.000000	60.792407
1223.000000	60.805576
1222.000000	60.799467
1221.000000	60.759524
1220.000000	60.725467
1219.000000	60.711741
1218.000000	60.700127
1217.000000	60.695653
1216.000000	60.667959
1215.000000	60.645513
1214.000000	60.612795
1213.000000	60.582745
1212.000000	60.598535
1211.000000	60.557667
1210.000000	60.516272
1209.000000	60.504438
1208.000000	60.498218
1207.000000	60.473417
1206.000000	60.436272
1205.000000	60.435096
1204.000000	60.390032
1203.000000	60.370384
1202.000000	60.377366
1201.000000	60.340847
1200.000000	60.314135
1199.000000	60.285817
1198.000000	60.271875
1197.000000	60.271645
1196.000000	60.250146
1195.000000	60.218274
1194.000000	60.207304
1193.000000	60.193537
1192.000000	60.180925
1191.000000	60.192763
1190.000000	60.194792
1189.000000	60.169445
1188.000000	60.170685
1187.000000	60.177113
1186.000000	60.176674
1185.000000	60.188363
1184.000000	60.176570
1183.000000	60.193507
1182.000000	60.228045
1181.000000	60.246617
1180.000000	60.257111
1179.000000	60.283205
1178.000000	60.316064
1177.000000	60.336465
1176.000000	60.367396
1175.000000	60.408089
1174.000000	60.433000
1173.000000	60.458733
1172.000000	60.501986
1171.000000	60.550038
1170.000000	60.587529
1169.000000	60.633375
1168.000000	60.682238
1167.000000	60.716115
1166.000000	60.762217
1165.000000	60.820200
1164.000000	60.860215
1163.000000	60.895176
1162.000000	60.937575
1161.000000	60.984652
1160.000000	61.028570
1159.000000	61.077294
1158.000000	61.122717
1157.000000	61.164521
1156.000000	61.203601
1155.000000	61.249540
1154.000000	61.273680
1153.000000	61.295546
1152.000000	61.344908
1151.000000	61.390390
1150.000000	61.423016
1149.000000	61.449676
1148.000000	61.479015
1147.000000	61.507909
1146.000000	61.521715
1145.000000	61.545419
1144.000000	61.586869
1143.000000	61.622185
1142.000000	61.633466
1141.000000	61.668751
1140.000000	61.699307
1139.000000	61.711010
1138.000000	61.747854
1137.000000	61.771726
1136.000000	61.792084
1135.000000	61.808618
1134.000000	61.840935
1133.000000	61.876948
1132.000000	61.893468
1131.000000	61.907638
1130.000000	61.928526
1129.000000	61.955402
1128.000000	61.979039
1127.000000	61.977973
1126.000000	61.982092
1125.000000	62.004371
1124.000000	62.008562
1123.000000	62.016079
1122.000000	62.021355
1121.000000	62.040413
1120.000000	62.048146
1119.000000	62.051383
1118.000000	62.056209
1117.000000	62.055103
1116.000000	62.059872
1115.000000	62.052123
1114.000000	62.058846
1113.000000	62.073905
1112.000000	62.076059
1111.000000	62.068439
1110.000000	62.076399
1109.000000	62.085763
1108.000000	62.093110
1107.000000	62.090629
1106.000000	62.097574
1105.000000	62.111467
1104.000000	62.099408
1103.000000	62.075669
1102.000000	62.074736
1101.000000	62.104626
1100.000000	62.102401
1099.000000	62.124467
1098.000000	62.123665
1097.000000	62.121327
1096.000000	62.121188
1095.000000	62.117160
1094.000000	62.100557
1093.000000	62.100325
1092.000000	62.088957
1091.000000	62.107091
1090.000000	62.118888
1089.000000	62.138384
1088.000000	62.135208
1087.000000	62.109855
1086.000000	62.128299
1085.000000	62.115815
1084.000000	62.125641
1083.000000	62.131235
1082.000000	62.131453
1081.000000	62.133212
1080.000000	62.116908
1079.000000	62.097540
1078.000000	62.111508
1077.000000	62.130101
1076.000000	62.130981
1075.000000	62.119304
1074.000000	62.111095
1073.000000	62.110362
1072.000000	62.118671
1071.000000	62.117242
1070.000000	62.108425
1069.000000	62.111935
1068.000000	62.108849
1067.000000	62.093197
1066.000000	62.081900
1065.000000	62.097457
1064.000000	62.103602
1063.000000	62.096509
1062.000000	62.103262
1061.000000	62.103920
1060.000000	62.092992
1059.000000	62.066561
1058.000000	62.065498
1057.000000	62.074979
1056.000000	62.069518
1055.000000	62.089976
1054.000000	62.067071
1053.000000	62.064510
1052.000000	62.065196
1051.000000	62.054747
1050.000000	62.072829
1049.000000	62.068404
1048.000000	62.026807
1047.000000	62.054613
1046.000000	62.050502
1045.000000	62.069897
1044.000000	62.053888
1043.000000	62.038360
1042.000000	62.067484
1041.000000	62.059803
1040.000000	62.058666
1039.000000	62.056163
1038.000000	62.049230
1037.000000	62.064802
1036.000000	62.077927
1035.000000	62.064242
1034.000000	62.065674
1033.000000	62.072176
1032.000000	62.075468
1031.000000	62.057484
1030.000000	62.078838
1029.000000	62.070804
1028.000000	62.069033
1027.000000	62.066215
1026.000000	62.077374
1025.000000	62.092086
1024.000000	62.074506
1023.000000	62.074169
1022.000000	62.078011
1021.000000	62.071768
1020.000000	62.089897
1019.000000	62.090539
1018.000000	62.098992
1017.000000	62.101740
1016.000000	62.096842
1015.000000	62.108345
1014.000000	62.124366
1013.000000	62.120903
1012.000000	62.130136
1011.000000	62.135506
1010.000000	62.138385
1009.000000	62.140047
1008.000000	62.154079
1007.000000	62.164923
1006.000000	62.179467
1005.000000	62.181374
1004.000000	62.178724
1003.000000	62.188739
1002.000000	62.184657
1001.000000	62.194652
1000.000000	62.202533
999.000000	62.205519
998.000000	62.208151
997.000000	62.227738
996.000000	62.235812
995.000000	62.232009
994.000000	62.238586
993.000000	62.234812
992.000000	62.243872
991.000000	62.265092
990.000000	62.254493
989.000000	62.247793
988.000000	62.242697
987.000000	62.254688
986.000000	62.261023
985.000000	62.278519
984.000000	62.280998
983.000000	62.281174
982.000000	62.282812
981.000000	62.280376
980.000000	62.294922
979.000000	62.286113
978.000000	62.277729
977.000000	62.290344
976.000000	62.304204
975.000000	62.300054
974.000000	62.311019
973.000000	62.302640
972.000000	62.302475
971.000000	62.303351
970.000000	62.298335
969.000000	62.312884
968.000000	62.325569
967.000000	62.338493
966.000000	62.323188
965.000000	62.341752
964.000000	62.332111
963.000000	62.340751
962.000000	62.361632
961.000000	62.363219
960.000000	62.354733
959.000000	62.356219
958.000000	62.362992
957.000000	62.368885
956.000000	62.396222
955.000000	62.411896
954.000000	62.390673
953.000000	62.381358
952.000000	62.397925
951.000000	62.393267
950.000000	62.390032
949.000000	62.410504
948.000000	62.421453
947.000000	62.408985
946.000000	62.415551
945.000000	62.407369
944.000000	62.382039
943.000000	62.381391
942.000000	62.404340
941.000000	62.408965
940.000000	62.403104
939.000000	62.415970
938.000000	62.409577
937.000000	62.382661
936.000000	62.368182
935.000000	62.351320
934.000000	62.362636
933.000000	62.385682
932.000000	62.363320
931.000000	62.328681
930.000000	62.350805
929.000000	62.364263
928.000000	62.359554
927.000000	62.372235
926.000000	62.358250
925.000000	62.345702
924.000000	62.328590
923.000000	62.316252
922.000000	62.330187
921.000000	62.341700
920.000000	62.341841
919.000000	62.307409
918.000000	62.326359
917.000000	62.331808
916.000000	62.295211
915.000000	62.304407
914.000000	62.313571
913.000000	62.287674
912.000000	62.294250
911.000000	62.270791
910.000000	62.276949
909.000000	62.265719
908.000000	62.286159
907.000000	62.283466
906.000000	62.295322
905.000000	62.299869
904.000000	62.281959
903.000000	62.300241
902.000000	62.311577
901.000000	62.258313
900.000000	62.266603
899.000000	62.272648
898.000000	62.249534
897.000000	62.319858
896.000000	62.293840
895.000000	62.248818
894.000000	62.253460
893.000000	62.244555
892.000000	62.196563
891.000000	62.252266
890.000000	62.306801
889.000000	62.274726
888.000000	62.298051
887.000000	62.272319
886.000000	62.236227
885.000000	62.327109
884.000000	62.323264
883.000000	62.249978
882.000000	62.343032
881.000000	62.300156
880.000000	62.243369
879.000000	62.232096
878.000000	62.246969
877.000000	62.154754
876.000000	62.127912
875.000000	62.171343
874.000000	62.176941
873.000000	62.180202
872.000000	62.171316
871.000000	62.145665
870.000000	62.116845
869.000000	62.137033
868.000000	62.137515
867.000000	62.094345
866.000000	62.037931
865.000000	62.229794
864.000000	62.134229
863.000000	61.934228
862.000000	62.027631
861.000000	61.995547
860.000000	62.185833
859.000000	61.176192
858.000000	61.127065
857.000000	61.172991
856.000000	61.094768
855.000000	61.337360
854.000000	61.211914
853.000000	61.034246
852.000000	60.955155
851.000000	61.035180
850.000000	61.034732
849.000000	61.166052
848.000000	61.214679
847.000000	61.242701
846.000000	61.049134
845.000000	61.068156
844.000000	61.024268
843.000000	61.063081
842.000000	60.740730
841.000000	61.185242
840.000000	60.930284
839.000000	61.045799
838.000000	60.900060
837.000000	60.908592
836.000000	61.005264
835.000000	60.826168
834.000000	60.863507
833.000000	60.814037
832.000000	60.698786
831.000000	60.789926
830.000000	60.934336
829.000000	61.018869
828.000000	60.834740
827.000000	60.661307
826.000000	60.728603
825.000000	60.726120
824.000000	60.673460
823.000000	60.792469
822.000000	60.829769
821.000000	60.752625
820.000000	60.752840
819.000000	60.624169
818.000000	60.508608
817.000000	60.691860
816.000000	60.744336
815.000000	60.575669
814.000000	60.514877
813.000000	60.504238
812.000000	60.476955
811.000000	60.621969
810.000000	60.521506
809.000000	60.602375
808.000000	60.565810
807.000000	60.671232
806.000000	60.403965
805.000000	60.569401
804.000000	60.428436
803.000000	60.456488
802.000000	60.453989
801.000000	60.370710
800.000000	60.252816
799.000000	60.407261
798.000000	60.306779
797.000000	60.431303
796.000000	60.266666
795.000000	60.202053
794.000000	60.128011
793.000000	60.174687
792.000000	60.169913
791.000000	60.133189
790.000000	60.144907
789.000000	60.224746
788.000000	60.125118
787.000000	60.008836
786.000000	60.136320
785.000000	60.105053
784.000000	60.021752
783.000000	59.984758
782.000000	59.943596
781.000000	60.032771
780.000000	59.935441
779.000000	59.951642
778.000000	59.972182
777.000000	59.930956
776.000000	59.911904
775.000000	59.874763
774.000000	59.833966
773.000000	59.783260
772.000000	59.719844
771.000000	59.724478
770.000000	59.720202
769.000000	59.720673
768.000000	59.714609
767.000000	59.656834
766.000000	59.761315
765.000000	59.585146
764.000000	59.550443
763.000000	59.465740
762.000000	59.590186
761.000000	59.575424
760.000000	59.552093
759.000000	59.503038
758.000000	59.476942
757.000000	59.453032
756.000000	59.438565
755.000000	59.372465
754.000000	59.302588
753.000000	59.292509
752.000000	59.254807
751.000000	59.214531
750.000000	59.181064
749.000000	59.119343
748.000000	59.108689
747.000000	59.171489
746.000000	59.208819
745.000000	59.132525
744.000000	59.040126
743.000000	59.006817
742.000000	58.954872
741.000000	58.913996
740.000000	58.906289
739.000000	58.881824
738.000000	58.814261
737.000000	58.794829
736.000000	58.785219
735.000000	58.749348
734.000000	58.686114
733.000000	58.691841
732.000000	58.633545
731.000000	58.573554
730.000000	58.565896
729.000000	58.473779
728.000000	58.396793
727.000000	58.406260
726.000000	58.380254
725.000000	58.313560
724.000000	58.272931
723.000000	58.263078
722.000000	58.194331
721.000000	58.136343
720.000000	58.162617
719.000000	58.139564
718.000000	58.057128
717.000000	57.953755
716.000000	57.900374
715.000000	57.921700
714.000000	57.941583
713.000000	57.860959
712.000000	57.766452
711.000000	57.717441
710.000000	57.675776
709.000000	57.669340
708.000000	57.673455
707.000000	57.592729
706.000000	57.541568
705.000000	57.520516
704.000000	57.508102
703.000000	57.442470
702.000000	57.318874
701.000000	57.267288
700.000000	57.272501
699.000000	57.196137
698.000000	57.093006
697.000000	57.070636
696.000000	57.030880
695.000000	56.924809
694.000000	56.877675
693.000000	56.886382
692.000000	56.827469
691.000000	56.741601
690.000000	56.757544
689.000000	56.658724
688.000000	56.521695
687.000000	56.442159
686.000000	56.419805
685.000000	56.370368
684.000000	56.320750
683.000000	56.241241
682.000000	56.114388
681.000000	56.067920
680.000000	55.978554
679.000000	55.947242
678.000000	55.908875
677.000000	55.827661
676.000000	55.771598
675.000000	55.720901
674.000000	55.606818
673.000000	55.520463
672.000000	55.457421
671.000000	55.452012
670.000000	55.335102
669.000000	55.252453
668.000000	55.230365
667.000000	55.165926
666.000000	55.112823
665.000000	55.035900
664.000000	54.970494
663.000000	54.855406
662.000000	54.783543
661.000000	54.796267
660.000000	54.675484
659.000000	54.629351
658.000000	54.530874
657.000000	54.443351
656.000000	54.389748
655.000000	54.305005
654.000000	54.222372
653.000000	54.160746
652.000000	54.107277
651.000000	54.006155
650.000000	53.925821
649.000000	53.863851
648.000000	53.817041
647.000000	53.714584
646.000000	53.630303
645.000000	53.533536
644.000000	53.471028
643.000000	53.361442
642.000000	53.303393
641.000000	53.237214
640.000000	53.152375
639.000000	53.051904
638.000000	52.979920
637.000000	52.921608
636.000000	52.804837
635.000000	52.707137
634.000000	52.602067
633.000000	52.495186
632.000000	52.418321
631.000000	52.356484
630.000000	52.318822
629.000000	52.212913
628.000000	52.075663
627.000000	52.025440
626.000000	51.885288
625.000000	51.861185
624.000000	51.801001
623.000000	51.687774
622.000000	51.591558
621.000000	51.438996
620.000000	51.346771
619.000000	51.278793
618.000000	51.186224
617.000000	51.093276
616.000000	51.007854
615.000000	50.900312
614.000000	50.805942
613.000000	50.720976
612.000000	50.630398
611.000000	50.588823
610.000000	50.441837
609.000000	50.344982
608.000000	50.242406
607.000000	50.144844
606.000000	50.015760
605.000000	49.929018
604.000000	49.811624
603.000000	49.711058
602.000000	49.601490
601.000000	49.460166
600.000000	49.345929
599.000000	49.235955
598.000000	49.150595
597.000000	49.026837
596.000000	48.948169
595.000000	48.832380
594.000000	48.704421
593.000000	48.619218
592.000000	48.446654
591.000000	48.360751
590.000000	48.229068
589.000000	48.119601
588.000000	48.021239
587.000000	47.909709
586.000000	47.756659
585.000000	47.702337
584.000000	47.523581
583.000000	47.463595
582.000000	47.323380
581.000000	47.174406
580.000000	47.040935
579.000000	46.958927
578.000000	46.819312
577.000000	46.717525
576.000000	46.538644
575.000000	46.389625
574.000000	46.290983
573.000000	46.173621
572.000000	46.043125
571.000000	45.917482
570.000000	45.769905
569.000000	45.685060
568.000000	45.513499
567.000000	45.359523
566.000000	45.235618
565.000000	45.106092
564.000000	44.956508
563.000000	44.833557
562.000000	44.675997
561.000000	44.584443
560.000000	44.419322
559.000000	44.251574
558.000000	44.143264
557.000000	43.988631
556.000000	43.816685
555.000000	43.700419
554.000000	43.548158
553.000000	43.406985
552.000000	43.261987
551.000000	43.127237
550.000000	42.954627
549.000000	42.819115
548.000000	42.676250
547.000000	42.539443
546.000000	42.359891
545.000000	42.231179
544.000000	42.059667
543.000000	41.920597
542.000000	41.768592
541.000000	41.623791
540.000000	41.452442
539.000000	41.288622
538.000000	41.131636
537.000000	40.993442
536.000000	40.830309
535.000000	40.690594
534.000000	40.532065
533.000000	40.400376
532.000000	40.216210
531.000000	40.073170
530.000000	39.901154
529.000000	39.746768
528.000000	39.573846
527.000000	39.412198
526.000000	39.246699
525.000000	39.103638
524.000000	38.941484
523.000000	38.754099
522.000000	38.607649
521.000000	38.444155
520.000000	38.287861
519.000000	38.118013
518.000000	37.952287
517.000000	37.791266
516.000000	37.609834
515.000000	37.459804
514.000000	37.287645
513.000000	37.110032
512.000000	36.954859
511.000000	36.768402
510.000000	36.601372
509.000000	36.433794
508.000000	36.274795
507.000000	36.118921
506.000000	35.939937
505.000000	35.759401
504.000000	35.583744
503.000000	35.407691
502.000000	35.242016
501.000000	35.072561
500.000000	34.905270
499.000000	34.741708
498.000000	34.581480
497.000000	34.409714
496.000000	34.243824
495.000000	34.054581
494.000000	33.876654
493.000000	33.713843
492.000000	33.546356
491.000000	33.391331
490.000000	33.206211
489.000000	33.052715
488.000000	32.874326
487.000000	32.729859
486.000000	32.565140
485.000000	32.372681
484.000000	32.206364
483.000000	32.062346
482.000000	31.893836
481.000000	31.700317
480.000000	31.533108
479.000000	31.379992
478.000000	31.226353
477.000000	31.060995
476.000000	30.886394
475.000000	30.723281
474.000000	30.572863
473.000000	30.403204
472.000000	30.228989
471.000000	30.068447
470.000000	29.901834
469.000000	29.751218
468.000000	29.588530
467.000000	29.421668
466.000000	29.247291
465.000000	29.052707
464.000000	28.886370
463.000000	28.719452
462.000000	28.541377
461.000000	28.401025
460.000000	28.238600
459.000000	28.068231
458.000000	27.905747
457.000000	27.723154
456.000000	27.548342
455.000000	27.338671
454.000000	27.166975
453.000000	26.991458
452.000000	26.813706
451.000000	26.637330
450.000000	26.445896
449.000000	26.289563
448.000000	26.092713
447.000000	25.896498
446.000000	25.726289
445.000000	25.534005
444.000000	25.358406
443.000000	25.170673
442.000000	24.969287
441.000000	24.798462
440.000000	24.622915
439.000000	24.435526
438.000000	24.251476
437.000000	24.051179
436.000000	23.862067
435.000000	23.677585
434.000000	23.479392
433.000000	23.297963
432.000000	23.133102
431.000000	22.952631
430.000000	22.755587
429.000000	22.549996
428.000000	22.396633
427.000000	22.232866
426.000000	22.041290
425.000000	21.866696
424.000000	21.654645
423.000000	21.489758
422.000000	21.334473
421.000000	21.141888
420.000000	20.947014
419.000000	20.771708
418.000000	20.607746
417.000000	20.441482
416.000000	20.268088
415.000000	20.059652
414.000000	19.899590
413.000000	19.732489
412.000000	19.590336
411.000000	19.409489
410.000000	19.230250
409.000000	19.066786
408.000000	18.879572
407.000000	18.730375
406.000000	18.575313
405.000000	18.411338
404.000000	18.280510
403.000000	18.124559
402.000000	17.957214
401.000000	17.782469
400.000000	17.645319
399.000000	17.499549
398.000000	17.349844
397.000000	17.175596
396.000000	17.034005
395.000000	16.895458
394.000000	16.746389
393.000000	16.597297
392.000000	16.434805
391.000000	16.321741
390.000000	16.188021
389.000000	16.028264
388.000000	15.894754
387.000000	15.738201
386.000000	15.609040
385.000000	15.429137
384.000000	15.296177
383.000000	15.171758
382.000000	15.008188
381.000000	14.849672
380.000000	14.747259
379.000000	14.600591
378.000000	14.459866
377.000000	14.383901
376.000000	14.280918
375.000000	14.166764
374.000000	14.010715
373.000000	13.842939
372.000000	13.677707
371.000000	13.552010
370.000000	13.522755
369.000000	13.363134
368.000000	13.225158
367.000000	13.121144
366.000000	13.065280
365.000000	12.922895
364.000000	12.769043
363.000000	12.701287
362.000000	12.595243
361.000000	12.470707
360.000000	12.378369
359.000000	12.296666
358.000000	12.189556
357.000000	12.055637
356.000000	12.057998
355.000000	11.909635
354.000000	11.878404
353.000000	11.719132
352.000000	11.674178
351.000000	11.510229
350.000000	11.494928
349.000000	11.438041
348.000000	11.292027
347.000000	11.261166
346.000000	11.150661
345.000000	11.037640
344.000000	10.940969
343.000000	10.904295
342.000000	10.818617
341.000000	10.751861
340.000000	10.661533
339.000000	10.569751
338.000000	10.471591
337.000000	10.431129
336.000000	10.393512
335.000000	10.314907
334.000000	10.178248
333.000000	10.143642
332.000000	9.988624
331.000000	10.063666
330.000000	9.971040
329.000000	9.866835
328.000000	9.872849
327.000000	9.731187
326.000000	9.735394
325.000000	9.675933
324.000000	9.615660
323.000000	9.536681
322.000000	9.505689
321.000000	9.545014
320.000000	9.469825
319.000000	9.482695
318.000000	9.384741
317.000000	9.369995
316.000000	9.303259
315.000000	9.304001
314.000000	9.249193
313.000000	9.176460
312.000000	9.231459
311.000000	9.200200
310.000000	9.175448
309.000000	9.192042
308.000000	9.148257
307.000000	9.082785
306.000000	9.115535
305.000000	9.094399
304.000000	9.074469
303.000000	9.053365
302.000000	9.054650
301.000000	9.011279
300.000000	8.985486
299.000000	9.003927
298.000000	8.937078
297.000000	8.971594
296.000000	8.970283
295.000000	8.920151
294.000000	8.891513
293.000000	8.850051
292.000000	8.830239
291.000000	8.795394
290.000000	8.795847
289.000000	8.774360
288.000000	8.792966
287.000000	8.760732
286.000000	8.762726
285.000000	8.727872
284.000000	8.732397
283.000000	8.798982
282.000000	8.824997
281.000000	8.808838
280.000000	8.878679
279.000000	8.901109
278.000000	8.980234
277.000000	8.984369
276.000000	9.016648
275.000000	9.089933
274.000000	9.122035
273.000000	9.138952
272.000000	9.215475
271.000000	9.340267
270.000000	9.326730
269.000000	9.338810
268.000000	9.437796
267.000000	9.511562
266.000000	9.573039
265.000000	9.652257
264.000000	9.733402
263.000000	9.800214
262.000000	9.927281
261.000000	10.008492
260.000000	10.107759
259.000000	10.190355
258.000000	10.258260
257.000000	10.361383
256.000000	10.477273
255.000000	10.530380
254.000000	10.616322
253.000000	10.747045
252.000000	10.867622
251.000000	10.972554
250.000000	11.009504
249.000000	11.125153
248.000000	11.230011
247.000000	11.272320
246.000000	11.375797
245.000000	11.459679
244.000000	11.492478
243.000000	11.526932
242.000000	11.514290
241.000000	11.515204
240.000000	11.507976
239.000000	11.470200
238.000000	11.461831
237.000000	11.398802
236.000000	11.353862
235.000000	11.308110
234.000000	11.296559
233.000000	11.282630
232.000000	11.234053
231.000000	11.160499
230.000000	11.058123
229.000000	11.007321
228.000000	10.999986
227.000000	11.020214
226.000000	10.973693
225.000000	10.949305
224.000000	11.007266
223.000000	11.021354
222.000000	11.036998
221.000000	11.104266
220.000000	11.194214
219.000000	11.280579
218.000000	11.342326
217.000000	11.325885
216.000000	11.451201
215.000000	11.664756
214.000000	11.789137
213.000000	11.893694
212.000000	12.097720
211.000000	12.330834
210.000000	12.437706
209.000000	12.683173
208.000000	13.029392
207.000000	13.236265
206.000000	13.577290
205.000000	14.057683
204.000000	14.273217
203.000000	14.676663
202.000000	15.141042
201.000000	15.512844
200.000000	15.982315
