PE UV       SUBTECH     SPECTRUM    ASCII       PEDS        4.00        
   -1
RTms1556131.Sample.asc
18/03/15
09:33:54.00
18/03/15
09:33:54.00
Administrator

200.000000
1
Lambda 750
750N8071901
PerkinElmer UV WinLab 6.0.4.0738 / 1.61.00 Lambda 900

0
0
3350/servo 860.8/2
0
0
UV/VIS
1
1
1
CommonBeamDepol,150mm sphere / downward view
0
0
0
0
Program
Program
3350/servo 860.8/2
3350/0.2 860.8/0.2
3350/0.2 860.8/0.2
0
1
 
 
 
0
 
860.8
319.2
860.8
Front
100
on
 
 
0
0
0
 
0
 
 
 
0
 
 
0
0
0
0
0
 
 
 
 
0
0


0
0
#HDR
-1
-1
#GR
nm
%R
1.0
0.0
2350.000000
-1.000000
2151
8
65.411544
8.804652
#DATA
2350.000000	32.421622
2349.000000	32.148587
2348.000000	31.885863
2347.000000	33.027796
2346.000000	32.606098
2345.000000	32.275709
2344.000000	32.057502
2343.000000	31.762350
2342.000000	32.235160
2341.000000	32.559279
2340.000000	32.698126
2339.000000	33.109125
2338.000000	33.027713
2337.000000	32.769353
2336.000000	33.359036
2335.000000	33.103379
2334.000000	33.239629
2333.000000	33.154590
2332.000000	33.258873
2331.000000	33.263558
2330.000000	33.256877
2329.000000	33.034388
2328.000000	33.210152
2327.000000	33.036657
2326.000000	33.099021
2325.000000	33.094969
2324.000000	32.901422
2323.000000	32.755337
2322.000000	32.752056
2321.000000	32.799481
2320.000000	32.735021
2319.000000	32.526791
2318.000000	32.705633
2317.000000	32.745013
2316.000000	32.528041
2315.000000	32.211786
2314.000000	32.170676
2313.000000	32.008543
2312.000000	32.043364
2311.000000	32.347048
2310.000000	32.129293
2309.000000	32.100939
2308.000000	32.014547
2307.000000	31.900796
2306.000000	31.930170
2305.000000	31.649854
2304.000000	31.779838
2303.000000	31.735724
2302.000000	31.989251
2301.000000	31.633256
2300.000000	31.553474
2299.000000	31.544055
2298.000000	31.396172
2297.000000	31.350254
2296.000000	31.571590
2295.000000	31.570142
2294.000000	31.403391
2293.000000	31.503544
2292.000000	31.292519
2291.000000	31.290042
2290.000000	31.395467
2289.000000	31.203881
2288.000000	31.404097
2287.000000	31.569241
2286.000000	31.416515
2285.000000	31.464305
2284.000000	31.381702
2283.000000	31.331276
2282.000000	31.359534
2281.000000	31.534363
2280.000000	31.455275
2279.000000	31.395597
2278.000000	31.444162
2277.000000	31.543671
2276.000000	31.577151
2275.000000	31.729077
2274.000000	31.841334
2273.000000	31.701074
2272.000000	31.747913
2271.000000	31.890416
2270.000000	31.987900
2269.000000	31.991260
2268.000000	31.923703
2267.000000	31.952256
2266.000000	32.157431
2265.000000	32.435595
2264.000000	32.577411
2263.000000	32.561737
2262.000000	32.750382
2261.000000	33.037338
2260.000000	32.983719
2259.000000	32.998889
2258.000000	33.316558
2257.000000	33.568213
2256.000000	33.618431
2255.000000	33.792156
2254.000000	33.949684
2253.000000	34.052786
2252.000000	34.338108
2251.000000	34.649886
2250.000000	34.807107
2249.000000	34.855815
2248.000000	35.006269
2247.000000	35.197073
2246.000000	35.280198
2245.000000	35.564676
2244.000000	35.887274
2243.000000	36.055167
2242.000000	36.195063
2241.000000	36.266069
2240.000000	36.359100
2239.000000	36.504138
2238.000000	36.648199
2237.000000	36.719747
2236.000000	36.917039
2235.000000	37.092961
2234.000000	37.091513
2233.000000	37.167223
2232.000000	37.089770
2231.000000	36.992850
2230.000000	37.110638
2229.000000	37.258572
2228.000000	37.342525
2227.000000	37.320267
2226.000000	37.186663
2225.000000	37.202126
2224.000000	37.171105
2223.000000	37.192152
2222.000000	37.229692
2221.000000	37.262537
2220.000000	37.131270
2219.000000	37.078074
2218.000000	37.118797
2217.000000	37.114542
2216.000000	37.025470
2215.000000	36.937052
2214.000000	36.986170
2213.000000	37.008747
2212.000000	36.950939
2211.000000	36.858808
2210.000000	36.750900
2209.000000	36.641248
2208.000000	36.604879
2207.000000	36.534725
2206.000000	36.559178
2205.000000	36.493078
2204.000000	36.542424
2203.000000	36.379668
2202.000000	36.261859
2201.000000	36.266218
2200.000000	36.150174
2199.000000	36.106554
2198.000000	36.032510
2197.000000	35.989304
2196.000000	35.919836
2195.000000	35.794915
2194.000000	35.663328
2193.000000	35.553877
2192.000000	35.637632
2191.000000	35.684801
2190.000000	35.681543
2189.000000	35.559910
2188.000000	35.422566
2187.000000	35.380320
2186.000000	35.365589
2185.000000	35.461244
2184.000000	35.407299
2183.000000	35.354374
2182.000000	35.313501
2181.000000	35.232475
2180.000000	35.355531
2179.000000	35.352465
2178.000000	35.250765
2177.000000	35.356598
2176.000000	35.304551
2175.000000	35.373234
2174.000000	35.445623
2173.000000	35.315185
2172.000000	35.386292
2171.000000	35.386141
2170.000000	35.506342
2169.000000	35.707853
2168.000000	35.836979
2167.000000	35.821742
2166.000000	35.739670
2165.000000	36.002616
2164.000000	36.095036
2163.000000	36.093154
2162.000000	36.191522
2161.000000	36.294717
2160.000000	36.580327
2159.000000	36.499801
2158.000000	36.560311
2157.000000	36.757001
2156.000000	36.862734
2155.000000	36.903242
2154.000000	37.163916
2153.000000	37.338244
2152.000000	37.415443
2151.000000	37.636818
2150.000000	37.685558
2149.000000	37.770974
2148.000000	37.859076
2147.000000	38.138772
2146.000000	38.074562
2145.000000	38.303954
2144.000000	38.413624
2143.000000	38.462931
2142.000000	38.664826
2141.000000	38.752764
2140.000000	38.739124
2139.000000	38.996387
2138.000000	39.190280
2137.000000	39.044687
2136.000000	39.235198
2135.000000	39.179897
2134.000000	39.497586
2133.000000	39.390198
2132.000000	39.526654
2131.000000	39.786653
2130.000000	39.661285
2129.000000	39.640101
2128.000000	39.741525
2127.000000	39.861084
2126.000000	39.911012
2125.000000	39.755157
2124.000000	40.001370
2123.000000	40.037489
2122.000000	39.928722
2121.000000	39.955672
2120.000000	40.138133
2119.000000	40.120090
2118.000000	40.101730
2117.000000	40.253591
2116.000000	40.342242
2115.000000	40.280061
2114.000000	40.256438
2113.000000	40.334781
2112.000000	40.416890
2111.000000	40.325718
2110.000000	40.205582
2109.000000	40.394702
2108.000000	40.327808
2107.000000	40.364094
2106.000000	40.391854
2105.000000	40.356904
2104.000000	40.379990
2103.000000	40.379347
2102.000000	40.393992
2101.000000	40.458721
2100.000000	40.480821
2099.000000	40.480271
2098.000000	40.284007
2097.000000	40.308971
2096.000000	40.419314
2095.000000	40.405718
2094.000000	40.428657
2093.000000	40.364133
2092.000000	40.339001
2091.000000	40.237120
2090.000000	40.210464
2089.000000	40.280619
2088.000000	40.248464
2087.000000	40.204756
2086.000000	40.114678
2085.000000	40.061678
2084.000000	39.957088
2083.000000	39.929199
2082.000000	39.875508
2081.000000	39.783086
2080.000000	39.785248
2079.000000	39.748458
2078.000000	39.584881
2077.000000	39.431191
2076.000000	39.521609
2075.000000	39.417349
2074.000000	39.271662
2073.000000	39.185956
2072.000000	39.055498
2071.000000	39.036315
2070.000000	38.923817
2069.000000	38.739073
2068.000000	38.625853
2067.000000	38.461204
2066.000000	38.344779
2065.000000	38.152175
2064.000000	38.048105
2063.000000	38.001394
2062.000000	37.851072
2061.000000	37.708105
2060.000000	37.536657
2059.000000	37.405529
2058.000000	37.332760
2057.000000	37.204917
2056.000000	37.116612
2055.000000	37.057437
2054.000000	36.946477
2053.000000	36.763881
2052.000000	36.690263
2051.000000	36.616307
2050.000000	36.520175
2049.000000	36.467151
2048.000000	36.390133
2047.000000	36.309920
2046.000000	36.242611
2045.000000	36.207977
2044.000000	36.248588
2043.000000	36.225807
2042.000000	36.240426
2041.000000	36.291590
2040.000000	36.300037
2039.000000	36.304256
2038.000000	36.339069
2037.000000	36.386317
2036.000000	36.442287
2035.000000	36.541394
2034.000000	36.592033
2033.000000	36.652197
2032.000000	36.733146
2031.000000	36.783636
2030.000000	36.825298
2029.000000	36.929319
2028.000000	37.037847
2027.000000	37.110616
2026.000000	37.162547
2025.000000	37.215610
2024.000000	37.265956
2023.000000	37.325821
2022.000000	37.359559
2021.000000	37.381159
2020.000000	37.429686
2019.000000	37.431654
2018.000000	37.415762
2017.000000	37.416071
2016.000000	37.342358
2015.000000	37.300941
2014.000000	37.312235
2013.000000	37.275430
2012.000000	37.241114
2011.000000	37.192850
2010.000000	37.128712
2009.000000	37.052721
2008.000000	36.966965
2007.000000	36.885491
2006.000000	36.801323
2005.000000	36.719681
2004.000000	36.629248
2003.000000	36.547985
2002.000000	36.483740
2001.000000	36.383696
2000.000000	36.276815
1999.000000	36.221294
1998.000000	36.137555
1997.000000	36.028039
1996.000000	35.938562
1995.000000	35.853584
1994.000000	35.729876
1993.000000	35.648228
1992.000000	35.556682
1991.000000	35.406760
1990.000000	35.299961
1989.000000	35.215980
1988.000000	35.095192
1987.000000	35.013810
1986.000000	34.893231
1985.000000	34.782296
1984.000000	34.688083
1983.000000	34.564547
1982.000000	34.485108
1981.000000	34.419281
1980.000000	34.320634
1979.000000	34.229711
1978.000000	34.115904
1977.000000	33.987194
1976.000000	33.924075
1975.000000	33.865499
1974.000000	33.768059
1973.000000	33.650979
1972.000000	33.564437
1971.000000	33.438892
1970.000000	33.360800
1969.000000	33.278496
1968.000000	33.196516
1967.000000	33.087787
1966.000000	33.039313
1965.000000	32.962369
1964.000000	32.866478
1963.000000	32.762628
1962.000000	32.668740
1961.000000	32.596151
1960.000000	32.571736
1959.000000	32.480797
1958.000000	32.419184
1957.000000	32.331784
1956.000000	32.246823
1955.000000	32.217067
1954.000000	32.184479
1953.000000	32.111302
1952.000000	32.090835
1951.000000	32.047047
1950.000000	32.029924
1949.000000	31.957515
1948.000000	31.922595
1947.000000	31.950049
1946.000000	31.889586
1945.000000	31.939804
1944.000000	31.924929
1943.000000	31.954557
1942.000000	31.950237
1941.000000	31.922259
1940.000000	31.974722
1939.000000	32.036722
1938.000000	32.099470
1937.000000	32.233357
1936.000000	32.392243
1935.000000	32.376472
1934.000000	32.553580
1933.000000	32.563446
1932.000000	32.674351
1931.000000	32.866719
1930.000000	33.002199
1929.000000	33.084892
1928.000000	33.263668
1927.000000	33.444313
1926.000000	33.606103
1925.000000	33.800532
1924.000000	33.957835
1923.000000	34.240869
1922.000000	34.537963
1921.000000	34.807702
1920.000000	35.027890
1919.000000	35.338119
1918.000000	35.490617
1917.000000	35.866500
1916.000000	36.030827
1915.000000	36.510577
1914.000000	36.841903
1913.000000	37.188311
1912.000000	37.568500
1911.000000	37.833346
1910.000000	38.271625
1909.000000	38.651240
1908.000000	39.029088
1907.000000	39.462548
1906.000000	39.882938
1905.000000	40.274103
1904.000000	40.820508
1903.000000	41.220329
1902.000000	41.724346
1901.000000	42.148436
1900.000000	42.705644
1899.000000	43.203524
1898.000000	43.671950
1897.000000	44.158006
1896.000000	44.518300
1895.000000	45.069867
1894.000000	45.530133
1893.000000	45.965633
1892.000000	46.464990
1891.000000	46.854514
1890.000000	47.328466
1889.000000	47.748474
1888.000000	48.107355
1887.000000	48.479318
1886.000000	48.926214
1885.000000	49.323512
1884.000000	49.607157
1883.000000	50.017032
1882.000000	50.285207
1881.000000	50.641047
1880.000000	50.933466
1879.000000	51.171479
1878.000000	51.455677
1877.000000	51.769319
1876.000000	51.998420
1875.000000	52.270006
1874.000000	52.464675
1873.000000	52.693698
1872.000000	52.891212
1871.000000	53.092635
1870.000000	53.233757
1869.000000	53.419718
1868.000000	53.580497
1867.000000	53.664711
1866.000000	53.762102
1865.000000	53.885448
1864.000000	53.939303
1863.000000	54.014856
1862.000000	54.086814
1861.000000	54.208733
1860.000000	54.234223
1859.000000	54.262530
1858.000000	54.340435
1857.000000	54.385123
1856.000000	54.386532
1855.000000	54.414345
1854.000000	54.486812
1853.000000	54.521283
1852.000000	54.507977
1851.000000	54.507985
1850.000000	54.537792
1849.000000	54.523146
1848.000000	54.529223
1847.000000	54.527023
1846.000000	54.561568
1845.000000	54.541861
1844.000000	54.504713
1843.000000	54.459519
1842.000000	54.442978
1841.000000	54.417104
1840.000000	54.412098
1839.000000	54.376730
1838.000000	54.366503
1837.000000	54.316210
1836.000000	54.256468
1835.000000	54.240187
1834.000000	54.207874
1833.000000	54.180408
1832.000000	54.155433
1831.000000	54.103457
1830.000000	54.084297
1829.000000	54.045351
1828.000000	54.004935
1827.000000	53.972421
1826.000000	53.935568
1825.000000	53.894598
1824.000000	53.877948
1823.000000	53.856225
1822.000000	53.816083
1821.000000	53.796627
1820.000000	53.763757
1819.000000	53.724571
1818.000000	53.705344
1817.000000	53.692882
1816.000000	53.648402
1815.000000	53.649471
1814.000000	53.627289
1813.000000	53.575887
1812.000000	53.550676
1811.000000	53.532977
1810.000000	53.499656
1809.000000	53.480848
1808.000000	53.480680
1807.000000	53.449720
1806.000000	53.410209
1805.000000	53.371820
1804.000000	53.363671
1803.000000	53.351595
1802.000000	53.330520
1801.000000	53.316947
1800.000000	53.301064
1799.000000	53.266799
1798.000000	53.242922
1797.000000	53.239843
1796.000000	53.245382
1795.000000	53.224593
1794.000000	53.199474
1793.000000	53.166275
1792.000000	53.144056
1791.000000	53.148476
1790.000000	53.130124
1789.000000	53.100637
1788.000000	53.102995
1787.000000	53.084376
1786.000000	53.074158
1785.000000	53.055542
1784.000000	53.018246
1783.000000	52.987153
1782.000000	52.946141
1781.000000	52.923073
1780.000000	52.908115
1779.000000	52.871339
1778.000000	52.833174
1777.000000	52.762872
1776.000000	52.716080
1775.000000	52.679972
1774.000000	52.641793
1773.000000	52.601473
1772.000000	52.555360
1771.000000	52.485959
1770.000000	52.429066
1769.000000	52.399108
1768.000000	52.345301
1767.000000	52.318891
1766.000000	52.271835
1765.000000	52.192195
1764.000000	52.154000
1763.000000	52.121220
1762.000000	52.050718
1761.000000	52.022421
1760.000000	51.981134
1759.000000	51.936674
1758.000000	51.914635
1757.000000	51.884376
1756.000000	51.855763
1755.000000	51.799821
1754.000000	51.765986
1753.000000	51.726562
1752.000000	51.668232
1751.000000	51.622408
1750.000000	51.583070
1749.000000	51.545593
1748.000000	51.487154
1747.000000	51.422371
1746.000000	51.377087
1745.000000	51.304038
1744.000000	51.246258
1743.000000	51.211238
1742.000000	51.150694
1741.000000	51.086984
1740.000000	51.043079
1739.000000	51.010384
1738.000000	50.963215
1737.000000	50.915956
1736.000000	50.877385
1735.000000	50.848594
1734.000000	50.868835
1733.000000	50.873453
1732.000000	50.875355
1731.000000	50.890125
1730.000000	50.897713
1729.000000	50.923730
1728.000000	50.973339
1727.000000	51.047038
1726.000000	51.073278
1725.000000	51.147029
1724.000000	51.202498
1723.000000	51.295423
1722.000000	51.388665
1721.000000	51.485912
1720.000000	51.565928
1719.000000	51.681695
1718.000000	51.763288
1717.000000	51.852520
1716.000000	51.940161
1715.000000	52.018543
1714.000000	52.082454
1713.000000	52.191118
1712.000000	52.243692
1711.000000	52.321559
1710.000000	52.429424
1709.000000	52.448084
1708.000000	52.517208
1707.000000	52.574666
1706.000000	52.638094
1705.000000	52.678421
1704.000000	52.696575
1703.000000	52.736412
1702.000000	52.750692
1701.000000	52.779003
1700.000000	52.825663
1699.000000	52.833148
1698.000000	52.880316
1697.000000	52.910337
1696.000000	52.993121
1695.000000	53.007281
1694.000000	53.032531
1693.000000	53.093467
1692.000000	53.153276
1691.000000	53.249778
1690.000000	53.302940
1689.000000	53.405718
1688.000000	53.506449
1687.000000	53.599363
1686.000000	53.716463
1685.000000	53.821154
1684.000000	53.963043
1683.000000	54.070495
1682.000000	54.221634
1681.000000	54.384431
1680.000000	54.498662
1679.000000	54.648018
1678.000000	54.795215
1677.000000	54.914422
1676.000000	55.076754
1675.000000	55.224831
1674.000000	55.384313
1673.000000	55.490081
1672.000000	55.627803
1671.000000	55.780199
1670.000000	55.919865
1669.000000	56.056265
1668.000000	56.162909
1667.000000	56.264112
1666.000000	56.328002
1665.000000	56.402232
1664.000000	56.482696
1663.000000	56.526484
1662.000000	56.649751
1661.000000	56.708286
1660.000000	56.741091
1659.000000	56.787243
1658.000000	56.849048
1657.000000	56.861646
1656.000000	56.895304
1655.000000	56.948065
1654.000000	56.947316
1653.000000	56.964997
1652.000000	56.982671
1651.000000	56.978713
1650.000000	56.985201
1649.000000	56.985959
1648.000000	56.959595
1647.000000	56.977174
1646.000000	56.971535
1645.000000	56.941432
1644.000000	56.937273
1643.000000	56.911341
1642.000000	56.907324
1641.000000	56.886806
1640.000000	56.859616
1639.000000	56.849442
1638.000000	56.821935
1637.000000	56.785990
1636.000000	56.752197
1635.000000	56.732501
1634.000000	56.701974
1633.000000	56.681997
1632.000000	56.653995
1631.000000	56.604274
1630.000000	56.561598
1629.000000	56.545509
1628.000000	56.506500
1627.000000	56.462555
1626.000000	56.444258
1625.000000	56.408012
1624.000000	56.382537
1623.000000	56.342056
1622.000000	56.294642
1621.000000	56.245694
1620.000000	56.215418
1619.000000	56.169305
1618.000000	56.113463
1617.000000	56.082984
1616.000000	56.041001
1615.000000	55.981775
1614.000000	55.943996
1613.000000	55.918441
1612.000000	55.861806
1611.000000	55.800282
1610.000000	55.754097
1609.000000	55.703858
1608.000000	55.661940
1607.000000	55.618103
1606.000000	55.564495
1605.000000	55.510354
1604.000000	55.455157
1603.000000	55.403766
1602.000000	55.356354
1601.000000	55.309469
1600.000000	55.264030
1599.000000	55.212776
1598.000000	55.151779
1597.000000	55.112997
1596.000000	55.076122
1595.000000	55.021470
1594.000000	54.972316
1593.000000	54.946061
1592.000000	54.907893
1591.000000	54.854838
1590.000000	54.813940
1589.000000	54.770869
1588.000000	54.717436
1587.000000	54.692178
1586.000000	54.665297
1585.000000	54.615772
1584.000000	54.574284
1583.000000	54.533527
1582.000000	54.490647
1581.000000	54.453462
1580.000000	54.423318
1579.000000	54.392837
1578.000000	54.369788
1577.000000	54.322388
1576.000000	54.261918
1575.000000	54.231848
1574.000000	54.203105
1573.000000	54.158415
1572.000000	54.120616
1571.000000	54.071154
1570.000000	54.038822
1569.000000	54.009478
1568.000000	53.972663
1567.000000	53.939249
1566.000000	53.923663
1565.000000	53.900328
1564.000000	53.864634
1563.000000	53.844775
1562.000000	53.813959
1561.000000	53.777353
1560.000000	53.756810
1559.000000	53.731493
1558.000000	53.712498
1557.000000	53.699571
1556.000000	53.672770
1555.000000	53.665951
1554.000000	53.633476
1553.000000	53.605607
1552.000000	53.562033
1551.000000	53.522497
1550.000000	53.493251
1549.000000	53.462625
1548.000000	53.406494
1547.000000	53.359917
1546.000000	53.322139
1545.000000	53.266514
1544.000000	53.194711
1543.000000	53.127851
1542.000000	53.066976
1541.000000	53.008147
1540.000000	52.925071
1539.000000	52.857149
1538.000000	52.788486
1537.000000	52.702897
1536.000000	52.633993
1535.000000	52.562832
1534.000000	52.502056
1533.000000	52.442629
1532.000000	52.370164
1531.000000	52.300056
1530.000000	52.226726
1529.000000	52.167805
1528.000000	52.090832
1527.000000	52.029664
1526.000000	51.997338
1525.000000	51.934539
1524.000000	51.879450
1523.000000	51.838634
1522.000000	51.799674
1521.000000	51.769508
1520.000000	51.718886
1519.000000	51.683071
1518.000000	51.654065
1517.000000	51.616533
1516.000000	51.609159
1515.000000	51.587376
1514.000000	51.603735
1513.000000	51.642528
1512.000000	51.642573
1511.000000	51.586207
1510.000000	51.564675
1509.000000	51.517484
1508.000000	51.488386
1507.000000	51.488893
1506.000000	51.451860
1505.000000	51.414765
1504.000000	51.403611
1503.000000	51.404390
1502.000000	51.412925
1501.000000	51.382235
1500.000000	51.381975
1499.000000	51.379759
1498.000000	51.386954
1497.000000	51.386257
1496.000000	51.363878
1495.000000	51.387416
1494.000000	51.386657
1493.000000	51.401934
1492.000000	51.415404
1491.000000	51.410951
1490.000000	51.439641
1489.000000	51.467968
1488.000000	51.491474
1487.000000	51.519314
1486.000000	51.546994
1485.000000	51.569020
1484.000000	51.598575
1483.000000	51.626629
1482.000000	51.625831
1481.000000	51.702860
1480.000000	51.713815
1479.000000	51.724717
1478.000000	51.784671
1477.000000	51.792279
1476.000000	51.820873
1475.000000	51.845684
1474.000000	51.874117
1473.000000	51.918494
1472.000000	51.930637
1471.000000	51.974098
1470.000000	51.999980
1469.000000	52.042845
1468.000000	52.094536
1467.000000	52.134194
1466.000000	52.175837
1465.000000	52.197093
1464.000000	52.216460
1463.000000	52.259792
1462.000000	52.293303
1461.000000	52.362133
1460.000000	52.392710
1459.000000	52.433744
1458.000000	52.480823
1457.000000	52.531938
1456.000000	52.578874
1455.000000	52.623551
1454.000000	52.674070
1453.000000	52.738582
1452.000000	52.787221
1451.000000	52.852068
1450.000000	52.895365
1449.000000	52.951762
1448.000000	53.025175
1447.000000	53.095770
1446.000000	53.167460
1445.000000	53.246064
1444.000000	53.321989
1443.000000	53.373941
1442.000000	53.450910
1441.000000	53.549624
1440.000000	53.655251
1439.000000	53.727353
1438.000000	53.809331
1437.000000	53.896644
1436.000000	53.990649
1435.000000	54.079228
1434.000000	54.188476
1433.000000	54.286350
1432.000000	54.381779
1431.000000	54.504846
1430.000000	54.620015
1429.000000	54.743700
1428.000000	54.854207
1427.000000	54.980535
1426.000000	55.124787
1425.000000	55.267202
1424.000000	55.398608
1423.000000	55.526968
1422.000000	55.685274
1421.000000	55.820834
1420.000000	55.959222
1419.000000	56.106274
1418.000000	56.269022
1417.000000	56.432039
1416.000000	56.588958
1415.000000	56.744147
1414.000000	56.919547
1413.000000	57.092565
1412.000000	57.254059
1411.000000	57.412607
1410.000000	57.594558
1409.000000	57.781754
1408.000000	57.938958
1407.000000	58.106468
1406.000000	58.280753
1405.000000	58.450281
1404.000000	58.605477
1403.000000	58.751222
1402.000000	58.906649
1401.000000	59.059712
1400.000000	59.225779
1399.000000	59.387567
1398.000000	59.529518
1397.000000	59.659124
1396.000000	59.811916
1395.000000	59.952468
1394.000000	60.090530
1393.000000	60.215761
1392.000000	60.316590
1391.000000	60.444425
1390.000000	60.551820
1389.000000	60.661376
1388.000000	60.777180
1387.000000	60.884246
1386.000000	61.000347
1385.000000	61.104420
1384.000000	61.192351
1383.000000	61.283205
1382.000000	61.364330
1381.000000	61.450732
1380.000000	61.536701
1379.000000	61.607534
1378.000000	61.664704
1377.000000	61.740782
1376.000000	61.804742
1375.000000	61.852752
1374.000000	61.913066
1373.000000	61.952654
1372.000000	61.982030
1371.000000	62.019817
1370.000000	62.059331
1369.000000	62.107257
1368.000000	62.156230
1367.000000	62.210939
1366.000000	62.261367
1365.000000	62.291193
1364.000000	62.323286
1363.000000	62.357801
1362.000000	62.384705
1361.000000	62.424074
1360.000000	62.463022
1359.000000	62.539476
1358.000000	62.595848
1357.000000	62.634473
1356.000000	62.690726
1355.000000	62.737733
1354.000000	62.801243
1353.000000	62.855311
1352.000000	62.913109
1351.000000	62.955197
1350.000000	62.981769
1349.000000	63.034186
1348.000000	63.092934
1347.000000	63.125092
1346.000000	63.179446
1345.000000	63.240470
1344.000000	63.268273
1343.000000	63.290964
1342.000000	63.366772
1341.000000	63.413409
1340.000000	63.442557
1339.000000	63.466363
1338.000000	63.488662
1337.000000	63.527159
1336.000000	63.586800
1335.000000	63.618609
1334.000000	63.641378
1333.000000	63.673224
1332.000000	63.696770
1331.000000	63.707009
1330.000000	63.766186
1329.000000	63.797302
1328.000000	63.793788
1327.000000	63.813229
1326.000000	63.865303
1325.000000	63.886790
1324.000000	63.880024
1323.000000	63.900422
1322.000000	63.954177
1321.000000	63.966439
1320.000000	63.980497
1319.000000	63.999653
1318.000000	63.998396
1317.000000	64.013120
1316.000000	64.059134
1315.000000	64.098367
1314.000000	64.077156
1313.000000	64.076394
1312.000000	64.067928
1311.000000	64.094232
1310.000000	64.124313
1309.000000	64.165515
1308.000000	64.168106
1307.000000	64.173247
1306.000000	64.168119
1305.000000	64.189809
1304.000000	64.194049
1303.000000	64.215172
1302.000000	64.228282
1301.000000	64.258941
1300.000000	64.251757
1299.000000	64.239928
1298.000000	64.234474
1297.000000	64.250023
1296.000000	64.254202
1295.000000	64.240365
1294.000000	64.247633
1293.000000	64.244259
1292.000000	64.250700
1291.000000	64.244612
1290.000000	64.262383
1289.000000	64.247304
1288.000000	64.261525
1287.000000	64.210969
1286.000000	64.196194
1285.000000	64.208757
1284.000000	64.204371
1283.000000	64.220353
1282.000000	64.233898
1281.000000	64.219945
1280.000000	64.234529
1279.000000	64.250096
1278.000000	64.227644
1277.000000	64.247456
1276.000000	64.231520
1275.000000	64.221083
1274.000000	64.225451
1273.000000	64.226579
1272.000000	64.241060
1271.000000	64.217767
1270.000000	64.233847
1269.000000	64.246197
1268.000000	64.249773
1267.000000	64.246836
1266.000000	64.259308
1265.000000	64.221254
1264.000000	64.257123
1263.000000	64.251833
1262.000000	64.326484
1261.000000	64.324696
1260.000000	64.306049
1259.000000	64.315353
1258.000000	64.314150
1257.000000	64.293243
1256.000000	64.338304
1255.000000	64.350307
1254.000000	64.337164
1253.000000	64.355814
1252.000000	64.333671
1251.000000	64.351094
1250.000000	64.338072
1249.000000	64.325150
1248.000000	64.329912
1247.000000	64.326733
1246.000000	64.321084
1245.000000	64.292278
1244.000000	64.299447
1243.000000	64.298079
1242.000000	64.287155
1241.000000	64.252968
1240.000000	64.240838
1239.000000	64.221410
1238.000000	64.206758
1237.000000	64.166363
1236.000000	64.161105
1235.000000	64.152966
1234.000000	64.120420
1233.000000	64.069073
1232.000000	64.088456
1231.000000	64.076428
1230.000000	64.042165
1229.000000	64.004304
1228.000000	63.980003
1227.000000	63.980284
1226.000000	63.959066
1225.000000	63.942234
1224.000000	63.947233
1223.000000	63.945432
1222.000000	63.932259
1221.000000	63.881275
1220.000000	63.854540
1219.000000	63.845949
1218.000000	63.835409
1217.000000	63.821411
1216.000000	63.795689
1215.000000	63.788249
1214.000000	63.741968
1213.000000	63.728966
1212.000000	63.748487
1211.000000	63.718740
1210.000000	63.688627
1209.000000	63.692266
1208.000000	63.664091
1207.000000	63.641504
1206.000000	63.624869
1205.000000	63.631708
1204.000000	63.572071
1203.000000	63.543453
1202.000000	63.561524
1201.000000	63.543608
1200.000000	63.504465
1199.000000	63.488479
1198.000000	63.491402
1197.000000	63.495601
1196.000000	63.467863
1195.000000	63.441498
1194.000000	63.433951
1193.000000	63.417546
1192.000000	63.392381
1191.000000	63.379120
1190.000000	63.366550
1189.000000	63.346070
1188.000000	63.345176
1187.000000	63.338597
1186.000000	63.332636
1185.000000	63.348804
1184.000000	63.343774
1183.000000	63.351797
1182.000000	63.383474
1181.000000	63.414095
1180.000000	63.437930
1179.000000	63.457042
1178.000000	63.489271
1177.000000	63.517898
1176.000000	63.551001
1175.000000	63.599146
1174.000000	63.629358
1173.000000	63.676835
1172.000000	63.721534
1171.000000	63.755230
1170.000000	63.794983
1169.000000	63.844646
1168.000000	63.891062
1167.000000	63.931863
1166.000000	63.984113
1165.000000	64.039946
1164.000000	64.091343
1163.000000	64.135943
1162.000000	64.181762
1161.000000	64.236918
1160.000000	64.291585
1159.000000	64.335487
1158.000000	64.392015
1157.000000	64.438719
1156.000000	64.456982
1155.000000	64.496827
1154.000000	64.540122
1153.000000	64.564940
1152.000000	64.615486
1151.000000	64.660829
1150.000000	64.700469
1149.000000	64.733698
1148.000000	64.761639
1147.000000	64.786565
1146.000000	64.807694
1145.000000	64.831533
1144.000000	64.878573
1143.000000	64.920260
1142.000000	64.938988
1141.000000	64.966064
1140.000000	64.995695
1139.000000	65.008930
1138.000000	65.026406
1137.000000	65.048964
1136.000000	65.075070
1135.000000	65.095759
1134.000000	65.130620
1133.000000	65.179547
1132.000000	65.188425
1131.000000	65.204712
1130.000000	65.222330
1129.000000	65.245235
1128.000000	65.278837
1127.000000	65.291855
1126.000000	65.280614
1125.000000	65.279895
1124.000000	65.296806
1123.000000	65.307633
1122.000000	65.301768
1121.000000	65.320076
1120.000000	65.336279
1119.000000	65.351268
1118.000000	65.371827
1117.000000	65.357051
1116.000000	65.357025
1115.000000	65.367761
1114.000000	65.364977
1113.000000	65.376653
1112.000000	65.373068
1111.000000	65.376911
1110.000000	65.393149
1109.000000	65.410141
1108.000000	65.404211
1107.000000	65.407597
1106.000000	65.408955
1105.000000	65.402961
1104.000000	65.411544
1103.000000	65.399442
1102.000000	65.362328
1101.000000	65.375657
1100.000000	65.384539
1099.000000	65.394779
1098.000000	65.406032
1097.000000	65.407112
1096.000000	65.404275
1095.000000	65.398150
1094.000000	65.367079
1093.000000	65.383034
1092.000000	65.372726
1091.000000	65.385297
1090.000000	65.382993
1089.000000	65.389188
1088.000000	65.394838
1087.000000	65.360582
1086.000000	65.365502
1085.000000	65.372407
1084.000000	65.390071
1083.000000	65.366457
1082.000000	65.366666
1081.000000	65.375789
1080.000000	65.349812
1079.000000	65.336082
1078.000000	65.336690
1077.000000	65.343846
1076.000000	65.337814
1075.000000	65.343900
1074.000000	65.339411
1073.000000	65.314066
1072.000000	65.290499
1071.000000	65.323403
1070.000000	65.316472
1069.000000	65.340371
1068.000000	65.330918
1067.000000	65.305613
1066.000000	65.266636
1065.000000	65.269280
1064.000000	65.287066
1063.000000	65.285928
1062.000000	65.294785
1061.000000	65.279879
1060.000000	65.294241
1059.000000	65.229362
1058.000000	65.235573
1057.000000	65.237984
1056.000000	65.231487
1055.000000	65.243074
1054.000000	65.232043
1053.000000	65.208836
1052.000000	65.215854
1051.000000	65.205820
1050.000000	65.198696
1049.000000	65.199640
1048.000000	65.161795
1047.000000	65.183234
1046.000000	65.180164
1045.000000	65.176675
1044.000000	65.149462
1043.000000	65.141312
1042.000000	65.152041
1041.000000	65.148849
1040.000000	65.121267
1039.000000	65.138616
1038.000000	65.133447
1037.000000	65.142443
1036.000000	65.143558
1035.000000	65.094843
1034.000000	65.094836
1033.000000	65.109327
1032.000000	65.097037
1031.000000	65.081161
1030.000000	65.090703
1029.000000	65.087277
1028.000000	65.086794
1027.000000	65.071168
1026.000000	65.068984
1025.000000	65.085515
1024.000000	65.057216
1023.000000	65.059286
1022.000000	65.061026
1021.000000	65.041171
1020.000000	65.043762
1019.000000	65.042702
1018.000000	65.026842
1017.000000	65.025410
1016.000000	65.037903
1015.000000	65.046695
1014.000000	65.030743
1013.000000	65.030615
1012.000000	65.026648
1011.000000	65.025296
1010.000000	65.040969
1009.000000	65.036939
1008.000000	65.025599
1007.000000	65.028313
1006.000000	65.032643
1005.000000	65.024572
1004.000000	65.017007
1003.000000	65.005378
1002.000000	65.002870
1001.000000	65.020152
1000.000000	65.018823
999.000000	65.011060
998.000000	65.012250
997.000000	65.024162
996.000000	65.026185
995.000000	65.033397
994.000000	65.034150
993.000000	65.049267
992.000000	65.049947
991.000000	65.058118
990.000000	65.038525
989.000000	65.038421
988.000000	65.045342
987.000000	65.045680
986.000000	65.057935
985.000000	65.068944
984.000000	65.077485
983.000000	65.080297
982.000000	65.060198
981.000000	65.067579
980.000000	65.074750
979.000000	65.070499
978.000000	65.081991
977.000000	65.096258
976.000000	65.101548
975.000000	65.110626
974.000000	65.109642
973.000000	65.097113
972.000000	65.099179
971.000000	65.110027
970.000000	65.124933
969.000000	65.126523
968.000000	65.132575
967.000000	65.115200
966.000000	65.116930
965.000000	65.134696
964.000000	65.141337
963.000000	65.156060
962.000000	65.154622
961.000000	65.149533
960.000000	65.148224
959.000000	65.147674
958.000000	65.145861
957.000000	65.154916
956.000000	65.194334
955.000000	65.206823
954.000000	65.181426
953.000000	65.168724
952.000000	65.178959
951.000000	65.192012
950.000000	65.200833
949.000000	65.220430
948.000000	65.221563
947.000000	65.194871
946.000000	65.193086
945.000000	65.192934
944.000000	65.182151
943.000000	65.173994
942.000000	65.186375
941.000000	65.208810
940.000000	65.210712
939.000000	65.194859
938.000000	65.184390
937.000000	65.180903
936.000000	65.154472
935.000000	65.145400
934.000000	65.168860
933.000000	65.176766
932.000000	65.155698
931.000000	65.136305
930.000000	65.164910
929.000000	65.163765
928.000000	65.140706
927.000000	65.170351
926.000000	65.175431
925.000000	65.127829
924.000000	65.110825
923.000000	65.115272
922.000000	65.120101
921.000000	65.118582
920.000000	65.116487
919.000000	65.112546
918.000000	65.121250
917.000000	65.102197
916.000000	65.096175
915.000000	65.094070
914.000000	65.095970
913.000000	65.076757
912.000000	65.058638
911.000000	65.052102
910.000000	65.032047
909.000000	65.022693
908.000000	65.038976
907.000000	65.061701
906.000000	65.077619
905.000000	65.066417
904.000000	65.035152
903.000000	65.026145
902.000000	65.031548
901.000000	65.022999
900.000000	65.022797
899.000000	65.042898
898.000000	65.024697
897.000000	65.017994
896.000000	65.065776
895.000000	65.031858
894.000000	65.010118
893.000000	65.043588
892.000000	64.998334
891.000000	65.033261
890.000000	65.059264
889.000000	65.068180
888.000000	65.073570
887.000000	65.065695
886.000000	65.016738
885.000000	65.019849
884.000000	65.066480
883.000000	64.972856
882.000000	65.068913
881.000000	65.101077
880.000000	65.020255
879.000000	64.968223
878.000000	65.036530
877.000000	64.995527
876.000000	64.941836
875.000000	64.985162
874.000000	64.933025
873.000000	64.947835
872.000000	64.956892
871.000000	64.918165
870.000000	64.916466
869.000000	64.974592
868.000000	64.935079
867.000000	64.958228
866.000000	64.876502
865.000000	64.951400
864.000000	64.890091
863.000000	64.843497
862.000000	64.811918
861.000000	64.787506
860.000000	64.954464
859.000000	64.788995
858.000000	65.027104
857.000000	64.930824
856.000000	65.285405
855.000000	64.810602
854.000000	65.268195
853.000000	64.922591
852.000000	64.986191
851.000000	65.166674
850.000000	64.980759
849.000000	65.063616
848.000000	65.308714
847.000000	65.372080
846.000000	64.900859
845.000000	64.835518
844.000000	65.161105
843.000000	65.105538
842.000000	64.704613
841.000000	64.860095
840.000000	64.868452
839.000000	64.841501
838.000000	64.786754
837.000000	64.801569
836.000000	64.878998
835.000000	64.833359
834.000000	64.939342
833.000000	64.702120
832.000000	64.807783
831.000000	64.725441
830.000000	64.785331
829.000000	64.767461
828.000000	64.567999
827.000000	64.750893
826.000000	64.613679
825.000000	64.485241
824.000000	64.670388
823.000000	64.634577
822.000000	64.695689
821.000000	64.822414
820.000000	64.460382
819.000000	64.538615
818.000000	64.456916
817.000000	64.714984
816.000000	64.662966
815.000000	64.552364
814.000000	64.448973
813.000000	64.504823
812.000000	64.524446
811.000000	64.481932
810.000000	64.375080
809.000000	64.487800
808.000000	64.390072
807.000000	64.419776
806.000000	64.331856
805.000000	64.490320
804.000000	64.275817
803.000000	64.340361
802.000000	64.271622
801.000000	64.317250
800.000000	64.201295
799.000000	64.288604
798.000000	64.342153
797.000000	64.408468
796.000000	64.251889
795.000000	64.112513
794.000000	64.045944
793.000000	64.043250
792.000000	64.078095
791.000000	64.148612
790.000000	64.025076
789.000000	64.086933
788.000000	63.821693
787.000000	63.980289
786.000000	63.957868
785.000000	63.875619
784.000000	63.836697
783.000000	63.831670
782.000000	63.792562
781.000000	63.891571
780.000000	63.810502
779.000000	63.815444
778.000000	63.805024
777.000000	63.663251
776.000000	63.721243
775.000000	63.681869
774.000000	63.598128
773.000000	63.597255
772.000000	63.546651
771.000000	63.565670
770.000000	63.577770
769.000000	63.599950
768.000000	63.582607
767.000000	63.507361
766.000000	63.516275
765.000000	63.409908
764.000000	63.313785
763.000000	63.343434
762.000000	63.321332
761.000000	63.274694
760.000000	63.311416
759.000000	63.385288
758.000000	63.263299
757.000000	63.250941
756.000000	63.143736
755.000000	63.072746
754.000000	63.062509
753.000000	63.010105
752.000000	63.033914
751.000000	63.001857
750.000000	62.913013
749.000000	62.855841
748.000000	62.827788
747.000000	62.826522
746.000000	62.795681
745.000000	62.777723
744.000000	62.731174
743.000000	62.695711
742.000000	62.660181
741.000000	62.531547
740.000000	62.539637
739.000000	62.537499
738.000000	62.485311
737.000000	62.491213
736.000000	62.439354
735.000000	62.338141
734.000000	62.339482
733.000000	62.307644
732.000000	62.258963
731.000000	62.213298
730.000000	62.100131
729.000000	62.040348
728.000000	61.997629
727.000000	61.920875
726.000000	61.918427
725.000000	61.885089
724.000000	61.845930
723.000000	61.809793
722.000000	61.739126
721.000000	61.749835
720.000000	61.723691
719.000000	61.628449
718.000000	61.550067
717.000000	61.456353
716.000000	61.405928
715.000000	61.431816
714.000000	61.427741
713.000000	61.300873
712.000000	61.227429
711.000000	61.184425
710.000000	61.152292
709.000000	61.149508
708.000000	61.044623
707.000000	60.966182
706.000000	60.949106
705.000000	60.858487
704.000000	60.845897
703.000000	60.836779
702.000000	60.755173
701.000000	60.659356
700.000000	60.639414
699.000000	60.567731
698.000000	60.487733
697.000000	60.399866
696.000000	60.330705
695.000000	60.316936
694.000000	60.248411
693.000000	60.196105
692.000000	60.098861
691.000000	59.984608
690.000000	59.973346
689.000000	59.879255
688.000000	59.759022
687.000000	59.731096
686.000000	59.624351
685.000000	59.533804
684.000000	59.512041
683.000000	59.431888
682.000000	59.315423
681.000000	59.304969
680.000000	59.169241
679.000000	59.073222
678.000000	59.031085
677.000000	58.962278
676.000000	58.909986
675.000000	58.864153
674.000000	58.731778
673.000000	58.658484
672.000000	58.624617
671.000000	58.545169
670.000000	58.399970
669.000000	58.333050
668.000000	58.262202
667.000000	58.200343
666.000000	58.126086
665.000000	58.058800
664.000000	57.922195
663.000000	57.881551
662.000000	57.779384
661.000000	57.675581
660.000000	57.611541
659.000000	57.513571
658.000000	57.460296
657.000000	57.397515
656.000000	57.262877
655.000000	57.153708
654.000000	57.144015
653.000000	57.030621
652.000000	56.917978
651.000000	56.821595
650.000000	56.741926
649.000000	56.664279
648.000000	56.593950
647.000000	56.475657
646.000000	56.348213
645.000000	56.270828
644.000000	56.167698
643.000000	56.095424
642.000000	56.035043
641.000000	55.963216
640.000000	55.851890
639.000000	55.706364
638.000000	55.610253
637.000000	55.505114
636.000000	55.461629
635.000000	55.313801
634.000000	55.226162
633.000000	55.103191
632.000000	55.034489
631.000000	54.941056
630.000000	54.835212
629.000000	54.714748
628.000000	54.619481
627.000000	54.554442
626.000000	54.412200
625.000000	54.362616
624.000000	54.264170
623.000000	54.092020
622.000000	53.989741
621.000000	53.857411
620.000000	53.780580
619.000000	53.645475
618.000000	53.542293
617.000000	53.430830
616.000000	53.341928
615.000000	53.191814
614.000000	53.082966
613.000000	52.941334
612.000000	52.860444
611.000000	52.826304
610.000000	52.635041
609.000000	52.505431
608.000000	52.422765
607.000000	52.315789
606.000000	52.152200
605.000000	52.046997
604.000000	51.933874
603.000000	51.804974
602.000000	51.671460
601.000000	51.565749
600.000000	51.447184
599.000000	51.295373
598.000000	51.163295
597.000000	51.029091
596.000000	50.920167
595.000000	50.756997
594.000000	50.630828
593.000000	50.567062
592.000000	50.358942
591.000000	50.288215
590.000000	50.143160
589.000000	50.005424
588.000000	49.889103
587.000000	49.764632
586.000000	49.593667
585.000000	49.496996
584.000000	49.332940
583.000000	49.205358
582.000000	49.072735
581.000000	48.895878
580.000000	48.764306
579.000000	48.656702
578.000000	48.467299
577.000000	48.341123
576.000000	48.207307
575.000000	48.015047
574.000000	47.893522
573.000000	47.769653
572.000000	47.609177
571.000000	47.448513
570.000000	47.323110
569.000000	47.202111
568.000000	47.025535
567.000000	46.848279
566.000000	46.731721
565.000000	46.552355
564.000000	46.422812
563.000000	46.284455
562.000000	46.083272
561.000000	45.980542
560.000000	45.823789
559.000000	45.607398
558.000000	45.487793
557.000000	45.316800
556.000000	45.135525
555.000000	44.998852
554.000000	44.854523
553.000000	44.669526
552.000000	44.532102
551.000000	44.364465
550.000000	44.201669
549.000000	43.999271
548.000000	43.879341
547.000000	43.737457
546.000000	43.517293
545.000000	43.385019
544.000000	43.196518
543.000000	43.039854
542.000000	42.841368
541.000000	42.688437
540.000000	42.500012
539.000000	42.324776
538.000000	42.184485
537.000000	42.008372
536.000000	41.832458
535.000000	41.694102
534.000000	41.502147
533.000000	41.345469
532.000000	41.166211
531.000000	41.005204
530.000000	40.823428
529.000000	40.661940
528.000000	40.480424
527.000000	40.286559
526.000000	40.123226
525.000000	39.963909
524.000000	39.766666
523.000000	39.590794
522.000000	39.437274
521.000000	39.267321
520.000000	39.111634
519.000000	38.910680
518.000000	38.723531
517.000000	38.544684
516.000000	38.361558
515.000000	38.197857
514.000000	38.016758
513.000000	37.839963
512.000000	37.660392
511.000000	37.472494
510.000000	37.278285
509.000000	37.100599
508.000000	36.930149
507.000000	36.751584
506.000000	36.552801
505.000000	36.364660
504.000000	36.177084
503.000000	36.008090
502.000000	35.831384
501.000000	35.657164
500.000000	35.470092
499.000000	35.287930
498.000000	35.084748
497.000000	34.937121
496.000000	34.741877
495.000000	34.573440
494.000000	34.410849
493.000000	34.223374
492.000000	34.040439
491.000000	33.887513
490.000000	33.704550
489.000000	33.532657
488.000000	33.342275
487.000000	33.158109
486.000000	32.990572
485.000000	32.818824
484.000000	32.648465
483.000000	32.501310
482.000000	32.330159
481.000000	32.136153
480.000000	31.949563
479.000000	31.760591
478.000000	31.584737
477.000000	31.397480
476.000000	31.238170
475.000000	31.070168
474.000000	30.880702
473.000000	30.707119
472.000000	30.527244
471.000000	30.378000
470.000000	30.207383
469.000000	30.016245
468.000000	29.845051
467.000000	29.681769
466.000000	29.499253
465.000000	29.314357
464.000000	29.139060
463.000000	28.968119
462.000000	28.788821
461.000000	28.613562
460.000000	28.429861
459.000000	28.246901
458.000000	28.053181
457.000000	27.876808
456.000000	27.706963
455.000000	27.512048
454.000000	27.324839
453.000000	27.155952
452.000000	26.973172
451.000000	26.771486
450.000000	26.577005
449.000000	26.414254
448.000000	26.226706
447.000000	26.027272
446.000000	25.855229
445.000000	25.673762
444.000000	25.469224
443.000000	25.260477
442.000000	25.090456
441.000000	24.925774
440.000000	24.725025
439.000000	24.533825
438.000000	24.319418
437.000000	24.129035
436.000000	23.939479
435.000000	23.730279
434.000000	23.570222
433.000000	23.382698
432.000000	23.222357
431.000000	23.019585
430.000000	22.815416
429.000000	22.634907
428.000000	22.456959
427.000000	22.289388
426.000000	22.111474
425.000000	21.915590
424.000000	21.721612
423.000000	21.565945
422.000000	21.418990
421.000000	21.215597
420.000000	21.032377
419.000000	20.892474
418.000000	20.726200
417.000000	20.501828
416.000000	20.345266
415.000000	20.166508
414.000000	20.003731
413.000000	19.830574
412.000000	19.699915
411.000000	19.510907
410.000000	19.318455
409.000000	19.177898
408.000000	18.989460
407.000000	18.845450
406.000000	18.713045
405.000000	18.546746
404.000000	18.394790
403.000000	18.254980
402.000000	18.091166
401.000000	17.932782
400.000000	17.795138
399.000000	17.614259
398.000000	17.473597
397.000000	17.347915
396.000000	17.177134
395.000000	17.027136
394.000000	16.898286
393.000000	16.754425
392.000000	16.622468
391.000000	16.458208
390.000000	16.335374
389.000000	16.192304
388.000000	16.050794
387.000000	15.907457
386.000000	15.756021
385.000000	15.620750
384.000000	15.491628
383.000000	15.354756
382.000000	15.151293
381.000000	15.015274
380.000000	14.937290
379.000000	14.819171
378.000000	14.631355
377.000000	14.551776
376.000000	14.391424
375.000000	14.288249
374.000000	14.211876
373.000000	14.026801
372.000000	13.889791
371.000000	13.773912
370.000000	13.672842
369.000000	13.535125
368.000000	13.409919
367.000000	13.297927
366.000000	13.227616
365.000000	13.183853
364.000000	13.016597
363.000000	12.835712
362.000000	12.813047
361.000000	12.683899
360.000000	12.637211
359.000000	12.475887
358.000000	12.402044
357.000000	12.345753
356.000000	12.178069
355.000000	12.115138
354.000000	12.014068
353.000000	11.892848
352.000000	11.840422
351.000000	11.771889
350.000000	11.611576
349.000000	11.483519
348.000000	11.469327
347.000000	11.385289
346.000000	11.321392
345.000000	11.175460
344.000000	11.099216
343.000000	11.105731
342.000000	10.970880
341.000000	10.920238
340.000000	10.806794
339.000000	10.725321
338.000000	10.597904
337.000000	10.543388
336.000000	10.507347
335.000000	10.462338
334.000000	10.387420
333.000000	10.230599
332.000000	10.252118
331.000000	10.153568
330.000000	10.128541
329.000000	10.024818
328.000000	10.065660
327.000000	9.805953
326.000000	9.873490
325.000000	9.807830
324.000000	9.764956
323.000000	9.721347
322.000000	9.709111
321.000000	9.702008
320.000000	9.537297
319.000000	9.519920
318.000000	9.508760
317.000000	9.493531
316.000000	9.509838
315.000000	9.460176
314.000000	9.496818
313.000000	9.404840
312.000000	9.396632
311.000000	9.323089
310.000000	9.350029
309.000000	9.297190
308.000000	9.351982
307.000000	9.306761
306.000000	9.287600
305.000000	9.245097
304.000000	9.257164
303.000000	9.240303
302.000000	9.158610
301.000000	9.198160
300.000000	9.190017
299.000000	9.163795
298.000000	9.086143
297.000000	9.088759
296.000000	9.089254
295.000000	9.003497
294.000000	8.989129
293.000000	8.937778
292.000000	8.919850
291.000000	8.938663
290.000000	8.910075
289.000000	8.863138
288.000000	8.840719
287.000000	8.839711
286.000000	8.856356
285.000000	8.861480
284.000000	8.804652
283.000000	8.839933
282.000000	8.843659
281.000000	8.905207
280.000000	8.906354
279.000000	8.940148
278.000000	8.956639
277.000000	8.968848
276.000000	9.025127
275.000000	9.082180
274.000000	9.145661
273.000000	9.131171
272.000000	9.180302
271.000000	9.288415
270.000000	9.320691
269.000000	9.332000
268.000000	9.422216
267.000000	9.528696
266.000000	9.554085
265.000000	9.603857
264.000000	9.702139
263.000000	9.789929
262.000000	9.859639
261.000000	9.942296
260.000000	10.073887
259.000000	10.155719
258.000000	10.198109
257.000000	10.288032
256.000000	10.365581
255.000000	10.480247
254.000000	10.588145
253.000000	10.647574
252.000000	10.670401
251.000000	10.784608
250.000000	10.940554
249.000000	11.038758
248.000000	11.121570
247.000000	11.201927
246.000000	11.264090
245.000000	11.315605
244.000000	11.361001
243.000000	11.377606
242.000000	11.395832
241.000000	11.373919
240.000000	11.363084
239.000000	11.361899
238.000000	11.362145
237.000000	11.302001
236.000000	11.270766
235.000000	11.219576
234.000000	11.221031
233.000000	11.188950
232.000000	11.055837
231.000000	10.981508
230.000000	10.977131
229.000000	10.969163
228.000000	10.893630
227.000000	10.786722
226.000000	10.793230
225.000000	10.868020
224.000000	10.867662
223.000000	10.798244
222.000000	10.926752
221.000000	11.071296
220.000000	11.119927
219.000000	11.205422
218.000000	11.291892
217.000000	11.315310
216.000000	11.365113
215.000000	11.537131
214.000000	11.716352
213.000000	11.856850
212.000000	12.019494
211.000000	12.276963
210.000000	12.499739
209.000000	12.650045
208.000000	12.918553
207.000000	13.289161
206.000000	13.589833
205.000000	13.866936
204.000000	14.231777
203.000000	14.499777
202.000000	14.874804
201.000000	15.496855
200.000000	16.214680
