PE UV       SUBTECH     SPECTRUM    ASCII       PEDS        4.00        
   -1
TDms499171.Sample.asc
18/03/15
14:13:48.00
18/03/15
14:13:48.00
Administrator

200.000000
1
Lambda 750
750N8071901
PerkinElmer UV WinLab 6.0.4.0738 / 1.61.00 Lambda 900

0
0
3350/servo 860.8/2
0
0
UV/VIS
1
1
1
CommonBeamDepol,150mm sphere / downward view
0
0
0
0
Program
Program
3350/servo 860.8/2
3350/0.2 860.8/0.2
3350/0.2 860.8/0.2
0
1
 
 
 
0
 
860.8
319.2
860.8
Front
100
on
 
 
0
0
0
 
0
 
 
 
0
 
 
0
0
0
0
0
 
 
 
 
0
0


0
0
#HDR
-1
-1
#GR
nm
%T
1.0
0.0
2350.000000
-1.000000
2151
8
9.358417
-0.052150
#DATA
2350.000000	4.502575
2349.000000	4.612252
2348.000000	4.204007
2347.000000	5.270515
2346.000000	4.902941
2345.000000	4.576616
2344.000000	4.660777
2343.000000	4.107096
2342.000000	4.570928
2341.000000	4.647862
2340.000000	4.800431
2339.000000	4.847683
2338.000000	4.969253
2337.000000	5.041377
2336.000000	5.216469
2335.000000	5.448663
2334.000000	5.221964
2333.000000	5.126263
2332.000000	5.577708
2331.000000	5.348940
2330.000000	5.194381
2329.000000	5.042096
2328.000000	5.153950
2327.000000	4.804629
2326.000000	5.130588
2325.000000	4.937218
2324.000000	5.111760
2323.000000	5.036227
2322.000000	5.024534
2321.000000	4.915314
2320.000000	4.892399
2319.000000	4.894330
2318.000000	4.921444
2317.000000	4.830068
2316.000000	5.033813
2315.000000	4.947592
2314.000000	4.913882
2313.000000	4.640126
2312.000000	4.624242
2311.000000	4.749660
2310.000000	4.867633
2309.000000	4.742413
2308.000000	4.755455
2307.000000	4.803944
2306.000000	4.920212
2305.000000	4.911673
2304.000000	4.699481
2303.000000	4.603028
2302.000000	4.856661
2301.000000	4.848089
2300.000000	4.679295
2299.000000	4.596464
2298.000000	4.594887
2297.000000	4.426784
2296.000000	4.456000
2295.000000	4.460817
2294.000000	4.586835
2293.000000	4.602333
2292.000000	4.527747
2291.000000	4.362228
2290.000000	4.471222
2289.000000	4.616729
2288.000000	4.591786
2287.000000	4.467219
2286.000000	4.500194
2285.000000	4.405336
2284.000000	4.350276
2283.000000	4.419740
2282.000000	4.453758
2281.000000	4.461355
2280.000000	4.577452
2279.000000	4.625051
2278.000000	4.579903
2277.000000	4.512082
2276.000000	4.497476
2275.000000	4.736206
2274.000000	4.519446
2273.000000	4.568625
2272.000000	4.683695
2271.000000	4.746159
2270.000000	4.781825
2269.000000	4.654684
2268.000000	4.562117
2267.000000	4.517317
2266.000000	4.597212
2265.000000	4.724352
2264.000000	4.745990
2263.000000	4.681516
2262.000000	4.781340
2261.000000	4.740971
2260.000000	4.784030
2259.000000	4.866896
2258.000000	4.921073
2257.000000	4.957925
2256.000000	4.961763
2255.000000	5.031664
2254.000000	5.085548
2253.000000	5.141022
2252.000000	5.109736
2251.000000	5.120581
2250.000000	5.250836
2249.000000	5.315003
2248.000000	5.367969
2247.000000	5.354515
2246.000000	5.410203
2245.000000	5.585547
2244.000000	5.665209
2243.000000	5.654830
2242.000000	5.684490
2241.000000	5.820630
2240.000000	5.888402
2239.000000	5.754243
2238.000000	5.648038
2237.000000	5.752236
2236.000000	5.800412
2235.000000	5.885923
2234.000000	5.877402
2233.000000	5.764132
2232.000000	5.762465
2231.000000	5.798063
2230.000000	5.901946
2229.000000	5.826556
2228.000000	5.860606
2227.000000	5.967314
2226.000000	5.941686
2225.000000	5.879528
2224.000000	5.899227
2223.000000	5.872216
2222.000000	5.820099
2221.000000	5.795950
2220.000000	5.918476
2219.000000	5.899641
2218.000000	5.768473
2217.000000	5.781142
2216.000000	5.825045
2215.000000	5.832618
2214.000000	5.883405
2213.000000	5.959636
2212.000000	5.874137
2211.000000	5.771503
2210.000000	5.823049
2209.000000	5.690444
2208.000000	5.566083
2207.000000	5.726842
2206.000000	5.756784
2205.000000	5.666412
2204.000000	5.636402
2203.000000	5.670268
2202.000000	5.719590
2201.000000	5.692325
2200.000000	5.604140
2199.000000	5.477923
2198.000000	5.479188
2197.000000	5.484176
2196.000000	5.446860
2195.000000	5.351325
2194.000000	5.419200
2193.000000	5.360200
2192.000000	5.310186
2191.000000	5.187784
2190.000000	5.458668
2189.000000	5.496490
2188.000000	5.308501
2187.000000	5.335722
2186.000000	5.420794
2185.000000	5.335065
2184.000000	5.318515
2183.000000	5.367608
2182.000000	5.473072
2181.000000	5.407834
2180.000000	5.431154
2179.000000	5.346848
2178.000000	5.307803
2177.000000	5.203574
2176.000000	5.400115
2175.000000	5.493552
2174.000000	5.452614
2173.000000	5.302013
2172.000000	5.312355
2171.000000	5.378942
2170.000000	5.459982
2169.000000	5.262150
2168.000000	5.447893
2167.000000	5.340780
2166.000000	5.380044
2165.000000	5.300943
2164.000000	5.458062
2163.000000	5.498405
2162.000000	5.537005
2161.000000	5.347060
2160.000000	5.516121
2159.000000	5.470036
2158.000000	5.622466
2157.000000	5.678364
2156.000000	5.812914
2155.000000	5.656153
2154.000000	5.683295
2153.000000	5.900484
2152.000000	5.760050
2151.000000	5.700764
2150.000000	5.715660
2149.000000	5.712969
2148.000000	5.939025
2147.000000	6.007276
2146.000000	5.817652
2145.000000	5.923083
2144.000000	5.957293
2143.000000	5.972208
2142.000000	5.868781
2141.000000	6.121209
2140.000000	5.942324
2139.000000	6.110979
2138.000000	6.095419
2137.000000	6.072255
2136.000000	6.086408
2135.000000	6.119033
2134.000000	6.237128
2133.000000	6.138850
2132.000000	6.236625
2131.000000	6.245310
2130.000000	6.394218
2129.000000	6.290039
2128.000000	6.219056
2127.000000	6.179554
2126.000000	6.176392
2125.000000	6.186173
2124.000000	6.220768
2123.000000	6.137831
2122.000000	6.216208
2121.000000	6.114770
2120.000000	6.321170
2119.000000	6.171424
2118.000000	6.099705
2117.000000	6.122664
2116.000000	6.238107
2115.000000	6.241487
2114.000000	6.221323
2113.000000	6.245335
2112.000000	6.277553
2111.000000	6.313184
2110.000000	6.197280
2109.000000	6.157326
2108.000000	6.034538
2107.000000	6.232392
2106.000000	6.304697
2105.000000	6.260745
2104.000000	6.274333
2103.000000	6.142111
2102.000000	6.228167
2101.000000	6.238463
2100.000000	6.302916
2099.000000	6.247714
2098.000000	6.170843
2097.000000	6.191636
2096.000000	6.354172
2095.000000	6.189299
2094.000000	6.182618
2093.000000	6.248916
2092.000000	6.293640
2091.000000	6.149897
2090.000000	6.160991
2089.000000	6.163820
2088.000000	6.213326
2087.000000	6.223344
2086.000000	6.223557
2085.000000	6.309993
2084.000000	6.263328
2083.000000	6.115280
2082.000000	6.212799
2081.000000	6.153104
2080.000000	6.072553
2079.000000	6.074356
2078.000000	5.986616
2077.000000	5.995139
2076.000000	5.990133
2075.000000	5.948029
2074.000000	6.009540
2073.000000	5.953019
2072.000000	5.893679
2071.000000	5.881830
2070.000000	5.956514
2069.000000	5.880175
2068.000000	5.817178
2067.000000	5.803170
2066.000000	5.744671
2065.000000	5.693656
2064.000000	5.621451
2063.000000	5.574825
2062.000000	5.537575
2061.000000	5.556981
2060.000000	5.504896
2059.000000	5.453330
2058.000000	5.427108
2057.000000	5.465462
2056.000000	5.420825
2055.000000	5.447164
2054.000000	5.483622
2053.000000	5.392757
2052.000000	5.302532
2051.000000	5.261350
2050.000000	5.230552
2049.000000	5.225175
2048.000000	5.203196
2047.000000	5.261897
2046.000000	5.210202
2045.000000	5.171124
2044.000000	5.178586
2043.000000	5.140543
2042.000000	5.082562
2041.000000	5.123031
2040.000000	5.176692
2039.000000	5.187708
2038.000000	5.206345
2037.000000	5.184089
2036.000000	5.167574
2035.000000	5.185178
2034.000000	5.181512
2033.000000	5.231157
2032.000000	5.343641
2031.000000	5.358718
2030.000000	5.383255
2029.000000	5.359830
2028.000000	5.293275
2027.000000	5.356977
2026.000000	5.380435
2025.000000	5.392618
2024.000000	5.467663
2023.000000	5.464713
2022.000000	5.416848
2021.000000	5.413252
2020.000000	5.430075
2019.000000	5.436364
2018.000000	5.394474
2017.000000	5.399482
2016.000000	5.390561
2015.000000	5.389660
2014.000000	5.402466
2013.000000	5.407798
2012.000000	5.390334
2011.000000	5.395655
2010.000000	5.346623
2009.000000	5.290528
2008.000000	5.274196
2007.000000	5.269819
2006.000000	5.258171
2005.000000	5.253353
2004.000000	5.213468
2003.000000	5.188113
2002.000000	5.141973
2001.000000	5.101713
2000.000000	5.092860
1999.000000	5.105963
1998.000000	5.069491
1997.000000	5.042457
1996.000000	5.058668
1995.000000	5.016115
1994.000000	4.944136
1993.000000	4.912918
1992.000000	4.906379
1991.000000	4.907553
1990.000000	4.843505
1989.000000	4.774409
1988.000000	4.763416
1987.000000	4.732577
1986.000000	4.735650
1985.000000	4.724441
1984.000000	4.717106
1983.000000	4.672788
1982.000000	4.633352
1981.000000	4.606407
1980.000000	4.613531
1979.000000	4.621063
1978.000000	4.588983
1977.000000	4.522598
1976.000000	4.511457
1975.000000	4.490470
1974.000000	4.485741
1973.000000	4.469279
1972.000000	4.406593
1971.000000	4.419560
1970.000000	4.388125
1969.000000	4.339453
1968.000000	4.334643
1967.000000	4.308655
1966.000000	4.320064
1965.000000	4.284531
1964.000000	4.216899
1963.000000	4.212112
1962.000000	4.228380
1961.000000	4.232199
1960.000000	4.218607
1959.000000	4.201163
1958.000000	4.199784
1957.000000	4.212875
1956.000000	4.158448
1955.000000	4.124313
1954.000000	4.110830
1953.000000	4.107156
1952.000000	4.111479
1951.000000	4.099726
1950.000000	4.019024
1949.000000	4.072860
1948.000000	4.057455
1947.000000	4.076545
1946.000000	4.085538
1945.000000	4.050234
1944.000000	4.082412
1943.000000	4.079637
1942.000000	4.064420
1941.000000	4.122039
1940.000000	4.156851
1939.000000	4.155254
1938.000000	4.114935
1937.000000	4.129820
1936.000000	4.162874
1935.000000	4.193875
1934.000000	4.202307
1933.000000	4.290701
1932.000000	4.292725
1931.000000	4.261544
1930.000000	4.263308
1929.000000	4.333236
1928.000000	4.357058
1927.000000	4.420916
1926.000000	4.473048
1925.000000	4.539134
1924.000000	4.541641
1923.000000	4.554222
1922.000000	4.623452
1921.000000	4.766761
1920.000000	4.780860
1919.000000	4.834234
1918.000000	4.917143
1917.000000	5.029928
1916.000000	4.907499
1915.000000	5.117980
1914.000000	5.231700
1913.000000	5.348657
1912.000000	5.364760
1911.000000	5.431252
1910.000000	5.496817
1909.000000	5.616530
1908.000000	5.678794
1907.000000	5.728369
1906.000000	5.840021
1905.000000	5.956848
1904.000000	5.998503
1903.000000	6.149509
1902.000000	6.273265
1901.000000	6.348420
1900.000000	6.444029
1899.000000	6.622433
1898.000000	6.729931
1897.000000	6.730671
1896.000000	6.924529
1895.000000	6.981703
1894.000000	7.095938
1893.000000	7.178034
1892.000000	7.194966
1891.000000	7.334457
1890.000000	7.455564
1889.000000	7.522192
1888.000000	7.648070
1887.000000	7.777234
1886.000000	7.788250
1885.000000	7.915321
1884.000000	8.027154
1883.000000	8.137016
1882.000000	8.200651
1881.000000	8.300606
1880.000000	8.377588
1879.000000	8.430384
1878.000000	8.509746
1877.000000	8.594227
1876.000000	8.630869
1875.000000	8.715878
1874.000000	8.757767
1873.000000	8.783461
1872.000000	8.883788
1871.000000	8.951258
1870.000000	8.940660
1869.000000	8.946411
1868.000000	9.004518
1867.000000	9.014433
1866.000000	8.962926
1865.000000	8.943619
1864.000000	8.911131
1863.000000	8.992623
1862.000000	9.023651
1861.000000	8.997546
1860.000000	8.976241
1859.000000	8.942517
1858.000000	8.947367
1857.000000	9.004347
1856.000000	9.052194
1855.000000	9.037881
1854.000000	9.063467
1853.000000	9.086729
1852.000000	9.088419
1851.000000	9.067718
1850.000000	9.084073
1849.000000	9.085810
1848.000000	9.059457
1847.000000	9.091139
1846.000000	9.059739
1845.000000	9.058041
1844.000000	9.046014
1843.000000	9.035949
1842.000000	9.022050
1841.000000	8.999590
1840.000000	9.009544
1839.000000	8.997143
1838.000000	8.972947
1837.000000	8.964708
1836.000000	8.937612
1835.000000	8.898171
1834.000000	8.868166
1833.000000	8.876686
1832.000000	8.886513
1831.000000	8.856938
1830.000000	8.857947
1829.000000	8.843139
1828.000000	8.776892
1827.000000	8.761576
1826.000000	8.775489
1825.000000	8.758860
1824.000000	8.739556
1823.000000	8.744665
1822.000000	8.732530
1821.000000	8.737037
1820.000000	8.754521
1819.000000	8.756046
1818.000000	8.739865
1817.000000	8.708381
1816.000000	8.674137
1815.000000	8.669900
1814.000000	8.669903
1813.000000	8.644910
1812.000000	8.639357
1811.000000	8.636110
1810.000000	8.626724
1809.000000	8.641281
1808.000000	8.651279
1807.000000	8.636317
1806.000000	8.610893
1805.000000	8.601755
1804.000000	8.580664
1803.000000	8.551525
1802.000000	8.553877
1801.000000	8.561725
1800.000000	8.577929
1799.000000	8.564633
1798.000000	8.547936
1797.000000	8.563483
1796.000000	8.569078
1795.000000	8.575216
1794.000000	8.582304
1793.000000	8.566249
1792.000000	8.576117
1791.000000	8.604452
1790.000000	8.595462
1789.000000	8.592654
1788.000000	8.579510
1787.000000	8.585279
1786.000000	8.589906
1785.000000	8.597039
1784.000000	8.619430
1783.000000	8.620616
1782.000000	8.619427
1781.000000	8.597692
1780.000000	8.612517
1779.000000	8.612647
1778.000000	8.587954
1777.000000	8.572649
1776.000000	8.563667
1775.000000	8.566252
1774.000000	8.556801
1773.000000	8.528927
1772.000000	8.524361
1771.000000	8.516664
1770.000000	8.495846
1769.000000	8.507841
1768.000000	8.472255
1767.000000	8.450157
1766.000000	8.434868
1765.000000	8.438080
1764.000000	8.425397
1763.000000	8.400581
1762.000000	8.381126
1761.000000	8.373947
1760.000000	8.361082
1759.000000	8.352828
1758.000000	8.359704
1757.000000	8.337856
1756.000000	8.347054
1755.000000	8.325910
1754.000000	8.327669
1753.000000	8.318026
1752.000000	8.275741
1751.000000	8.267975
1750.000000	8.297271
1749.000000	8.279139
1748.000000	8.260557
1747.000000	8.258674
1746.000000	8.257043
1745.000000	8.184325
1744.000000	8.163096
1743.000000	8.183777
1742.000000	8.156699
1741.000000	8.165691
1740.000000	8.138074
1739.000000	8.111469
1738.000000	8.126901
1737.000000	8.123301
1736.000000	8.101606
1735.000000	8.066634
1734.000000	8.092255
1733.000000	8.082582
1732.000000	8.079390
1731.000000	8.094375
1730.000000	8.089457
1729.000000	8.099228
1728.000000	8.096516
1727.000000	8.104801
1726.000000	8.099253
1725.000000	8.136972
1724.000000	8.113275
1723.000000	8.116770
1722.000000	8.150729
1721.000000	8.173553
1720.000000	8.205337
1719.000000	8.210556
1718.000000	8.229997
1717.000000	8.247080
1716.000000	8.271572
1715.000000	8.255802
1714.000000	8.281950
1713.000000	8.300821
1712.000000	8.302994
1711.000000	8.333925
1710.000000	8.319575
1709.000000	8.314421
1708.000000	8.351868
1707.000000	8.332860
1706.000000	8.365945
1705.000000	8.373070
1704.000000	8.401806
1703.000000	8.388893
1702.000000	8.371313
1701.000000	8.365551
1700.000000	8.377151
1699.000000	8.359208
1698.000000	8.396415
1697.000000	8.399878
1696.000000	8.397776
1695.000000	8.416959
1694.000000	8.434749
1693.000000	8.420143
1692.000000	8.416372
1691.000000	8.440946
1690.000000	8.478861
1689.000000	8.467161
1688.000000	8.482113
1687.000000	8.506941
1686.000000	8.552827
1685.000000	8.593693
1684.000000	8.590666
1683.000000	8.621165
1682.000000	8.626874
1681.000000	8.672319
1680.000000	8.691249
1679.000000	8.697014
1678.000000	8.744096
1677.000000	8.753893
1676.000000	8.794313
1675.000000	8.814988
1674.000000	8.844932
1673.000000	8.842996
1672.000000	8.889121
1671.000000	8.906824
1670.000000	8.937081
1669.000000	8.926116
1668.000000	8.941306
1667.000000	8.950715
1666.000000	8.967971
1665.000000	8.968526
1664.000000	8.973093
1663.000000	8.978690
1662.000000	9.013197
1661.000000	9.027586
1660.000000	9.026729
1659.000000	9.064015
1658.000000	9.085003
1657.000000	9.128155
1656.000000	9.103362
1655.000000	9.095083
1654.000000	9.095608
1653.000000	9.097164
1652.000000	9.082489
1651.000000	9.090209
1650.000000	9.098741
1649.000000	9.110283
1648.000000	9.066364
1647.000000	9.080840
1646.000000	9.075323
1645.000000	9.068657
1644.000000	9.072547
1643.000000	9.051638
1642.000000	9.041436
1641.000000	9.020548
1640.000000	9.013185
1639.000000	9.015967
1638.000000	8.992602
1637.000000	8.995462
1636.000000	8.987325
1635.000000	8.982173
1634.000000	8.948496
1633.000000	8.945543
1632.000000	8.940738
1631.000000	8.922296
1630.000000	8.909997
1629.000000	8.895897
1628.000000	8.894917
1627.000000	8.886773
1626.000000	8.875725
1625.000000	8.863864
1624.000000	8.855442
1623.000000	8.857455
1622.000000	8.827526
1621.000000	8.814940
1620.000000	8.817294
1619.000000	8.805620
1618.000000	8.782819
1617.000000	8.778601
1616.000000	8.768720
1615.000000	8.756977
1614.000000	8.752940
1613.000000	8.748339
1612.000000	8.736652
1611.000000	8.716027
1610.000000	8.713072
1609.000000	8.710406
1608.000000	8.708822
1607.000000	8.693903
1606.000000	8.672735
1605.000000	8.664114
1604.000000	8.641621
1603.000000	8.619661
1602.000000	8.610315
1601.000000	8.611169
1600.000000	8.608184
1599.000000	8.589962
1598.000000	8.576928
1597.000000	8.558136
1596.000000	8.548148
1595.000000	8.549569
1594.000000	8.550833
1593.000000	8.543635
1592.000000	8.536225
1591.000000	8.519547
1590.000000	8.507638
1589.000000	8.495122
1588.000000	8.486239
1587.000000	8.487105
1586.000000	8.476479
1585.000000	8.469097
1584.000000	8.466694
1583.000000	8.458544
1582.000000	8.456422
1581.000000	8.446498
1580.000000	8.439492
1579.000000	8.430730
1578.000000	8.419445
1577.000000	8.409738
1576.000000	8.395084
1575.000000	8.390347
1574.000000	8.378755
1573.000000	8.363125
1572.000000	8.353071
1571.000000	8.347532
1570.000000	8.342121
1569.000000	8.332185
1568.000000	8.314162
1567.000000	8.310408
1566.000000	8.304488
1565.000000	8.284115
1564.000000	8.282878
1563.000000	8.275685
1562.000000	8.270204
1561.000000	8.257474
1560.000000	8.239144
1559.000000	8.228083
1558.000000	8.208989
1557.000000	8.209970
1556.000000	8.209716
1555.000000	8.209822
1554.000000	8.186159
1553.000000	8.174079
1552.000000	8.156313
1551.000000	8.149965
1550.000000	8.148068
1549.000000	8.136251
1548.000000	8.121110
1547.000000	8.115180
1546.000000	8.089544
1545.000000	8.069521
1544.000000	8.045866
1543.000000	8.025628
1542.000000	8.008235
1541.000000	7.990906
1540.000000	7.960070
1539.000000	7.940496
1538.000000	7.934743
1537.000000	7.899927
1536.000000	7.894335
1535.000000	7.880714
1534.000000	7.860276
1533.000000	7.844404
1532.000000	7.814592
1531.000000	7.801289
1530.000000	7.775360
1529.000000	7.749526
1528.000000	7.760711
1527.000000	7.750086
1526.000000	7.725565
1525.000000	7.714153
1524.000000	7.715483
1523.000000	7.701290
1522.000000	7.684362
1521.000000	7.675128
1520.000000	7.665182
1519.000000	7.675503
1518.000000	7.653940
1517.000000	7.636573
1516.000000	7.624741
1515.000000	7.634371
1514.000000	7.632821
1513.000000	7.619677
1512.000000	7.605839
1511.000000	7.610268
1510.000000	7.616419
1509.000000	7.588384
1508.000000	7.596096
1507.000000	7.601924
1506.000000	7.598725
1505.000000	7.602942
1504.000000	7.586437
1503.000000	7.607640
1502.000000	7.593621
1501.000000	7.599483
1500.000000	7.597950
1499.000000	7.589484
1498.000000	7.616322
1497.000000	7.643531
1496.000000	7.623373
1495.000000	7.605536
1494.000000	7.600580
1493.000000	7.608731
1492.000000	7.605678
1491.000000	7.590130
1490.000000	7.595770
1489.000000	7.617495
1488.000000	7.602147
1487.000000	7.622092
1486.000000	7.598479
1485.000000	7.606476
1484.000000	7.616144
1483.000000	7.616657
1482.000000	7.617889
1481.000000	7.632093
1480.000000	7.641377
1479.000000	7.625200
1478.000000	7.628252
1477.000000	7.606103
1476.000000	7.613794
1475.000000	7.610196
1474.000000	7.624533
1473.000000	7.623352
1472.000000	7.608857
1471.000000	7.634980
1470.000000	7.623888
1469.000000	7.613090
1468.000000	7.608367
1467.000000	7.610192
1466.000000	7.640919
1465.000000	7.648469
1464.000000	7.641512
1463.000000	7.619012
1462.000000	7.635808
1461.000000	7.653401
1460.000000	7.653675
1459.000000	7.665325
1458.000000	7.648664
1457.000000	7.660547
1456.000000	7.661961
1455.000000	7.655630
1454.000000	7.668999
1453.000000	7.689567
1452.000000	7.707178
1451.000000	7.690314
1450.000000	7.694893
1449.000000	7.698801
1448.000000	7.729125
1447.000000	7.729634
1446.000000	7.735539
1445.000000	7.743461
1444.000000	7.755592
1443.000000	7.745571
1442.000000	7.764104
1441.000000	7.762816
1440.000000	7.783146
1439.000000	7.832865
1438.000000	7.850928
1437.000000	7.866151
1436.000000	7.870278
1435.000000	7.871965
1434.000000	7.898151
1433.000000	7.918689
1432.000000	7.933265
1431.000000	7.965414
1430.000000	7.996066
1429.000000	8.003210
1428.000000	8.016651
1427.000000	8.051269
1426.000000	8.079552
1425.000000	8.106883
1424.000000	8.124012
1423.000000	8.138954
1422.000000	8.170536
1421.000000	8.209000
1420.000000	8.240248
1419.000000	8.256976
1418.000000	8.275709
1417.000000	8.318720
1416.000000	8.366269
1415.000000	8.407173
1414.000000	8.439882
1413.000000	8.472166
1412.000000	8.509712
1411.000000	8.539536
1410.000000	8.580332
1409.000000	8.617996
1408.000000	8.651070
1407.000000	8.697566
1406.000000	8.730985
1405.000000	8.757752
1404.000000	8.778889
1403.000000	8.813828
1402.000000	8.846818
1401.000000	8.890474
1400.000000	8.911410
1399.000000	8.936105
1398.000000	8.943054
1397.000000	8.971463
1396.000000	9.013071
1395.000000	9.030062
1394.000000	9.036394
1393.000000	9.054888
1392.000000	9.086712
1391.000000	9.110072
1390.000000	9.118344
1389.000000	9.132274
1388.000000	9.153124
1387.000000	9.168933
1386.000000	9.172885
1385.000000	9.180523
1384.000000	9.201068
1383.000000	9.230160
1382.000000	9.248432
1381.000000	9.240381
1380.000000	9.235228
1379.000000	9.254069
1378.000000	9.255794
1377.000000	9.255189
1376.000000	9.267082
1375.000000	9.274244
1374.000000	9.273322
1373.000000	9.265240
1372.000000	9.264949
1371.000000	9.278612
1370.000000	9.302197
1369.000000	9.309522
1368.000000	9.306291
1367.000000	9.310911
1366.000000	9.313616
1365.000000	9.310989
1364.000000	9.311664
1363.000000	9.307638
1362.000000	9.308333
1361.000000	9.336955
1360.000000	9.353100
1359.000000	9.348216
1358.000000	9.333918
1357.000000	9.325371
1356.000000	9.347923
1355.000000	9.358417
1354.000000	9.340943
1353.000000	9.317087
1352.000000	9.320951
1351.000000	9.315942
1350.000000	9.305808
1349.000000	9.306396
1348.000000	9.301672
1347.000000	9.280734
1346.000000	9.273375
1345.000000	9.286128
1344.000000	9.294045
1343.000000	9.287030
1342.000000	9.296497
1341.000000	9.294535
1340.000000	9.278451
1339.000000	9.259422
1338.000000	9.275081
1337.000000	9.295366
1336.000000	9.291836
1335.000000	9.282694
1334.000000	9.272573
1333.000000	9.268721
1332.000000	9.285057
1331.000000	9.290450
1330.000000	9.273186
1329.000000	9.259516
1328.000000	9.275145
1327.000000	9.288569
1326.000000	9.265926
1325.000000	9.259072
1324.000000	9.267186
1323.000000	9.265130
1322.000000	9.242542
1321.000000	9.236940
1320.000000	9.240685
1319.000000	9.255737
1318.000000	9.262201
1317.000000	9.221603
1316.000000	9.234068
1315.000000	9.228722
1314.000000	9.203389
1313.000000	9.184897
1312.000000	9.192186
1311.000000	9.234292
1310.000000	9.228110
1309.000000	9.216253
1308.000000	9.191004
1307.000000	9.170811
1306.000000	9.150666
1305.000000	9.156909
1304.000000	9.181808
1303.000000	9.191641
1302.000000	9.176003
1301.000000	9.167588
1300.000000	9.160616
1299.000000	9.168788
1298.000000	9.167287
1297.000000	9.157697
1296.000000	9.162669
1295.000000	9.170150
1294.000000	9.155526
1293.000000	9.157294
1292.000000	9.164972
1291.000000	9.175030
1290.000000	9.182188
1289.000000	9.174361
1288.000000	9.152997
1287.000000	9.163789
1286.000000	9.155043
1285.000000	9.141957
1284.000000	9.112366
1283.000000	9.096024
1282.000000	9.109953
1281.000000	9.121697
1280.000000	9.132684
1279.000000	9.115053
1278.000000	9.094672
1277.000000	9.107403
1276.000000	9.107244
1275.000000	9.079714
1274.000000	9.106186
1273.000000	9.078075
1272.000000	9.074604
1271.000000	9.055674
1270.000000	9.046610
1269.000000	9.045166
1268.000000	9.039661
1267.000000	9.044566
1266.000000	9.036024
1265.000000	9.045199
1264.000000	9.079647
1263.000000	9.058123
1262.000000	9.048306
1261.000000	9.021915
1260.000000	9.031508
1259.000000	9.034129
1258.000000	9.048279
1257.000000	9.050076
1256.000000	9.018805
1255.000000	9.016150
1254.000000	9.006138
1253.000000	9.006471
1252.000000	9.009422
1251.000000	9.007204
1250.000000	8.992516
1249.000000	8.991509
1248.000000	9.003341
1247.000000	9.000769
1246.000000	9.007077
1245.000000	9.015744
1244.000000	9.012696
1243.000000	9.012765
1242.000000	9.026997
1241.000000	9.014552
1240.000000	8.990322
1239.000000	8.987108
1238.000000	8.999587
1237.000000	8.992968
1236.000000	8.969629
1235.000000	8.968363
1234.000000	8.965863
1233.000000	8.962474
1232.000000	8.925451
1231.000000	8.932014
1230.000000	8.928948
1229.000000	8.931220
1228.000000	8.933430
1227.000000	8.892556
1226.000000	8.881659
1225.000000	8.896587
1224.000000	8.889583
1223.000000	8.891424
1222.000000	8.887204
1221.000000	8.881853
1220.000000	8.855038
1219.000000	8.851022
1218.000000	8.852886
1217.000000	8.816403
1216.000000	8.802352
1215.000000	8.794649
1214.000000	8.810719
1213.000000	8.810386
1212.000000	8.786035
1211.000000	8.769937
1210.000000	8.787351
1209.000000	8.773091
1208.000000	8.751215
1207.000000	8.752152
1206.000000	8.755212
1205.000000	8.747495
1204.000000	8.712258
1203.000000	8.718169
1202.000000	8.720189
1201.000000	8.703555
1200.000000	8.710320
1199.000000	8.721248
1198.000000	8.695560
1197.000000	8.679890
1196.000000	8.667192
1195.000000	8.668417
1194.000000	8.671783
1193.000000	8.666221
1192.000000	8.658630
1191.000000	8.663054
1190.000000	8.649050
1189.000000	8.624093
1188.000000	8.629511
1187.000000	8.635696
1186.000000	8.622930
1185.000000	8.625189
1184.000000	8.628614
1183.000000	8.628388
1182.000000	8.633036
1181.000000	8.637541
1180.000000	8.655091
1179.000000	8.666832
1178.000000	8.671161
1177.000000	8.669818
1176.000000	8.680970
1175.000000	8.700314
1174.000000	8.695565
1173.000000	8.702541
1172.000000	8.705188
1171.000000	8.699749
1170.000000	8.705256
1169.000000	8.710640
1168.000000	8.714171
1167.000000	8.718159
1166.000000	8.727028
1165.000000	8.733400
1164.000000	8.734677
1163.000000	8.744268
1162.000000	8.731793
1161.000000	8.725900
1160.000000	8.741248
1159.000000	8.749626
1158.000000	8.759065
1157.000000	8.770927
1156.000000	8.774600
1155.000000	8.753058
1154.000000	8.732608
1153.000000	8.732688
1152.000000	8.747144
1151.000000	8.762178
1150.000000	8.773356
1149.000000	8.775733
1148.000000	8.773039
1147.000000	8.780188
1146.000000	8.786255
1145.000000	8.800230
1144.000000	8.808226
1143.000000	8.813829
1142.000000	8.818699
1141.000000	8.808220
1140.000000	8.790600
1139.000000	8.776099
1138.000000	8.783113
1137.000000	8.794480
1136.000000	8.812832
1135.000000	8.812696
1134.000000	8.811410
1133.000000	8.811565
1132.000000	8.808728
1131.000000	8.821732
1130.000000	8.825906
1129.000000	8.837745
1128.000000	8.841552
1127.000000	8.813228
1126.000000	8.794060
1125.000000	8.792062
1124.000000	8.810256
1123.000000	8.805057
1122.000000	8.804178
1121.000000	8.806696
1120.000000	8.806506
1119.000000	8.810478
1118.000000	8.800966
1117.000000	8.791749
1116.000000	8.798966
1115.000000	8.805226
1114.000000	8.809563
1113.000000	8.809889
1112.000000	8.791725
1111.000000	8.799139
1110.000000	8.787245
1109.000000	8.791124
1108.000000	8.780910
1107.000000	8.794065
1106.000000	8.798662
1105.000000	8.794339
1104.000000	8.787820
1103.000000	8.745465
1102.000000	8.733223
1101.000000	8.742050
1100.000000	8.758877
1099.000000	8.766967
1098.000000	8.778483
1097.000000	8.782747
1096.000000	8.775650
1095.000000	8.772940
1094.000000	8.742549
1093.000000	8.722403
1092.000000	8.734723
1091.000000	8.755946
1090.000000	8.756880
1089.000000	8.747842
1088.000000	8.751037
1087.000000	8.725285
1086.000000	8.710031
1085.000000	8.712742
1084.000000	8.731054
1083.000000	8.723053
1082.000000	8.730764
1081.000000	8.732972
1080.000000	8.699051
1079.000000	8.697802
1078.000000	8.696951
1077.000000	8.704941
1076.000000	8.714031
1075.000000	8.712652
1074.000000	8.688612
1073.000000	8.679345
1072.000000	8.680400
1071.000000	8.699347
1070.000000	8.703476
1069.000000	8.709419
1068.000000	8.713749
1067.000000	8.672581
1066.000000	8.679008
1065.000000	8.664460
1064.000000	8.690413
1063.000000	8.687625
1062.000000	8.692214
1061.000000	8.699326
1060.000000	8.678221
1059.000000	8.658638
1058.000000	8.661516
1057.000000	8.660377
1056.000000	8.667715
1055.000000	8.661336
1054.000000	8.652990
1053.000000	8.650082
1052.000000	8.665570
1051.000000	8.663402
1050.000000	8.680090
1049.000000	8.661823
1048.000000	8.622424
1047.000000	8.654998
1046.000000	8.668843
1045.000000	8.636469
1044.000000	8.623892
1043.000000	8.632096
1042.000000	8.636718
1041.000000	8.625731
1040.000000	8.621155
1039.000000	8.624056
1038.000000	8.647951
1037.000000	8.660415
1036.000000	8.630372
1035.000000	8.618840
1034.000000	8.635550
1033.000000	8.621417
1032.000000	8.613570
1031.000000	8.623924
1030.000000	8.632786
1029.000000	8.620839
1028.000000	8.605547
1027.000000	8.630568
1026.000000	8.623879
1025.000000	8.604786
1024.000000	8.626293
1023.000000	8.629257
1022.000000	8.612765
1021.000000	8.619572
1020.000000	8.628614
1019.000000	8.621231
1018.000000	8.617419
1017.000000	8.629192
1016.000000	8.627068
1015.000000	8.626610
1014.000000	8.635092
1013.000000	8.624238
1012.000000	8.606632
1011.000000	8.617733
1010.000000	8.632616
1009.000000	8.661415
1008.000000	8.652494
1007.000000	8.660648
1006.000000	8.666517
1005.000000	8.660715
1004.000000	8.659742
1003.000000	8.672808
1002.000000	8.678601
1001.000000	8.668394
1000.000000	8.664036
999.000000	8.674757
998.000000	8.665943
997.000000	8.672653
996.000000	8.670190
995.000000	8.663616
994.000000	8.656911
993.000000	8.665752
992.000000	8.657104
991.000000	8.654988
990.000000	8.677742
989.000000	8.667931
988.000000	8.652203
987.000000	8.650624
986.000000	8.649352
985.000000	8.638508
984.000000	8.641738
983.000000	8.633206
982.000000	8.628275
981.000000	8.622105
980.000000	8.622933
979.000000	8.636348
978.000000	8.636311
977.000000	8.627699
976.000000	8.618069
975.000000	8.618010
974.000000	8.617963
973.000000	8.616636
972.000000	8.607375
971.000000	8.604912
970.000000	8.602868
969.000000	8.579295
968.000000	8.578914
967.000000	8.585888
966.000000	8.588443
965.000000	8.589143
964.000000	8.590496
963.000000	8.586959
962.000000	8.580197
961.000000	8.575418
960.000000	8.570375
959.000000	8.577452
958.000000	8.573032
957.000000	8.553003
956.000000	8.535710
955.000000	8.534760
954.000000	8.538499
953.000000	8.539823
952.000000	8.548991
951.000000	8.561152
950.000000	8.538989
949.000000	8.531284
948.000000	8.547149
947.000000	8.540020
946.000000	8.539702
945.000000	8.530972
944.000000	8.531685
943.000000	8.530640
942.000000	8.524306
941.000000	8.512349
940.000000	8.499210
939.000000	8.489630
938.000000	8.496421
937.000000	8.493083
936.000000	8.475425
935.000000	8.467555
934.000000	8.487119
933.000000	8.503794
932.000000	8.491866
931.000000	8.475223
930.000000	8.470450
929.000000	8.445645
928.000000	8.445894
927.000000	8.452187
926.000000	8.431247
925.000000	8.422807
924.000000	8.421296
923.000000	8.415906
922.000000	8.409363
921.000000	8.425204
920.000000	8.438075
919.000000	8.433547
918.000000	8.407164
917.000000	8.384166
916.000000	8.413004
915.000000	8.420161
914.000000	8.406207
913.000000	8.392704
912.000000	8.390624
911.000000	8.357050
910.000000	8.364781
909.000000	8.393562
908.000000	8.389507
907.000000	8.378270
906.000000	8.354623
905.000000	8.323181
904.000000	8.350041
903.000000	8.367825
902.000000	8.337712
901.000000	8.346904
900.000000	8.335576
899.000000	8.383185
898.000000	8.349612
897.000000	8.324828
896.000000	8.340157
895.000000	8.309776
894.000000	8.306643
893.000000	8.362550
892.000000	8.323232
891.000000	8.327100
890.000000	8.343206
889.000000	8.292012
888.000000	8.370120
887.000000	8.357059
886.000000	8.335389
885.000000	8.361206
884.000000	8.303289
883.000000	8.333401
882.000000	8.294118
881.000000	8.302648
880.000000	8.249134
879.000000	8.191325
878.000000	8.263106
877.000000	8.187226
876.000000	8.244716
875.000000	8.267540
874.000000	8.234484
873.000000	8.269334
872.000000	8.282377
871.000000	8.293714
870.000000	8.206479
869.000000	8.160439
868.000000	8.179708
867.000000	8.141211
866.000000	8.155252
865.000000	8.186025
864.000000	8.150062
863.000000	8.150922
862.000000	8.181253
861.000000	8.055980
860.000000	7.991780
859.000000	7.745416
858.000000	7.829497
857.000000	7.797345
856.000000	7.768120
855.000000	7.700329
854.000000	7.739872
853.000000	7.727981
852.000000	7.741025
851.000000	7.750322
850.000000	7.750979
849.000000	7.705987
848.000000	7.730532
847.000000	7.721302
846.000000	7.680880
845.000000	7.674615
844.000000	7.645674
843.000000	7.604901
842.000000	7.623223
841.000000	7.665880
840.000000	7.584058
839.000000	7.618930
838.000000	7.572103
837.000000	7.560955
836.000000	7.593441
835.000000	7.544516
834.000000	7.556325
833.000000	7.528960
832.000000	7.551204
831.000000	7.501534
830.000000	7.476899
829.000000	7.517058
828.000000	7.447875
827.000000	7.466735
826.000000	7.437490
825.000000	7.435796
824.000000	7.406640
823.000000	7.431839
822.000000	7.448391
821.000000	7.399146
820.000000	7.387889
819.000000	7.398184
818.000000	7.386365
817.000000	7.377960
816.000000	7.374263
815.000000	7.316090
814.000000	7.359197
813.000000	7.336025
812.000000	7.338955
811.000000	7.322361
810.000000	7.302682
809.000000	7.309245
808.000000	7.330368
807.000000	7.309762
806.000000	7.279655
805.000000	7.274669
804.000000	7.244018
803.000000	7.234578
802.000000	7.236631
801.000000	7.217760
800.000000	7.201886
799.000000	7.198824
798.000000	7.159498
797.000000	7.186411
796.000000	7.186732
795.000000	7.171785
794.000000	7.156486
793.000000	7.134599
792.000000	7.140498
791.000000	7.139833
790.000000	7.102246
789.000000	7.115564
788.000000	7.091907
787.000000	7.083553
786.000000	7.077686
785.000000	7.056353
784.000000	7.074246
783.000000	7.041533
782.000000	6.994125
781.000000	7.025943
780.000000	7.007824
779.000000	6.991414
778.000000	6.987003
777.000000	6.967543
776.000000	6.947266
775.000000	6.949494
774.000000	6.922782
773.000000	6.911950
772.000000	6.897836
771.000000	6.904845
770.000000	6.894808
769.000000	6.857022
768.000000	6.855614
767.000000	6.843896
766.000000	6.846885
765.000000	6.822545
764.000000	6.815229
763.000000	6.812236
762.000000	6.785909
761.000000	6.771200
760.000000	6.768945
759.000000	6.769197
758.000000	6.746730
757.000000	6.723613
756.000000	6.705457
755.000000	6.678414
754.000000	6.672302
753.000000	6.669524
752.000000	6.655404
751.000000	6.620999
750.000000	6.618721
749.000000	6.614674
748.000000	6.604932
747.000000	6.593845
746.000000	6.577728
745.000000	6.576170
744.000000	6.547232
743.000000	6.527461
742.000000	6.519974
741.000000	6.505374
740.000000	6.497314
739.000000	6.474797
738.000000	6.456466
737.000000	6.446001
736.000000	6.436222
735.000000	6.421499
734.000000	6.421699
733.000000	6.407441
732.000000	6.389567
731.000000	6.377488
730.000000	6.356377
729.000000	6.333530
728.000000	6.333110
727.000000	6.317727
726.000000	6.295177
725.000000	6.271036
724.000000	6.260565
723.000000	6.246832
722.000000	6.228565
721.000000	6.231994
720.000000	6.220642
719.000000	6.208777
718.000000	6.187833
717.000000	6.157058
716.000000	6.143600
715.000000	6.135953
714.000000	6.128455
713.000000	6.100345
712.000000	6.082006
711.000000	6.070794
710.000000	6.056420
709.000000	6.046391
708.000000	6.021764
707.000000	5.994758
706.000000	5.986855
705.000000	5.976745
704.000000	5.960578
703.000000	5.949193
702.000000	5.930754
701.000000	5.904903
700.000000	5.893558
699.000000	5.879322
698.000000	5.863992
697.000000	5.852384
696.000000	5.830437
695.000000	5.809249
694.000000	5.791573
693.000000	5.788448
692.000000	5.774230
691.000000	5.746160
690.000000	5.731362
689.000000	5.701631
688.000000	5.672002
687.000000	5.657115
686.000000	5.634188
685.000000	5.628841
684.000000	5.622292
683.000000	5.601518
682.000000	5.576289
681.000000	5.557851
680.000000	5.541566
679.000000	5.529437
678.000000	5.512181
677.000000	5.492893
676.000000	5.476858
675.000000	5.467055
674.000000	5.446823
673.000000	5.427283
672.000000	5.404096
671.000000	5.394107
670.000000	5.375456
669.000000	5.357108
668.000000	5.341690
667.000000	5.326268
666.000000	5.296740
665.000000	5.272383
664.000000	5.259208
663.000000	5.246274
662.000000	5.226721
661.000000	5.209601
660.000000	5.193133
659.000000	5.167181
658.000000	5.146250
657.000000	5.135267
656.000000	5.115764
655.000000	5.100690
654.000000	5.080070
653.000000	5.050872
652.000000	5.036484
651.000000	5.015435
650.000000	5.002087
649.000000	4.996032
648.000000	4.973341
647.000000	4.950658
646.000000	4.928954
645.000000	4.913109
644.000000	4.893519
643.000000	4.876247
642.000000	4.862121
641.000000	4.844606
640.000000	4.816026
639.000000	4.784562
638.000000	4.775498
637.000000	4.761417
636.000000	4.738019
635.000000	4.720241
634.000000	4.702424
633.000000	4.685856
632.000000	4.665673
631.000000	4.647627
630.000000	4.621747
629.000000	4.594464
628.000000	4.580518
627.000000	4.568869
626.000000	4.544076
625.000000	4.530318
624.000000	4.511218
623.000000	4.484602
622.000000	4.463522
621.000000	4.444323
620.000000	4.420759
619.000000	4.400116
618.000000	4.377711
617.000000	4.359042
616.000000	4.345432
615.000000	4.318130
614.000000	4.297434
613.000000	4.286609
612.000000	4.261503
611.000000	4.239897
610.000000	4.218605
609.000000	4.203649
608.000000	4.180211
607.000000	4.166779
606.000000	4.143931
605.000000	4.112341
604.000000	4.090480
603.000000	4.066232
602.000000	4.051578
601.000000	4.033786
600.000000	4.007914
599.000000	3.995296
598.000000	3.970968
597.000000	3.951363
596.000000	3.923690
595.000000	3.905326
594.000000	3.871721
593.000000	3.857100
592.000000	3.832273
591.000000	3.823941
590.000000	3.797299
589.000000	3.778415
588.000000	3.751961
587.000000	3.729330
586.000000	3.704442
585.000000	3.689130
584.000000	3.662427
583.000000	3.647512
582.000000	3.621430
581.000000	3.591899
580.000000	3.575032
579.000000	3.550340
578.000000	3.532396
577.000000	3.508635
576.000000	3.487108
575.000000	3.463289
574.000000	3.439451
573.000000	3.422192
572.000000	3.395017
571.000000	3.369922
570.000000	3.349466
569.000000	3.329075
568.000000	3.304889
567.000000	3.280334
566.000000	3.259268
565.000000	3.234123
564.000000	3.214258
563.000000	3.193406
562.000000	3.168922
561.000000	3.169023
560.000000	3.140828
559.000000	3.114147
558.000000	3.098468
557.000000	3.072673
556.000000	3.047541
555.000000	3.030081
554.000000	3.004994
553.000000	2.985474
552.000000	2.960533
551.000000	2.938404
550.000000	2.918973
549.000000	2.898555
548.000000	2.869597
547.000000	2.847469
546.000000	2.824917
545.000000	2.802807
544.000000	2.779961
543.000000	2.759444
542.000000	2.733105
541.000000	2.707900
540.000000	2.686124
539.000000	2.663161
538.000000	2.643846
537.000000	2.616122
536.000000	2.593135
535.000000	2.569942
534.000000	2.547513
533.000000	2.527199
532.000000	2.505352
531.000000	2.479590
530.000000	2.451983
529.000000	2.434842
528.000000	2.407611
527.000000	2.380855
526.000000	2.363875
525.000000	2.343561
524.000000	2.316115
523.000000	2.289833
522.000000	2.267779
521.000000	2.248637
520.000000	2.219984
519.000000	2.198085
518.000000	2.173810
517.000000	2.153022
516.000000	2.131203
515.000000	2.111691
514.000000	2.087294
513.000000	2.059086
512.000000	2.037772
511.000000	2.014220
510.000000	1.993025
509.000000	1.975650
508.000000	1.954425
507.000000	1.930863
506.000000	1.908250
505.000000	1.886910
504.000000	1.864437
503.000000	1.846800
502.000000	1.827767
501.000000	1.805838
500.000000	1.779820
499.000000	1.762842
498.000000	1.744774
497.000000	1.726896
496.000000	1.710149
495.000000	1.691037
494.000000	1.674749
493.000000	1.659815
492.000000	1.640643
491.000000	1.627610
490.000000	1.610314
489.000000	1.592512
488.000000	1.578302
487.000000	1.565470
486.000000	1.547408
485.000000	1.535243
484.000000	1.521511
483.000000	1.508495
482.000000	1.492970
481.000000	1.473787
480.000000	1.454516
479.000000	1.434152
478.000000	1.412076
477.000000	1.391463
476.000000	1.372011
475.000000	1.355435
474.000000	1.338512
473.000000	1.321728
472.000000	1.304202
471.000000	1.282566
470.000000	1.265351
469.000000	1.249747
468.000000	1.234027
467.000000	1.216046
466.000000	1.196842
465.000000	1.178594
464.000000	1.160187
463.000000	1.144094
462.000000	1.126810
461.000000	1.110241
460.000000	1.095339
459.000000	1.076974
458.000000	1.057638
457.000000	1.043333
456.000000	1.028605
455.000000	1.009698
454.000000	0.992417
453.000000	0.976021
452.000000	0.959884
451.000000	0.948438
450.000000	0.933653
449.000000	0.918578
448.000000	0.903888
447.000000	0.884828
446.000000	0.871884
445.000000	0.865016
444.000000	0.853909
443.000000	0.838726
442.000000	0.822003
441.000000	0.805122
440.000000	0.785710
439.000000	0.772729
438.000000	0.764012
437.000000	0.750392
436.000000	0.733863
435.000000	0.721811
434.000000	0.709786
433.000000	0.696985
432.000000	0.685283
431.000000	0.669167
430.000000	0.654563
429.000000	0.639217
428.000000	0.629209
427.000000	0.620235
426.000000	0.612357
425.000000	0.597779
424.000000	0.579846
423.000000	0.569012
422.000000	0.556069
421.000000	0.544377
420.000000	0.535885
419.000000	0.524511
418.000000	0.511801
417.000000	0.499261
416.000000	0.485105
415.000000	0.477479
414.000000	0.463527
413.000000	0.451509
412.000000	0.438973
411.000000	0.430250
410.000000	0.415503
409.000000	0.401094
408.000000	0.398579
407.000000	0.389489
406.000000	0.374918
405.000000	0.359400
404.000000	0.347252
403.000000	0.338213
402.000000	0.329388
401.000000	0.318358
400.000000	0.308460
399.000000	0.298884
398.000000	0.288350
397.000000	0.277401
396.000000	0.268789
395.000000	0.258095
394.000000	0.249123
393.000000	0.243398
392.000000	0.235120
391.000000	0.223591
390.000000	0.218022
389.000000	0.208197
388.000000	0.206048
387.000000	0.197074
386.000000	0.185348
385.000000	0.173109
384.000000	0.173849
383.000000	0.162425
382.000000	0.160101
381.000000	0.152741
380.000000	0.146004
379.000000	0.141490
378.000000	0.138076
377.000000	0.150937
376.000000	0.147938
375.000000	0.137352
374.000000	0.138433
373.000000	0.124643
372.000000	0.118482
371.000000	0.111420
370.000000	0.107849
369.000000	0.097584
368.000000	0.095708
367.000000	0.090080
366.000000	0.092750
365.000000	0.081450
364.000000	0.085955
363.000000	0.078313
362.000000	0.080668
361.000000	0.073373
360.000000	0.071317
359.000000	0.060178
358.000000	0.060965
357.000000	0.060495
356.000000	0.064438
355.000000	0.054489
354.000000	0.050991
353.000000	0.048457
352.000000	0.047739
351.000000	0.052819
350.000000	0.049578
349.000000	0.047255
348.000000	0.047691
347.000000	0.041032
346.000000	0.044132
345.000000	0.044506
344.000000	0.043175
343.000000	0.044026
342.000000	0.033981
341.000000	0.030538
340.000000	0.040075
339.000000	0.040132
338.000000	0.036076
337.000000	0.027155
336.000000	0.023661
335.000000	0.026143
334.000000	0.031306
333.000000	0.023065
332.000000	0.024723
331.000000	0.027519
330.000000	0.030421
329.000000	0.024455
328.000000	0.017215
327.000000	0.010136
326.000000	0.021017
325.000000	0.017462
324.000000	0.022869
323.000000	0.021014
322.000000	0.022964
321.000000	0.023093
320.000000	0.027156
319.000000	0.025249
318.000000	0.029159
317.000000	0.030907
316.000000	0.029986
315.000000	0.038328
314.000000	0.039841
313.000000	0.032981
312.000000	0.028866
311.000000	0.034059
310.000000	0.031373
309.000000	0.024627
308.000000	0.027865
307.000000	0.024231
306.000000	0.026599
305.000000	0.028423
304.000000	0.029031
303.000000	0.026904
302.000000	0.028529
301.000000	0.028175
300.000000	0.022849
299.000000	0.026907
298.000000	0.029167
297.000000	0.030492
296.000000	0.028009
295.000000	0.024856
294.000000	0.025815
293.000000	0.028534
292.000000	0.030639
291.000000	0.029374
290.000000	0.031162
289.000000	0.030207
288.000000	0.027143
287.000000	0.026265
286.000000	0.027739
285.000000	0.026611
284.000000	0.028570
283.000000	0.027209
282.000000	0.031319
281.000000	0.034035
280.000000	0.035080
279.000000	0.039688
278.000000	0.038457
277.000000	0.036524
276.000000	0.039413
275.000000	0.042032
274.000000	0.037032
273.000000	0.040781
272.000000	0.046928
271.000000	0.044862
270.000000	0.039911
269.000000	0.044548
268.000000	0.045791
267.000000	0.048925
266.000000	0.048577
265.000000	0.046009
264.000000	0.051977
263.000000	0.045945
262.000000	0.046443
261.000000	0.054230
260.000000	0.052312
259.000000	0.044950
258.000000	0.051099
257.000000	0.055062
256.000000	0.057024
255.000000	0.058407
254.000000	0.062188
253.000000	0.058413
252.000000	0.056789
251.000000	0.055225
250.000000	0.056541
249.000000	0.056459
248.000000	0.057748
247.000000	0.060495
246.000000	0.056865
245.000000	0.057954
244.000000	0.053017
243.000000	0.056200
242.000000	0.057908
241.000000	0.056718
240.000000	0.053344
239.000000	0.052123
238.000000	0.047821
237.000000	0.048199
236.000000	0.055397
235.000000	0.042609
234.000000	0.032598
233.000000	0.034166
232.000000	0.034584
231.000000	0.034084
230.000000	0.028293
229.000000	0.026601
228.000000	0.021909
227.000000	0.017907
226.000000	0.013040
225.000000	0.010685
224.000000	0.013310
223.000000	0.012334
222.000000	0.008558
221.000000	0.005041
220.000000	0.002527
219.000000	-0.000000
218.000000	0.005808
217.000000	0.007117
216.000000	0.001224
215.000000	0.000102
214.000000	-0.002364
213.000000	-0.007534
212.000000	-0.005580
211.000000	-0.003432
210.000000	-0.003237
209.000000	-0.007967
208.000000	-0.006737
207.000000	0.002645
206.000000	-0.001275
205.000000	-0.015157
204.000000	-0.025913
203.000000	-0.027929
202.000000	-0.033748
201.000000	-0.052150
200.000000	-0.020674
