PE UV       SUBTECH     SPECTRUM    ASCII       PEDS        4.00        
   -1
veau_histo2_chair_1.Sample.asc
23/09/14
11:53:42.00
23/09/14
11:53:42.00
Administrator

250.000000
1
Lambda 750
750N8071901
PerkinElmer UV WinLab 6.0.4.0738 / 1.61.00 Lambda 900

0
0
3350/servo 860.8/2
0
0
UV/VIS
1
1
1
CommonBeamDepol,150mm sphere / downward view
0
0
0
0
Program
Program
3350/servo 860.8/2
3350/0.2 860.8/0.2
3350/0.2 860.8/0.2
0
1
 
 
 
0
 
860.8
319.2
860.8
Front
100
on
 
 
0
0
0
 
0
 
 
 
0
 
 
0
0
0
0
0
 
 
 
 
0
0


0
0
#HDR
-1
-1
#GR
nm
%R
1.0
0.0
2500.000000
-10.000000
226
8
73.317776
13.988156
#DATA
2500.000000	25.727041
2490.000000	26.244506
2480.000000	27.640477
2470.000000	27.386472
2460.000000	29.570608
2450.000000	28.785294
2440.000000	29.989010
2430.000000	30.100059
2420.000000	31.373341
2410.000000	30.920395
2400.000000	30.921154
2390.000000	31.025073
2380.000000	31.435082
2370.000000	30.901725
2360.000000	31.155593
2350.000000	31.361277
2340.000000	31.357085
2330.000000	31.080629
2320.000000	30.769373
2310.000000	30.306936
2300.000000	29.770632
2290.000000	29.954959
2280.000000	30.799811
2270.000000	31.793660
2260.000000	33.504227
2250.000000	34.078274
2240.000000	34.851474
2230.000000	34.441520
2220.000000	34.342338
2210.000000	33.444851
2200.000000	33.131688
2190.000000	33.261117
2180.000000	33.905006
2170.000000	35.294763
2160.000000	36.095340
2150.000000	36.668066
2140.000000	37.389611
2130.000000	37.381756
2120.000000	37.666124
2110.000000	37.842906
2100.000000	37.595747
2090.000000	36.841121
2080.000000	35.873162
2070.000000	34.733606
2060.000000	34.397941
2050.000000	34.674355
2040.000000	35.266954
2030.000000	35.151925
2020.000000	34.547733
2010.000000	33.642715
2000.000000	32.819403
1990.000000	31.973710
1980.000000	31.203583
1970.000000	30.495106
1960.000000	30.235834
1950.000000	30.871727
1940.000000	32.432115
1930.000000	34.761336
1920.000000	38.101142
1910.000000	42.424291
1900.000000	46.138701
1890.000000	49.414789
1880.000000	51.525127
1870.000000	52.309161
1860.000000	52.476257
1850.000000	52.230226
1840.000000	51.855729
1830.000000	51.499603
1820.000000	51.106714
1810.000000	50.804718
1800.000000	50.608209
1790.000000	50.402235
1780.000000	50.064194
1770.000000	49.752566
1760.000000	49.381161
1750.000000	49.138951
1740.000000	49.408242
1730.000000	50.418965
1720.000000	51.039809
1710.000000	51.232758
1700.000000	52.032656
1690.000000	53.615855
1680.000000	55.136631
1670.000000	55.775095
1660.000000	55.980877
1650.000000	55.666205
1640.000000	55.165856
1630.000000	54.563755
1620.000000	53.847207
1610.000000	53.196278
1600.000000	52.637437
1590.000000	52.184559
1580.000000	51.774967
1570.000000	51.517563
1560.000000	51.161111
1550.000000	50.371933
1540.000000	49.650332
1530.000000	49.278564
1520.000000	49.054159
1510.000000	48.984575
1500.000000	49.053353
1490.000000	49.282144
1480.000000	49.559954
1470.000000	49.941916
1460.000000	50.573516
1450.000000	51.493524
1440.000000	52.866375
1430.000000	54.887641
1420.000000	57.471485
1410.000000	60.085036
1400.000000	62.163461
1390.000000	63.489961
1380.000000	64.312992
1370.000000	65.200430
1360.000000	66.035501
1350.000000	66.803379
1340.000000	67.434619
1330.000000	67.988064
1320.000000	68.420791
1310.000000	68.655897
1300.000000	68.641577
1290.000000	68.583147
1280.000000	68.599869
1270.000000	68.648127
1260.000000	68.621878
1250.000000	68.424916
1240.000000	68.201050
1230.000000	67.866709
1220.000000	67.362220
1210.000000	66.962358
1200.000000	66.801201
1190.000000	67.182120
1180.000000	68.037572
1170.000000	69.102450
1160.000000	70.013151
1150.000000	70.710595
1140.000000	71.195763
1130.000000	71.420187
1120.000000	71.524311
1110.000000	71.594081
1100.000000	71.605481
1090.000000	71.549648
1080.000000	71.479896
1070.000000	71.415701
1060.000000	71.308674
1050.000000	71.289280
1040.000000	71.241052
1030.000000	71.208425
1020.000000	71.245754
1010.000000	71.372549
1000.000000	71.459612
990.000000	71.607665
980.000000	71.763800
970.000000	71.985098
960.000000	72.209466
950.000000	72.324354
940.000000	72.406225
930.000000	72.424939
920.000000	72.511320
910.000000	72.707373
900.000000	72.912518
890.000000	72.975538
880.000000	73.191820
870.000000	73.317776
860.000000	73.170820
850.000000	72.837722
840.000000	72.602547
830.000000	72.643510
820.000000	72.390391
810.000000	72.433534
800.000000	72.413936
790.000000	72.515284
780.000000	72.470068
770.000000	72.481558
760.000000	72.443009
750.000000	72.425607
740.000000	72.236962
730.000000	72.280294
720.000000	72.194485
710.000000	72.073655
700.000000	72.126496
690.000000	71.954159
680.000000	71.782962
670.000000	71.630975
660.000000	71.498817
650.000000	71.267994
640.000000	70.926128
630.000000	70.768233
620.000000	70.536712
610.000000	70.183006
600.000000	69.741861
590.000000	69.365259
580.000000	68.807243
570.000000	68.220723
560.000000	67.645959
550.000000	66.794485
540.000000	65.914701
530.000000	64.957436
520.000000	63.882583
510.000000	62.699695
500.000000	61.656259
490.000000	60.155931
480.000000	58.760974
470.000000	57.238944
460.000000	55.364699
450.000000	52.924075
440.000000	50.683528
430.000000	48.622710
420.000000	46.514914
410.000000	43.977062
400.000000	41.300389
390.000000	38.736299
380.000000	35.930187
370.000000	33.147354
360.000000	30.797307
350.000000	28.108974
340.000000	25.438391
330.000000	22.924568
320.000000	20.526794
310.000000	18.460354
300.000000	16.464349
290.000000	14.913118
280.000000	13.988156
270.000000	14.300768
260.000000	14.860717
250.000000	15.700575
