PE UV       SUBTECH     SPECTRUM    ASCII       PEDS        4.00        
   -1
histo1_veau_slide2_1.Sample.asc
23/09/14
15:15:25.00
23/09/14
15:15:25.00
Administrator

250.000000
1
Lambda 750
750N8071901
PerkinElmer UV WinLab 6.0.4.0738 / 1.61.00 Lambda 900

0
0
3350/servo 860.8/2
0
0
UV/VIS
1
1
1
CommonBeamDepol,150mm sphere / downward view
0
0
0
0
Program
Program
3350/servo 860.8/2
3350/0.2 860.8/0.2
3350/0.2 860.8/0.2
0
1
 
 
 
0
 
860.8
319.2
860.8
Front
100
on
 
 
0
0
0
 
0
 
 
 
0
 
 
0
0
0
0
0
 
 
 
 
0
0


0
0
#HDR
-1
-1
#GR
nm
%R
1.0
0.0
2500.000000
-10.000000
226
8
41.408002
1.351690
#DATA
2500.000000	12.386331
2490.000000	12.658764
2480.000000	13.906088
2470.000000	14.689959
2460.000000	15.318940
2450.000000	16.180895
2440.000000	15.728578
2430.000000	16.427875
2420.000000	17.015486
2410.000000	17.093165
2400.000000	17.910632
2390.000000	17.871067
2380.000000	17.878384
2370.000000	17.318129
2360.000000	17.508610
2350.000000	17.661621
2340.000000	17.669850
2330.000000	17.160255
2320.000000	16.636824
2310.000000	16.274614
2300.000000	16.411608
2290.000000	16.776764
2280.000000	17.332435
2270.000000	18.273911
2260.000000	19.861108
2250.000000	20.643397
2240.000000	20.838815
2230.000000	20.300506
2220.000000	20.002983
2210.000000	19.314314
2200.000000	18.993128
2190.000000	18.923506
2180.000000	19.796966
2170.000000	20.517644
2160.000000	21.395803
2150.000000	22.538184
2140.000000	22.811352
2130.000000	23.021548
2120.000000	23.290169
2110.000000	23.276964
2100.000000	23.038824
2090.000000	22.040293
2080.000000	21.307801
2070.000000	20.182851
2060.000000	19.504945
2050.000000	19.976575
2040.000000	20.433508
2030.000000	20.419458
2020.000000	19.646694
2010.000000	18.703593
2000.000000	17.768117
1990.000000	16.960513
1980.000000	16.277302
1970.000000	15.706286
1960.000000	15.513707
1950.000000	15.881502
1940.000000	17.196011
1930.000000	19.475811
1920.000000	22.952624
1910.000000	27.092473
1900.000000	30.649728
1890.000000	33.362224
1880.000000	34.893248
1870.000000	35.494878
1860.000000	35.594094
1850.000000	35.333881
1840.000000	34.986257
1830.000000	34.814895
1820.000000	34.496064
1810.000000	34.267544
1800.000000	34.138275
1790.000000	33.995732
1780.000000	33.706554
1770.000000	33.482531
1760.000000	33.177586
1750.000000	32.922541
1740.000000	33.175667
1730.000000	33.774213
1720.000000	34.221521
1710.000000	34.333460
1700.000000	34.793370
1690.000000	35.778035
1680.000000	36.703312
1670.000000	37.016330
1660.000000	37.105281
1650.000000	36.878006
1640.000000	36.514106
1630.000000	36.082914
1620.000000	35.614401
1610.000000	35.159219
1600.000000	34.736705
1590.000000	34.353884
1580.000000	34.000543
1570.000000	33.770580
1560.000000	33.420139
1550.000000	32.808517
1540.000000	32.188288
1530.000000	31.817698
1520.000000	31.600728
1510.000000	31.457748
1500.000000	31.459599
1490.000000	31.543960
1480.000000	31.677122
1470.000000	31.911035
1460.000000	32.321931
1450.000000	32.983908
1440.000000	33.966584
1430.000000	35.250504
1420.000000	36.752268
1410.000000	38.114365
1400.000000	39.083866
1390.000000	39.643718
1380.000000	39.952441
1370.000000	40.151480
1360.000000	40.420823
1350.000000	40.663101
1340.000000	40.822145
1330.000000	41.011935
1320.000000	41.291517
1310.000000	41.408002
1300.000000	41.375689
1290.000000	41.220891
1280.000000	41.091282
1270.000000	40.983442
1260.000000	40.930077
1250.000000	40.822835
1240.000000	40.718483
1230.000000	40.547097
1220.000000	40.235313
1210.000000	40.026530
1200.000000	39.976153
1190.000000	40.061845
1180.000000	40.175429
1170.000000	40.481433
1160.000000	40.647066
1150.000000	40.775735
1140.000000	40.828152
1130.000000	40.768618
1120.000000	40.705244
1110.000000	40.682212
1100.000000	40.604741
1090.000000	40.496626
1080.000000	40.368240
1070.000000	40.253212
1060.000000	40.136201
1050.000000	39.980893
1040.000000	39.823861
1030.000000	39.696961
1020.000000	39.649460
1010.000000	39.634654
1000.000000	39.574853
990.000000	39.504988
980.000000	39.485153
970.000000	39.479887
960.000000	39.518307
950.000000	39.432595
940.000000	39.356282
930.000000	39.326042
920.000000	39.212091
910.000000	39.169790
900.000000	39.337976
890.000000	39.239084
880.000000	39.018270
870.000000	38.928820
860.000000	38.916486
850.000000	37.897371
840.000000	37.967348
830.000000	37.409793
820.000000	37.191062
810.000000	37.076473
800.000000	36.652486
790.000000	36.560419
780.000000	36.273025
770.000000	35.899129
760.000000	35.523732
750.000000	35.183435
740.000000	34.736061
730.000000	34.305799
720.000000	33.854962
710.000000	33.297619
700.000000	32.920294
690.000000	32.291149
680.000000	31.612602
670.000000	31.003772
660.000000	30.310016
650.000000	29.738898
640.000000	29.076347
630.000000	28.439380
620.000000	27.787306
610.000000	27.045715
600.000000	26.371165
590.000000	25.595387
580.000000	24.722998
570.000000	23.885549
560.000000	22.921337
550.000000	21.890822
540.000000	20.860508
530.000000	19.825042
520.000000	18.762768
510.000000	17.698562
500.000000	16.668963
490.000000	15.573047
480.000000	14.543552
470.000000	13.613422
460.000000	12.630613
450.000000	11.505593
440.000000	10.442371
430.000000	9.247318
420.000000	8.156714
410.000000	7.113811
400.000000	6.139529
390.000000	5.260826
380.000000	4.445398
370.000000	3.758604
360.000000	3.116651
350.000000	2.788313
340.000000	2.483074
330.000000	2.197550
320.000000	2.076277
310.000000	1.610902
300.000000	1.466355
290.000000	1.351690
280.000000	1.421390
270.000000	1.540191
260.000000	1.682963
250.000000	1.980621
