PE UV       SUBTECH     SPECTRUM    ASCII       PEDS        4.00        
   -1
Empty Chamber.Sample.asc
18/03/19
10:25:03.00
18/03/19
10:25:03.00
Administrator

200.000000
1
Lambda 750
750N8071901
PerkinElmer UV WinLab 6.0.4.0738 / 1.61.00 Lambda 900

0
0
3350/servo 860.8/2
0
0
UV/VIS
1
1
1
CommonBeamDepol,150mm sphere / downward view
0
0
0
0
Program
Program
3350/servo 860.8/2
3350/0.2 860.8/0.2
3350/0.2 860.8/0.2
0
1
 
 
 
0
 
860.8
319.2
860.8
Front
100
on
 
 
0
0
0
 
0
 
 
 
0
 
 
0
0
0
0
0
 
 
 
 
0
0


0
0
#HDR
-1
-1
#GR
nm
%T
1.0
0.0
2350.000000
-1.000000
2151
8
100.632374
99.311534
#DATA
2350.000000	99.988224
2349.000000	99.836115
2348.000000	99.812441
2347.000000	99.622317
2346.000000	99.676980
2345.000000	99.807719
2344.000000	99.757987
2343.000000	99.771369
2342.000000	100.170871
2341.000000	100.463825
2340.000000	100.447097
2339.000000	100.219906
2338.000000	100.162748
2337.000000	99.989887
2336.000000	100.100544
2335.000000	100.141468
2334.000000	99.592721
2333.000000	99.810249
2332.000000	100.256234
2331.000000	99.936259
2330.000000	100.079341
2329.000000	99.964707
2328.000000	100.022288
2327.000000	99.827867
2326.000000	99.781533
2325.000000	100.081217
2324.000000	100.062885
2323.000000	100.146141
2322.000000	99.981785
2321.000000	100.061202
2320.000000	100.038969
2319.000000	100.154864
2318.000000	100.277393
2317.000000	100.222058
2316.000000	99.960067
2315.000000	99.858414
2314.000000	100.044540
2313.000000	100.087858
2312.000000	99.845467
2311.000000	100.220295
2310.000000	100.177618
2309.000000	100.254524
2308.000000	99.764046
2307.000000	99.757834
2306.000000	100.061619
2305.000000	100.186043
2304.000000	100.259417
2303.000000	99.767810
2302.000000	100.056178
2301.000000	99.940019
2300.000000	99.851754
2299.000000	99.653490
2298.000000	99.761732
2297.000000	100.131121
2296.000000	100.181011
2295.000000	100.005373
2294.000000	100.267605
2293.000000	100.064029
2292.000000	100.053861
2291.000000	100.103485
2290.000000	100.027815
2289.000000	99.944845
2288.000000	100.179508
2287.000000	100.280758
2286.000000	100.013156
2285.000000	100.069501
2284.000000	100.080578
2283.000000	99.924092
2282.000000	99.949713
2281.000000	100.022789
2280.000000	99.871562
2279.000000	100.127121
2278.000000	100.128946
2277.000000	99.967712
2276.000000	100.057861
2275.000000	99.989179
2274.000000	99.945606
2273.000000	100.025507
2272.000000	100.129900
2271.000000	100.137788
2270.000000	100.170162
2269.000000	100.102249
2268.000000	99.837541
2267.000000	99.984294
2266.000000	100.284273
2265.000000	100.034583
2264.000000	99.908904
2263.000000	99.989452
2262.000000	99.942643
2261.000000	100.091836
2260.000000	100.088372
2259.000000	99.935110
2258.000000	100.154456
2257.000000	100.224248
2256.000000	100.093215
2255.000000	100.128418
2254.000000	100.041562
2253.000000	99.968311
2252.000000	100.041031
2251.000000	99.812200
2250.000000	99.767773
2249.000000	100.027789
2248.000000	99.974669
2247.000000	99.892356
2246.000000	99.910707
2245.000000	99.897758
2244.000000	100.012255
2243.000000	100.122958
2242.000000	100.124076
2241.000000	100.012966
2240.000000	99.963527
2239.000000	99.898533
2238.000000	99.902400
2237.000000	99.982163
2236.000000	100.099967
2235.000000	100.203820
2234.000000	100.065388
2233.000000	100.058779
2232.000000	100.042670
2231.000000	99.975986
2230.000000	99.979541
2229.000000	99.976707
2228.000000	100.083400
2227.000000	100.035887
2226.000000	99.999696
2225.000000	100.095341
2224.000000	100.056405
2223.000000	100.008921
2222.000000	99.977907
2221.000000	99.934920
2220.000000	99.973638
2219.000000	100.060656
2218.000000	99.941125
2217.000000	99.863546
2216.000000	99.855916
2215.000000	99.968679
2214.000000	100.086556
2213.000000	99.909800
2212.000000	99.796487
2211.000000	99.950363
2210.000000	99.965031
2209.000000	99.904585
2208.000000	99.962694
2207.000000	100.019067
2206.000000	99.890276
2205.000000	100.079808
2204.000000	100.032439
2203.000000	99.940584
2202.000000	99.929756
2201.000000	100.012053
2200.000000	100.092612
2199.000000	100.049826
2198.000000	100.101673
2197.000000	100.101845
2196.000000	100.064828
2195.000000	100.143407
2194.000000	100.141736
2193.000000	100.010328
2192.000000	100.021865
2191.000000	100.018432
2190.000000	100.053150
2189.000000	99.910841
2188.000000	100.064812
2187.000000	99.958139
2186.000000	99.937130
2185.000000	99.902048
2184.000000	99.902257
2183.000000	100.055926
2182.000000	100.043868
2181.000000	99.993726
2180.000000	99.953742
2179.000000	99.932109
2178.000000	100.013342
2177.000000	100.131030
2176.000000	100.031552
2175.000000	99.940156
2174.000000	99.908143
2173.000000	99.955474
2172.000000	100.025554
2171.000000	100.081054
2170.000000	100.065397
2169.000000	100.016340
2168.000000	100.083505
2167.000000	99.852345
2166.000000	100.018490
2165.000000	99.958087
2164.000000	99.898914
2163.000000	100.026052
2162.000000	100.281058
2161.000000	100.074092
2160.000000	100.038751
2159.000000	100.109168
2158.000000	100.053367
2157.000000	99.965244
2156.000000	99.862207
2155.000000	99.860888
2154.000000	99.860227
2153.000000	100.072635
2152.000000	99.830999
2151.000000	100.044480
2150.000000	100.031393
2149.000000	99.721322
2148.000000	100.029657
2147.000000	100.029039
2146.000000	99.979830
2145.000000	99.845925
2144.000000	100.143800
2143.000000	99.910151
2142.000000	99.992341
2141.000000	100.013722
2140.000000	100.250834
2139.000000	99.929952
2138.000000	100.254072
2137.000000	99.949391
2136.000000	100.036447
2135.000000	99.971545
2134.000000	99.835997
2133.000000	100.141326
2132.000000	100.040803
2131.000000	99.888276
2130.000000	100.174900
2129.000000	99.908617
2128.000000	99.995458
2127.000000	100.031675
2126.000000	99.882786
2125.000000	99.909353
2124.000000	99.979700
2123.000000	99.939076
2122.000000	100.144002
2121.000000	100.101426
2120.000000	100.140356
2119.000000	99.813878
2118.000000	99.852711
2117.000000	99.982637
2116.000000	100.073530
2115.000000	100.097131
2114.000000	99.823567
2113.000000	99.868246
2112.000000	99.987881
2111.000000	100.178184
2110.000000	100.020913
2109.000000	100.065640
2108.000000	100.243579
2107.000000	99.977656
2106.000000	99.936038
2105.000000	100.049741
2104.000000	100.016676
2103.000000	100.118787
2102.000000	99.952232
2101.000000	99.947168
2100.000000	99.940920
2099.000000	99.943412
2098.000000	99.897310
2097.000000	100.094298
2096.000000	100.069301
2095.000000	100.050480
2094.000000	99.905892
2093.000000	99.939735
2092.000000	99.882817
2091.000000	99.987871
2090.000000	100.008692
2089.000000	99.935722
2088.000000	99.875379
2087.000000	100.031852
2086.000000	100.116358
2085.000000	100.175321
2084.000000	99.950346
2083.000000	100.044631
2082.000000	99.939503
2081.000000	99.901448
2080.000000	100.032601
2079.000000	100.078865
2078.000000	100.097442
2077.000000	100.074546
2076.000000	100.072992
2075.000000	99.940116
2074.000000	99.978841
2073.000000	99.963764
2072.000000	99.913789
2071.000000	100.106320
2070.000000	100.093876
2069.000000	99.869270
2068.000000	99.968603
2067.000000	100.006383
2066.000000	99.939869
2065.000000	99.922590
2064.000000	100.090164
2063.000000	100.081942
2062.000000	99.991695
2061.000000	100.004152
2060.000000	99.961648
2059.000000	99.956185
2058.000000	99.929559
2057.000000	99.946262
2056.000000	100.033728
2055.000000	100.048928
2054.000000	100.013571
2053.000000	100.053980
2052.000000	100.007291
2051.000000	99.952115
2050.000000	100.001418
2049.000000	100.052987
2048.000000	100.015394
2047.000000	100.004356
2046.000000	100.004255
2045.000000	99.967282
2044.000000	99.975491
2043.000000	100.008510
2042.000000	100.012056
2041.000000	100.096193
2040.000000	100.004763
2039.000000	99.946811
2038.000000	100.049069
2037.000000	100.017237
2036.000000	99.972126
2035.000000	100.018249
2034.000000	100.043086
2033.000000	99.957136
2032.000000	99.934925
2031.000000	99.950541
2030.000000	99.936258
2029.000000	99.988240
2028.000000	100.001926
2027.000000	100.021191
2026.000000	100.064101
2025.000000	99.995741
2024.000000	99.953763
2023.000000	100.007608
2022.000000	100.015114
2021.000000	99.965019
2020.000000	99.973433
2019.000000	100.028599
2018.000000	100.023631
2017.000000	99.997465
2016.000000	100.027986
2015.000000	100.021297
2014.000000	99.992698
2013.000000	100.012984
2012.000000	100.044342
2011.000000	100.075308
2010.000000	100.038578
2009.000000	99.995129
2008.000000	100.016237
2007.000000	99.993099
2006.000000	99.975551
2005.000000	99.974531
2004.000000	99.981227
2003.000000	100.025782
2002.000000	100.002640
2001.000000	100.001726
2000.000000	99.952303
1999.000000	99.973916
1998.000000	100.005787
1997.000000	100.002945
1996.000000	100.026201
1995.000000	100.016044
1994.000000	100.020615
1993.000000	100.027324
1992.000000	99.991163
1991.000000	99.994515
1990.000000	100.045013
1989.000000	100.042162
1988.000000	100.053655
1987.000000	100.056806
1986.000000	100.001016
1985.000000	99.967500
1984.000000	99.984156
1983.000000	99.986999
1982.000000	99.996445
1981.000000	100.008433
1980.000000	99.991974
1979.000000	99.986388
1978.000000	100.038111
1977.000000	100.027848
1976.000000	100.029568
1975.000000	100.042990
1974.000000	100.069419
1973.000000	100.017783
1972.000000	100.033535
1971.000000	100.018798
1970.000000	99.989233
1969.000000	99.960390
1968.000000	99.978871
1967.000000	99.976953
1966.000000	100.008735
1965.000000	99.985881
1964.000000	99.948513
1963.000000	100.003860
1962.000000	100.005182
1961.000000	99.989133
1960.000000	100.071751
1959.000000	100.058725
1958.000000	100.033935
1957.000000	99.982531
1956.000000	100.054341
1955.000000	99.986898
1954.000000	99.991266
1953.000000	100.008223
1952.000000	99.993808
1951.000000	100.095890
1950.000000	99.954214
1949.000000	99.999391
1948.000000	100.085434
1947.000000	99.977259
1946.000000	100.002639
1945.000000	99.992183
1944.000000	99.987216
1943.000000	99.957696
1942.000000	99.961549
1941.000000	99.971389
1940.000000	100.034199
1939.000000	99.960450
1938.000000	99.970492
1937.000000	99.998581
1936.000000	100.061897
1935.000000	100.022936
1934.000000	100.006697
1933.000000	100.033375
1932.000000	100.028406
1931.000000	99.999188
1930.000000	100.128783
1929.000000	99.996551
1928.000000	100.033081
1927.000000	100.027192
1926.000000	100.048501
1925.000000	99.930963
1924.000000	100.013591
1923.000000	99.979427
1922.000000	100.023006
1921.000000	100.024038
1920.000000	99.940903
1919.000000	100.014101
1918.000000	100.104142
1917.000000	99.975454
1916.000000	99.976168
1915.000000	99.999594
1914.000000	100.007806
1913.000000	99.987929
1912.000000	99.999797
1911.000000	99.997058
1910.000000	99.901847
1909.000000	99.986101
1908.000000	99.981334
1907.000000	100.028318
1906.000000	100.058156
1905.000000	100.069001
1904.000000	99.999594
1903.000000	100.026778
1902.000000	99.934688
1901.000000	99.952749
1900.000000	100.033268
1899.000000	99.970293
1898.000000	99.955165
1897.000000	100.005074
1896.000000	99.993505
1895.000000	100.092204
1894.000000	99.948876
1893.000000	100.022332
1892.000000	100.074640
1891.000000	99.972711
1890.000000	100.009741
1889.000000	100.017254
1888.000000	99.913921
1887.000000	99.981951
1886.000000	99.964932
1885.000000	100.009634
1884.000000	100.070786
1883.000000	100.086292
1882.000000	100.058891
1881.000000	100.045607
1880.000000	100.054442
1879.000000	99.923927
1878.000000	99.952997
1877.000000	99.967379
1876.000000	99.980955
1875.000000	100.071119
1874.000000	100.010636
1873.000000	100.013474
1872.000000	100.002734
1871.000000	99.978938
1870.000000	99.942784
1869.000000	99.984504
1868.000000	100.014182
1867.000000	99.947957
1866.000000	99.950891
1865.000000	100.028874
1864.000000	100.001114
1863.000000	100.000811
1862.000000	100.018240
1861.000000	100.011243
1860.000000	99.972850
1859.000000	100.000203
1858.000000	100.017940
1857.000000	99.971232
1856.000000	99.958574
1855.000000	99.993819
1854.000000	100.026756
1853.000000	100.006687
1852.000000	99.996859
1851.000000	100.024722
1850.000000	100.001418
1849.000000	99.983185
1848.000000	100.018644
1847.000000	100.041349
1846.000000	100.038610
1845.000000	99.992402
1844.000000	99.998177
1843.000000	99.975182
1842.000000	100.008511
1841.000000	100.019354
1840.000000	100.041343
1839.000000	99.992604
1838.000000	99.972241
1837.000000	100.026657
1836.000000	100.036094
1835.000000	100.002129
1834.000000	99.983778
1833.000000	99.995843
1832.000000	100.018052
1831.000000	100.011561
1830.000000	100.005781
1829.000000	100.016739
1828.000000	100.014407
1827.000000	99.975453
1826.000000	99.973016
1825.000000	100.005277
1824.000000	99.997869
1823.000000	100.000609
1822.000000	100.011775
1821.000000	100.038688
1820.000000	100.056868
1819.000000	100.048333
1818.000000	100.019599
1817.000000	99.981926
1816.000000	99.977052
1815.000000	99.996649
1814.000000	99.992383
1813.000000	100.021331
1812.000000	100.001422
1811.000000	99.974508
1810.000000	99.981919
1809.000000	99.991467
1808.000000	99.978667
1807.000000	100.001219
1806.000000	100.028352
1805.000000	100.001016
1804.000000	99.977244
1803.000000	99.974703
1802.000000	99.983540
1801.000000	100.015854
1800.000000	100.020529
1799.000000	99.989940
1798.000000	99.996748
1797.000000	99.996748
1796.000000	99.988720
1795.000000	99.990143
1794.000000	99.988719
1793.000000	99.990955
1792.000000	99.984350
1791.000000	100.016366
1790.000000	99.998882
1789.000000	99.990445
1788.000000	100.015860
1787.000000	100.016572
1786.000000	99.995527
1785.000000	99.978759
1784.000000	99.987499
1783.000000	100.008233
1782.000000	99.998780
1781.000000	100.001728
1780.000000	100.016161
1779.000000	99.995019
1778.000000	99.990650
1777.000000	99.986483
1776.000000	99.995630
1775.000000	100.007216
1774.000000	99.999695
1773.000000	99.987092
1772.000000	99.981197
1771.000000	99.975506
1770.000000	100.008132
1769.000000	100.001829
1768.000000	99.996443
1767.000000	100.003252
1766.000000	100.010369
1765.000000	100.002541
1764.000000	100.018604
1763.000000	100.009046
1762.000000	99.988618
1761.000000	100.017688
1760.000000	100.012808
1759.000000	100.003659
1758.000000	100.016059
1757.000000	100.011790
1756.000000	100.025511
1755.000000	100.031100
1754.000000	99.998069
1753.000000	100.010060
1752.000000	100.008841
1751.000000	100.013923
1750.000000	99.993497
1749.000000	99.984250
1748.000000	99.983944
1747.000000	100.015446
1746.000000	100.038218
1745.000000	99.980593
1744.000000	99.994614
1743.000000	99.993192
1742.000000	100.015141
1741.000000	100.033033
1740.000000	100.014329
1739.000000	100.010162
1738.000000	100.031497
1737.000000	100.004979
1736.000000	100.011483
1735.000000	100.007519
1734.000000	99.990853
1733.000000	99.937728
1732.000000	99.985571
1731.000000	100.023477
1730.000000	99.983743
1729.000000	100.056710
1728.000000	100.048998
1727.000000	100.003863
1726.000000	99.978558
1725.000000	100.018498
1724.000000	99.997561
1723.000000	100.011175
1722.000000	100.016363
1721.000000	99.974091
1720.000000	100.012499
1719.000000	100.013310
1718.000000	99.979785
1717.000000	100.019509
1716.000000	100.019312
1715.000000	100.006199
1714.000000	100.018798
1713.000000	99.970229
1712.000000	99.989943
1711.000000	99.963015
1710.000000	100.052853
1709.000000	100.007317
1708.000000	100.002642
1707.000000	100.018290
1706.000000	99.999797
1705.000000	100.002133
1704.000000	100.018187
1703.000000	100.001524
1702.000000	100.008940
1701.000000	100.021242
1700.000000	99.984966
1699.000000	100.018291
1698.000000	100.012495
1697.000000	100.037394
1696.000000	100.042069
1695.000000	99.976635
1694.000000	100.004165
1693.000000	100.008028
1692.000000	100.018795
1691.000000	99.976838
1690.000000	100.037197
1689.000000	100.007010
1688.000000	99.989839
1687.000000	99.959978
1686.000000	100.021029
1685.000000	99.992890
1684.000000	99.974809
1683.000000	100.018083
1682.000000	100.000914
1681.000000	99.998781
1680.000000	99.976438
1679.000000	99.998781
1678.000000	100.022250
1677.000000	99.974813
1676.000000	99.995429
1675.000000	99.995326
1674.000000	99.990958
1673.000000	99.983544
1672.000000	99.999594
1671.000000	99.992991
1670.000000	100.015034
1669.000000	100.017670
1668.000000	100.028436
1667.000000	100.030775
1666.000000	99.999898
1665.000000	99.989542
1664.000000	99.990353
1663.000000	100.006296
1662.000000	100.007920
1661.000000	100.032603
1660.000000	100.016045
1659.000000	100.017365
1658.000000	100.023968
1657.000000	100.006295
1656.000000	99.947719
1655.000000	99.964672
1654.000000	99.991776
1653.000000	100.016044
1652.000000	100.001219
1651.000000	99.985584
1650.000000	100.024374
1649.000000	100.004772
1648.000000	99.981827
1647.000000	100.024369
1646.000000	99.986699
1645.000000	100.011069
1644.000000	99.999492
1643.000000	100.011067
1642.000000	100.000000
1641.000000	100.008529
1640.000000	99.993299
1639.000000	100.003859
1638.000000	99.973709
1637.000000	99.961123
1636.000000	99.995330
1635.000000	100.011068
1634.000000	99.995430
1633.000000	99.998782
1632.000000	100.001421
1631.000000	99.987208
1630.000000	99.998579
1629.000000	100.015027
1628.000000	100.012490
1627.000000	100.014216
1626.000000	100.016651
1625.000000	99.987716
1624.000000	100.003553
1623.000000	100.012183
1622.000000	99.998985
1621.000000	100.006092
1620.000000	100.015537
1619.000000	100.016653
1618.000000	100.011372
1617.000000	100.014926
1616.000000	99.996853
1615.000000	99.997056
1614.000000	100.024571
1613.000000	100.015128
1612.000000	99.988834
1611.000000	99.989038
1610.000000	99.997564
1609.000000	100.001624
1608.000000	100.008528
1607.000000	100.020711
1606.000000	100.008324
1605.000000	99.987615
1604.000000	99.996954
1603.000000	100.008122
1602.000000	100.007817
1601.000000	99.997157
1600.000000	99.990355
1599.000000	99.995432
1598.000000	99.992793
1597.000000	99.987414
1596.000000	99.984876
1595.000000	99.990255
1594.000000	100.001523
1593.000000	100.009239
1592.000000	100.004568
1591.000000	99.994518
1590.000000	100.000406
1589.000000	99.996751
1588.000000	99.981626
1587.000000	99.993503
1586.000000	100.003960
1585.000000	99.989949
1584.000000	99.991777
1583.000000	99.992894
1582.000000	99.989850
1581.000000	99.975439
1580.000000	99.969045
1579.000000	99.985891
1578.000000	99.996041
1577.000000	99.985383
1576.000000	99.979802
1575.000000	99.981223
1574.000000	99.989444
1573.000000	100.003045
1572.000000	100.004263
1571.000000	100.000914
1570.000000	100.019694
1569.000000	100.016242
1568.000000	99.999086
1567.000000	100.009744
1566.000000	100.003451
1565.000000	99.999696
1564.000000	100.010048
1563.000000	99.999797
1562.000000	99.998579
1561.000000	100.016137
1560.000000	99.996955
1559.000000	99.996245
1558.000000	100.011975
1557.000000	100.013498
1556.000000	100.004466
1555.000000	99.990359
1554.000000	99.985286
1553.000000	99.995738
1552.000000	100.006596
1551.000000	99.994216
1550.000000	100.005277
1549.000000	99.989143
1548.000000	99.983765
1547.000000	100.003653
1546.000000	100.017758
1545.000000	100.022734
1544.000000	100.003856
1543.000000	99.988940
1542.000000	100.004567
1541.000000	100.006494
1540.000000	100.003755
1539.000000	99.982751
1538.000000	99.985389
1537.000000	99.994623
1536.000000	99.995028
1535.000000	99.999087
1534.000000	100.000609
1533.000000	100.019078
1532.000000	100.009033
1531.000000	100.003146
1530.000000	100.007611
1529.000000	100.001116
1528.000000	100.001827
1527.000000	99.997666
1526.000000	100.019895
1525.000000	100.005378
1524.000000	99.995840
1523.000000	100.002740
1522.000000	99.994825
1521.000000	99.986199
1520.000000	99.991273
1519.000000	99.996449
1518.000000	99.993505
1517.000000	99.989854
1516.000000	100.019384
1515.000000	100.009031
1514.000000	99.994520
1513.000000	100.002943
1512.000000	100.002436
1511.000000	99.991882
1510.000000	100.011772
1509.000000	100.011265
1508.000000	100.002029
1507.000000	100.007917
1506.000000	100.019285
1505.000000	99.977067
1504.000000	99.998275
1503.000000	99.996854
1502.000000	100.020706
1501.000000	100.024564
1500.000000	100.011469
1499.000000	100.015933
1498.000000	100.020604
1497.000000	100.013194
1496.000000	100.003248
1495.000000	100.012179
1494.000000	100.005074
1493.000000	100.010859
1492.000000	99.980114
1491.000000	99.996956
1490.000000	100.017048
1489.000000	100.007712
1488.000000	100.009742
1487.000000	100.009538
1486.000000	100.011771
1485.000000	100.003754
1484.000000	100.021513
1483.000000	100.019177
1482.000000	100.002739
1481.000000	100.011564
1480.000000	100.013289
1479.000000	99.985699
1478.000000	99.990871
1477.000000	99.993508
1476.000000	100.006492
1475.000000	100.003145
1474.000000	100.014609
1473.000000	99.985190
1472.000000	100.005782
1471.000000	100.035709
1470.000000	100.002637
1469.000000	99.984177
1468.000000	100.004159
1467.000000	100.011465
1466.000000	99.973732
1465.000000	100.004665
1464.000000	100.002739
1463.000000	100.030940
1462.000000	100.010248
1461.000000	100.003348
1460.000000	100.000000
1459.000000	100.007203
1458.000000	100.022016
1457.000000	99.981439
1456.000000	100.000507
1455.000000	100.029820
1454.000000	100.005883
1453.000000	100.012072
1452.000000	100.014708
1451.000000	100.007810
1450.000000	100.004767
1449.000000	99.991278
1448.000000	99.999696
1447.000000	99.997160
1446.000000	99.998175
1445.000000	100.013793
1444.000000	100.022111
1443.000000	100.016126
1442.000000	100.022008
1441.000000	100.009633
1440.000000	99.993509
1439.000000	99.997769
1438.000000	100.008924
1437.000000	99.997972
1436.000000	100.010445
1435.000000	99.995640
1434.000000	100.005475
1433.000000	100.008923
1432.000000	99.994525
1431.000000	99.987427
1430.000000	99.994221
1429.000000	100.025046
1428.000000	100.015311
1427.000000	100.018555
1426.000000	100.017943
1425.000000	100.003649
1424.000000	100.004257
1423.000000	100.016420
1422.000000	100.018547
1421.000000	99.998987
1420.000000	99.997163
1419.000000	100.003445
1418.000000	99.996353
1417.000000	99.996556
1416.000000	99.993721
1415.000000	99.998278
1414.000000	100.004557
1413.000000	100.013872
1412.000000	99.997672
1411.000000	100.001721
1410.000000	100.002024
1409.000000	99.998684
1408.000000	99.996054
1407.000000	100.014471
1406.000000	100.005261
1405.000000	100.013152
1404.000000	100.014262
1403.000000	100.004956
1402.000000	100.007586
1401.000000	100.016991
1400.000000	100.015473
1399.000000	100.008798
1398.000000	100.019312
1397.000000	100.003538
1396.000000	100.004751
1395.000000	100.014861
1394.000000	99.997978
1393.000000	100.001920
1392.000000	100.003841
1391.000000	99.998181
1390.000000	99.997878
1389.000000	100.016777
1388.000000	100.027392
1387.000000	100.005254
1386.000000	99.985756
1385.000000	99.996362
1384.000000	100.019708
1383.000000	100.010610
1382.000000	99.995655
1381.000000	100.014451
1380.000000	100.002628
1379.000000	99.969384
1378.000000	100.000101
1377.000000	100.027587
1376.000000	100.005355
1375.000000	100.005254
1374.000000	100.018694
1373.000000	100.000101
1372.000000	99.993938
1371.000000	100.015864
1370.000000	100.018188
1369.000000	100.014449
1368.000000	100.021824
1367.000000	100.008991
1366.000000	100.004242
1365.000000	100.018689
1364.000000	99.997879
1363.000000	99.998687
1362.000000	100.015457
1361.000000	100.017581
1360.000000	100.028394
1359.000000	100.023544
1358.000000	100.032138
1357.000000	100.039927
1356.000000	100.045698
1355.000000	100.024067
1354.000000	99.984630
1353.000000	99.975834
1352.000000	100.009306
1351.000000	100.031565
1350.000000	100.027114
1349.000000	100.000708
1348.000000	100.004554
1347.000000	100.000000
1346.000000	99.991399
1345.000000	100.028139
1344.000000	100.015286
1343.000000	100.023078
1342.000000	100.016194
1341.000000	100.004150
1340.000000	100.003239
1339.000000	100.008197
1338.000000	100.017305
1337.000000	100.028543
1336.000000	100.014878
1335.000000	100.016496
1334.000000	100.017913
1333.000000	100.008196
1332.000000	100.012851
1331.000000	100.013761
1330.000000	100.037847
1329.000000	100.004452
1328.000000	99.996863
1327.000000	100.006475
1326.000000	99.994334
1325.000000	100.018316
1324.000000	100.044228
1323.000000	100.005666
1322.000000	99.991399
1321.000000	100.008498
1320.000000	100.000607
1319.000000	100.013662
1318.000000	99.995042
1317.000000	100.013863
1316.000000	99.995345
1315.000000	99.972885
1314.000000	99.979462
1313.000000	100.015989
1312.000000	100.041704
1311.000000	100.022467
1310.000000	99.985428
1309.000000	99.992208
1308.000000	99.984113
1307.000000	100.010830
1306.000000	100.013866
1305.000000	100.019838
1304.000000	100.001721
1303.000000	100.013968
1302.000000	100.023583
1301.000000	100.006580
1300.000000	100.013259
1299.000000	99.999494
1298.000000	100.009514
1297.000000	100.014676
1296.000000	100.004554
1295.000000	99.994131
1294.000000	100.010930
1293.000000	99.990285
1292.000000	100.003542
1291.000000	99.969545
1290.000000	99.977844
1289.000000	100.008803
1288.000000	100.017102
1287.000000	100.008195
1286.000000	100.005564
1285.000000	99.992312
1284.000000	100.013455
1283.000000	100.021143
1282.000000	100.012137
1281.000000	100.020937
1280.000000	100.000101
1279.000000	100.000607
1278.000000	100.001315
1277.000000	100.004955
1276.000000	99.995652
1275.000000	99.987566
1274.000000	100.019814
1273.000000	100.022644
1272.000000	100.010916
1271.000000	100.008996
1270.000000	100.020619
1269.000000	100.013545
1268.000000	99.964833
1267.000000	100.012534
1266.000000	100.022435
1265.000000	99.992927
1264.000000	99.996665
1263.000000	99.995454
1262.000000	100.013242
1261.000000	100.014754
1260.000000	99.996868
1259.000000	99.995655
1258.000000	100.018289
1257.000000	100.003738
1256.000000	100.018995
1255.000000	100.022133
1254.000000	100.001213
1253.000000	100.005052
1252.000000	100.031733
1251.000000	100.012731
1250.000000	100.031225
1249.000000	100.032639
1248.000000	100.007882
1247.000000	99.995454
1246.000000	100.001616
1245.000000	100.006870
1244.000000	100.000000
1243.000000	99.984345
1242.000000	99.980303
1241.000000	100.002626
1240.000000	99.999697
1239.000000	100.004040
1238.000000	99.997576
1237.000000	99.993538
1236.000000	100.003332
1235.000000	100.020598
1234.000000	100.036145
1233.000000	100.013931
1232.000000	100.006761
1231.000000	100.006560
1230.000000	100.013726
1229.000000	100.016044
1228.000000	100.010896
1227.000000	99.978716
1226.000000	100.000202
1225.000000	100.013315
1224.000000	100.011094
1223.000000	100.001815
1222.000000	100.007664
1221.000000	100.025716
1220.000000	100.037212
1219.000000	100.005444
1218.000000	100.012098
1217.000000	100.013508
1216.000000	100.001411
1215.000000	100.013304
1214.000000	100.017333
1213.000000	100.005039
1212.000000	99.985187
1211.000000	100.024996
1210.000000	100.028925
1209.000000	100.008162
1208.000000	99.962121
1207.000000	99.972501
1206.000000	99.996876
1205.000000	99.984381
1204.000000	99.986803
1203.000000	100.018037
1202.000000	100.005643
1201.000000	100.005642
1200.000000	99.999396
1199.000000	99.991740
1198.000000	99.997783
1197.000000	99.993753
1196.000000	100.014910
1195.000000	100.007556
1194.000000	100.002115
1193.000000	99.991740
1192.000000	100.008865
1191.000000	100.011383
1190.000000	100.012895
1189.000000	100.008362
1188.000000	99.995568
1187.000000	100.000000
1186.000000	100.003022
1185.000000	100.000806
1184.000000	100.001813
1183.000000	100.000504
1182.000000	100.014503
1181.000000	100.016111
1180.000000	100.016212
1179.000000	99.994362
1178.000000	99.995973
1177.000000	100.003020
1176.000000	99.981784
1175.000000	99.983699
1174.000000	100.003623
1173.000000	100.016001
1172.000000	100.022644
1171.000000	100.010363
1170.000000	99.988231
1169.000000	99.989539
1168.000000	99.995775
1167.000000	99.994166
1166.000000	99.997586
1165.000000	99.994670
1164.000000	99.995173
1163.000000	100.010960
1162.000000	100.020812
1161.000000	100.012869
1160.000000	100.003719
1159.000000	99.992464
1158.000000	99.991359
1157.000000	100.006632
1156.000000	100.006330
1155.000000	100.003416
1154.000000	100.021799
1153.000000	100.016773
1152.000000	99.998594
1151.000000	99.987248
1150.000000	99.993675
1149.000000	100.001205
1148.000000	100.009737
1147.000000	100.018570
1146.000000	99.991871
1145.000000	99.973714
1144.000000	99.993679
1143.000000	99.999599
1142.000000	100.005216
1141.000000	100.019662
1140.000000	99.997793
1139.000000	99.990172
1138.000000	99.979646
1137.000000	99.963713
1136.000000	99.959507
1135.000000	99.973842
1134.000000	99.994889
1133.000000	99.995691
1132.000000	100.003006
1131.000000	100.018635
1130.000000	100.032763
1129.000000	100.002204
1128.000000	99.990786
1127.000000	99.991889
1126.000000	100.001602
1125.000000	99.997297
1124.000000	99.974375
1123.000000	99.984285
1122.000000	99.985588
1121.000000	99.980185
1120.000000	99.983890
1119.000000	99.992697
1118.000000	100.011005
1117.000000	100.004101
1116.000000	99.995299
1115.000000	99.998200
1114.000000	99.988702
1113.000000	100.013899
1112.000000	100.010298
1111.000000	100.012697
1110.000000	99.988505
1109.000000	99.995502
1108.000000	99.982811
1107.000000	99.975820
1106.000000	99.986312
1105.000000	99.982419
1104.000000	100.010389
1103.000000	99.993908
1102.000000	99.990615
1101.000000	99.981535
1100.000000	99.989022
1099.000000	99.998403
1098.000000	99.997206
1097.000000	100.002594
1096.000000	99.983539
1095.000000	99.999601
1094.000000	99.991723
1093.000000	99.997906
1092.000000	100.009869
1091.000000	100.022232
1090.000000	100.009668
1089.000000	99.998007
1088.000000	99.992825
1087.000000	99.998805
1086.000000	100.001793
1085.000000	100.000697
1084.000000	100.005675
1083.000000	100.028972
1082.000000	100.022497
1081.000000	100.005672
1080.000000	100.020098
1079.000000	100.000298
1078.000000	99.995028
1077.000000	100.003679
1076.000000	100.015610
1075.000000	100.009543
1074.000000	100.012027
1073.000000	100.014409
1072.000000	100.014703
1071.000000	99.999901
1070.000000	100.024033
1069.000000	99.992058
1068.000000	99.983324
1067.000000	100.012406
1066.000000	99.991070
1065.000000	99.992958
1064.000000	100.027275
1063.000000	99.999306
1062.000000	100.000991
1061.000000	100.011102
1060.000000	100.019029
1059.000000	100.009511
1058.000000	100.030309
1057.000000	100.027038
1056.000000	100.017329
1055.000000	100.003267
1054.000000	100.029198
1053.000000	100.001583
1052.000000	100.014442
1051.000000	100.002868
1050.000000	100.002966
1049.000000	99.976968
1048.000000	100.018975
1047.000000	100.004643
1046.000000	100.008792
1045.000000	100.006913
1044.000000	100.006615
1043.000000	99.993880
1042.000000	100.021121
1041.000000	100.025854
1040.000000	99.995167
1039.000000	100.005029
1038.000000	100.011534
1037.000000	100.013405
1036.000000	100.010149
1035.000000	100.020494
1034.000000	100.010144
1033.000000	99.976079
1032.000000	100.011320
1031.000000	100.011611
1030.000000	100.012100
1029.000000	100.004917
1028.000000	100.004031
1027.000000	99.983392
1026.000000	100.008057
1025.000000	100.017192
1024.000000	100.011784
1023.000000	100.003338
1022.000000	99.994701
1021.000000	100.022172
1020.000000	100.031284
1019.000000	100.030690
1018.000000	100.021173
1017.000000	100.026559
1016.000000	99.992947
1015.000000	100.013513
1014.000000	100.008614
1013.000000	99.986009
1012.000000	100.005185
1011.000000	100.004694
1010.000000	100.015544
1009.000000	100.010358
1008.000000	100.006447
1007.000000	100.019823
1006.000000	100.004881
1005.000000	99.999707
1004.000000	100.024101
1003.000000	99.991517
1002.000000	99.972710
1001.000000	99.996297
1000.000000	100.000682
999.000000	100.020156
998.000000	100.020928
997.000000	100.010412
996.000000	100.000195
995.000000	100.001750
994.000000	100.001069
993.000000	100.010590
992.000000	100.003399
991.000000	100.004077
990.000000	100.024358
989.000000	99.993114
988.000000	99.985556
987.000000	100.000678
986.000000	100.011044
985.000000	100.012104
984.000000	99.993322
983.000000	100.007064
982.000000	100.003869
981.000000	99.990526
980.000000	100.002030
979.000000	100.011883
978.000000	99.988220
977.000000	100.014285
976.000000	100.022192
975.000000	100.000964
974.000000	100.004337
973.000000	100.006744
972.000000	100.018491
971.000000	100.005101
970.000000	100.001251
969.000000	100.020867
968.000000	100.023069
967.000000	99.989338
966.000000	99.990494
965.000000	100.002879
964.000000	99.991559
963.000000	99.992425
962.000000	100.017058
961.000000	100.024903
960.000000	100.035039
959.000000	100.014162
958.000000	99.998566
957.000000	100.012616
956.000000	100.013470
955.000000	100.012411
954.000000	100.002862
953.000000	100.007533
952.000000	100.005147
951.000000	99.998190
950.000000	100.021707
949.000000	100.031212
948.000000	100.026340
947.000000	100.023472
946.000000	100.010637
945.000000	99.995349
944.000000	99.993834
943.000000	100.006446
942.000000	100.016769
941.000000	100.022628
940.000000	100.005487
939.000000	100.002174
938.000000	100.013700
937.000000	99.994240
936.000000	99.983300
935.000000	99.975768
934.000000	99.996136
933.000000	100.006215
932.000000	99.989650
931.000000	99.976116
930.000000	99.979703
929.000000	99.995868
928.000000	100.003003
927.000000	99.982187
926.000000	99.991569
925.000000	100.017979
924.000000	100.009357
923.000000	99.979246
922.000000	99.968524
921.000000	99.982456
920.000000	100.000093
919.000000	100.004007
918.000000	100.028962
917.000000	100.029966
916.000000	99.987076
915.000000	99.984300
914.000000	100.022651
913.000000	100.016789
912.000000	99.993235
911.000000	100.004537
910.000000	100.002405
909.000000	100.023845
908.000000	100.019022
907.000000	99.993265
906.000000	99.973819
905.000000	99.958001
904.000000	99.980583
903.000000	100.015081
902.000000	100.016356
901.000000	100.059230
900.000000	100.033018
899.000000	100.048119
898.000000	100.050183
897.000000	100.030005
896.000000	99.999817
895.000000	99.993520
894.000000	99.998814
893.000000	100.014490
892.000000	100.018028
891.000000	99.971717
890.000000	99.979552
889.000000	99.959686
888.000000	100.009980
887.000000	99.967914
886.000000	100.001358
885.000000	100.014206
884.000000	99.943608
883.000000	99.969485
882.000000	99.937288
881.000000	99.933199
880.000000	100.017927
879.000000	99.995413
878.000000	99.911811
877.000000	99.936357
876.000000	100.048165
875.000000	99.995250
874.000000	99.996597
873.000000	99.972007
872.000000	100.019490
871.000000	100.026534
870.000000	100.049532
869.000000	100.022200
868.000000	99.909937
867.000000	99.954260
866.000000	100.119342
865.000000	99.965275
864.000000	100.104533
863.000000	99.954744
862.000000	100.054712
861.000000	99.853825
860.000000	100.026097
859.000000	100.369667
858.000000	99.588647
857.000000	99.663306
856.000000	100.632374
855.000000	99.827813
854.000000	99.828800
853.000000	100.242886
852.000000	99.801519
851.000000	100.353604
850.000000	99.502038
849.000000	99.759639
848.000000	99.947296
847.000000	100.043232
846.000000	99.454803
845.000000	99.871312
844.000000	99.553281
843.000000	100.324630
842.000000	99.839550
841.000000	100.058921
840.000000	99.629597
839.000000	99.999648
838.000000	99.708960
837.000000	99.751580
836.000000	100.284213
835.000000	99.801003
834.000000	100.203991
833.000000	100.120181
832.000000	99.949180
831.000000	99.797787
830.000000	100.021766
829.000000	100.004559
828.000000	100.060302
827.000000	99.776081
826.000000	99.885321
825.000000	99.803878
824.000000	99.942775
823.000000	99.618369
822.000000	99.820062
821.000000	99.843655
820.000000	99.808412
819.000000	99.809173
818.000000	99.987114
817.000000	99.829875
816.000000	100.006133
815.000000	100.092914
814.000000	99.997462
813.000000	99.839833
812.000000	99.854870
811.000000	100.013419
810.000000	99.913653
809.000000	99.878152
808.000000	99.913997
807.000000	100.137706
806.000000	99.979904
805.000000	100.060806
804.000000	100.010810
803.000000	99.914176
802.000000	100.004919
801.000000	100.028916
800.000000	99.912733
799.000000	99.802682
798.000000	99.763993
797.000000	99.982846
796.000000	99.811303
795.000000	100.063946
794.000000	99.897592
793.000000	99.884538
792.000000	99.999824
791.000000	99.883442
790.000000	99.646536
789.000000	99.963609
788.000000	100.014051
787.000000	99.906290
786.000000	99.993107
785.000000	99.894784
784.000000	99.900012
783.000000	100.051701
782.000000	99.972612
781.000000	99.934957
780.000000	99.928704
779.000000	99.935076
778.000000	99.868715
777.000000	99.994499
776.000000	99.999378
775.000000	100.055937
774.000000	100.059767
773.000000	100.081626
772.000000	99.982466
771.000000	100.063468
770.000000	99.906515
769.000000	99.969435
768.000000	99.985743
767.000000	99.888406
766.000000	99.878391
765.000000	100.004286
764.000000	99.998750
763.000000	99.943287
762.000000	99.950956
761.000000	99.917759
760.000000	99.899993
759.000000	99.862655
758.000000	100.023669
757.000000	100.051633
756.000000	99.952581
755.000000	100.037494
754.000000	99.954251
753.000000	100.030873
752.000000	100.069544
751.000000	99.961125
750.000000	99.901590
749.000000	99.870144
748.000000	99.872613
747.000000	99.981372
746.000000	100.025318
745.000000	100.126406
744.000000	99.956957
743.000000	99.971170
742.000000	99.870722
741.000000	99.851007
740.000000	99.892640
739.000000	100.021484
738.000000	100.037833
737.000000	99.957285
736.000000	99.881174
735.000000	100.043661
734.000000	99.970965
733.000000	99.963816
732.000000	99.936697
731.000000	99.842262
730.000000	99.959798
729.000000	99.978529
728.000000	99.954970
727.000000	99.992019
726.000000	99.946503
725.000000	99.903483
724.000000	99.950658
723.000000	100.026788
722.000000	99.948148
721.000000	99.969204
720.000000	99.974372
719.000000	99.856463
718.000000	99.955736
717.000000	99.999727
716.000000	99.911637
715.000000	99.973166
714.000000	99.991446
713.000000	99.962225
712.000000	100.025326
711.000000	100.028431
710.000000	99.929311
709.000000	99.934045
708.000000	100.023328
707.000000	99.976300
706.000000	99.995987
705.000000	100.054942
704.000000	100.034139
703.000000	100.070143
702.000000	100.067403
701.000000	99.989594
700.000000	100.029965
699.000000	100.058048
698.000000	99.984009
697.000000	99.984007
696.000000	99.998903
695.000000	99.959946
694.000000	99.939631
693.000000	100.006590
692.000000	100.016115
691.000000	100.100410
690.000000	100.053863
689.000000	99.891601
688.000000	99.909839
687.000000	99.984627
686.000000	99.996889
685.000000	99.942327
684.000000	99.968683
683.000000	99.967857
682.000000	100.018424
681.000000	100.009443
680.000000	100.006417
679.000000	99.993403
678.000000	99.930722
677.000000	99.949129
676.000000	100.084112
675.000000	100.006606
674.000000	100.073722
673.000000	100.036073
672.000000	100.016800
671.000000	99.974935
670.000000	100.015523
669.000000	100.062282
668.000000	100.087457
667.000000	100.071310
666.000000	100.007076
665.000000	99.993291
664.000000	99.936504
663.000000	100.066122
662.000000	100.056843
661.000000	100.010851
660.000000	99.992185
659.000000	99.995585
658.000000	99.949856
657.000000	99.848467
656.000000	99.901019
655.000000	100.017677
654.000000	100.021176
653.000000	100.015009
652.000000	100.029472
651.000000	100.089832
650.000000	99.973107
649.000000	99.984612
648.000000	99.991151
647.000000	100.006822
646.000000	99.929320
645.000000	99.958994
644.000000	99.970220
643.000000	99.936957
642.000000	100.032932
641.000000	100.025095
640.000000	99.989574
639.000000	100.092516
638.000000	100.023168
637.000000	99.984215
636.000000	100.068789
635.000000	100.044798
634.000000	99.989379
633.000000	100.016072
632.000000	100.065684
631.000000	99.960269
630.000000	99.933024
629.000000	100.059599
628.000000	99.984379
627.000000	100.070276
626.000000	99.958314
625.000000	99.919793
624.000000	100.035983
623.000000	100.105017
622.000000	99.910608
621.000000	99.929802
620.000000	99.956915
619.000000	99.946990
618.000000	99.964104
617.000000	99.937642
616.000000	100.032128
615.000000	100.067078
614.000000	100.015376
613.000000	99.943044
612.000000	99.925503
611.000000	100.023991
610.000000	100.020937
609.000000	100.048657
608.000000	100.045137
607.000000	100.025588
606.000000	100.013250
605.000000	99.929621
604.000000	99.922555
603.000000	99.990731
602.000000	100.023639
601.000000	100.022806
600.000000	100.028550
599.000000	100.025228
598.000000	100.031900
597.000000	100.095538
596.000000	100.024764
595.000000	99.970046
594.000000	99.901501
593.000000	100.058618
592.000000	99.961332
591.000000	100.078895
590.000000	99.902739
589.000000	99.927504
588.000000	99.978757
587.000000	99.996753
586.000000	100.032103
585.000000	99.949049
584.000000	99.904897
583.000000	99.967331
582.000000	100.090087
581.000000	100.044929
580.000000	99.978556
579.000000	99.949497
578.000000	100.063902
577.000000	100.028509
576.000000	100.029993
575.000000	99.958034
574.000000	99.934298
573.000000	99.949766
572.000000	99.926465
571.000000	99.932425
570.000000	100.068617
569.000000	99.889042
568.000000	99.998700
567.000000	100.060403
566.000000	99.969635
565.000000	100.007433
564.000000	99.938901
563.000000	99.980029
562.000000	99.957646
561.000000	99.985786
560.000000	99.957726
559.000000	99.939678
558.000000	100.008642
557.000000	99.974451
556.000000	99.991172
555.000000	99.982522
554.000000	99.973232
553.000000	99.963740
552.000000	99.997026
551.000000	99.933744
550.000000	100.063243
549.000000	99.959840
548.000000	99.975456
547.000000	99.960773
546.000000	99.968479
545.000000	99.933528
544.000000	99.970255
543.000000	99.956953
542.000000	99.956662
541.000000	99.938134
540.000000	99.997674
539.000000	100.013583
538.000000	100.015158
537.000000	99.961301
536.000000	99.979347
535.000000	99.920986
534.000000	99.976823
533.000000	100.026987
532.000000	100.049984
531.000000	99.960184
530.000000	99.982781
529.000000	99.982314
528.000000	99.973949
527.000000	99.930766
526.000000	99.952624
525.000000	99.984550
524.000000	99.970676
523.000000	99.967592
522.000000	99.965462
521.000000	99.994507
520.000000	100.070885
519.000000	100.021421
518.000000	99.952602
517.000000	100.016020
516.000000	100.008381
515.000000	99.985935
514.000000	100.031118
513.000000	100.010711
512.000000	99.990128
511.000000	100.024782
510.000000	100.024966
509.000000	100.033448
508.000000	100.006520
507.000000	100.019285
506.000000	100.025436
505.000000	99.964695
504.000000	99.956032
503.000000	100.038211
502.000000	100.090975
501.000000	99.995807
500.000000	99.911777
499.000000	100.004101
498.000000	100.013979
497.000000	99.927798
496.000000	99.941520
495.000000	99.941867
494.000000	99.942119
493.000000	99.950864
492.000000	100.034680
491.000000	100.142506
490.000000	100.107035
489.000000	100.013233
488.000000	100.043455
487.000000	100.024798
486.000000	99.970555
485.000000	99.972141
484.000000	100.016506
483.000000	100.077198
482.000000	100.074310
481.000000	100.030250
480.000000	100.006255
479.000000	100.071735
478.000000	100.014383
477.000000	99.957500
476.000000	100.021964
475.000000	100.026727
474.000000	99.975141
473.000000	99.940652
472.000000	99.978405
471.000000	100.011689
470.000000	99.990369
469.000000	99.990277
468.000000	99.960072
467.000000	99.941079
466.000000	100.019554
465.000000	100.024512
464.000000	100.019092
463.000000	100.008610
462.000000	100.019564
461.000000	100.024157
460.000000	99.970609
459.000000	99.955088
458.000000	99.965845
457.000000	99.991011
456.000000	100.033347
455.000000	99.976026
454.000000	99.968638
453.000000	99.950007
452.000000	99.942485
451.000000	99.928452
450.000000	99.897670
449.000000	99.951309
448.000000	100.019669
447.000000	100.014332
446.000000	100.026246
445.000000	100.089552
444.000000	99.992788
443.000000	100.002155
442.000000	100.046673
441.000000	99.970581
440.000000	99.988283
439.000000	99.937506
438.000000	99.946963
437.000000	100.055969
436.000000	100.021462
435.000000	100.024842
434.000000	100.000000
433.000000	99.899055
432.000000	99.958377
431.000000	99.996531
430.000000	100.095353
429.000000	100.085224
428.000000	100.042614
427.000000	99.991834
426.000000	100.015022
425.000000	99.933484
424.000000	99.888468
423.000000	99.976815
422.000000	100.018785
421.000000	99.993707
420.000000	100.036917
419.000000	100.012578
418.000000	100.022335
417.000000	99.905311
416.000000	99.933403
415.000000	100.033536
414.000000	100.022447
413.000000	100.026486
412.000000	100.107153
411.000000	100.017845
410.000000	100.058067
409.000000	99.917282
408.000000	99.863192
407.000000	99.905430
406.000000	100.031300
405.000000	100.026311
404.000000	100.091540
403.000000	100.064952
402.000000	100.026415
401.000000	100.023858
400.000000	100.074827
399.000000	100.002914
398.000000	99.926760
397.000000	99.984020
396.000000	99.918188
395.000000	99.916088
394.000000	100.057529
393.000000	100.032718
392.000000	100.022564
391.000000	99.951595
390.000000	99.951390
389.000000	100.086685
388.000000	100.080912
387.000000	99.999059
386.000000	99.979784
385.000000	100.039770
384.000000	99.900502
383.000000	100.004135
382.000000	100.043647
381.000000	100.058449
380.000000	99.998777
379.000000	100.015224
378.000000	100.185735
377.000000	99.967791
376.000000	99.747562
375.000000	99.801186
374.000000	100.222156
373.000000	100.157760
372.000000	99.867177
371.000000	99.874582
370.000000	100.017794
369.000000	100.022949
368.000000	100.036464
367.000000	100.098724
366.000000	100.094522
365.000000	99.966922
364.000000	100.172493
363.000000	99.926929
362.000000	100.139703
361.000000	100.040248
360.000000	99.912009
359.000000	100.171798
358.000000	99.881126
357.000000	99.867520
356.000000	100.001402
355.000000	100.161887
354.000000	100.061948
353.000000	99.891510
352.000000	99.855315
351.000000	100.075128
350.000000	99.907518
349.000000	99.973468
348.000000	99.752501
347.000000	99.968734
346.000000	100.100972
345.000000	99.882182
344.000000	99.937547
343.000000	100.445381
342.000000	100.269140
341.000000	100.086372
340.000000	99.437586
339.000000	100.038105
338.000000	100.000186
337.000000	100.323835
336.000000	99.939653
335.000000	100.018074
334.000000	100.034805
333.000000	100.083536
332.000000	99.853437
331.000000	99.311534
330.000000	99.774167
329.000000	99.851165
328.000000	100.187104
327.000000	99.992097
326.000000	99.932066
325.000000	99.965582
324.000000	100.351349
323.000000	99.684605
322.000000	99.935587
321.000000	99.443523
320.000000	100.197806
319.000000	100.584924
318.000000	100.274922
317.000000	100.110776
316.000000	99.862196
315.000000	100.183363
314.000000	99.910598
313.000000	99.996026
312.000000	99.964810
311.000000	99.867348
310.000000	99.965223
309.000000	99.830611
308.000000	99.865466
307.000000	99.995096
306.000000	100.248291
305.000000	100.051837
304.000000	100.098954
303.000000	100.061698
302.000000	99.902654
301.000000	99.996666
300.000000	100.117977
299.000000	100.191698
298.000000	100.215951
297.000000	99.890199
296.000000	100.095683
295.000000	100.132869
294.000000	99.904273
293.000000	100.029047
292.000000	99.992133
291.000000	100.056765
290.000000	100.034030
289.000000	99.962670
288.000000	99.847210
287.000000	99.931981
286.000000	100.232737
285.000000	99.966717
284.000000	99.707748
283.000000	100.050163
282.000000	100.082197
281.000000	100.245264
280.000000	99.731353
279.000000	99.900030
278.000000	99.841776
277.000000	99.901668
276.000000	100.132061
275.000000	100.409434
274.000000	100.401258
273.000000	99.706045
272.000000	100.126378
271.000000	100.044560
270.000000	100.212327
269.000000	99.997241
268.000000	99.644302
267.000000	99.778708
266.000000	99.969454
265.000000	99.998559
264.000000	100.087110
263.000000	100.029845
262.000000	99.814318
261.000000	99.872436
260.000000	99.889525
259.000000	100.102946
258.000000	100.149106
257.000000	100.039296
256.000000	99.922107
255.000000	99.815221
254.000000	99.920360
253.000000	100.252619
252.000000	100.176011
251.000000	100.040232
250.000000	100.215882
249.000000	100.129078
248.000000	100.022141
247.000000	99.962551
246.000000	100.000915
245.000000	100.242430
244.000000	100.323019
243.000000	99.900902
242.000000	99.669598
241.000000	99.814563
240.000000	99.876487
239.000000	99.976717
238.000000	100.266902
237.000000	100.144880
236.000000	99.729186
235.000000	99.835194
234.000000	100.018196
233.000000	100.031341
232.000000	100.028323
231.000000	99.974720
230.000000	99.944561
229.000000	99.935234
228.000000	100.093276
227.000000	100.022171
226.000000	100.009942
225.000000	99.959701
224.000000	99.846337
223.000000	99.977734
222.000000	99.845051
221.000000	99.968665
220.000000	99.834605
219.000000	99.813903
218.000000	99.916376
217.000000	99.769319
216.000000	99.793285
215.000000	99.586024
214.000000	99.886464
213.000000	100.309087
212.000000	99.872909
211.000000	99.845086
210.000000	100.030141
209.000000	99.601827
208.000000	100.084536
207.000000	100.601366
206.000000	100.277694
205.000000	99.641858
204.000000	99.447913
203.000000	99.576166
202.000000	100.204764
201.000000	100.422596
200.000000	100.479044
