PE UV       SUBTECH     SPECTRUM    ASCII       PEDS        4.00        
   -1
Empty Chamber 2.Sample.asc
18/03/19
12:12:01.00
18/03/19
12:12:01.00
Administrator

200.000000
1
Lambda 750
750N8071901
PerkinElmer UV WinLab 6.0.4.0738 / 1.61.00 Lambda 900

0
0
3350/servo 860.8/2
0
0
UV/VIS
1
1
1
CommonBeamDepol,150mm sphere / downward view
0
0
0
0
Program
Program
3350/servo 860.8/2
3350/0.2 860.8/0.2
3350/0.2 860.8/0.2
0
1
 
 
 
0
 
860.8
319.2
860.8
Front
100
on
 
 
0
0
0
 
0
 
 
 
0
 
 
0
0
0
0
0
 
 
 
 
0
0


0
0
#HDR
-1
-1
#GR
nm
%T
1.0
0.0
2350.000000
-1.000000
2151
8
100.741049
99.309879
#DATA
2350.000000	99.430546
2349.000000	99.985681
2348.000000	100.098178
2347.000000	100.043415
2346.000000	99.768026
2345.000000	99.954609
2344.000000	100.007495
2343.000000	100.250327
2342.000000	100.154591
2341.000000	100.250443
2340.000000	100.267421
2339.000000	99.884529
2338.000000	99.943063
2337.000000	99.993635
2336.000000	100.087831
2335.000000	100.064266
2334.000000	100.049267
2333.000000	100.045857
2332.000000	100.034751
2331.000000	100.009712
2330.000000	100.393218
2329.000000	100.226729
2328.000000	100.233960
2327.000000	100.048724
2326.000000	100.555143
2325.000000	100.050578
2324.000000	99.847835
2323.000000	100.067099
2322.000000	99.791951
2321.000000	99.868873
2320.000000	100.019003
2319.000000	99.884798
2318.000000	99.776852
2317.000000	99.853152
2316.000000	100.051228
2315.000000	99.878915
2314.000000	99.888613
2313.000000	99.946020
2312.000000	100.172911
2311.000000	100.283939
2310.000000	99.968021
2309.000000	100.175779
2308.000000	99.939412
2307.000000	99.964429
2306.000000	99.975497
2305.000000	99.861812
2304.000000	100.143469
2303.000000	100.167719
2302.000000	100.315921
2301.000000	99.950312
2300.000000	99.964124
2299.000000	100.278140
2298.000000	99.903668
2297.000000	99.950982
2296.000000	100.241067
2295.000000	100.104693
2294.000000	100.087215
2293.000000	99.667916
2292.000000	99.594100
2291.000000	99.771740
2290.000000	99.941249
2289.000000	100.066074
2288.000000	100.080800
2287.000000	100.081291
2286.000000	100.023497
2285.000000	99.950364
2284.000000	99.928698
2283.000000	99.955025
2282.000000	100.067196
2281.000000	100.116618
2280.000000	100.083016
2279.000000	100.069383
2278.000000	99.979847
2277.000000	99.916164
2276.000000	99.816933
2275.000000	99.904978
2274.000000	99.906740
2273.000000	100.065038
2272.000000	100.093878
2271.000000	99.973266
2270.000000	100.185294
2269.000000	100.191970
2268.000000	99.987828
2267.000000	100.057209
2266.000000	100.052008
2265.000000	100.049266
2264.000000	99.919490
2263.000000	99.920066
2262.000000	99.844124
2261.000000	99.891814
2260.000000	100.097603
2259.000000	100.046911
2258.000000	100.208361
2257.000000	100.209677
2256.000000	100.032029
2255.000000	100.084884
2254.000000	100.164623
2253.000000	100.143116
2252.000000	100.043572
2251.000000	99.914082
2250.000000	100.088557
2249.000000	100.202016
2248.000000	99.975480
2247.000000	100.050146
2246.000000	100.090099
2245.000000	99.949376
2244.000000	99.897843
2243.000000	99.990075
2242.000000	99.913752
2241.000000	100.001012
2240.000000	100.169974
2239.000000	100.038400
2238.000000	100.065783
2237.000000	100.064798
2236.000000	99.933113
2235.000000	99.894790
2234.000000	99.967090
2233.000000	100.047328
2232.000000	100.030501
2231.000000	100.045685
2230.000000	100.220029
2229.000000	100.180021
2228.000000	100.067102
2227.000000	100.035538
2226.000000	99.963348
2225.000000	99.996048
2224.000000	99.981758
2223.000000	99.904185
2222.000000	100.047653
2221.000000	100.052546
2220.000000	99.981544
2219.000000	99.988740
2218.000000	100.008215
2217.000000	100.046939
2216.000000	100.082590
2215.000000	99.991091
2214.000000	99.977125
2213.000000	100.101348
2212.000000	100.112685
2211.000000	99.932636
2210.000000	99.870968
2209.000000	100.041424
2208.000000	100.120308
2207.000000	100.065191
2206.000000	100.054113
2205.000000	99.915936
2204.000000	99.899988
2203.000000	100.008408
2202.000000	100.057223
2201.000000	100.081114
2200.000000	100.209607
2199.000000	100.174632
2198.000000	100.262560
2197.000000	100.108893
2196.000000	100.083455
2195.000000	100.110454
2194.000000	100.085603
2193.000000	100.015287
2192.000000	99.900680
2191.000000	100.018329
2190.000000	100.019941
2189.000000	100.063031
2188.000000	99.902357
2187.000000	99.900082
2186.000000	99.965118
2185.000000	99.975429
2184.000000	100.025870
2183.000000	100.074419
2182.000000	100.082058
2181.000000	100.168499
2180.000000	100.115418
2179.000000	99.947731
2178.000000	99.984629
2177.000000	100.244912
2176.000000	100.118768
2175.000000	99.940587
2174.000000	99.993129
2173.000000	100.075693
2172.000000	99.843620
2171.000000	100.001111
2170.000000	100.059051
2169.000000	100.290163
2168.000000	100.158962
2167.000000	99.968211
2166.000000	100.090826
2165.000000	100.130900
2164.000000	99.876792
2163.000000	100.087305
2162.000000	99.952583
2161.000000	99.955616
2160.000000	100.122147
2159.000000	100.153361
2158.000000	99.898371
2157.000000	99.893432
2156.000000	100.003427
2155.000000	100.053873
2154.000000	99.916795
2153.000000	100.133318
2152.000000	99.989108
2151.000000	100.294916
2150.000000	100.118440
2149.000000	99.989006
2148.000000	99.814389
2147.000000	99.987296
2146.000000	100.162532
2145.000000	100.104697
2144.000000	99.941145
2143.000000	100.017724
2142.000000	99.835747
2141.000000	99.882940
2140.000000	99.970050
2139.000000	100.168459
2138.000000	100.108961
2137.000000	99.911949
2136.000000	100.092250
2135.000000	100.105893
2134.000000	100.102918
2133.000000	99.903751
2132.000000	100.032853
2131.000000	99.922555
2130.000000	100.114002
2129.000000	99.884924
2128.000000	100.053072
2127.000000	100.130932
2126.000000	99.982860
2125.000000	99.784099
2124.000000	100.093970
2123.000000	100.115161
2122.000000	99.973039
2121.000000	100.164740
2120.000000	100.053340
2119.000000	100.063801
2118.000000	100.023013
2117.000000	99.812217
2116.000000	100.082560
2115.000000	100.281092
2114.000000	99.948051
2113.000000	99.985266
2112.000000	100.018371
2111.000000	100.027962
2110.000000	99.965905
2109.000000	100.014738
2108.000000	100.035927
2107.000000	100.167158
2106.000000	100.009596
2105.000000	100.021112
2104.000000	100.008173
2103.000000	100.035539
2102.000000	100.097086
2101.000000	100.147190
2100.000000	100.091151
2099.000000	99.837912
2098.000000	99.875564
2097.000000	100.064720
2096.000000	99.984127
2095.000000	100.017374
2094.000000	100.048688
2093.000000	100.149080
2092.000000	100.018400
2091.000000	100.083017
2090.000000	100.073503
2089.000000	99.910770
2088.000000	99.941291
2087.000000	99.905732
2086.000000	99.956453
2085.000000	100.097831
2084.000000	99.982801
2083.000000	100.074989
2082.000000	100.139419
2081.000000	99.950879
2080.000000	99.957142
2079.000000	100.113330
2078.000000	100.104680
2077.000000	100.024681
2076.000000	100.058818
2075.000000	100.103173
2074.000000	100.038315
2073.000000	100.008897
2072.000000	100.010110
2071.000000	100.063932
2070.000000	100.086033
2069.000000	100.002327
2068.000000	99.986546
2067.000000	99.946574
2066.000000	99.998583
2065.000000	100.051118
2064.000000	100.078671
2063.000000	100.053037
2062.000000	100.051840
2061.000000	99.961747
2060.000000	99.931994
2059.000000	99.966505
2058.000000	100.000202
2057.000000	100.015479
2056.000000	100.052130
2055.000000	100.035421
2054.000000	99.987349
2053.000000	100.039793
2052.000000	100.101000
2051.000000	99.928965
2050.000000	99.918032
2049.000000	100.030595
2048.000000	100.072350
2047.000000	100.057342
2046.000000	100.043251
2045.000000	99.937443
2044.000000	99.904874
2043.000000	100.013366
2042.000000	100.090027
2041.000000	100.082843
2040.000000	100.033134
2039.000000	100.035055
2038.000000	100.026243
2037.000000	99.947418
2036.000000	99.991694
2035.000000	100.092123
2034.000000	100.085534
2033.000000	100.049144
2032.000000	100.005978
2031.000000	100.032831
2030.000000	100.020676
2029.000000	100.004054
2028.000000	99.981764
2027.000000	99.965961
2026.000000	100.037306
2025.000000	100.007401
2024.000000	99.969591
2023.000000	100.046537
2022.000000	100.016626
2021.000000	99.980742
2020.000000	100.053122
2019.000000	100.035584
2018.000000	99.965242
2017.000000	99.977394
2016.000000	100.015414
2015.000000	99.969586
2014.000000	99.926722
2013.000000	99.979015
2012.000000	100.023723
2011.000000	100.041071
2010.000000	99.991785
2009.000000	99.986715
2008.000000	100.019172
2007.000000	100.003754
2006.000000	100.027291
2005.000000	100.036122
2004.000000	100.033283
2003.000000	100.042623
2002.000000	100.024053
2001.000000	99.982244
2000.000000	99.967126
1999.000000	100.000710
1998.000000	100.056654
1997.000000	100.039186
1996.000000	100.049036
1995.000000	100.020710
1994.000000	99.999188
1993.000000	100.004569
1992.000000	99.962339
1991.000000	99.974524
1990.000000	100.032903
1989.000000	100.030061
1988.000000	99.988425
1987.000000	100.052418
1986.000000	100.026814
1985.000000	99.966795
1984.000000	99.972075
1983.000000	100.003148
1982.000000	100.039921
1981.000000	100.028028
1980.000000	100.016552
1979.000000	100.028349
1978.000000	100.047147
1977.000000	100.044807
1976.000000	100.014123
1975.000000	100.034553
1974.000000	99.999492
1973.000000	99.990453
1972.000000	100.001524
1971.000000	99.981416
1970.000000	99.953907
1969.000000	99.992994
1968.000000	100.024065
1967.000000	100.023257
1966.000000	100.036058
1965.000000	99.980400
1964.000000	99.992487
1963.000000	100.026201
1962.000000	99.989643
1961.000000	99.983146
1960.000000	100.017876
1959.000000	99.977659
1958.000000	99.960816
1957.000000	100.006803
1956.000000	100.045802
1955.000000	100.008935
1954.000000	100.017160
1953.000000	99.950474
1952.000000	99.975028
1951.000000	100.020610
1950.000000	100.009643
1949.000000	100.039282
1948.000000	99.998985
1947.000000	99.987311
1946.000000	100.001826
1945.000000	100.029830
1944.000000	100.007307
1943.000000	100.050843
1942.000000	100.042526
1941.000000	100.065939
1940.000000	99.942416
1939.000000	100.061271
1938.000000	100.135579
1937.000000	100.042083
1936.000000	100.008415
1935.000000	100.030023
1934.000000	99.957936
1933.000000	99.979821
1932.000000	99.913745
1931.000000	100.011457
1930.000000	100.086523
1929.000000	100.017946
1928.000000	100.013185
1927.000000	100.050289
1926.000000	99.987838
1925.000000	99.981045
1924.000000	100.019255
1923.000000	100.011153
1922.000000	100.067214
1921.000000	99.984491
1920.000000	99.935232
1919.000000	99.986011
1918.000000	100.058623
1917.000000	100.026365
1916.000000	100.043291
1915.000000	100.106370
1914.000000	100.062279
1913.000000	100.059630
1912.000000	100.060775
1911.000000	99.985904
1910.000000	100.030433
1909.000000	99.999696
1908.000000	100.006694
1907.000000	99.984684
1906.000000	100.012579
1905.000000	100.009335
1904.000000	100.027199
1903.000000	99.970594
1902.000000	99.939565
1901.000000	99.949724
1900.000000	99.998175
1899.000000	100.052765
1898.000000	100.002230
1897.000000	99.880472
1896.000000	99.988134
1895.000000	100.071005
1894.000000	99.999188
1893.000000	99.998479
1892.000000	100.067482
1891.000000	100.056115
1890.000000	100.047698
1889.000000	100.053767
1888.000000	100.034584
1887.000000	100.038342
1886.000000	99.998073
1885.000000	99.987937
1884.000000	100.002128
1883.000000	100.039830
1882.000000	99.980543
1881.000000	99.996453
1880.000000	99.995339
1879.000000	99.944606
1878.000000	99.999899
1877.000000	100.098589
1876.000000	100.127791
1875.000000	100.001418
1874.000000	99.980559
1873.000000	99.986232
1872.000000	99.924206
1871.000000	99.952429
1870.000000	99.962445
1869.000000	99.974800
1868.000000	99.983806
1867.000000	99.963746
1866.000000	100.041937
1865.000000	100.010635
1864.000000	100.035143
1863.000000	100.033426
1862.000000	100.074372
1861.000000	100.037797
1860.000000	100.012969
1859.000000	100.015093
1858.000000	100.014994
1857.000000	99.999595
1856.000000	100.012159
1855.000000	100.035771
1854.000000	100.052295
1853.000000	99.991996
1852.000000	99.988450
1851.000000	99.979744
1850.000000	99.997570
1849.000000	99.969722
1848.000000	99.994227
1847.000000	100.057549
1846.000000	100.048832
1845.000000	100.016714
1844.000000	99.982682
1843.000000	99.987746
1842.000000	100.019448
1841.000000	100.022890
1840.000000	100.054409
1839.000000	100.010028
1838.000000	100.012158
1837.000000	99.989463
1836.000000	99.994832
1835.000000	100.016623
1834.000000	99.992703
1833.000000	99.990876
1832.000000	100.005476
1831.000000	99.976577
1830.000000	100.011762
1829.000000	100.024743
1828.000000	100.025455
1827.000000	100.018963
1826.000000	100.000000
1825.000000	100.012072
1824.000000	100.006697
1823.000000	100.030755
1822.000000	100.031869
1821.000000	100.031975
1820.000000	99.988632
1819.000000	99.959108
1818.000000	100.002436
1817.000000	100.016550
1816.000000	100.030666
1815.000000	100.053624
1814.000000	100.027926
1813.000000	99.985381
1812.000000	99.987715
1811.000000	99.984060
1810.000000	100.002640
1809.000000	100.014827
1808.000000	99.977861
1807.000000	99.985068
1806.000000	100.029565
1805.000000	100.030683
1804.000000	100.006705
1803.000000	99.995835
1802.000000	100.011889
1801.000000	100.030183
1800.000000	100.019612
1799.000000	100.025000
1798.000000	100.024795
1797.000000	99.993700
1796.000000	99.991058
1795.000000	99.981104
1794.000000	99.989942
1793.000000	100.020632
1792.000000	100.013112
1791.000000	100.013824
1790.000000	100.025415
1789.000000	100.013011
1788.000000	99.985059
1787.000000	99.978452
1786.000000	100.007826
1785.000000	100.024395
1784.000000	99.990345
1783.000000	99.979674
1782.000000	99.981709
1781.000000	99.991972
1780.000000	99.967992
1779.000000	99.991057
1778.000000	99.998171
1777.000000	100.005793
1776.000000	100.026326
1775.000000	100.022766
1774.000000	100.003557
1773.000000	100.008334
1772.000000	99.995223
1771.000000	100.025306
1770.000000	100.004065
1769.000000	99.967692
1768.000000	99.982625
1767.000000	100.007928
1766.000000	99.996342
1765.000000	99.996545
1764.000000	100.018193
1763.000000	99.997053
1762.000000	100.009350
1761.000000	100.025921
1760.000000	100.002033
1759.000000	100.014026
1758.000000	100.016163
1757.000000	99.972965
1756.000000	100.013517
1755.000000	99.988720
1754.000000	99.990548
1753.000000	100.001728
1752.000000	100.003759
1751.000000	99.989128
1750.000000	100.007723
1749.000000	99.983134
1748.000000	99.958140
1747.000000	100.005285
1746.000000	100.000711
1745.000000	99.961397
1744.000000	99.978562
1743.000000	99.997663
1742.000000	100.003150
1741.000000	99.972973
1740.000000	100.038713
1739.000000	99.996545
1738.000000	99.990552
1737.000000	99.943625
1736.000000	99.995022
1735.000000	100.010363
1734.000000	100.020223
1733.000000	100.031200
1732.000000	99.995225
1731.000000	100.014531
1730.000000	99.980187
1729.000000	99.971148
1728.000000	99.989840
1727.000000	99.966570
1726.000000	100.022152
1725.000000	99.996851
1724.000000	99.986389
1723.000000	99.998984
1722.000000	99.987098
1721.000000	99.998679
1720.000000	100.017267
1719.000000	100.011379
1718.000000	99.978359
1717.000000	99.982528
1716.000000	100.001829
1715.000000	99.992989
1714.000000	100.027945
1713.000000	100.017781
1712.000000	99.974601
1711.000000	99.988927
1710.000000	100.019407
1709.000000	99.974298
1708.000000	99.986491
1707.000000	99.976843
1706.000000	99.996444
1705.000000	99.989841
1704.000000	100.002539
1703.000000	100.016762
1702.000000	100.036381
1701.000000	100.028960
1700.000000	100.042268
1699.000000	100.011579
1698.000000	99.960286
1697.000000	99.968205
1696.000000	100.017069
1695.000000	99.958362
1694.000000	99.981612
1693.000000	100.023164
1692.000000	99.973082
1691.000000	100.021944
1690.000000	100.021537
1689.000000	100.016253
1688.000000	100.035250
1687.000000	100.013207
1686.000000	99.982530
1685.000000	99.961211
1684.000000	99.981311
1683.000000	100.012189
1682.000000	100.014119
1681.000000	100.002743
1680.000000	100.002336
1679.000000	100.023264
1678.000000	100.014832
1677.000000	99.989030
1676.000000	99.977453
1675.000000	100.022753
1674.000000	99.998781
1673.000000	100.005689
1672.000000	99.990350
1671.000000	100.001524
1670.000000	99.994211
1669.000000	100.013607
1668.000000	100.021121
1667.000000	100.024778
1666.000000	100.031586
1665.000000	100.023763
1664.000000	100.012896
1663.000000	100.014824
1662.000000	99.990862
1661.000000	100.007108
1660.000000	100.025385
1659.000000	100.016346
1658.000000	100.017973
1657.000000	99.993604
1656.000000	100.017767
1655.000000	99.993705
1654.000000	100.011778
1653.000000	100.009950
1652.000000	100.021932
1651.000000	99.997056
1650.000000	99.977564
1649.000000	99.979898
1648.000000	99.988021
1647.000000	100.003655
1646.000000	99.988425
1645.000000	100.004569
1644.000000	99.989744
1643.000000	99.995939
1642.000000	99.956253
1641.000000	99.996041
1640.000000	99.998883
1639.000000	99.990660
1638.000000	99.983757
1637.000000	100.004569
1636.000000	99.995634
1635.000000	99.979900
1634.000000	99.998579
1633.000000	100.002030
1632.000000	99.995026
1631.000000	100.001117
1630.000000	99.998071
1629.000000	100.015129
1628.000000	99.990761
1627.000000	99.974013
1626.000000	99.998477
1625.000000	99.993707
1624.000000	99.979091
1623.000000	99.981221
1622.000000	100.004061
1621.000000	100.023858
1620.000000	100.018579
1619.000000	100.000711
1618.000000	100.010052
1617.000000	100.022134
1616.000000	100.020712
1615.000000	100.003655
1614.000000	100.006701
1613.000000	100.019087
1612.000000	100.012080
1611.000000	100.005989
1610.000000	100.012184
1609.000000	100.011676
1608.000000	99.999391
1607.000000	99.994417
1606.000000	100.011776
1605.000000	100.009542
1604.000000	100.003655
1603.000000	100.020711
1602.000000	100.019189
1601.000000	100.012488
1600.000000	100.011065
1599.000000	100.001624
1598.000000	100.010456
1597.000000	100.012486
1596.000000	99.987617
1595.000000	99.981122
1594.000000	99.988125
1593.000000	99.992286
1592.000000	100.000508
1591.000000	100.004061
1590.000000	100.008223
1589.000000	100.007918
1588.000000	100.005786
1587.000000	100.016547
1586.000000	100.011472
1585.000000	100.003756
1584.000000	99.992184
1583.000000	99.982645
1582.000000	100.003756
1581.000000	100.027916
1580.000000	100.040809
1579.000000	100.032280
1578.000000	99.998072
1577.000000	99.996245
1576.000000	100.001319
1575.000000	100.001624
1574.000000	100.003552
1573.000000	100.017864
1572.000000	100.012890
1571.000000	100.010048
1570.000000	100.003451
1569.000000	100.004973
1568.000000	100.007106
1567.000000	100.012891
1566.000000	100.005277
1565.000000	99.993404
1564.000000	100.000710
1563.000000	99.998782
1562.000000	100.000406
1561.000000	100.011063
1560.000000	100.003349
1559.000000	99.998376
1558.000000	100.011063
1557.000000	100.013296
1556.000000	100.000507
1555.000000	100.003856
1554.000000	100.007408
1553.000000	99.993506
1552.000000	99.997666
1551.000000	100.011670
1550.000000	100.006292
1549.000000	100.007914
1548.000000	99.993912
1547.000000	99.987113
1546.000000	100.016136
1545.000000	100.001421
1544.000000	100.000609
1543.000000	99.999188
1542.000000	100.006798
1541.000000	100.009944
1540.000000	100.005377
1539.000000	100.013292
1538.000000	99.976970
1537.000000	100.011362
1536.000000	99.995638
1535.000000	100.002333
1534.000000	100.007711
1533.000000	99.998072
1532.000000	99.998884
1531.000000	99.995231
1530.000000	100.014006
1529.000000	99.987012
1528.000000	99.986302
1527.000000	100.002030
1526.000000	100.004465
1525.000000	100.000812
1524.000000	100.016543
1523.000000	100.008727
1522.000000	100.001421
1521.000000	99.995129
1520.000000	99.992187
1519.000000	100.016845
1518.000000	99.976153
1517.000000	99.984373
1516.000000	100.013092
1515.000000	100.017969
1514.000000	99.997564
1513.000000	99.985388
1512.000000	99.975037
1511.000000	100.017255
1510.000000	99.995230
1509.000000	99.993301
1508.000000	99.996245
1507.000000	99.985284
1506.000000	100.010455
1505.000000	99.997462
1504.000000	99.981224
1503.000000	99.985081
1502.000000	100.018472
1501.000000	100.008931
1500.000000	100.020401
1499.000000	100.012383
1498.000000	100.006190
1497.000000	100.011570
1496.000000	100.021618
1495.000000	100.008930
1494.000000	100.007713
1493.000000	99.969154
1492.000000	100.008119
1491.000000	99.998275
1490.000000	100.017355
1489.000000	99.976665
1488.000000	99.996347
1487.000000	100.013295
1486.000000	100.029532
1485.000000	99.987924
1484.000000	100.016135
1483.000000	100.022221
1482.000000	99.991782
1481.000000	100.011973
1480.000000	100.006391
1479.000000	100.010349
1478.000000	100.012073
1477.000000	100.002435
1476.000000	100.007710
1475.000000	100.000812
1474.000000	100.027395
1473.000000	100.017044
1472.000000	99.999899
1471.000000	99.999391
1470.000000	100.001217
1469.000000	100.026175
1468.000000	99.988943
1467.000000	100.033383
1466.000000	100.026276
1465.000000	100.006695
1464.000000	100.014101
1463.000000	100.033493
1462.000000	100.024450
1461.000000	100.007811
1460.000000	99.992494
1459.000000	100.013090
1458.000000	100.004058
1457.000000	100.005681
1456.000000	100.016231
1455.000000	100.005376
1454.000000	100.005175
1453.000000	100.020999
1452.000000	100.005072
1451.000000	100.012171
1450.000000	100.008115
1449.000000	100.019580
1448.000000	99.998377
1447.000000	99.996247
1446.000000	99.991277
1445.000000	100.009229
1444.000000	100.010649
1443.000000	99.999594
1442.000000	100.017652
1441.000000	100.005173
1440.000000	99.997668
1439.000000	99.993915
1438.000000	100.018459
1437.000000	100.021402
1436.000000	100.002637
1435.000000	100.001927
1434.000000	100.013388
1433.000000	100.005882
1432.000000	99.994017
1431.000000	99.998682
1430.000000	99.994423
1429.000000	99.994018
1428.000000	99.993207
1427.000000	100.004563
1426.000000	100.005576
1425.000000	100.009530
1424.000000	100.018754
1423.000000	100.005271
1422.000000	100.009426
1421.000000	100.013885
1420.000000	100.005270
1419.000000	99.999899
1418.000000	99.998278
1417.000000	100.006382
1416.000000	100.003849
1415.000000	100.001722
1414.000000	100.004760
1413.000000	100.006076
1412.000000	100.016201
1411.000000	100.002430
1410.000000	100.007491
1409.000000	100.000506
1408.000000	100.014675
1407.000000	100.014978
1406.000000	100.010119
1405.000000	100.013963
1404.000000	100.004553
1403.000000	99.991705
1402.000000	100.001012
1401.000000	100.009003
1400.000000	100.013857
1399.000000	99.986349
1398.000000	99.991102
1397.000000	100.009202
1396.000000	100.009504
1395.000000	99.995956
1394.000000	100.004145
1393.000000	100.015466
1392.000000	100.017387
1391.000000	100.006469
1390.000000	99.995452
1389.000000	100.009603
1388.000000	100.018396
1387.000000	99.999596
1386.000000	99.988178
1385.000000	99.982418
1384.000000	99.995149
1383.000000	100.011723
1382.000000	100.002021
1381.000000	99.997675
1380.000000	100.004447
1379.000000	99.998282
1378.000000	99.997271
1377.000000	99.999293
1376.000000	100.013239
1375.000000	100.018090
1374.000000	100.008995
1373.000000	100.015464
1372.000000	100.013947
1371.000000	99.995655
1370.000000	100.010005
1369.000000	100.012935
1368.000000	100.005456
1367.000000	100.008689
1366.000000	100.002829
1365.000000	100.002121
1364.000000	99.999394
1363.000000	100.008283
1362.000000	100.011314
1361.000000	100.000606
1360.000000	100.018192
1359.000000	100.034466
1358.000000	100.013543
1357.000000	99.990298
1356.000000	99.999494
1355.000000	100.010011
1354.000000	100.007382
1353.000000	100.006778
1352.000000	100.014772
1351.000000	100.015583
1350.000000	100.019432
1349.000000	100.024803
1348.000000	100.007896
1347.000000	99.992408
1346.000000	100.021669
1345.000000	100.012555
1344.000000	99.994634
1343.000000	99.995343
1342.000000	99.992711
1341.000000	99.992206
1340.000000	99.982186
1339.000000	99.999798
1338.000000	100.020858
1337.000000	100.025514
1336.000000	99.993825
1335.000000	99.995748
1334.000000	100.006479
1333.000000	100.009312
1332.000000	100.007996
1331.000000	99.994939
1330.000000	100.001215
1329.000000	100.018421
1328.000000	100.012044
1327.000000	100.001923
1326.000000	100.000000
1325.000000	100.011236
1324.000000	100.025917
1323.000000	99.982387
1322.000000	99.997369
1321.000000	100.014372
1320.000000	100.013262
1319.000000	99.986742
1318.000000	99.987449
1317.000000	100.022479
1316.000000	100.013362
1315.000000	100.056905
1314.000000	99.992104
1313.000000	100.008402
1312.000000	99.978943
1311.000000	100.022680
1310.000000	100.025108
1309.000000	99.999798
1308.000000	100.005266
1307.000000	100.000101
1306.000000	100.015997
1305.000000	100.013264
1304.000000	100.016910
1303.000000	100.010128
1302.000000	100.003240
1301.000000	100.015392
1300.000000	100.009621
1299.000000	100.008101
1298.000000	100.039190
1297.000000	99.995950
1296.000000	100.009011
1295.000000	99.996456
1294.000000	100.002936
1293.000000	100.000101
1292.000000	99.999595
1291.000000	100.003138
1290.000000	100.001620
1289.000000	100.028653
1288.000000	100.017719
1287.000000	100.003037
1286.000000	99.996255
1285.000000	99.999696
1284.000000	100.022165
1283.000000	100.003441
1282.000000	99.996053
1281.000000	100.010828
1280.000000	100.008599
1279.000000	100.002226
1278.000000	100.023272
1277.000000	100.008599
1276.000000	99.988267
1275.000000	99.995550
1274.000000	99.972189
1273.000000	99.989179
1272.000000	100.005461
1271.000000	99.994033
1270.000000	99.985237
1269.000000	100.011427
1268.000000	99.999191
1267.000000	99.995349
1266.000000	100.015065
1265.000000	100.005763
1264.000000	100.022748
1263.000000	99.991606
1262.000000	99.999697
1261.000000	100.005965
1260.000000	100.022848
1259.000000	99.998484
1258.000000	100.022442
1257.000000	99.999090
1256.000000	99.982106
1255.000000	99.981702
1254.000000	100.004246
1253.000000	100.003437
1252.000000	99.988578
1251.000000	99.996765
1250.000000	100.025478
1249.000000	99.998888
1248.000000	100.009301
1247.000000	100.020625
1246.000000	100.005458
1245.000000	99.998383
1244.000000	99.982819
1243.000000	99.991005
1242.000000	100.001617
1241.000000	100.024765
1240.000000	100.005761
1239.000000	100.004345
1238.000000	100.018087
1237.000000	100.014550
1236.000000	100.010910
1235.000000	100.002121
1234.000000	99.998485
1233.000000	99.997071
1232.000000	99.991014
1231.000000	100.004847
1230.000000	100.010503
1229.000000	100.021307
1228.000000	99.993944
1227.000000	100.006763
1226.000000	100.027961
1225.000000	99.997174
1224.000000	100.017358
1223.000000	100.010898
1222.000000	100.005045
1221.000000	100.006759
1220.000000	100.010895
1219.000000	100.015636
1218.000000	100.006859
1217.000000	100.022191
1216.000000	99.994958
1215.000000	99.995765
1214.000000	100.004537
1213.000000	99.998084
1212.000000	100.008370
1211.000000	100.000605
1210.000000	99.998387
1209.000000	100.017241
1208.000000	100.017241
1207.000000	100.010485
1206.000000	99.979636
1205.000000	99.976718
1204.000000	99.984779
1203.000000	99.990120
1202.000000	100.005343
1201.000000	100.007459
1200.000000	99.989415
1199.000000	99.997782
1198.000000	99.998790
1197.000000	100.016635
1196.000000	100.006754
1195.000000	100.000302
1194.000000	100.010886
1193.000000	99.992441
1192.000000	99.994759
1191.000000	100.013305
1190.000000	100.010585
1189.000000	100.017745
1188.000000	100.002621
1187.000000	100.003932
1186.000000	100.011089
1185.000000	100.016935
1184.000000	99.995566
1183.000000	99.988916
1182.000000	100.005341
1181.000000	99.997682
1180.000000	100.004232
1179.000000	100.009974
1178.000000	100.003325
1177.000000	100.007857
1176.000000	100.002518
1175.000000	99.994059
1174.000000	100.014902
1173.000000	100.013794
1172.000000	100.007048
1171.000000	100.012383
1170.000000	100.001912
1169.000000	99.993257
1168.000000	99.991244
1167.000000	99.995773
1166.000000	99.989132
1165.000000	99.978569
1164.000000	99.997183
1163.000000	100.012778
1162.000000	99.997284
1161.000000	99.974658
1160.000000	99.984413
1159.000000	99.997788
1158.000000	100.006033
1157.000000	100.002715
1156.000000	100.002212
1155.000000	100.007841
1154.000000	100.008242
1153.000000	100.006633
1152.000000	100.005326
1151.000000	100.016482
1150.000000	100.013364
1149.000000	99.996082
1148.000000	99.997790
1147.000000	100.002611
1146.000000	99.999799
1145.000000	100.006626
1144.000000	100.006325
1143.000000	100.012247
1142.000000	100.010840
1141.000000	100.015757
1140.000000	100.012444
1139.000000	100.007727
1138.000000	100.007826
1137.000000	100.006120
1136.000000	100.000000
1135.000000	99.990974
1134.000000	100.004012
1133.000000	100.001705
1132.000000	99.993986
1131.000000	100.011527
1130.000000	100.001804
1129.000000	99.996393
1128.000000	100.015431
1127.000000	100.016332
1126.000000	100.005611
1125.000000	100.008616
1124.000000	100.000200
1123.000000	100.004708
1122.000000	100.019531
1121.000000	100.003905
1120.000000	99.995394
1119.000000	99.991891
1118.000000	100.010812
1117.000000	100.002102
1116.000000	100.002402
1115.000000	100.006104
1114.000000	100.006003
1113.000000	99.998900
1112.000000	100.003201
1111.000000	100.006001
1110.000000	100.006001
1109.000000	100.007500
1108.000000	100.007999
1107.000000	100.009498
1106.000000	100.007098
1105.000000	99.985009
1104.000000	100.011193
1103.000000	100.009992
1102.000000	99.989111
1101.000000	99.996204
1100.000000	100.012284
1099.000000	99.997404
1098.000000	100.001398
1097.000000	99.985026
1096.000000	99.992514
1095.000000	100.015170
1094.000000	100.005688
1093.000000	100.023249
1092.000000	100.020053
1091.000000	100.006682
1090.000000	99.992522
1089.000000	100.001495
1088.000000	100.009071
1087.000000	99.989935
1086.000000	100.014648
1085.000000	100.026803
1084.000000	100.009364
1083.000000	100.011254
1082.000000	100.005377
1081.000000	99.988451
1080.000000	100.001692
1079.000000	100.014632
1078.000000	100.007165
1077.000000	100.000696
1076.000000	100.001890
1075.000000	100.016411
1074.000000	99.991251
1073.000000	99.991351
1072.000000	99.992149
1071.000000	100.001192
1070.000000	100.004173
1069.000000	99.997020
1068.000000	100.018374
1067.000000	100.011022
1066.000000	99.987790
1065.000000	100.001092
1064.000000	100.004069
1063.000000	100.013593
1062.000000	100.017954
1061.000000	100.010413
1060.000000	100.000496
1059.000000	99.998116
1058.000000	100.017841
1057.000000	100.025466
1056.000000	100.022092
1055.000000	100.033578
1054.000000	100.000891
1053.000000	100.012177
1052.000000	99.999505
1051.000000	100.019791
1050.000000	100.000000
1049.000000	99.985956
1048.000000	99.987840
1047.000000	100.013445
1046.000000	99.985769
1045.000000	100.001581
1044.000000	100.003753
1043.000000	100.006025
1042.000000	100.009183
1041.000000	100.028920
1040.000000	100.009573
1039.000000	100.006117
1038.000000	100.008583
1037.000000	100.040828
1036.000000	99.992706
1035.000000	100.006505
1034.000000	100.011035
1033.000000	100.000985
1032.000000	99.966817
1031.000000	100.003249
1030.000000	100.035635
1029.000000	100.012397
1028.000000	100.004131
1027.000000	100.038753
1026.000000	100.028805
1025.000000	100.010220
1024.000000	100.021618
1023.000000	100.003045
1022.000000	99.992440
1021.000000	99.993327
1020.000000	100.002159
1019.000000	99.999608
1018.000000	100.012946
1017.000000	100.015393
1016.000000	99.983733
1015.000000	100.010483
1014.000000	99.996279
1013.000000	100.020072
1012.000000	100.014290
1011.000000	100.004696
1010.000000	99.994132
1009.000000	100.002053
1008.000000	99.997459
1007.000000	100.004006
1006.000000	100.004004
1005.000000	100.026363
1004.000000	99.995316
1003.000000	99.986245
1002.000000	100.016092
1001.000000	99.998635
1000.000000	100.003800
999.000000	100.003799
998.000000	100.008374
997.000000	100.012557
996.000000	100.020436
995.000000	100.009338
994.000000	99.984834
993.000000	99.985134
992.000000	99.991938
991.000000	99.997378
990.000000	100.000485
989.000000	100.002523
988.000000	99.993988
987.000000	100.006204
986.000000	100.003586
985.000000	100.020444
984.000000	100.005713
983.000000	100.005324
982.000000	99.997000
981.000000	99.989265
980.000000	99.986273
979.000000	100.003285
978.000000	100.007535
977.000000	100.010524
976.000000	100.013512
975.000000	100.010322
974.000000	99.996143
973.000000	99.999229
972.000000	100.007610
971.000000	100.003081
970.000000	100.008470
969.000000	100.016642
968.000000	100.019135
967.000000	100.003076
966.000000	99.980023
965.000000	99.978595
964.000000	99.997793
963.000000	99.992903
962.000000	100.011024
961.000000	100.020601
960.000000	100.028157
959.000000	100.024502
958.000000	100.006026
957.000000	99.994934
956.000000	99.987963
955.000000	100.006207
954.000000	100.020429
953.000000	100.029389
952.000000	100.003909
951.000000	99.986948
950.000000	100.011524
949.000000	100.023420
948.000000	100.013793
947.000000	100.019488
946.000000	100.025750
945.000000	100.025734
944.000000	100.020402
943.000000	100.027215
942.000000	100.019618
941.000000	99.998390
940.000000	100.019213
939.000000	100.010215
938.000000	100.000095
937.000000	100.011808
936.000000	99.975462
935.000000	99.956426
934.000000	99.997455
933.000000	100.024588
932.000000	100.026457
931.000000	99.993696
930.000000	100.000188
929.000000	100.017947
928.000000	99.996432
927.000000	100.004035
926.000000	100.020812
925.000000	100.015267
924.000000	100.004867
923.000000	100.005519
922.000000	100.019629
921.000000	100.003082
920.000000	100.009333
919.000000	100.012029
918.000000	99.968326
917.000000	99.934201
916.000000	99.963082
915.000000	100.003719
914.000000	99.988670
913.000000	99.936368
912.000000	99.974320
911.000000	100.017787
910.000000	100.007126
909.000000	100.026914
908.000000	100.039189
907.000000	99.991505
906.000000	99.975463
905.000000	99.990230
904.000000	100.036305
903.000000	100.019880
902.000000	99.978954
901.000000	100.000184
900.000000	100.010464
899.000000	100.044659
898.000000	100.001374
897.000000	100.010158
896.000000	99.951825
895.000000	100.003289
894.000000	99.968336
893.000000	100.009300
892.000000	100.017493
891.000000	99.951028
890.000000	99.967428
889.000000	99.976191
888.000000	99.960056
887.000000	99.992288
886.000000	100.045506
885.000000	100.017116
884.000000	99.998372
883.000000	100.028477
882.000000	99.924184
881.000000	99.868663
880.000000	100.007299
879.000000	99.982804
878.000000	100.066425
877.000000	100.035778
876.000000	99.961668
875.000000	100.039830
874.000000	99.961924
873.000000	99.933134
872.000000	99.984260
871.000000	100.106348
870.000000	100.101389
869.000000	99.973240
868.000000	99.979063
867.000000	99.932648
866.000000	99.902276
865.000000	99.895466
864.000000	99.985083
863.000000	100.107218
862.000000	100.196921
861.000000	99.970227
860.000000	100.082477
859.000000	99.655865
858.000000	99.960846
857.000000	99.738887
856.000000	99.600979
855.000000	100.556137
854.000000	99.996529
853.000000	99.657851
852.000000	100.095082
851.000000	100.163121
850.000000	99.829860
849.000000	99.519506
848.000000	99.678142
847.000000	99.821250
846.000000	100.183039
845.000000	99.565500
844.000000	99.873122
843.000000	99.936500
842.000000	99.861857
841.000000	99.669243
840.000000	99.981529
839.000000	100.105844
838.000000	100.076640
837.000000	99.868169
836.000000	100.163803
835.000000	99.696413
834.000000	99.910080
833.000000	99.889688
832.000000	100.164803
831.000000	99.934197
830.000000	99.844989
829.000000	99.856488
828.000000	99.865045
827.000000	100.008528
826.000000	99.914165
825.000000	99.846378
824.000000	99.892512
823.000000	99.920439
822.000000	100.144525
821.000000	99.665136
820.000000	99.915277
819.000000	99.924657
818.000000	100.021617
817.000000	99.872630
816.000000	99.796621
815.000000	100.120426
814.000000	99.931275
813.000000	99.929647
812.000000	100.006769
811.000000	99.891271
810.000000	99.838680
809.000000	100.024184
808.000000	99.952482
807.000000	100.012853
806.000000	100.015409
805.000000	99.936761
804.000000	99.845919
803.000000	99.946477
802.000000	99.981506
801.000000	99.962432
800.000000	99.806999
799.000000	99.686258
798.000000	99.955405
797.000000	100.021981
796.000000	99.960967
795.000000	100.029766
794.000000	100.079199
793.000000	100.049666
792.000000	99.963729
791.000000	100.049594
790.000000	99.958621
789.000000	100.130196
788.000000	100.067995
787.000000	99.952544
786.000000	100.066544
785.000000	99.990939
784.000000	99.995828
783.000000	100.086255
782.000000	100.028708
781.000000	100.130009
780.000000	100.079733
779.000000	100.002046
778.000000	99.929896
777.000000	100.056272
776.000000	100.150914
775.000000	99.977289
774.000000	99.974597
773.000000	100.171914
772.000000	100.039981
771.000000	100.077638
770.000000	99.947025
769.000000	99.937918
768.000000	100.049158
767.000000	100.076372
766.000000	99.932719
765.000000	99.891609
764.000000	99.975638
763.000000	99.982344
762.000000	100.139642
761.000000	100.040993
760.000000	99.925100
759.000000	100.088715
758.000000	99.963731
757.000000	100.123973
756.000000	100.003684
755.000000	99.997304
754.000000	99.994333
753.000000	99.984976
752.000000	99.914399
751.000000	99.972262
750.000000	100.003424
749.000000	99.985578
748.000000	99.932719
747.000000	100.040997
746.000000	100.079404
745.000000	100.028283
744.000000	100.004427
743.000000	99.998916
742.000000	99.930034
741.000000	99.877454
740.000000	99.820414
739.000000	99.890185
738.000000	99.930844
737.000000	99.969397
736.000000	100.015501
735.000000	100.098084
734.000000	100.034477
733.000000	99.955263
732.000000	100.034945
731.000000	100.039573
730.000000	99.924763
729.000000	100.015720
728.000000	100.080630
727.000000	99.955962
726.000000	99.948667
725.000000	100.012647
724.000000	100.033047
723.000000	100.000000
722.000000	100.044718
721.000000	100.077003
720.000000	100.072061
719.000000	100.056957
718.000000	100.012121
717.000000	99.962808
716.000000	99.947733
715.000000	99.925658
714.000000	99.927950
713.000000	99.968707
712.000000	99.959647
711.000000	99.988308
710.000000	100.020280
709.000000	100.027139
708.000000	99.978708
707.000000	99.898741
706.000000	99.982894
705.000000	100.066452
704.000000	100.009247
703.000000	99.947738
702.000000	99.996703
701.000000	99.992580
700.000000	99.987172
699.000000	99.977371
698.000000	99.964453
697.000000	99.943274
696.000000	99.926480
695.000000	99.971743
694.000000	99.954781
693.000000	99.964956
692.000000	99.867476
691.000000	99.920407
690.000000	100.039945
689.000000	99.997707
688.000000	99.984319
687.000000	100.031099
686.000000	100.060576
685.000000	100.073371
684.000000	100.007343
683.000000	100.017450
682.000000	99.956265
681.000000	100.011672
680.000000	100.001838
679.000000	100.001839
678.000000	100.041023
677.000000	100.051587
676.000000	99.989701
675.000000	99.971860
674.000000	99.986567
673.000000	99.963555
672.000000	99.976163
671.000000	100.035273
670.000000	99.991439
669.000000	99.980112
668.000000	99.991711
667.000000	99.906544
666.000000	100.011887
665.000000	99.956438
664.000000	99.966461
663.000000	99.988659
662.000000	99.939879
661.000000	99.916596
660.000000	99.959705
659.000000	99.992710
658.000000	99.891803
657.000000	99.965212
656.000000	99.970567
655.000000	100.015324
654.000000	100.052733
653.000000	99.983844
652.000000	99.953260
651.000000	100.066023
650.000000	99.959546
649.000000	99.996488
648.000000	100.008135
647.000000	100.012204
646.000000	99.935327
645.000000	99.953325
644.000000	99.991123
643.000000	99.926149
642.000000	100.061434
641.000000	99.971513
640.000000	99.963634
639.000000	99.986025
638.000000	99.964547
637.000000	99.939495
636.000000	99.955206
635.000000	99.998888
634.000000	99.939418
633.000000	99.906648
632.000000	100.031687
631.000000	99.956083
630.000000	100.009083
629.000000	100.037084
628.000000	99.872982
627.000000	99.956512
626.000000	99.915119
625.000000	99.950932
624.000000	100.000000
623.000000	100.063172
622.000000	99.995734
621.000000	99.975772
620.000000	99.985520
619.000000	99.918816
618.000000	100.007984
617.000000	100.076238
616.000000	100.002507
615.000000	99.981238
614.000000	100.004644
613.000000	100.010216
612.000000	100.034461
611.000000	99.970651
610.000000	99.964432
609.000000	99.968957
608.000000	99.983924
607.000000	99.884571
606.000000	99.985598
605.000000	100.007157
604.000000	99.941285
603.000000	99.980193
602.000000	99.920995
601.000000	99.872908
600.000000	99.935693
599.000000	100.051806
598.000000	100.025493
597.000000	99.940849
596.000000	100.009305
595.000000	100.026430
594.000000	99.983536
593.000000	99.988365
592.000000	99.950224
591.000000	99.913199
590.000000	100.019635
589.000000	99.944727
588.000000	99.895086
587.000000	99.931329
586.000000	99.926466
585.000000	100.002328
584.000000	99.988831
583.000000	99.965192
582.000000	100.008193
581.000000	100.008008
580.000000	99.925086
579.000000	99.987325
578.000000	99.992366
577.000000	99.960343
576.000000	99.934627
575.000000	100.012114
574.000000	99.946900
573.000000	100.007732
572.000000	99.977179
571.000000	99.953801
570.000000	100.010528
569.000000	99.970934
568.000000	99.999534
567.000000	99.964299
566.000000	99.970918
565.000000	100.005592
564.000000	99.983596
563.000000	100.017337
562.000000	99.966544
561.000000	99.978003
560.000000	99.989002
559.000000	99.999068
558.000000	100.040103
557.000000	100.027691
556.000000	100.030400
555.000000	100.016876
554.000000	99.966153
553.000000	100.023508
552.000000	99.960181
551.000000	99.985548
550.000000	99.954785
549.000000	99.978641
548.000000	99.985076
547.000000	99.990484
546.000000	99.972202
545.000000	100.002333
544.000000	100.002146
543.000000	99.971445
542.000000	99.971625
541.000000	100.049478
540.000000	100.040696
539.000000	99.995240
538.000000	99.937855
537.000000	99.992253
536.000000	99.986930
535.000000	99.965273
534.000000	99.904446
533.000000	99.970317
532.000000	100.053313
531.000000	99.978988
530.000000	99.959565
529.000000	100.026715
528.000000	100.002708
527.000000	100.014196
526.000000	100.014382
525.000000	99.985526
524.000000	99.945736
523.000000	99.946936
522.000000	99.931627
521.000000	99.946014
520.000000	99.977675
519.000000	99.951903
518.000000	99.952447
517.000000	99.961222
516.000000	99.937412
515.000000	99.996544
514.000000	100.011118
513.000000	99.996823
512.000000	100.025614
511.000000	100.025049
510.000000	99.992712
509.000000	99.985705
508.000000	99.993088
507.000000	99.960026
506.000000	100.007289
505.000000	100.010277
504.000000	99.971878
503.000000	99.970753
502.000000	100.013360
501.000000	99.997945
500.000000	99.998131
499.000000	99.967481
498.000000	99.950309
497.000000	100.012427
496.000000	100.051950
495.000000	99.961042
494.000000	100.015145
493.000000	100.022530
492.000000	100.006357
491.000000	99.914517
490.000000	99.948617
489.000000	99.904615
488.000000	99.941980
487.000000	100.031594
486.000000	100.009063
485.000000	100.032255
484.000000	100.052491
483.000000	100.030042
482.000000	99.958003
481.000000	99.970998
480.000000	99.982595
479.000000	99.959192
478.000000	99.979306
477.000000	99.962820
476.000000	99.942393
475.000000	99.986134
474.000000	100.009372
473.000000	100.000750
472.000000	99.970477
471.000000	99.949297
470.000000	99.982750
469.000000	99.997843
468.000000	99.934094
467.000000	99.967373
466.000000	99.933909
465.000000	99.950655
464.000000	100.016615
463.000000	100.022709
462.000000	99.957034
461.000000	99.919411
460.000000	99.918653
459.000000	99.879462
458.000000	99.949985
457.000000	100.059053
456.000000	99.989017
455.000000	99.972775
454.000000	100.033425
453.000000	99.933096
452.000000	99.915080
451.000000	100.011077
450.000000	100.031914
449.000000	99.994556
448.000000	99.981413
447.000000	99.965919
446.000000	99.970226
445.000000	99.853481
444.000000	99.852188
443.000000	100.000658
442.000000	100.052553
441.000000	100.042682
440.000000	99.975945
439.000000	99.959310
438.000000	99.997368
437.000000	99.960240
436.000000	99.985990
435.000000	100.004609
434.000000	100.026822
433.000000	100.050160
432.000000	100.058907
431.000000	100.059476
430.000000	99.978827
429.000000	99.961985
428.000000	99.911633
427.000000	99.981641
426.000000	100.039731
425.000000	99.990868
424.000000	99.890896
423.000000	99.967419
422.000000	99.942921
421.000000	100.026569
420.000000	99.986051
419.000000	99.903971
418.000000	99.929485
417.000000	99.939347
416.000000	99.908629
415.000000	99.952628
414.000000	99.875539
413.000000	100.036494
412.000000	99.971444
411.000000	99.951831
410.000000	100.058783
409.000000	99.948521
408.000000	99.982549
407.000000	100.088265
406.000000	100.018401
405.000000	99.992547
404.000000	99.990279
403.000000	100.033138
402.000000	99.901135
401.000000	100.114454
400.000000	99.926666
399.000000	99.922277
398.000000	99.866527
397.000000	100.007083
396.000000	99.988392
395.000000	100.015959
394.000000	100.010112
393.000000	99.888525
392.000000	99.889115
391.000000	99.897423
390.000000	99.930616
389.000000	99.947152
388.000000	100.023448
387.000000	100.044063
386.000000	99.975795
385.000000	99.963672
384.000000	100.076160
383.000000	100.010120
382.000000	99.954987
381.000000	99.826247
380.000000	99.982391
379.000000	100.026284
378.000000	100.208992
377.000000	100.162493
376.000000	99.899471
375.000000	100.257441
374.000000	99.906736
373.000000	99.949883
372.000000	100.230095
371.000000	99.986406
370.000000	99.901510
369.000000	99.852261
368.000000	99.948741
367.000000	100.030860
366.000000	100.009249
365.000000	99.948460
364.000000	100.160694
363.000000	99.959089
362.000000	99.838140
361.000000	99.753311
360.000000	100.087197
359.000000	100.016324
358.000000	99.871015
357.000000	99.736987
356.000000	100.293008
355.000000	100.155569
354.000000	100.152918
353.000000	100.193137
352.000000	100.002358
351.000000	100.079018
350.000000	99.813055
349.000000	100.001317
348.000000	100.079115
347.000000	100.044177
346.000000	100.095738
345.000000	100.207350
344.000000	99.915324
343.000000	100.051231
342.000000	99.767786
341.000000	99.846805
340.000000	100.069124
339.000000	99.964897
338.000000	100.012520
337.000000	99.807278
336.000000	100.144175
335.000000	100.196777
334.000000	100.108943
333.000000	100.073204
332.000000	99.773520
331.000000	100.233335
330.000000	100.741049
329.000000	100.000938
328.000000	99.980838
327.000000	99.856299
326.000000	100.066690
325.000000	100.083381
324.000000	100.536679
323.000000	100.255744
322.000000	99.970108
321.000000	100.166394
320.000000	99.994086
319.000000	100.072567
318.000000	100.037993
317.000000	99.891981
316.000000	100.019319
315.000000	99.795777
314.000000	100.296552
313.000000	100.053142
312.000000	99.880384
311.000000	99.966618
310.000000	100.301958
309.000000	99.874691
308.000000	99.800974
307.000000	99.655799
306.000000	99.961977
305.000000	99.840884
304.000000	100.143751
303.000000	99.882031
302.000000	99.756328
301.000000	99.979645
300.000000	100.020124
299.000000	100.039939
298.000000	99.933700
297.000000	99.684918
296.000000	100.209663
295.000000	99.980529
294.000000	99.972661
293.000000	99.840471
292.000000	99.758868
291.000000	99.538509
290.000000	100.147806
289.000000	100.300970
288.000000	100.129097
287.000000	99.834600
286.000000	99.780620
285.000000	99.912094
284.000000	100.366518
283.000000	100.205759
282.000000	100.097314
281.000000	100.173684
280.000000	100.084427
279.000000	99.916789
278.000000	100.092949
277.000000	100.240785
276.000000	100.069296
275.000000	100.048250
274.000000	99.967823
273.000000	100.112536
272.000000	100.326972
271.000000	99.747221
270.000000	99.867959
269.000000	99.873269
268.000000	99.759318
267.000000	99.902631
266.000000	99.891055
265.000000	99.945191
264.000000	100.030160
263.000000	100.124642
262.000000	99.999118
261.000000	99.920514
260.000000	100.122340
259.000000	100.018073
258.000000	100.039257
257.000000	100.130756
256.000000	99.992915
255.000000	99.852561
254.000000	99.935800
253.000000	99.978726
252.000000	99.903277
251.000000	100.108301
250.000000	100.151279
249.000000	99.760048
248.000000	99.640481
247.000000	99.938823
246.000000	99.923037
245.000000	100.108276
244.000000	100.008382
243.000000	99.815056
242.000000	100.017282
241.000000	100.066259
240.000000	99.922344
239.000000	100.125722
238.000000	100.159246
237.000000	99.847119
236.000000	99.691551
235.000000	99.648671
234.000000	99.902393
233.000000	100.042189
232.000000	99.967063
231.000000	100.020861
230.000000	99.921518
229.000000	99.800586
228.000000	99.959715
227.000000	100.437427
226.000000	100.306044
225.000000	99.843103
224.000000	99.955564
223.000000	99.929068
222.000000	99.890553
221.000000	99.853874
220.000000	99.760746
219.000000	99.790264
218.000000	99.947830
217.000000	100.011902
216.000000	99.910808
215.000000	100.112551
214.000000	99.723805
213.000000	99.457167
212.000000	99.961680
211.000000	99.861680
210.000000	99.941197
209.000000	100.085736
208.000000	100.271534
207.000000	100.023928
206.000000	99.520088
205.000000	99.614282
204.000000	99.740573
203.000000	99.724745
202.000000	99.309879
201.000000	99.926647
200.000000	100.684948
