PE UV       SUBTECH     SPECTRUM    ASCII       PEDS        4.00        
   -1
RDmsopph191.Sample.asc
18/03/19
11:19:27.00
18/03/19
11:19:27.00
Administrator

200.000000
1
Lambda 750
750N8071901
PerkinElmer UV WinLab 6.0.4.0738 / 1.61.00 Lambda 900

0
0
3350/servo 860.8/2
0
0
UV/VIS
1
1
1
CommonBeamDepol,150mm sphere / downward view
0
0
0
0
Program
Program
3350/servo 860.8/2
3350/0.2 860.8/0.2
3350/0.2 860.8/0.2
0
1
 
 
 
0
 
860.8
319.2
860.8
Front
100
on
 
 
0
0
0
 
0
 
 
 
0
 
 
0
0
0
0
0
 
 
 
 
0
0


0
0
#HDR
-1
-1
#GR
nm
%R
1.0
0.0
2350.000000
-1.000000
2151
8
74.088482
18.474488
#DATA
2350.000000	37.041816
2349.000000	37.376632
2348.000000	37.228327
2347.000000	37.625470
2346.000000	37.261594
2345.000000	37.094421
2344.000000	36.779582
2343.000000	37.082094
2342.000000	37.130416
2341.000000	37.094356
2340.000000	37.273237
2339.000000	37.609978
2338.000000	37.842672
2337.000000	37.436691
2336.000000	37.719163
2335.000000	37.703038
2334.000000	37.914738
2333.000000	37.957044
2332.000000	37.934531
2331.000000	37.891387
2330.000000	37.755089
2329.000000	37.734662
2328.000000	37.706953
2327.000000	37.587305
2326.000000	37.685590
2325.000000	37.831682
2324.000000	37.887260
2323.000000	38.075172
2322.000000	37.568545
2321.000000	37.598795
2320.000000	37.492940
2319.000000	37.326437
2318.000000	37.388597
2317.000000	37.627873
2316.000000	37.531001
2315.000000	37.447981
2314.000000	37.262360
2313.000000	37.128415
2312.000000	37.044174
2311.000000	37.234038
2310.000000	37.037774
2309.000000	37.194008
2308.000000	36.707679
2307.000000	36.891713
2306.000000	37.190879
2305.000000	36.898691
2304.000000	36.717479
2303.000000	36.389776
2302.000000	36.674755
2301.000000	36.320640
2300.000000	36.374444
2299.000000	36.420104
2298.000000	36.290992
2297.000000	36.206096
2296.000000	36.117735
2295.000000	35.908649
2294.000000	36.045512
2293.000000	35.919535
2292.000000	35.845995
2291.000000	35.839057
2290.000000	35.802370
2289.000000	35.593668
2288.000000	35.566514
2287.000000	35.768835
2286.000000	35.519680
2285.000000	35.387290
2284.000000	35.437996
2283.000000	35.489300
2282.000000	35.333745
2281.000000	35.397448
2280.000000	35.407493
2279.000000	35.478566
2278.000000	35.595927
2277.000000	35.696175
2276.000000	35.785831
2275.000000	35.555832
2274.000000	35.625978
2273.000000	35.817963
2272.000000	35.982169
2271.000000	35.871019
2270.000000	35.873627
2269.000000	36.018803
2268.000000	35.953058
2267.000000	36.061957
2266.000000	36.290825
2265.000000	36.219727
2264.000000	36.432725
2263.000000	36.543780
2262.000000	36.553947
2261.000000	36.674668
2260.000000	36.886019
2259.000000	37.049957
2258.000000	37.393685
2257.000000	37.687592
2256.000000	37.590945
2255.000000	37.727788
2254.000000	37.911666
2253.000000	37.974035
2252.000000	38.190118
2251.000000	38.397380
2250.000000	38.740113
2249.000000	38.982888
2248.000000	38.992527
2247.000000	39.103327
2246.000000	39.334414
2245.000000	39.552646
2244.000000	39.758686
2243.000000	40.025280
2242.000000	40.160154
2241.000000	40.217342
2240.000000	40.300012
2239.000000	40.400300
2238.000000	40.585663
2237.000000	40.692210
2236.000000	40.867287
2235.000000	41.007222
2234.000000	40.972829
2233.000000	41.024991
2232.000000	41.094385
2231.000000	41.207083
2230.000000	41.375193
2229.000000	41.416870
2228.000000	41.438389
2227.000000	41.464406
2226.000000	41.399433
2225.000000	41.427918
2224.000000	41.486782
2223.000000	41.288466
2222.000000	41.250227
2221.000000	41.242481
2220.000000	41.225860
2219.000000	41.418152
2218.000000	41.289112
2217.000000	41.180674
2216.000000	41.383511
2215.000000	41.406301
2214.000000	41.342959
2213.000000	41.226093
2212.000000	41.100589
2211.000000	40.958051
2210.000000	40.831421
2209.000000	40.733909
2208.000000	40.843119
2207.000000	40.857638
2206.000000	40.632466
2205.000000	40.751839
2204.000000	40.686397
2203.000000	40.601784
2202.000000	40.497277
2201.000000	40.426646
2200.000000	40.397115
2199.000000	40.324052
2198.000000	40.262751
2197.000000	40.174180
2196.000000	40.117095
2195.000000	40.124657
2194.000000	40.054162
2193.000000	39.879972
2192.000000	39.964104
2191.000000	39.789611
2190.000000	39.817650
2189.000000	39.814801
2188.000000	39.716834
2187.000000	39.540156
2186.000000	39.642125
2185.000000	39.575320
2184.000000	39.496246
2183.000000	39.602493
2182.000000	39.489370
2181.000000	39.547720
2180.000000	39.647954
2179.000000	39.523028
2178.000000	39.400151
2177.000000	39.545190
2176.000000	39.553802
2175.000000	39.542296
2174.000000	39.444132
2173.000000	39.412967
2172.000000	39.733712
2171.000000	39.709015
2170.000000	39.740151
2169.000000	39.670231
2168.000000	39.896098
2167.000000	39.909065
2166.000000	40.051369
2165.000000	39.996445
2164.000000	40.118479
2163.000000	40.323727
2162.000000	40.594063
2161.000000	40.537016
2160.000000	40.618242
2159.000000	40.850643
2158.000000	40.893949
2157.000000	40.820081
2156.000000	41.168377
2155.000000	41.239046
2154.000000	41.361343
2153.000000	41.735400
2152.000000	41.846100
2151.000000	41.927672
2150.000000	42.156824
2149.000000	41.970338
2148.000000	42.215677
2147.000000	42.446034
2146.000000	42.341575
2145.000000	42.553303
2144.000000	42.754082
2143.000000	42.802131
2142.000000	42.859000
2141.000000	43.112538
2140.000000	43.344529
2139.000000	43.244676
2138.000000	43.662032
2137.000000	43.620686
2136.000000	43.614189
2135.000000	43.628889
2134.000000	43.794577
2133.000000	43.991224
2132.000000	43.943775
2131.000000	44.290151
2130.000000	44.163950
2129.000000	44.283744
2128.000000	44.172161
2127.000000	44.148159
2126.000000	44.380873
2125.000000	44.447716
2124.000000	44.583751
2123.000000	44.537970
2122.000000	44.469365
2121.000000	44.575335
2120.000000	44.645666
2119.000000	44.688505
2118.000000	44.793362
2117.000000	44.747285
2116.000000	44.794531
2115.000000	44.787251
2114.000000	44.734058
2113.000000	44.895975
2112.000000	44.845866
2111.000000	44.786315
2110.000000	44.898139
2109.000000	44.933976
2108.000000	44.992613
2107.000000	44.985800
2106.000000	44.889517
2105.000000	44.818780
2104.000000	45.054793
2103.000000	44.970253
2102.000000	44.953156
2101.000000	45.079713
2100.000000	44.984775
2099.000000	45.008953
2098.000000	45.131506
2097.000000	45.074163
2096.000000	45.174491
2095.000000	45.043642
2094.000000	45.088518
2093.000000	45.034673
2092.000000	45.090440
2091.000000	45.004447
2090.000000	44.978605
2089.000000	44.966699
2088.000000	44.980988
2087.000000	45.024935
2086.000000	45.019745
2085.000000	45.041254
2084.000000	44.846724
2083.000000	44.820882
2082.000000	44.807248
2081.000000	44.664776
2080.000000	44.677312
2079.000000	44.676562
2078.000000	44.536686
2077.000000	44.484936
2076.000000	44.426795
2075.000000	44.307672
2074.000000	44.306211
2073.000000	44.157331
2072.000000	44.036168
2071.000000	43.984500
2070.000000	43.909669
2069.000000	43.720631
2068.000000	43.640465
2067.000000	43.462674
2066.000000	43.269930
2065.000000	43.208833
2064.000000	43.150199
2063.000000	42.993853
2062.000000	42.853801
2061.000000	42.687143
2060.000000	42.483290
2059.000000	42.400647
2058.000000	42.288934
2057.000000	42.144881
2056.000000	42.002117
2055.000000	41.866861
2054.000000	41.794812
2053.000000	41.623202
2052.000000	41.459806
2051.000000	41.376388
2050.000000	41.347854
2049.000000	41.266389
2048.000000	41.096234
2047.000000	41.038023
2046.000000	40.949038
2045.000000	40.944231
2044.000000	40.950899
2043.000000	40.885204
2042.000000	40.828794
2041.000000	40.892979
2040.000000	40.915701
2039.000000	40.881598
2038.000000	40.968482
2037.000000	41.044030
2036.000000	41.057562
2035.000000	41.128682
2034.000000	41.188732
2033.000000	41.267713
2032.000000	41.377437
2031.000000	41.423849
2030.000000	41.538262
2029.000000	41.671364
2028.000000	41.755698
2027.000000	41.838713
2026.000000	41.946307
2025.000000	41.991831
2024.000000	42.042295
2023.000000	42.138554
2022.000000	42.214790
2021.000000	42.217288
2020.000000	42.241860
2019.000000	42.268175
2018.000000	42.271825
2017.000000	42.248203
2016.000000	42.256022
2015.000000	42.286254
2014.000000	42.272382
2013.000000	42.277040
2012.000000	42.237542
2011.000000	42.160961
2010.000000	42.118942
2009.000000	42.033914
2008.000000	41.965535
2007.000000	41.921735
2006.000000	41.785954
2005.000000	41.688432
2004.000000	41.637407
2003.000000	41.603785
2002.000000	41.503449
2001.000000	41.358231
2000.000000	41.289308
1999.000000	41.205845
1998.000000	41.139776
1997.000000	41.064711
1996.000000	40.986418
1995.000000	40.860704
1994.000000	40.721266
1993.000000	40.642592
1992.000000	40.539522
1991.000000	40.426390
1990.000000	40.312656
1989.000000	40.231069
1988.000000	40.157470
1987.000000	40.039307
1986.000000	39.921828
1985.000000	39.842883
1984.000000	39.753002
1983.000000	39.672059
1982.000000	39.578678
1981.000000	39.508597
1980.000000	39.399903
1979.000000	39.276006
1978.000000	39.194368
1977.000000	39.100501
1976.000000	38.992666
1975.000000	38.917425
1974.000000	38.854620
1973.000000	38.762727
1972.000000	38.643928
1971.000000	38.517353
1970.000000	38.411531
1969.000000	38.298670
1968.000000	38.230493
1967.000000	38.180393
1966.000000	38.141592
1965.000000	37.987189
1964.000000	37.898412
1963.000000	37.794694
1962.000000	37.684138
1961.000000	37.648392
1960.000000	37.650273
1959.000000	37.519850
1958.000000	37.474346
1957.000000	37.416462
1956.000000	37.322250
1955.000000	37.240408
1954.000000	37.196020
1953.000000	37.124807
1952.000000	37.127339
1951.000000	37.142674
1950.000000	36.993496
1949.000000	36.963533
1948.000000	36.989122
1947.000000	36.916462
1946.000000	36.892304
1945.000000	36.951523
1944.000000	36.922382
1943.000000	37.023372
1942.000000	37.019846
1941.000000	36.960141
1940.000000	37.041795
1939.000000	37.077470
1938.000000	37.139586
1937.000000	37.220034
1936.000000	37.397909
1935.000000	37.376658
1934.000000	37.526521
1933.000000	37.656542
1932.000000	37.694355
1931.000000	37.956098
1930.000000	38.132372
1929.000000	38.224288
1928.000000	38.457839
1927.000000	38.670349
1926.000000	38.835732
1925.000000	39.052595
1924.000000	39.211313
1923.000000	39.453346
1922.000000	39.722730
1921.000000	40.058644
1920.000000	40.230548
1919.000000	40.519571
1918.000000	40.814274
1917.000000	41.097576
1916.000000	41.361161
1915.000000	41.753761
1914.000000	42.012509
1913.000000	42.464260
1912.000000	42.714973
1911.000000	43.101148
1910.000000	43.486183
1909.000000	43.891656
1908.000000	44.316614
1907.000000	44.786060
1906.000000	45.183170
1905.000000	45.581155
1904.000000	45.981660
1903.000000	46.490068
1902.000000	46.872712
1901.000000	47.380792
1900.000000	47.910095
1899.000000	48.379009
1898.000000	48.908584
1897.000000	49.347967
1896.000000	49.825861
1895.000000	50.371305
1894.000000	50.787803
1893.000000	51.267525
1892.000000	51.744588
1891.000000	52.182752
1890.000000	52.589048
1889.000000	53.094260
1888.000000	53.451302
1887.000000	53.890737
1886.000000	54.318269
1885.000000	54.772258
1884.000000	55.104110
1883.000000	55.482784
1882.000000	55.787142
1881.000000	56.132677
1880.000000	56.427613
1879.000000	56.714552
1878.000000	57.075333
1877.000000	57.340172
1876.000000	57.562146
1875.000000	57.824092
1874.000000	58.057168
1873.000000	58.267160
1872.000000	58.461403
1871.000000	58.691965
1870.000000	58.863506
1869.000000	58.970767
1868.000000	59.127130
1867.000000	59.243314
1866.000000	59.385135
1865.000000	59.508856
1864.000000	59.581439
1863.000000	59.687510
1862.000000	59.785116
1861.000000	59.816970
1860.000000	59.893914
1859.000000	59.954785
1858.000000	60.003101
1857.000000	60.012743
1856.000000	60.037840
1855.000000	60.171569
1854.000000	60.220714
1853.000000	60.237294
1852.000000	60.265734
1851.000000	60.289901
1850.000000	60.304510
1849.000000	60.302016
1848.000000	60.310001
1847.000000	60.295156
1846.000000	60.276210
1845.000000	60.270414
1844.000000	60.261766
1843.000000	60.258252
1842.000000	60.265073
1841.000000	60.281149
1840.000000	60.224875
1839.000000	60.185726
1838.000000	60.193323
1837.000000	60.158970
1836.000000	60.145512
1835.000000	60.120246
1834.000000	60.075452
1833.000000	60.017986
1832.000000	59.968278
1831.000000	59.906274
1830.000000	59.873869
1829.000000	59.869617
1828.000000	59.864111
1827.000000	59.820704
1826.000000	59.791230
1825.000000	59.755981
1824.000000	59.722752
1823.000000	59.704299
1822.000000	59.668215
1821.000000	59.659746
1820.000000	59.624917
1819.000000	59.561369
1818.000000	59.554980
1817.000000	59.558537
1816.000000	59.502989
1815.000000	59.451272
1814.000000	59.450028
1813.000000	59.426939
1812.000000	59.373578
1811.000000	59.339758
1810.000000	59.333245
1809.000000	59.315396
1808.000000	59.253909
1807.000000	59.213386
1806.000000	59.208821
1805.000000	59.185036
1804.000000	59.136102
1803.000000	59.112054
1802.000000	59.098474
1801.000000	59.078571
1800.000000	59.046725
1799.000000	59.025211
1798.000000	58.986442
1797.000000	58.969218
1796.000000	58.970547
1795.000000	58.944772
1794.000000	58.929668
1793.000000	58.902549
1792.000000	58.873892
1791.000000	58.882590
1790.000000	58.862924
1789.000000	58.852148
1788.000000	58.837984
1787.000000	58.820234
1786.000000	58.787094
1785.000000	58.759531
1784.000000	58.759583
1783.000000	58.738442
1782.000000	58.715241
1781.000000	58.691041
1780.000000	58.647109
1779.000000	58.622702
1778.000000	58.581313
1777.000000	58.551153
1776.000000	58.519411
1775.000000	58.447862
1774.000000	58.424085
1773.000000	58.384161
1772.000000	58.344107
1771.000000	58.297279
1770.000000	58.218117
1769.000000	58.190819
1768.000000	58.174944
1767.000000	58.121943
1766.000000	58.086533
1765.000000	58.028668
1764.000000	58.020068
1763.000000	57.961775
1762.000000	57.888880
1761.000000	57.862464
1760.000000	57.827486
1759.000000	57.767963
1758.000000	57.754769
1757.000000	57.696983
1756.000000	57.642498
1755.000000	57.640917
1754.000000	57.601855
1753.000000	57.556241
1752.000000	57.502307
1751.000000	57.467487
1750.000000	57.421548
1749.000000	57.389781
1748.000000	57.343159
1747.000000	57.289868
1746.000000	57.274080
1745.000000	57.193414
1744.000000	57.165141
1743.000000	57.116291
1742.000000	57.074176
1741.000000	57.044890
1740.000000	57.023406
1739.000000	56.985382
1738.000000	56.930769
1737.000000	56.928867
1736.000000	56.936216
1735.000000	56.908792
1734.000000	56.906630
1733.000000	56.852887
1732.000000	56.868858
1731.000000	56.887126
1730.000000	56.889065
1729.000000	56.955524
1728.000000	57.013494
1727.000000	57.061826
1726.000000	57.099088
1725.000000	57.183890
1724.000000	57.247104
1723.000000	57.337481
1722.000000	57.433640
1721.000000	57.489190
1720.000000	57.578649
1719.000000	57.683128
1718.000000	57.752477
1717.000000	57.867148
1716.000000	57.999758
1715.000000	58.076700
1714.000000	58.137831
1713.000000	58.167059
1712.000000	58.293392
1711.000000	58.387152
1710.000000	58.452474
1709.000000	58.507886
1708.000000	58.542624
1707.000000	58.584687
1706.000000	58.630106
1705.000000	58.631304
1704.000000	58.683285
1703.000000	58.682286
1702.000000	58.693826
1701.000000	58.733490
1700.000000	58.773110
1699.000000	58.783953
1698.000000	58.787681
1697.000000	58.840965
1696.000000	58.877696
1695.000000	58.873354
1694.000000	58.943528
1693.000000	58.971503
1692.000000	58.990424
1691.000000	59.057631
1690.000000	59.153052
1689.000000	59.224648
1688.000000	59.302454
1687.000000	59.389526
1686.000000	59.492125
1685.000000	59.593434
1684.000000	59.747338
1683.000000	59.894225
1682.000000	60.017940
1681.000000	60.168198
1680.000000	60.309979
1679.000000	60.473619
1678.000000	60.657758
1677.000000	60.758740
1676.000000	60.925323
1675.000000	61.125386
1674.000000	61.276472
1673.000000	61.411493
1672.000000	61.562042
1671.000000	61.678918
1670.000000	61.837729
1669.000000	61.988200
1668.000000	62.105673
1667.000000	62.225479
1666.000000	62.315240
1665.000000	62.402929
1664.000000	62.512883
1663.000000	62.594732
1662.000000	62.642819
1661.000000	62.727485
1660.000000	62.804762
1659.000000	62.847841
1658.000000	62.883556
1657.000000	62.927086
1656.000000	62.946179
1655.000000	62.977382
1654.000000	63.013365
1653.000000	63.041147
1652.000000	63.046094
1651.000000	63.031013
1650.000000	63.043432
1649.000000	63.032543
1648.000000	63.007058
1647.000000	63.015796
1646.000000	63.012503
1645.000000	63.042200
1644.000000	63.007015
1643.000000	63.003314
1642.000000	62.979546
1641.000000	62.960489
1640.000000	62.926684
1639.000000	62.924829
1638.000000	62.891537
1637.000000	62.853486
1636.000000	62.809546
1635.000000	62.806810
1634.000000	62.775376
1633.000000	62.734019
1632.000000	62.690721
1631.000000	62.659523
1630.000000	62.628633
1629.000000	62.608363
1628.000000	62.582415
1627.000000	62.547204
1626.000000	62.489263
1625.000000	62.434737
1624.000000	62.394360
1623.000000	62.366901
1622.000000	62.343536
1621.000000	62.306665
1620.000000	62.266291
1619.000000	62.210305
1618.000000	62.154613
1617.000000	62.106183
1616.000000	62.062723
1615.000000	62.019865
1614.000000	61.964991
1613.000000	61.905710
1612.000000	61.861020
1611.000000	61.810523
1610.000000	61.759645
1609.000000	61.716893
1608.000000	61.674298
1607.000000	61.622682
1606.000000	61.544193
1605.000000	61.498536
1604.000000	61.451356
1603.000000	61.383016
1602.000000	61.333359
1601.000000	61.282915
1600.000000	61.239596
1599.000000	61.177167
1598.000000	61.112177
1597.000000	61.071847
1596.000000	61.019043
1595.000000	60.984716
1594.000000	60.936288
1593.000000	60.898985
1592.000000	60.851827
1591.000000	60.797672
1590.000000	60.762546
1589.000000	60.708089
1588.000000	60.660858
1587.000000	60.645348
1586.000000	60.620967
1585.000000	60.573183
1584.000000	60.518392
1583.000000	60.468242
1582.000000	60.434444
1581.000000	60.406498
1580.000000	60.349496
1579.000000	60.308146
1578.000000	60.306475
1577.000000	60.256029
1576.000000	60.202727
1575.000000	60.166580
1574.000000	60.127441
1573.000000	60.088290
1572.000000	60.061737
1571.000000	60.029640
1570.000000	59.988224
1569.000000	59.945692
1568.000000	59.912745
1567.000000	59.873880
1566.000000	59.843768
1565.000000	59.826292
1564.000000	59.809399
1563.000000	59.794168
1562.000000	59.764474
1561.000000	59.750397
1560.000000	59.737259
1559.000000	59.701706
1558.000000	59.684320
1557.000000	59.671139
1556.000000	59.653466
1555.000000	59.623187
1554.000000	59.596814
1553.000000	59.581884
1552.000000	59.574572
1551.000000	59.561946
1550.000000	59.545150
1549.000000	59.488989
1548.000000	59.447977
1547.000000	59.405454
1546.000000	59.366073
1545.000000	59.329028
1544.000000	59.230223
1543.000000	59.173759
1542.000000	59.128525
1541.000000	59.056786
1540.000000	58.988472
1539.000000	58.898947
1538.000000	58.851289
1537.000000	58.768306
1536.000000	58.694785
1535.000000	58.614923
1534.000000	58.523385
1533.000000	58.469872
1532.000000	58.412688
1531.000000	58.319141
1530.000000	58.252119
1529.000000	58.189638
1528.000000	58.111621
1527.000000	58.066274
1526.000000	58.033302
1525.000000	57.961997
1524.000000	57.894037
1523.000000	57.849323
1522.000000	57.810114
1521.000000	57.770897
1520.000000	57.746575
1519.000000	57.715033
1518.000000	57.681417
1517.000000	57.637841
1516.000000	57.632411
1515.000000	57.596270
1514.000000	57.573196
1513.000000	57.567459
1512.000000	57.539524
1511.000000	57.521527
1510.000000	57.526845
1509.000000	57.488197
1508.000000	57.467468
1507.000000	57.463449
1506.000000	57.483902
1505.000000	57.463997
1504.000000	57.468656
1503.000000	57.455237
1502.000000	57.453914
1501.000000	57.443688
1500.000000	57.451207
1499.000000	57.423673
1498.000000	57.455839
1497.000000	57.448128
1496.000000	57.479208
1495.000000	57.486961
1494.000000	57.488512
1493.000000	57.503232
1492.000000	57.509519
1491.000000	57.542157
1490.000000	57.562264
1489.000000	57.594987
1488.000000	57.636460
1487.000000	57.656382
1486.000000	57.687827
1485.000000	57.724160
1484.000000	57.748433
1483.000000	57.810921
1482.000000	57.849626
1481.000000	57.887625
1480.000000	57.926681
1479.000000	57.967951
1478.000000	57.998570
1477.000000	58.056332
1476.000000	58.089350
1475.000000	58.126200
1474.000000	58.161417
1473.000000	58.194743
1472.000000	58.240684
1471.000000	58.303533
1470.000000	58.336757
1469.000000	58.371429
1468.000000	58.413278
1467.000000	58.467437
1466.000000	58.486591
1465.000000	58.530881
1464.000000	58.575983
1463.000000	58.628403
1462.000000	58.690720
1461.000000	58.713907
1460.000000	58.750519
1459.000000	58.828106
1458.000000	58.858294
1457.000000	58.896987
1456.000000	58.948554
1455.000000	59.024067
1454.000000	59.064166
1453.000000	59.138456
1452.000000	59.203259
1451.000000	59.269109
1450.000000	59.332059
1449.000000	59.380816
1448.000000	59.454509
1447.000000	59.544940
1446.000000	59.609068
1445.000000	59.698046
1444.000000	59.783293
1443.000000	59.856201
1442.000000	59.947587
1441.000000	60.032470
1440.000000	60.120604
1439.000000	60.198207
1438.000000	60.309050
1437.000000	60.418198
1436.000000	60.526468
1435.000000	60.632063
1434.000000	60.710401
1433.000000	60.823876
1432.000000	60.950762
1431.000000	61.071155
1430.000000	61.192296
1429.000000	61.326418
1428.000000	61.466806
1427.000000	61.606105
1426.000000	61.735465
1425.000000	61.871511
1424.000000	62.011482
1423.000000	62.166263
1422.000000	62.329544
1421.000000	62.488232
1420.000000	62.642207
1419.000000	62.801909
1418.000000	62.973851
1417.000000	63.133239
1416.000000	63.292639
1415.000000	63.466955
1414.000000	63.654113
1413.000000	63.831670
1412.000000	63.991018
1411.000000	64.160042
1410.000000	64.341541
1409.000000	64.533773
1408.000000	64.698775
1407.000000	64.880323
1406.000000	65.066067
1405.000000	65.227108
1404.000000	65.379266
1403.000000	65.537381
1402.000000	65.705642
1401.000000	65.866434
1400.000000	66.017979
1399.000000	66.163653
1398.000000	66.315008
1397.000000	66.457500
1396.000000	66.602945
1395.000000	66.757179
1394.000000	66.890628
1393.000000	67.030991
1392.000000	67.150610
1391.000000	67.276983
1390.000000	67.397281
1389.000000	67.531011
1388.000000	67.663041
1387.000000	67.724975
1386.000000	67.805459
1385.000000	67.921680
1384.000000	68.032692
1383.000000	68.116348
1382.000000	68.189281
1381.000000	68.272058
1380.000000	68.346358
1379.000000	68.406705
1378.000000	68.488484
1377.000000	68.560420
1376.000000	68.621099
1375.000000	68.677698
1374.000000	68.739604
1373.000000	68.812083
1372.000000	68.858258
1371.000000	68.905350
1370.000000	68.959134
1369.000000	69.010268
1368.000000	69.060025
1367.000000	69.094595
1366.000000	69.140810
1365.000000	69.191791
1364.000000	69.231624
1363.000000	69.281866
1362.000000	69.333217
1361.000000	69.381614
1360.000000	69.421507
1359.000000	69.466029
1358.000000	69.526686
1357.000000	69.577699
1356.000000	69.640965
1355.000000	69.697987
1354.000000	69.739335
1353.000000	69.767651
1352.000000	69.837954
1351.000000	69.904747
1350.000000	69.940086
1349.000000	69.989385
1348.000000	70.048402
1347.000000	70.103442
1346.000000	70.154608
1345.000000	70.209443
1344.000000	70.266519
1343.000000	70.315768
1342.000000	70.359331
1341.000000	70.399445
1340.000000	70.438831
1339.000000	70.474936
1338.000000	70.520045
1337.000000	70.567951
1336.000000	70.630774
1335.000000	70.661585
1334.000000	70.705735
1333.000000	70.740239
1332.000000	70.763514
1331.000000	70.781827
1330.000000	70.822868
1329.000000	70.838047
1328.000000	70.847245
1327.000000	70.871098
1326.000000	70.897712
1325.000000	70.930169
1324.000000	70.961999
1323.000000	70.962278
1322.000000	70.970484
1321.000000	70.980000
1320.000000	71.012339
1319.000000	71.033367
1318.000000	71.033885
1317.000000	71.070625
1316.000000	71.061688
1315.000000	71.079121
1314.000000	71.090670
1313.000000	71.097254
1312.000000	71.150957
1311.000000	71.151886
1310.000000	71.147681
1309.000000	71.169072
1308.000000	71.166289
1307.000000	71.203637
1306.000000	71.204177
1305.000000	71.237174
1304.000000	71.241262
1303.000000	71.259021
1302.000000	71.270346
1301.000000	71.276618
1300.000000	71.287021
1299.000000	71.280019
1298.000000	71.311486
1297.000000	71.317991
1296.000000	71.329344
1295.000000	71.320479
1294.000000	71.326800
1293.000000	71.313727
1292.000000	71.326991
1291.000000	71.321956
1290.000000	71.326866
1289.000000	71.329928
1288.000000	71.344955
1287.000000	71.340581
1286.000000	71.320452
1285.000000	71.332832
1284.000000	71.353476
1283.000000	71.348133
1282.000000	71.327112
1281.000000	71.347655
1280.000000	71.338881
1279.000000	71.351291
1278.000000	71.344147
1277.000000	71.346526
1276.000000	71.324880
1275.000000	71.325982
1274.000000	71.349792
1273.000000	71.353129
1272.000000	71.337807
1271.000000	71.349387
1270.000000	71.364751
1269.000000	71.388296
1268.000000	71.376615
1267.000000	71.406782
1266.000000	71.394342
1265.000000	71.383478
1264.000000	71.404204
1263.000000	71.409722
1262.000000	71.438102
1261.000000	71.449027
1260.000000	71.437463
1259.000000	71.447683
1258.000000	71.453328
1257.000000	71.447710
1256.000000	71.472191
1255.000000	71.488979
1254.000000	71.474243
1253.000000	71.506738
1252.000000	71.535061
1251.000000	71.496193
1250.000000	71.532380
1249.000000	71.516382
1248.000000	71.515675
1247.000000	71.497889
1246.000000	71.517082
1245.000000	71.520165
1244.000000	71.505440
1243.000000	71.488466
1242.000000	71.501500
1241.000000	71.489199
1240.000000	71.481279
1239.000000	71.491543
1238.000000	71.474263
1237.000000	71.435380
1236.000000	71.450539
1235.000000	71.436202
1234.000000	71.424836
1233.000000	71.431153
1232.000000	71.400906
1231.000000	71.395484
1230.000000	71.391244
1229.000000	71.366156
1228.000000	71.356029
1227.000000	71.339370
1226.000000	71.360952
1225.000000	71.334316
1224.000000	71.303641
1223.000000	71.292181
1222.000000	71.279751
1221.000000	71.276179
1220.000000	71.255723
1219.000000	71.212407
1218.000000	71.212450
1217.000000	71.202731
1216.000000	71.177460
1215.000000	71.149973
1214.000000	71.115108
1213.000000	71.087907
1212.000000	71.067824
1211.000000	71.056889
1210.000000	71.051746
1209.000000	71.023634
1208.000000	70.971794
1207.000000	70.945370
1206.000000	70.949774
1205.000000	70.914831
1204.000000	70.868659
1203.000000	70.900576
1202.000000	70.867263
1201.000000	70.810405
1200.000000	70.812000
1199.000000	70.793009
1198.000000	70.773940
1197.000000	70.752667
1196.000000	70.733587
1195.000000	70.718271
1194.000000	70.709160
1193.000000	70.698207
1192.000000	70.690388
1191.000000	70.673318
1190.000000	70.673507
1189.000000	70.662625
1188.000000	70.658196
1187.000000	70.661796
1186.000000	70.671350
1185.000000	70.675722
1184.000000	70.674855
1183.000000	70.693088
1182.000000	70.724279
1181.000000	70.731874
1180.000000	70.750362
1179.000000	70.783269
1178.000000	70.818732
1177.000000	70.856633
1176.000000	70.874781
1175.000000	70.911217
1174.000000	70.966369
1173.000000	71.025179
1172.000000	71.072436
1171.000000	71.101392
1170.000000	71.144485
1169.000000	71.201383
1168.000000	71.255029
1167.000000	71.314979
1166.000000	71.368541
1165.000000	71.423730
1164.000000	71.484351
1163.000000	71.540352
1162.000000	71.600827
1161.000000	71.663408
1160.000000	71.709786
1159.000000	71.753811
1158.000000	71.827561
1157.000000	71.893496
1156.000000	71.933405
1155.000000	71.980840
1154.000000	72.037097
1153.000000	72.078343
1152.000000	72.118488
1151.000000	72.166970
1150.000000	72.216321
1149.000000	72.255393
1148.000000	72.294464
1147.000000	72.346292
1146.000000	72.380963
1145.000000	72.397446
1144.000000	72.441695
1143.000000	72.489293
1142.000000	72.518801
1141.000000	72.556620
1140.000000	72.586173
1139.000000	72.621020
1138.000000	72.636279
1137.000000	72.665688
1136.000000	72.702069
1135.000000	72.738197
1134.000000	72.784003
1133.000000	72.818001
1132.000000	72.838880
1131.000000	72.866545
1130.000000	72.906351
1129.000000	72.912648
1128.000000	72.921808
1127.000000	72.931930
1126.000000	72.966814
1125.000000	72.982454
1124.000000	72.995211
1123.000000	73.025398
1122.000000	73.031076
1121.000000	73.053251
1120.000000	73.057423
1119.000000	73.068262
1118.000000	73.074576
1117.000000	73.076092
1116.000000	73.090418
1115.000000	73.092024
1114.000000	73.112076
1113.000000	73.136597
1112.000000	73.139320
1111.000000	73.132551
1110.000000	73.146284
1109.000000	73.165329
1108.000000	73.167231
1107.000000	73.170101
1106.000000	73.183504
1105.000000	73.178621
1104.000000	73.202311
1103.000000	73.208670
1102.000000	73.193604
1101.000000	73.204823
1100.000000	73.197288
1099.000000	73.215268
1098.000000	73.234405
1097.000000	73.237738
1096.000000	73.231710
1095.000000	73.246884
1094.000000	73.245967
1093.000000	73.244706
1092.000000	73.233476
1091.000000	73.255772
1090.000000	73.259109
1089.000000	73.270223
1088.000000	73.269248
1087.000000	73.278761
1086.000000	73.267492
1085.000000	73.275359
1084.000000	73.278361
1083.000000	73.289859
1082.000000	73.284775
1081.000000	73.294091
1080.000000	73.269610
1079.000000	73.268807
1078.000000	73.275291
1077.000000	73.277013
1076.000000	73.291342
1075.000000	73.289708
1074.000000	73.294337
1073.000000	73.289405
1072.000000	73.295934
1071.000000	73.289597
1070.000000	73.284155
1069.000000	73.295322
1068.000000	73.297666
1067.000000	73.305776
1066.000000	73.284636
1065.000000	73.278039
1064.000000	73.307553
1063.000000	73.308060
1062.000000	73.286712
1061.000000	73.290089
1060.000000	73.303257
1059.000000	73.292563
1058.000000	73.278870
1057.000000	73.298411
1056.000000	73.289361
1055.000000	73.282361
1054.000000	73.275842
1053.000000	73.293495
1052.000000	73.283815
1051.000000	73.286930
1050.000000	73.284688
1049.000000	73.294849
1048.000000	73.300615
1047.000000	73.303200
1046.000000	73.287733
1045.000000	73.273588
1044.000000	73.291291
1043.000000	73.266176
1042.000000	73.272755
1041.000000	73.281427
1040.000000	73.270470
1039.000000	73.257249
1038.000000	73.264627
1037.000000	73.266008
1036.000000	73.265669
1035.000000	73.299117
1034.000000	73.276209
1033.000000	73.254659
1032.000000	73.273623
1031.000000	73.268233
1030.000000	73.268197
1029.000000	73.271376
1028.000000	73.258520
1027.000000	73.248001
1026.000000	73.255026
1025.000000	73.273899
1024.000000	73.268785
1023.000000	73.265586
1022.000000	73.265885
1021.000000	73.248986
1020.000000	73.248418
1019.000000	73.270998
1018.000000	73.255430
1017.000000	73.279666
1016.000000	73.260836
1015.000000	73.258861
1014.000000	73.276319
1013.000000	73.270467
1012.000000	73.286663
1011.000000	73.288198
1010.000000	73.294124
1009.000000	73.286155
1008.000000	73.278240
1007.000000	73.297236
1006.000000	73.287198
1005.000000	73.318941
1004.000000	73.324578
1003.000000	73.297384
1002.000000	73.295771
1001.000000	73.301893
1000.000000	73.322040
999.000000	73.315261
998.000000	73.328044
997.000000	73.352542
996.000000	73.353225
995.000000	73.352784
994.000000	73.348942
993.000000	73.349720
992.000000	73.349953
991.000000	73.356335
990.000000	73.375244
989.000000	73.372114
988.000000	73.389152
987.000000	73.388402
986.000000	73.390762
985.000000	73.421770
984.000000	73.417759
983.000000	73.424912
982.000000	73.441629
981.000000	73.440299
980.000000	73.450920
979.000000	73.465620
978.000000	73.465589
977.000000	73.476036
976.000000	73.495860
975.000000	73.503489
974.000000	73.521346
973.000000	73.540942
972.000000	73.543243
971.000000	73.540164
970.000000	73.556638
969.000000	73.560529
968.000000	73.562533
967.000000	73.564591
966.000000	73.590861
965.000000	73.584368
964.000000	73.584261
963.000000	73.608670
962.000000	73.608347
961.000000	73.610262
960.000000	73.626084
959.000000	73.641444
958.000000	73.664184
957.000000	73.668240
956.000000	73.663943
955.000000	73.660895
954.000000	73.673906
953.000000	73.683242
952.000000	73.699500
951.000000	73.713363
950.000000	73.737732
949.000000	73.746791
948.000000	73.749817
947.000000	73.750761
946.000000	73.751517
945.000000	73.771206
944.000000	73.776524
943.000000	73.782027
942.000000	73.799926
941.000000	73.791470
940.000000	73.790948
939.000000	73.790206
938.000000	73.779129
937.000000	73.793421
936.000000	73.792761
935.000000	73.773622
934.000000	73.795951
933.000000	73.810465
932.000000	73.791538
931.000000	73.812674
930.000000	73.854660
929.000000	73.846792
928.000000	73.794753
927.000000	73.785693
926.000000	73.780052
925.000000	73.793085
924.000000	73.798470
923.000000	73.814543
922.000000	73.813760
921.000000	73.791451
920.000000	73.773112
919.000000	73.776870
918.000000	73.797974
917.000000	73.827310
916.000000	73.821746
915.000000	73.815921
914.000000	73.828493
913.000000	73.813671
912.000000	73.783678
911.000000	73.781043
910.000000	73.775147
909.000000	73.801952
908.000000	73.782926
907.000000	73.797956
906.000000	73.809570
905.000000	73.797634
904.000000	73.795978
903.000000	73.828246
902.000000	73.803947
901.000000	73.834646
900.000000	73.799837
899.000000	73.848829
898.000000	73.902911
897.000000	73.843429
896.000000	73.846681
895.000000	73.848423
894.000000	73.856590
893.000000	73.861844
892.000000	73.945180
891.000000	73.935743
890.000000	73.883266
889.000000	73.887293
888.000000	73.902984
887.000000	73.936917
886.000000	73.929760
885.000000	73.990438
884.000000	73.963145
883.000000	73.969097
882.000000	73.931863
881.000000	73.934189
880.000000	74.009978
879.000000	73.915620
878.000000	73.903719
877.000000	73.884526
876.000000	73.958077
875.000000	73.859898
874.000000	73.917968
873.000000	73.945956
872.000000	73.892535
871.000000	74.079176
870.000000	74.088482
869.000000	74.042143
868.000000	73.930699
867.000000	74.007165
866.000000	74.019811
865.000000	74.000190
864.000000	73.945992
863.000000	73.860052
862.000000	73.905834
861.000000	73.957343
860.000000	73.966562
859.000000	73.071668
858.000000	73.150445
857.000000	72.950257
856.000000	73.683529
855.000000	73.521685
854.000000	73.400570
853.000000	73.397617
852.000000	72.991871
851.000000	73.388604
850.000000	73.507284
849.000000	72.980244
848.000000	73.327570
847.000000	73.245532
846.000000	73.119492
845.000000	73.559195
844.000000	73.155537
843.000000	73.588329
842.000000	73.348609
841.000000	73.340326
840.000000	73.003897
839.000000	73.304214
838.000000	73.014005
837.000000	73.186610
836.000000	73.189837
835.000000	73.198021
834.000000	73.248166
833.000000	73.507637
832.000000	73.298863
831.000000	73.279305
830.000000	73.262577
829.000000	73.138698
828.000000	72.998758
827.000000	73.226436
826.000000	73.124298
825.000000	73.143781
824.000000	72.992280
823.000000	73.087494
822.000000	73.308495
821.000000	72.982465
820.000000	73.061360
819.000000	73.049295
818.000000	73.289844
817.000000	73.239623
816.000000	73.317410
815.000000	73.166064
814.000000	72.913981
813.000000	73.016115
812.000000	73.019992
811.000000	73.034072
810.000000	73.115137
809.000000	72.910845
808.000000	73.091577
807.000000	73.168543
806.000000	72.935794
805.000000	73.054728
804.000000	73.077028
803.000000	73.072183
802.000000	73.098936
801.000000	73.087220
800.000000	73.092711
799.000000	72.942313
798.000000	72.909849
797.000000	72.962802
796.000000	72.789457
795.000000	72.876400
794.000000	73.002726
793.000000	72.959757
792.000000	72.911977
791.000000	72.954994
790.000000	72.944197
789.000000	73.000390
788.000000	73.052046
787.000000	72.969198
786.000000	72.943424
785.000000	72.862438
784.000000	72.904251
783.000000	72.949070
782.000000	72.968112
781.000000	72.951016
780.000000	72.890856
779.000000	72.841067
778.000000	72.809069
777.000000	72.812981
776.000000	72.933989
775.000000	72.860418
774.000000	72.852273
773.000000	72.860803
772.000000	72.784542
771.000000	72.768066
770.000000	72.779195
769.000000	72.805285
768.000000	72.746236
767.000000	72.763887
766.000000	72.692161
765.000000	72.772407
764.000000	72.653153
763.000000	72.629680
762.000000	72.565678
761.000000	72.693466
760.000000	72.677147
759.000000	72.625547
758.000000	72.710035
757.000000	72.701807
756.000000	72.662635
755.000000	72.644603
754.000000	72.571490
753.000000	72.519363
752.000000	72.546935
751.000000	72.435768
750.000000	72.431553
749.000000	72.453177
748.000000	72.459986
747.000000	72.468119
746.000000	72.526422
745.000000	72.502813
744.000000	72.381217
743.000000	72.394737
742.000000	72.446325
741.000000	72.358727
740.000000	72.313062
739.000000	72.357909
738.000000	72.361902
737.000000	72.343548
736.000000	72.230544
735.000000	72.275535
734.000000	72.282241
733.000000	72.318553
732.000000	72.184638
731.000000	72.133339
730.000000	72.186326
729.000000	72.217552
728.000000	72.197759
727.000000	72.203398
726.000000	72.057475
725.000000	71.982404
724.000000	72.001484
723.000000	72.043532
722.000000	72.005899
721.000000	72.016948
720.000000	71.997081
719.000000	71.906228
718.000000	71.913396
717.000000	71.935875
716.000000	71.852452
715.000000	71.887405
714.000000	71.862405
713.000000	71.765124
712.000000	71.808357
711.000000	71.867895
710.000000	71.803045
709.000000	71.673469
708.000000	71.611211
707.000000	71.591149
706.000000	71.561923
705.000000	71.630008
704.000000	71.651715
703.000000	71.606422
702.000000	71.556475
701.000000	71.493043
700.000000	71.499503
699.000000	71.516159
698.000000	71.443440
697.000000	71.402017
696.000000	71.437021
695.000000	71.371155
694.000000	71.308773
693.000000	71.288806
692.000000	71.282476
691.000000	71.335923
690.000000	71.346821
689.000000	71.164011
688.000000	70.983620
687.000000	70.987035
686.000000	70.960385
685.000000	70.982451
684.000000	71.029076
683.000000	70.941336
682.000000	70.933883
681.000000	70.891747
680.000000	70.757706
679.000000	70.695763
678.000000	70.697354
677.000000	70.659940
676.000000	70.680106
675.000000	70.698120
674.000000	70.663696
673.000000	70.588538
672.000000	70.587836
671.000000	70.514293
670.000000	70.422230
669.000000	70.413375
668.000000	70.367778
667.000000	70.376139
666.000000	70.309373
665.000000	70.220605
664.000000	70.169105
663.000000	70.222514
662.000000	70.186194
661.000000	70.148820
660.000000	70.001811
659.000000	69.964741
658.000000	69.952404
657.000000	69.870278
656.000000	69.879411
655.000000	69.825808
654.000000	69.800951
653.000000	69.791789
652.000000	69.726090
651.000000	69.709266
650.000000	69.601629
649.000000	69.609298
648.000000	69.599628
647.000000	69.595323
646.000000	69.415611
645.000000	69.377329
644.000000	69.383919
643.000000	69.306815
642.000000	69.291518
641.000000	69.237114
640.000000	69.100312
639.000000	69.092130
638.000000	69.032994
637.000000	69.030610
636.000000	68.955784
635.000000	68.906667
634.000000	68.849037
633.000000	68.799416
632.000000	68.729809
631.000000	68.702612
630.000000	68.656379
629.000000	68.628799
628.000000	68.568217
627.000000	68.489036
626.000000	68.402815
625.000000	68.315994
624.000000	68.351988
623.000000	68.346418
622.000000	68.167809
621.000000	68.167558
620.000000	68.109773
619.000000	68.119120
618.000000	68.029261
617.000000	67.945476
616.000000	67.920909
615.000000	67.898412
614.000000	67.823529
613.000000	67.759541
612.000000	67.630371
611.000000	67.672028
610.000000	67.615228
609.000000	67.567733
608.000000	67.492534
607.000000	67.413170
606.000000	67.319889
605.000000	67.233187
604.000000	67.143753
603.000000	67.147562
602.000000	67.044829
601.000000	67.030969
600.000000	66.928126
599.000000	66.896188
598.000000	66.801841
597.000000	66.831714
596.000000	66.717029
595.000000	66.635785
594.000000	66.445824
593.000000	66.470192
592.000000	66.382607
591.000000	66.380818
590.000000	66.222423
589.000000	66.156379
588.000000	66.089903
587.000000	66.049957
586.000000	65.912735
585.000000	65.904995
584.000000	65.764935
583.000000	65.739063
582.000000	65.719518
581.000000	65.612822
580.000000	65.508861
579.000000	65.433083
578.000000	65.445245
577.000000	65.278176
576.000000	65.242839
575.000000	65.138607
574.000000	64.993212
573.000000	64.997637
572.000000	64.889595
571.000000	64.803680
570.000000	64.743476
569.000000	64.608311
568.000000	64.555323
567.000000	64.498059
566.000000	64.382426
565.000000	64.365664
564.000000	64.164975
563.000000	64.115602
562.000000	64.008746
561.000000	63.990408
560.000000	63.847327
559.000000	63.808467
558.000000	63.712123
557.000000	63.572159
556.000000	63.510800
555.000000	63.473701
554.000000	63.282586
553.000000	63.192799
552.000000	63.059685
551.000000	62.993171
550.000000	62.905776
549.000000	62.837990
548.000000	62.702922
547.000000	62.557528
546.000000	62.464713
545.000000	62.401256
544.000000	62.274318
543.000000	62.184677
542.000000	62.059544
541.000000	61.989726
540.000000	61.889612
539.000000	61.780196
538.000000	61.665878
537.000000	61.557932
536.000000	61.436987
535.000000	61.369624
534.000000	61.255549
533.000000	61.144493
532.000000	61.055144
531.000000	60.877327
530.000000	60.791581
529.000000	60.704911
528.000000	60.567640
527.000000	60.457765
526.000000	60.356279
525.000000	60.228511
524.000000	60.110369
523.000000	60.038479
522.000000	59.884303
521.000000	59.785383
520.000000	59.702042
519.000000	59.544772
518.000000	59.381428
517.000000	59.308121
516.000000	59.163702
515.000000	59.076573
514.000000	58.968062
513.000000	58.834641
512.000000	58.703866
511.000000	58.594125
510.000000	58.444088
509.000000	58.342449
508.000000	58.220927
507.000000	58.145985
506.000000	57.975965
505.000000	57.787110
504.000000	57.676500
503.000000	57.603838
502.000000	57.472097
501.000000	57.307883
500.000000	57.164963
499.000000	57.039783
498.000000	56.923088
497.000000	56.771333
496.000000	56.595022
495.000000	56.480720
494.000000	56.375911
493.000000	56.255489
492.000000	56.119426
491.000000	56.005447
490.000000	55.887196
489.000000	55.724429
488.000000	55.577553
487.000000	55.436443
486.000000	55.273403
485.000000	55.115954
484.000000	55.061696
483.000000	54.987520
482.000000	54.836424
481.000000	54.685315
480.000000	54.511692
479.000000	54.415597
478.000000	54.258352
477.000000	54.095340
476.000000	53.992844
475.000000	53.818097
474.000000	53.687209
473.000000	53.581416
472.000000	53.470828
471.000000	53.326806
470.000000	53.159719
469.000000	53.019783
468.000000	52.873956
467.000000	52.755342
466.000000	52.647646
465.000000	52.481323
464.000000	52.339952
463.000000	52.207109
462.000000	52.052540
461.000000	51.911229
460.000000	51.783471
459.000000	51.596662
458.000000	51.423152
457.000000	51.281614
456.000000	51.147520
455.000000	50.967561
454.000000	50.787057
453.000000	50.628239
452.000000	50.459696
451.000000	50.324120
450.000000	50.155227
449.000000	49.940681
448.000000	49.789453
447.000000	49.623304
446.000000	49.455479
445.000000	49.280724
444.000000	49.041651
443.000000	48.886717
442.000000	48.706873
441.000000	48.497980
440.000000	48.313493
439.000000	48.093049
438.000000	47.892686
437.000000	47.724763
436.000000	47.514670
435.000000	47.345557
434.000000	47.142741
433.000000	46.890284
432.000000	46.698815
431.000000	46.504251
430.000000	46.370796
429.000000	46.164228
428.000000	45.947298
427.000000	45.674086
426.000000	45.475278
425.000000	45.289301
424.000000	45.071820
423.000000	44.837018
422.000000	44.634929
421.000000	44.411245
420.000000	44.227586
419.000000	44.024101
418.000000	43.819972
417.000000	43.585720
416.000000	43.356281
415.000000	43.143842
414.000000	42.927059
413.000000	42.724149
412.000000	42.524901
411.000000	42.279584
410.000000	42.077926
409.000000	41.844606
408.000000	41.599311
407.000000	41.418809
406.000000	41.188889
405.000000	40.974197
404.000000	40.839368
403.000000	40.631738
402.000000	40.389010
401.000000	40.101554
400.000000	39.882778
399.000000	39.630516
398.000000	39.449509
397.000000	39.285580
396.000000	39.013089
395.000000	38.731229
394.000000	38.556524
393.000000	38.356471
392.000000	38.121245
391.000000	37.836319
390.000000	37.678762
389.000000	37.470870
388.000000	37.190993
387.000000	36.934507
386.000000	36.737862
385.000000	36.506298
384.000000	36.231869
383.000000	36.082061
382.000000	35.877144
381.000000	35.687871
380.000000	35.430283
379.000000	35.144050
378.000000	35.026852
377.000000	34.611899
376.000000	34.364341
375.000000	34.205257
374.000000	34.022369
373.000000	33.872262
372.000000	33.506622
371.000000	33.349401
370.000000	33.222478
369.000000	33.020509
368.000000	32.857648
367.000000	32.625967
366.000000	32.443107
365.000000	32.279272
364.000000	32.162477
363.000000	31.828291
362.000000	31.705651
361.000000	31.550961
360.000000	31.242519
359.000000	31.112986
358.000000	30.860801
357.000000	30.765747
356.000000	30.506458
355.000000	30.473515
354.000000	30.230724
353.000000	30.033172
352.000000	29.887037
351.000000	29.673631
350.000000	29.406231
349.000000	29.344094
348.000000	29.037469
347.000000	28.933941
346.000000	28.812853
345.000000	28.679518
344.000000	28.521426
343.000000	28.480015
342.000000	28.267756
341.000000	28.000537
340.000000	27.840976
339.000000	27.706801
338.000000	27.421861
337.000000	27.450630
336.000000	27.114122
335.000000	27.001046
334.000000	27.063032
333.000000	26.794843
332.000000	26.596467
331.000000	26.289867
330.000000	26.398628
329.000000	26.213593
328.000000	26.034742
327.000000	25.980665
326.000000	25.757215
325.000000	25.490614
324.000000	25.551977
323.000000	25.294381
322.000000	25.344111
321.000000	24.931401
320.000000	25.051098
319.000000	25.071593
318.000000	24.868073
317.000000	24.801861
316.000000	24.664287
315.000000	24.654622
314.000000	24.427660
313.000000	24.259005
312.000000	24.334574
311.000000	24.273163
310.000000	24.246808
309.000000	24.140227
308.000000	23.959141
307.000000	23.806911
306.000000	23.847633
305.000000	23.772612
304.000000	23.699450
303.000000	23.548603
302.000000	23.500280
301.000000	23.328440
300.000000	23.344436
299.000000	23.283018
298.000000	23.167715
297.000000	23.012988
296.000000	22.897128
295.000000	22.854098
294.000000	22.700446
293.000000	22.573940
292.000000	22.490558
291.000000	22.323940
290.000000	22.211454
289.000000	22.130807
288.000000	21.989483
287.000000	21.813113
286.000000	21.700245
285.000000	21.668902
284.000000	21.584238
283.000000	21.531146
282.000000	21.575709
281.000000	21.431824
280.000000	21.360612
279.000000	21.374056
278.000000	21.321168
277.000000	21.316531
276.000000	21.392766
275.000000	21.319083
274.000000	21.387780
273.000000	21.335718
272.000000	21.365126
271.000000	21.388329
270.000000	21.375253
269.000000	21.361777
268.000000	21.340956
267.000000	21.394532
266.000000	21.436909
265.000000	21.504615
264.000000	21.548752
263.000000	21.613555
262.000000	21.676916
261.000000	21.761863
260.000000	21.825187
259.000000	21.968581
258.000000	22.136076
257.000000	22.176115
256.000000	22.258570
255.000000	22.338331
254.000000	22.569720
253.000000	22.781648
252.000000	22.881076
251.000000	22.948273
250.000000	23.109502
249.000000	23.264552
248.000000	23.325363
247.000000	23.470815
246.000000	23.623403
245.000000	23.739375
244.000000	23.814993
243.000000	23.730742
242.000000	23.633378
241.000000	23.612528
240.000000	23.626880
239.000000	23.528144
238.000000	23.433692
237.000000	23.285787
236.000000	23.004384
235.000000	22.866733
234.000000	22.653201
233.000000	22.374196
232.000000	22.109444
231.000000	21.940358
230.000000	21.669800
229.000000	21.340546
228.000000	21.099035
227.000000	20.864563
226.000000	20.705900
225.000000	20.436417
224.000000	20.187091
223.000000	19.956053
222.000000	19.639273
221.000000	19.429423
220.000000	19.308664
219.000000	19.207198
218.000000	19.069727
217.000000	18.903301
216.000000	18.696012
215.000000	18.543682
214.000000	18.498965
213.000000	18.498068
212.000000	18.481541
211.000000	18.499064
210.000000	18.495037
209.000000	18.474488
208.000000	18.583759
207.000000	18.777279
206.000000	18.897686
205.000000	18.917666
204.000000	19.208827
203.000000	19.686660
202.000000	20.130823
201.000000	20.595846
200.000000	21.142627
