PE UV       SUBTECH     SPECTRUM    ASCII       PEDS        4.00        
   -1
RDmsopph201.Sample.asc
18/03/19
14:00:37.00
18/03/19
14:00:37.00
Administrator

200.000000
1
Lambda 750
750N8071901
PerkinElmer UV WinLab 6.0.4.0738 / 1.61.00 Lambda 900

0
0
3350/servo 860.8/2
0
0
UV/VIS
1
1
1
CommonBeamDepol,150mm sphere / downward view
0
0
0
0
Program
Program
3350/servo 860.8/2
3350/0.2 860.8/0.2
3350/0.2 860.8/0.2
0
1
 
 
 
0
 
860.8
319.2
860.8
Front
100
on
 
 
0
0
0
 
0
 
 
 
0
 
 
0
0
0
0
0
 
 
 
 
0
0


0
0
#HDR
-1
-1
#GR
nm
%R
1.0
0.0
2350.000000
-1.000000
2151
8
73.026454
18.344670
#DATA
2350.000000	35.401886
2349.000000	35.720502
2348.000000	35.730528
2347.000000	36.159927
2346.000000	35.894401
2345.000000	35.604627
2344.000000	35.569572
2343.000000	35.522687
2342.000000	35.673798
2341.000000	36.021385
2340.000000	35.739212
2339.000000	35.550495
2338.000000	36.109942
2337.000000	36.181958
2336.000000	36.064427
2335.000000	36.437621
2334.000000	36.419824
2333.000000	36.213284
2332.000000	36.180356
2331.000000	36.220196
2330.000000	36.763262
2329.000000	36.573261
2328.000000	36.362440
2327.000000	36.069435
2326.000000	36.004450
2325.000000	36.042979
2324.000000	36.443393
2323.000000	36.215105
2322.000000	35.979474
2321.000000	36.288464
2320.000000	36.181196
2319.000000	35.813781
2318.000000	35.927874
2317.000000	35.838641
2316.000000	35.783347
2315.000000	35.964836
2314.000000	35.751145
2313.000000	35.896518
2312.000000	35.601286
2311.000000	35.675981
2310.000000	35.259084
2309.000000	35.574854
2308.000000	35.389750
2307.000000	35.250111
2306.000000	35.277876
2305.000000	34.985286
2304.000000	34.838964
2303.000000	35.065315
2302.000000	35.258953
2301.000000	34.957411
2300.000000	34.982366
2299.000000	34.761266
2298.000000	34.671280
2297.000000	34.614271
2296.000000	34.677056
2295.000000	34.604244
2294.000000	34.585133
2293.000000	34.541602
2292.000000	34.307783
2291.000000	34.235795
2290.000000	34.168487
2289.000000	34.062172
2288.000000	34.047437
2287.000000	34.134554
2286.000000	34.144000
2285.000000	34.197064
2284.000000	34.053308
2283.000000	33.964665
2282.000000	33.960931
2281.000000	33.915376
2280.000000	33.976378
2279.000000	33.947621
2278.000000	34.061034
2277.000000	33.939118
2276.000000	33.993998
2275.000000	34.129099
2274.000000	34.212973
2273.000000	34.355464
2272.000000	34.267923
2271.000000	34.352798
2270.000000	34.500542
2269.000000	34.393698
2268.000000	34.471394
2267.000000	34.551450
2266.000000	34.620567
2265.000000	34.831275
2264.000000	34.918259
2263.000000	34.941428
2262.000000	35.040781
2261.000000	35.144118
2260.000000	35.434269
2259.000000	35.495941
2258.000000	35.671728
2257.000000	35.906299
2256.000000	36.051065
2255.000000	36.171179
2254.000000	36.236400
2253.000000	36.446685
2252.000000	36.661749
2251.000000	36.870075
2250.000000	37.043661
2249.000000	37.320763
2248.000000	37.478925
2247.000000	37.628365
2246.000000	37.909346
2245.000000	38.148066
2244.000000	38.331909
2243.000000	38.520756
2242.000000	38.611951
2241.000000	38.648370
2240.000000	38.751495
2239.000000	38.903822
2238.000000	39.085620
2237.000000	39.249433
2236.000000	39.404608
2235.000000	39.419715
2234.000000	39.513437
2233.000000	39.572166
2232.000000	39.575396
2231.000000	39.684056
2230.000000	39.823003
2229.000000	39.774918
2228.000000	39.707869
2227.000000	39.820872
2226.000000	39.843146
2225.000000	39.756117
2224.000000	39.688096
2223.000000	39.654114
2222.000000	39.838792
2221.000000	40.047413
2220.000000	40.038697
2219.000000	39.949077
2218.000000	39.848768
2217.000000	39.792982
2216.000000	39.767694
2215.000000	39.736253
2214.000000	39.637985
2213.000000	39.610621
2212.000000	39.534933
2211.000000	39.474948
2210.000000	39.328954
2209.000000	39.318243
2208.000000	39.348956
2207.000000	39.395156
2206.000000	39.298515
2205.000000	39.195436
2204.000000	39.049057
2203.000000	39.058128
2202.000000	38.974380
2201.000000	38.972389
2200.000000	39.022771
2199.000000	38.815261
2198.000000	38.816057
2197.000000	38.775922
2196.000000	38.582062
2195.000000	38.378124
2194.000000	38.429580
2193.000000	38.343955
2192.000000	38.286938
2191.000000	38.335767
2190.000000	38.292471
2189.000000	38.312844
2188.000000	38.052111
2187.000000	37.997721
2186.000000	38.025277
2185.000000	38.026711
2184.000000	37.981388
2183.000000	38.017935
2182.000000	37.979120
2181.000000	37.896403
2180.000000	37.971699
2179.000000	38.006756
2178.000000	37.837698
2177.000000	37.850403
2176.000000	37.906755
2175.000000	37.979270
2174.000000	37.964128
2173.000000	37.906082
2172.000000	37.902187
2171.000000	38.077579
2170.000000	38.190363
2169.000000	38.269574
2168.000000	38.246534
2167.000000	38.285904
2166.000000	38.382031
2165.000000	38.611023
2164.000000	38.456288
2163.000000	38.569830
2162.000000	38.915876
2161.000000	38.995892
2160.000000	39.211262
2159.000000	39.412054
2158.000000	39.185517
2157.000000	39.353399
2156.000000	39.515486
2155.000000	39.620656
2154.000000	39.752640
2153.000000	40.326720
2152.000000	40.217170
2151.000000	40.159630
2150.000000	40.397127
2149.000000	40.516265
2148.000000	40.755598
2147.000000	40.848500
2146.000000	41.018193
2145.000000	41.079748
2144.000000	41.225911
2143.000000	41.058855
2142.000000	41.260247
2141.000000	41.422171
2140.000000	41.686667
2139.000000	41.837025
2138.000000	41.954725
2137.000000	42.166495
2136.000000	42.048486
2135.000000	42.091861
2134.000000	42.475914
2133.000000	42.271924
2132.000000	42.463320
2131.000000	42.592882
2130.000000	42.784569
2129.000000	42.776586
2128.000000	42.778111
2127.000000	42.749441
2126.000000	42.913792
2125.000000	42.809914
2124.000000	42.992741
2123.000000	43.005885
2122.000000	43.263420
2121.000000	43.225562
2120.000000	43.114842
2119.000000	43.328743
2118.000000	43.313432
2117.000000	43.070011
2116.000000	43.396713
2115.000000	43.546610
2114.000000	43.380376
2113.000000	43.363871
2112.000000	43.321948
2111.000000	43.450303
2110.000000	43.384365
2109.000000	43.446831
2108.000000	43.476782
2107.000000	43.523868
2106.000000	43.532990
2105.000000	43.467057
2104.000000	43.481621
2103.000000	43.596125
2102.000000	43.716207
2101.000000	43.678544
2100.000000	43.773369
2099.000000	43.650140
2098.000000	43.540110
2097.000000	43.573903
2096.000000	43.619240
2095.000000	43.654784
2094.000000	43.692176
2093.000000	43.759716
2092.000000	43.759731
2091.000000	43.817242
2090.000000	43.732799
2089.000000	43.660916
2088.000000	43.595169
2087.000000	43.590456
2086.000000	43.531367
2085.000000	43.684954
2084.000000	43.543214
2083.000000	43.429179
2082.000000	43.416179
2081.000000	43.199687
2080.000000	43.113856
2079.000000	43.229050
2078.000000	43.049642
2077.000000	43.009288
2076.000000	43.032280
2075.000000	42.931401
2074.000000	42.833111
2073.000000	42.671756
2072.000000	42.600900
2071.000000	42.503766
2070.000000	42.377990
2069.000000	42.303922
2068.000000	42.174086
2067.000000	42.008817
2066.000000	41.926036
2065.000000	41.784754
2064.000000	41.685946
2063.000000	41.483643
2062.000000	41.345510
2061.000000	41.220064
2060.000000	41.141015
2059.000000	41.005716
2058.000000	40.834070
2057.000000	40.712012
2056.000000	40.559685
2055.000000	40.484316
2054.000000	40.375088
2053.000000	40.236203
2052.000000	40.036976
2051.000000	39.880212
2050.000000	39.799188
2049.000000	39.713199
2048.000000	39.675599
2047.000000	39.631370
2046.000000	39.560178
2045.000000	39.455999
2044.000000	39.415179
2043.000000	39.395922
2042.000000	39.381600
2041.000000	39.415907
2040.000000	39.422157
2039.000000	39.393562
2038.000000	39.446649
2037.000000	39.553306
2036.000000	39.631618
2035.000000	39.677194
2034.000000	39.713847
2033.000000	39.783542
2032.000000	39.935499
2031.000000	39.984557
2030.000000	40.069507
2029.000000	40.269446
2028.000000	40.335558
2027.000000	40.385083
2026.000000	40.523515
2025.000000	40.613927
2024.000000	40.640901
2023.000000	40.686495
2022.000000	40.765672
2021.000000	40.879748
2020.000000	40.932753
2019.000000	40.935477
2018.000000	40.913425
2017.000000	40.915030
2016.000000	40.921126
2015.000000	40.921256
2014.000000	40.895993
2013.000000	40.890723
2012.000000	40.877935
2011.000000	40.883554
2010.000000	40.821460
2009.000000	40.757748
2008.000000	40.710312
2007.000000	40.627473
2006.000000	40.546853
2005.000000	40.459154
2004.000000	40.347418
2003.000000	40.315266
2002.000000	40.228023
2001.000000	40.126360
2000.000000	40.063415
1999.000000	40.025210
1998.000000	39.909150
1997.000000	39.796863
1996.000000	39.711430
1995.000000	39.649270
1994.000000	39.494511
1993.000000	39.412155
1992.000000	39.300724
1991.000000	39.163523
1990.000000	39.147867
1989.000000	39.041920
1988.000000	38.946583
1987.000000	38.856100
1986.000000	38.782419
1985.000000	38.678585
1984.000000	38.579848
1983.000000	38.446884
1982.000000	38.417695
1981.000000	38.370635
1980.000000	38.220023
1979.000000	38.110954
1978.000000	37.980544
1977.000000	37.926469
1976.000000	37.816257
1975.000000	37.719362
1974.000000	37.586707
1973.000000	37.556151
1972.000000	37.479356
1971.000000	37.393231
1970.000000	37.280815
1969.000000	37.181867
1968.000000	37.094404
1967.000000	37.019738
1966.000000	36.951472
1965.000000	36.867649
1964.000000	36.752083
1963.000000	36.697837
1962.000000	36.605625
1961.000000	36.486971
1960.000000	36.473775
1959.000000	36.385415
1958.000000	36.308303
1957.000000	36.243589
1956.000000	36.139601
1955.000000	36.059777
1954.000000	36.034595
1953.000000	35.981635
1952.000000	35.931911
1951.000000	35.844963
1950.000000	35.816600
1949.000000	35.764516
1948.000000	35.772779
1947.000000	35.751447
1946.000000	35.668054
1945.000000	35.678013
1944.000000	35.740171
1943.000000	35.736532
1942.000000	35.797823
1941.000000	35.780304
1940.000000	35.809779
1939.000000	35.854492
1938.000000	35.952397
1937.000000	36.061074
1936.000000	36.167782
1935.000000	36.258668
1934.000000	36.312552
1933.000000	36.361028
1932.000000	36.444206
1931.000000	36.608474
1930.000000	36.819966
1929.000000	36.922547
1928.000000	37.132981
1927.000000	37.303243
1926.000000	37.477362
1925.000000	37.686463
1924.000000	37.920872
1923.000000	38.224168
1922.000000	38.419006
1921.000000	38.667284
1920.000000	38.893923
1919.000000	39.141286
1918.000000	39.403298
1917.000000	39.806035
1916.000000	40.062392
1915.000000	40.449450
1914.000000	40.820620
1913.000000	41.202766
1912.000000	41.459653
1911.000000	41.797031
1910.000000	42.242207
1909.000000	42.661699
1908.000000	43.044570
1907.000000	43.429332
1906.000000	43.831384
1905.000000	44.362028
1904.000000	44.741591
1903.000000	45.241282
1902.000000	45.686090
1901.000000	46.191397
1900.000000	46.654094
1899.000000	47.207419
1898.000000	47.671572
1897.000000	48.117715
1896.000000	48.585708
1895.000000	49.144384
1894.000000	49.597012
1893.000000	50.042891
1892.000000	50.612869
1891.000000	51.007941
1890.000000	51.467890
1889.000000	51.939907
1888.000000	52.358814
1887.000000	52.758164
1886.000000	53.206131
1885.000000	53.526298
1884.000000	53.970204
1883.000000	54.382256
1882.000000	54.695874
1881.000000	54.995505
1880.000000	55.369987
1879.000000	55.621683
1878.000000	55.875343
1877.000000	56.163665
1876.000000	56.445575
1875.000000	56.674302
1874.000000	56.853245
1873.000000	57.072901
1872.000000	57.251424
1871.000000	57.460701
1870.000000	57.632947
1869.000000	57.824725
1868.000000	57.972558
1867.000000	58.067133
1866.000000	58.223417
1865.000000	58.315676
1864.000000	58.410607
1863.000000	58.543928
1862.000000	58.577271
1861.000000	58.658159
1860.000000	58.717159
1859.000000	58.731501
1858.000000	58.801283
1857.000000	58.869725
1856.000000	58.936169
1855.000000	58.986350
1854.000000	59.046455
1853.000000	59.058646
1852.000000	59.026439
1851.000000	59.055724
1850.000000	59.033563
1849.000000	59.024360
1848.000000	59.098363
1847.000000	59.078502
1846.000000	59.066774
1845.000000	59.057522
1844.000000	59.029818
1843.000000	59.037453
1842.000000	59.027603
1841.000000	58.978460
1840.000000	59.029077
1839.000000	58.984587
1838.000000	58.956265
1837.000000	58.876803
1836.000000	58.816597
1835.000000	58.807569
1834.000000	58.781492
1833.000000	58.758909
1832.000000	58.729558
1831.000000	58.661395
1830.000000	58.605417
1829.000000	58.589219
1828.000000	58.557044
1827.000000	58.521763
1826.000000	58.500314
1825.000000	58.477662
1824.000000	58.441904
1823.000000	58.453248
1822.000000	58.421074
1821.000000	58.368794
1820.000000	58.334247
1819.000000	58.301125
1818.000000	58.279676
1817.000000	58.253696
1816.000000	58.217947
1815.000000	58.188721
1814.000000	58.152552
1813.000000	58.089049
1812.000000	58.074436
1811.000000	58.079602
1810.000000	58.040550
1809.000000	58.021483
1808.000000	57.998907
1807.000000	57.968787
1806.000000	57.969096
1805.000000	57.939291
1804.000000	57.883439
1803.000000	57.874129
1802.000000	57.845618
1801.000000	57.809189
1800.000000	57.796303
1799.000000	57.790687
1798.000000	57.752879
1797.000000	57.726448
1796.000000	57.724460
1795.000000	57.689205
1794.000000	57.679491
1793.000000	57.678657
1792.000000	57.661380
1791.000000	57.634017
1790.000000	57.622401
1789.000000	57.614221
1788.000000	57.589140
1787.000000	57.542783
1786.000000	57.526909
1785.000000	57.511028
1784.000000	57.482625
1783.000000	57.460327
1782.000000	57.447496
1781.000000	57.415031
1780.000000	57.384524
1779.000000	57.375586
1778.000000	57.344784
1777.000000	57.288405
1776.000000	57.220558
1775.000000	57.182668
1774.000000	57.145703
1773.000000	57.100067
1772.000000	57.021101
1771.000000	57.001662
1770.000000	56.944610
1769.000000	56.886509
1768.000000	56.865692
1767.000000	56.824742
1766.000000	56.767189
1765.000000	56.718235
1764.000000	56.706841
1763.000000	56.639567
1762.000000	56.591478
1761.000000	56.569931
1760.000000	56.502022
1759.000000	56.456472
1758.000000	56.430713
1757.000000	56.349500
1756.000000	56.309397
1755.000000	56.263509
1754.000000	56.266579
1753.000000	56.208367
1752.000000	56.157559
1751.000000	56.120062
1750.000000	56.100619
1749.000000	56.061905
1748.000000	56.014135
1747.000000	55.946576
1746.000000	55.895387
1745.000000	55.804229
1744.000000	55.807111
1743.000000	55.745038
1742.000000	55.711610
1741.000000	55.628270
1740.000000	55.623137
1739.000000	55.582730
1738.000000	55.528161
1737.000000	55.498594
1736.000000	55.498494
1735.000000	55.493333
1734.000000	55.506369
1733.000000	55.485342
1732.000000	55.448753
1731.000000	55.482120
1730.000000	55.509042
1729.000000	55.531580
1728.000000	55.583608
1727.000000	55.646045
1726.000000	55.712926
1725.000000	55.760107
1724.000000	55.835267
1723.000000	55.900123
1722.000000	55.973827
1721.000000	56.068948
1720.000000	56.168451
1719.000000	56.324332
1718.000000	56.409530
1717.000000	56.476425
1716.000000	56.577157
1715.000000	56.680231
1714.000000	56.729803
1713.000000	56.821602
1712.000000	56.886977
1711.000000	57.003437
1710.000000	57.053499
1709.000000	57.074966
1708.000000	57.143002
1707.000000	57.186386
1706.000000	57.260891
1705.000000	57.270830
1704.000000	57.313594
1703.000000	57.286849
1702.000000	57.337158
1701.000000	57.355942
1700.000000	57.395636
1699.000000	57.369310
1698.000000	57.438860
1697.000000	57.469878
1696.000000	57.492616
1695.000000	57.501049
1694.000000	57.558650
1693.000000	57.619843
1692.000000	57.644031
1691.000000	57.703854
1690.000000	57.802038
1689.000000	57.892101
1688.000000	57.974455
1687.000000	58.095565
1686.000000	58.162523
1685.000000	58.278196
1684.000000	58.423369
1683.000000	58.568123
1682.000000	58.745564
1681.000000	58.901279
1680.000000	59.040790
1679.000000	59.175250
1678.000000	59.369273
1677.000000	59.503192
1676.000000	59.658034
1675.000000	59.839264
1674.000000	59.984542
1673.000000	60.165971
1672.000000	60.313297
1671.000000	60.456925
1670.000000	60.583787
1669.000000	60.786641
1668.000000	60.883132
1667.000000	61.017240
1666.000000	61.122588
1665.000000	61.204058
1664.000000	61.329055
1663.000000	61.387788
1662.000000	61.431482
1661.000000	61.540899
1660.000000	61.623061
1659.000000	61.656316
1658.000000	61.725146
1657.000000	61.761308
1656.000000	61.788256
1655.000000	61.830335
1654.000000	61.869481
1653.000000	61.892984
1652.000000	61.886442
1651.000000	61.894465
1650.000000	61.905429
1649.000000	61.906937
1648.000000	61.884386
1647.000000	61.879370
1646.000000	61.874820
1645.000000	61.878588
1644.000000	61.863561
1643.000000	61.845060
1642.000000	61.799109
1641.000000	61.785262
1640.000000	61.815573
1639.000000	61.777686
1638.000000	61.735059
1637.000000	61.728065
1636.000000	61.681317
1635.000000	61.633285
1634.000000	61.626227
1633.000000	61.588526
1632.000000	61.553478
1631.000000	61.514470
1630.000000	61.478857
1629.000000	61.438986
1628.000000	61.405349
1627.000000	61.366006
1626.000000	61.320060
1625.000000	61.283237
1624.000000	61.255269
1623.000000	61.224813
1622.000000	61.176149
1621.000000	61.125042
1620.000000	61.081602
1619.000000	61.056947
1618.000000	60.990243
1617.000000	60.952866
1616.000000	60.911603
1615.000000	60.845578
1614.000000	60.809417
1613.000000	60.767142
1612.000000	60.705313
1611.000000	60.643493
1610.000000	60.607599
1609.000000	60.552459
1608.000000	60.503616
1607.000000	60.446048
1606.000000	60.373495
1605.000000	60.324247
1604.000000	60.274032
1603.000000	60.224834
1602.000000	60.170953
1601.000000	60.101344
1600.000000	60.053864
1599.000000	60.011186
1598.000000	59.956227
1597.000000	59.902911
1596.000000	59.844280
1595.000000	59.797028
1594.000000	59.746790
1593.000000	59.706913
1592.000000	59.669044
1591.000000	59.623498
1590.000000	59.577090
1589.000000	59.525248
1588.000000	59.472474
1587.000000	59.438514
1586.000000	59.400903
1585.000000	59.372973
1584.000000	59.326044
1583.000000	59.275531
1582.000000	59.258989
1581.000000	59.219534
1580.000000	59.168854
1579.000000	59.128237
1578.000000	59.093931
1577.000000	59.045472
1576.000000	59.001983
1575.000000	58.967439
1574.000000	58.937828
1573.000000	58.904301
1572.000000	58.861931
1571.000000	58.813774
1570.000000	58.780948
1569.000000	58.735324
1568.000000	58.709283
1567.000000	58.689125
1566.000000	58.654320
1565.000000	58.635888
1564.000000	58.617782
1563.000000	58.575945
1562.000000	58.557937
1561.000000	58.537771
1560.000000	58.507309
1559.000000	58.495351
1558.000000	58.472640
1557.000000	58.452908
1556.000000	58.454231
1555.000000	58.426213
1554.000000	58.397803
1553.000000	58.388051
1552.000000	58.360308
1551.000000	58.344699
1550.000000	58.313528
1549.000000	58.267236
1548.000000	58.243150
1547.000000	58.183438
1546.000000	58.135797
1545.000000	58.071452
1544.000000	58.002129
1543.000000	57.939210
1542.000000	57.884761
1541.000000	57.819556
1540.000000	57.740419
1539.000000	57.678001
1538.000000	57.598785
1537.000000	57.514350
1536.000000	57.440638
1535.000000	57.350323
1534.000000	57.286753
1533.000000	57.209100
1532.000000	57.125435
1531.000000	57.058184
1530.000000	56.991629
1529.000000	56.899442
1528.000000	56.825441
1527.000000	56.776639
1526.000000	56.729026
1525.000000	56.679215
1524.000000	56.629504
1523.000000	56.574103
1522.000000	56.539030
1521.000000	56.516215
1520.000000	56.468075
1519.000000	56.423425
1518.000000	56.395644
1517.000000	56.360004
1516.000000	56.336949
1515.000000	56.324299
1514.000000	56.288535
1513.000000	56.265253
1512.000000	56.241945
1511.000000	56.232301
1510.000000	56.223906
1509.000000	56.207679
1508.000000	56.193891
1507.000000	56.176301
1506.000000	56.175780
1505.000000	56.168317
1504.000000	56.153723
1503.000000	56.171682
1502.000000	56.169805
1501.000000	56.161249
1500.000000	56.174950
1499.000000	56.166372
1498.000000	56.145151
1497.000000	56.175332
1496.000000	56.194275
1495.000000	56.201377
1494.000000	56.218337
1493.000000	56.242466
1492.000000	56.275117
1491.000000	56.294377
1490.000000	56.344696
1489.000000	56.358287
1488.000000	56.396883
1487.000000	56.431390
1486.000000	56.474306
1485.000000	56.527307
1484.000000	56.534697
1483.000000	56.604834
1482.000000	56.643635
1481.000000	56.705784
1480.000000	56.767307
1479.000000	56.802717
1478.000000	56.862632
1477.000000	56.897129
1476.000000	56.941466
1475.000000	56.991448
1474.000000	57.047263
1473.000000	57.081161
1472.000000	57.142814
1471.000000	57.180784
1470.000000	57.225615
1469.000000	57.260139
1468.000000	57.303942
1467.000000	57.372278
1466.000000	57.416010
1465.000000	57.453907
1464.000000	57.464292
1463.000000	57.543686
1462.000000	57.572284
1461.000000	57.606305
1460.000000	57.640638
1459.000000	57.730692
1458.000000	57.762896
1457.000000	57.826607
1456.000000	57.873856
1455.000000	57.954643
1454.000000	58.021827
1453.000000	58.070164
1452.000000	58.136171
1451.000000	58.189036
1450.000000	58.260640
1449.000000	58.321151
1448.000000	58.395651
1447.000000	58.459839
1446.000000	58.541889
1445.000000	58.617129
1444.000000	58.693738
1443.000000	58.779344
1442.000000	58.884084
1441.000000	58.958625
1440.000000	59.035449
1439.000000	59.137017
1438.000000	59.248858
1437.000000	59.328599
1436.000000	59.427415
1435.000000	59.545136
1434.000000	59.666826
1433.000000	59.770947
1432.000000	59.877407
1431.000000	59.989434
1430.000000	60.125223
1429.000000	60.252022
1428.000000	60.365231
1427.000000	60.513770
1426.000000	60.651538
1425.000000	60.803755
1424.000000	60.946297
1423.000000	61.090062
1422.000000	61.253439
1421.000000	61.414433
1420.000000	61.574737
1419.000000	61.720937
1418.000000	61.884267
1417.000000	62.056795
1416.000000	62.227472
1415.000000	62.397990
1414.000000	62.566395
1413.000000	62.740357
1412.000000	62.927737
1411.000000	63.105235
1410.000000	63.273020
1409.000000	63.434315
1408.000000	63.616058
1407.000000	63.799866
1406.000000	63.966004
1405.000000	64.129399
1404.000000	64.293172
1403.000000	64.457696
1402.000000	64.616405
1401.000000	64.781817
1400.000000	64.941584
1399.000000	65.070772
1398.000000	65.220710
1397.000000	65.390130
1396.000000	65.533300
1395.000000	65.668014
1394.000000	65.788213
1393.000000	65.921811
1392.000000	66.068847
1391.000000	66.208164
1390.000000	66.313794
1389.000000	66.424667
1388.000000	66.528327
1387.000000	66.617590
1386.000000	66.718908
1385.000000	66.819856
1384.000000	66.916003
1383.000000	67.004404
1382.000000	67.091384
1381.000000	67.180286
1380.000000	67.252537
1379.000000	67.307618
1378.000000	67.397028
1377.000000	67.480026
1376.000000	67.546804
1375.000000	67.611811
1374.000000	67.670524
1373.000000	67.727101
1372.000000	67.779433
1371.000000	67.831399
1370.000000	67.883101
1369.000000	67.920040
1368.000000	67.960624
1367.000000	68.008596
1366.000000	68.052167
1365.000000	68.102919
1364.000000	68.152329
1363.000000	68.201654
1362.000000	68.253984
1361.000000	68.316727
1360.000000	68.374647
1359.000000	68.417685
1358.000000	68.442388
1357.000000	68.473984
1356.000000	68.559650
1355.000000	68.608122
1354.000000	68.652258
1353.000000	68.731203
1352.000000	68.782169
1351.000000	68.836186
1350.000000	68.883624
1349.000000	68.953449
1348.000000	68.994681
1347.000000	69.043524
1346.000000	69.119373
1345.000000	69.165067
1344.000000	69.208815
1343.000000	69.260246
1342.000000	69.299607
1341.000000	69.335946
1340.000000	69.375175
1339.000000	69.435745
1338.000000	69.484779
1337.000000	69.521677
1336.000000	69.549778
1335.000000	69.587096
1334.000000	69.631255
1333.000000	69.666321
1332.000000	69.698500
1331.000000	69.741077
1330.000000	69.776156
1329.000000	69.823497
1328.000000	69.858009
1327.000000	69.855579
1326.000000	69.894124
1325.000000	69.906641
1324.000000	69.920893
1323.000000	69.941240
1322.000000	69.952077
1321.000000	69.983270
1320.000000	70.012260
1319.000000	70.012347
1318.000000	70.046733
1317.000000	70.091100
1316.000000	70.072572
1315.000000	70.127753
1314.000000	70.120175
1313.000000	70.120195
1312.000000	70.149515
1311.000000	70.189028
1310.000000	70.175192
1309.000000	70.192334
1308.000000	70.224378
1307.000000	70.215390
1306.000000	70.249700
1305.000000	70.278187
1304.000000	70.299718
1303.000000	70.313089
1302.000000	70.303437
1301.000000	70.323057
1300.000000	70.331751
1299.000000	70.339957
1298.000000	70.349866
1297.000000	70.336142
1296.000000	70.379693
1295.000000	70.401375
1294.000000	70.366486
1293.000000	70.375065
1292.000000	70.384601
1291.000000	70.380715
1290.000000	70.373962
1289.000000	70.386386
1288.000000	70.360455
1287.000000	70.368334
1286.000000	70.380305
1285.000000	70.386289
1284.000000	70.382242
1283.000000	70.385696
1282.000000	70.382588
1281.000000	70.381220
1280.000000	70.373889
1279.000000	70.375875
1278.000000	70.381137
1277.000000	70.350373
1276.000000	70.350778
1275.000000	70.352498
1274.000000	70.353302
1273.000000	70.387428
1272.000000	70.365595
1271.000000	70.383068
1270.000000	70.381291
1269.000000	70.381056
1268.000000	70.414689
1267.000000	70.419502
1266.000000	70.420251
1265.000000	70.421509
1264.000000	70.437907
1263.000000	70.474591
1262.000000	70.450637
1261.000000	70.468408
1260.000000	70.501442
1259.000000	70.484733
1258.000000	70.493361
1257.000000	70.527148
1256.000000	70.506197
1255.000000	70.534323
1254.000000	70.528692
1253.000000	70.548204
1252.000000	70.563803
1251.000000	70.589425
1250.000000	70.577542
1249.000000	70.563891
1248.000000	70.575711
1247.000000	70.585155
1246.000000	70.562275
1245.000000	70.558584
1244.000000	70.533006
1243.000000	70.543032
1242.000000	70.540563
1241.000000	70.551572
1240.000000	70.530925
1239.000000	70.515982
1238.000000	70.509266
1237.000000	70.499970
1236.000000	70.491979
1235.000000	70.466205
1234.000000	70.434062
1233.000000	70.421901
1232.000000	70.395000
1231.000000	70.384731
1230.000000	70.397338
1229.000000	70.379971
1228.000000	70.344601
1227.000000	70.342604
1226.000000	70.335919
1225.000000	70.309012
1224.000000	70.283665
1223.000000	70.256516
1222.000000	70.235574
1221.000000	70.233230
1220.000000	70.211824
1219.000000	70.198654
1218.000000	70.192305
1217.000000	70.173239
1216.000000	70.143565
1215.000000	70.131427
1214.000000	70.099398
1213.000000	70.079074
1212.000000	70.061354
1211.000000	70.035371
1210.000000	70.043110
1209.000000	70.009447
1208.000000	69.982870
1207.000000	69.974483
1206.000000	69.949654
1205.000000	69.898114
1204.000000	69.904067
1203.000000	69.884861
1202.000000	69.851656
1201.000000	69.815486
1200.000000	69.828666
1199.000000	69.821482
1198.000000	69.776777
1197.000000	69.755644
1196.000000	69.735374
1195.000000	69.724474
1194.000000	69.729839
1193.000000	69.711547
1192.000000	69.699279
1191.000000	69.696915
1190.000000	69.693753
1189.000000	69.672912
1188.000000	69.661414
1187.000000	69.665726
1186.000000	69.665075
1185.000000	69.679638
1184.000000	69.681532
1183.000000	69.694744
1182.000000	69.723026
1181.000000	69.720733
1180.000000	69.744063
1179.000000	69.782641
1178.000000	69.816594
1177.000000	69.848022
1176.000000	69.873210
1175.000000	69.905366
1174.000000	69.951658
1173.000000	70.004823
1172.000000	70.062091
1171.000000	70.106473
1170.000000	70.151889
1169.000000	70.200748
1168.000000	70.254206
1167.000000	70.316914
1166.000000	70.380374
1165.000000	70.437198
1164.000000	70.494413
1163.000000	70.538557
1162.000000	70.588259
1161.000000	70.645236
1160.000000	70.712763
1159.000000	70.775799
1158.000000	70.830614
1157.000000	70.887896
1156.000000	70.949331
1155.000000	71.014175
1154.000000	71.056062
1153.000000	71.083320
1152.000000	71.134618
1151.000000	71.195872
1150.000000	71.233950
1149.000000	71.262139
1148.000000	71.306410
1147.000000	71.349311
1146.000000	71.389526
1145.000000	71.417829
1144.000000	71.457139
1143.000000	71.487585
1142.000000	71.504667
1141.000000	71.550599
1140.000000	71.594560
1139.000000	71.632734
1138.000000	71.679085
1137.000000	71.705693
1136.000000	71.734547
1135.000000	71.764168
1134.000000	71.798981
1133.000000	71.823443
1132.000000	71.841088
1131.000000	71.875354
1130.000000	71.888486
1129.000000	71.894848
1128.000000	71.932324
1127.000000	71.950407
1126.000000	71.964906
1125.000000	71.999058
1124.000000	72.020369
1123.000000	72.041431
1122.000000	72.055280
1121.000000	72.074619
1120.000000	72.073790
1119.000000	72.090339
1118.000000	72.121071
1117.000000	72.115560
1116.000000	72.104658
1115.000000	72.104288
1114.000000	72.117306
1113.000000	72.119499
1112.000000	72.121197
1111.000000	72.139448
1110.000000	72.141952
1109.000000	72.146913
1108.000000	72.154021
1107.000000	72.177677
1106.000000	72.189544
1105.000000	72.180458
1104.000000	72.197038
1103.000000	72.208800
1102.000000	72.211233
1101.000000	72.197547
1100.000000	72.199340
1099.000000	72.207554
1098.000000	72.226871
1097.000000	72.235061
1096.000000	72.224573
1095.000000	72.236999
1094.000000	72.232894
1093.000000	72.241098
1092.000000	72.254680
1091.000000	72.242894
1090.000000	72.246627
1089.000000	72.249488
1088.000000	72.243371
1087.000000	72.234718
1086.000000	72.244322
1085.000000	72.265068
1084.000000	72.262702
1083.000000	72.253291
1082.000000	72.271405
1081.000000	72.248987
1080.000000	72.240461
1079.000000	72.256137
1078.000000	72.249002
1077.000000	72.255537
1076.000000	72.248062
1075.000000	72.249917
1074.000000	72.239992
1073.000000	72.226392
1072.000000	72.224922
1071.000000	72.235824
1070.000000	72.246366
1069.000000	72.253309
1068.000000	72.257911
1067.000000	72.238838
1066.000000	72.236313
1065.000000	72.234882
1064.000000	72.238393
1063.000000	72.237849
1062.000000	72.236517
1061.000000	72.227368
1060.000000	72.234050
1059.000000	72.238955
1058.000000	72.236473
1057.000000	72.225900
1056.000000	72.254502
1055.000000	72.233019
1054.000000	72.218240
1053.000000	72.233074
1052.000000	72.208059
1051.000000	72.224548
1050.000000	72.214001
1049.000000	72.211569
1048.000000	72.200204
1047.000000	72.208387
1046.000000	72.221783
1045.000000	72.223682
1044.000000	72.194648
1043.000000	72.209854
1042.000000	72.205738
1041.000000	72.188789
1040.000000	72.205910
1039.000000	72.215337
1038.000000	72.206455
1037.000000	72.199458
1036.000000	72.185599
1035.000000	72.196209
1034.000000	72.184639
1033.000000	72.175808
1032.000000	72.184302
1031.000000	72.209184
1030.000000	72.199800
1029.000000	72.190629
1028.000000	72.191015
1027.000000	72.208119
1026.000000	72.194433
1025.000000	72.185054
1024.000000	72.209164
1023.000000	72.204701
1022.000000	72.179788
1021.000000	72.188725
1020.000000	72.206122
1019.000000	72.199632
1018.000000	72.209679
1017.000000	72.213033
1016.000000	72.210452
1015.000000	72.209475
1014.000000	72.201173
1013.000000	72.224322
1012.000000	72.235278
1011.000000	72.245259
1010.000000	72.227291
1009.000000	72.230120
1008.000000	72.227380
1007.000000	72.242980
1006.000000	72.240620
1005.000000	72.250972
1004.000000	72.231640
1003.000000	72.237609
1002.000000	72.254254
1001.000000	72.261781
1000.000000	72.250607
999.000000	72.253640
998.000000	72.270595
997.000000	72.272164
996.000000	72.294639
995.000000	72.291475
994.000000	72.278545
993.000000	72.277251
992.000000	72.266486
991.000000	72.281211
990.000000	72.315180
989.000000	72.297375
988.000000	72.289425
987.000000	72.299061
986.000000	72.317295
985.000000	72.346340
984.000000	72.349440
983.000000	72.372460
982.000000	72.381442
981.000000	72.371861
980.000000	72.379847
979.000000	72.397152
978.000000	72.394817
977.000000	72.388473
976.000000	72.411124
975.000000	72.428150
974.000000	72.433516
973.000000	72.426006
972.000000	72.445961
971.000000	72.462395
970.000000	72.453881
969.000000	72.469983
968.000000	72.490675
967.000000	72.492878
966.000000	72.481010
965.000000	72.487642
964.000000	72.508394
963.000000	72.503803
962.000000	72.519537
961.000000	72.554735
960.000000	72.556809
959.000000	72.539480
958.000000	72.545633
957.000000	72.562676
956.000000	72.552899
955.000000	72.574098
954.000000	72.611713
953.000000	72.628220
952.000000	72.635736
951.000000	72.631930
950.000000	72.636802
949.000000	72.645892
948.000000	72.639888
947.000000	72.648501
946.000000	72.651759
945.000000	72.654154
944.000000	72.656974
943.000000	72.662230
942.000000	72.674236
941.000000	72.657743
940.000000	72.647918
939.000000	72.671479
938.000000	72.692565
937.000000	72.696340
936.000000	72.660181
935.000000	72.638942
934.000000	72.659259
933.000000	72.644903
932.000000	72.653670
931.000000	72.671752
930.000000	72.680230
929.000000	72.701671
928.000000	72.693224
927.000000	72.676598
926.000000	72.671988
925.000000	72.677146
924.000000	72.698335
923.000000	72.694908
922.000000	72.695466
921.000000	72.710224
920.000000	72.714631
919.000000	72.704622
918.000000	72.679203
917.000000	72.648580
916.000000	72.661587
915.000000	72.712321
914.000000	72.694871
913.000000	72.656035
912.000000	72.681686
911.000000	72.670291
910.000000	72.690455
909.000000	72.716611
908.000000	72.704116
907.000000	72.686962
906.000000	72.660497
905.000000	72.664606
904.000000	72.721660
903.000000	72.710555
902.000000	72.693485
901.000000	72.707749
900.000000	72.789847
899.000000	72.760561
898.000000	72.701611
897.000000	72.772205
896.000000	72.721098
895.000000	72.792769
894.000000	72.796159
893.000000	72.795165
892.000000	72.805703
891.000000	72.778678
890.000000	72.837511
889.000000	72.857255
888.000000	72.869413
887.000000	72.877675
886.000000	72.879959
885.000000	72.883549
884.000000	72.826616
883.000000	72.920778
882.000000	72.907917
881.000000	72.752308
880.000000	72.774950
879.000000	72.959867
878.000000	73.026454
877.000000	72.922841
876.000000	72.852852
875.000000	72.815797
874.000000	72.797137
873.000000	72.785195
872.000000	72.774810
871.000000	72.992520
870.000000	72.973944
869.000000	72.925760
868.000000	72.793768
867.000000	72.811359
866.000000	72.889294
865.000000	72.808376
864.000000	72.922444
863.000000	72.965103
862.000000	72.947877
861.000000	72.829851
860.000000	72.817723
859.000000	72.701625
858.000000	72.457978
857.000000	72.434945
856.000000	72.424898
855.000000	72.837622
854.000000	72.607785
853.000000	72.398639
852.000000	72.328787
851.000000	72.659648
850.000000	72.361297
849.000000	72.522483
848.000000	72.189353
847.000000	72.482096
846.000000	72.458302
845.000000	72.076640
844.000000	72.495659
843.000000	72.396638
842.000000	72.627729
841.000000	72.254595
840.000000	72.691157
839.000000	72.479712
838.000000	72.476428
837.000000	72.279968
836.000000	72.563013
835.000000	72.627166
834.000000	72.404224
833.000000	72.220600
832.000000	72.576635
831.000000	72.599616
830.000000	72.133759
829.000000	72.537674
828.000000	72.313037
827.000000	72.559104
826.000000	72.219745
825.000000	72.456417
824.000000	72.295546
823.000000	72.375950
822.000000	72.443553
821.000000	72.405684
820.000000	72.457709
819.000000	72.434874
818.000000	72.518184
817.000000	72.299669
816.000000	72.180271
815.000000	72.273788
814.000000	72.188358
813.000000	72.313265
812.000000	72.337575
811.000000	72.192747
810.000000	72.274521
809.000000	72.238081
808.000000	72.221714
807.000000	72.262605
806.000000	72.358805
805.000000	72.324028
804.000000	72.353370
803.000000	72.314058
802.000000	72.187303
801.000000	72.195986
800.000000	72.172399
799.000000	72.029900
798.000000	72.158180
797.000000	72.134648
796.000000	72.182517
795.000000	72.209022
794.000000	72.163457
793.000000	72.361673
792.000000	72.180093
791.000000	72.360932
790.000000	72.352167
789.000000	72.137020
788.000000	72.219952
787.000000	72.100547
786.000000	72.202180
785.000000	72.225114
784.000000	72.085793
783.000000	72.187583
782.000000	72.176677
781.000000	72.130642
780.000000	72.124953
779.000000	72.072069
778.000000	72.026219
777.000000	72.064510
776.000000	72.082944
775.000000	71.923759
774.000000	71.989728
773.000000	72.063271
772.000000	72.004141
771.000000	72.021149
770.000000	71.860693
769.000000	71.973459
768.000000	72.007172
767.000000	71.921299
766.000000	71.932808
765.000000	72.054092
764.000000	71.959498
763.000000	71.932100
762.000000	71.890137
761.000000	71.883193
760.000000	71.967840
759.000000	71.937950
758.000000	71.771853
757.000000	71.825327
756.000000	71.671264
755.000000	71.727407
754.000000	71.629083
753.000000	71.722631
752.000000	71.721148
751.000000	71.726939
750.000000	71.775675
749.000000	71.792401
748.000000	71.771781
747.000000	71.704767
746.000000	71.671054
745.000000	71.631239
744.000000	71.546312
743.000000	71.632177
742.000000	71.621294
741.000000	71.537500
740.000000	71.457674
739.000000	71.557111
738.000000	71.506547
737.000000	71.494654
736.000000	71.570695
735.000000	71.632269
734.000000	71.575333
733.000000	71.495463
732.000000	71.430789
731.000000	71.335073
730.000000	71.307191
729.000000	71.386669
728.000000	71.400080
727.000000	71.341638
726.000000	71.298831
725.000000	71.352247
724.000000	71.339250
723.000000	71.241421
722.000000	71.284789
721.000000	71.353808
720.000000	71.270550
719.000000	71.199259
718.000000	71.193419
717.000000	71.187655
716.000000	71.179315
715.000000	71.136753
714.000000	71.073366
713.000000	71.078768
712.000000	71.042274
711.000000	71.037226
710.000000	70.984739
709.000000	70.963385
708.000000	71.010777
707.000000	70.933621
706.000000	70.904808
705.000000	70.930040
704.000000	70.938655
703.000000	70.903821
702.000000	70.893599
701.000000	70.924333
700.000000	70.887484
699.000000	70.800962
698.000000	70.745150
697.000000	70.761757
696.000000	70.757583
695.000000	70.721969
694.000000	70.647801
693.000000	70.645918
692.000000	70.613630
691.000000	70.575561
690.000000	70.562605
689.000000	70.431729
688.000000	70.389288
687.000000	70.360772
686.000000	70.309883
685.000000	70.342318
684.000000	70.328008
683.000000	70.279370
682.000000	70.232110
681.000000	70.193174
680.000000	70.149609
679.000000	70.175472
678.000000	70.180115
677.000000	70.114199
676.000000	70.013536
675.000000	69.975456
674.000000	69.946433
673.000000	69.983084
672.000000	69.954534
671.000000	69.935578
670.000000	69.856140
669.000000	69.830905
668.000000	69.784409
667.000000	69.677260
666.000000	69.693479
665.000000	69.651593
664.000000	69.664813
663.000000	69.623078
662.000000	69.556910
661.000000	69.489106
660.000000	69.457013
659.000000	69.451976
658.000000	69.349141
657.000000	69.351800
656.000000	69.288692
655.000000	69.266424
654.000000	69.271461
653.000000	69.237864
652.000000	69.206120
651.000000	69.232747
650.000000	69.036415
649.000000	69.066760
648.000000	69.060836
647.000000	69.006766
646.000000	68.924929
645.000000	68.855198
644.000000	68.881444
643.000000	68.844936
642.000000	68.776230
641.000000	68.742341
640.000000	68.674301
639.000000	68.615846
638.000000	68.558771
637.000000	68.524684
636.000000	68.530665
635.000000	68.486312
634.000000	68.427400
633.000000	68.369654
632.000000	68.316725
631.000000	68.319360
630.000000	68.341984
629.000000	68.226332
628.000000	68.082800
627.000000	68.072782
626.000000	67.988369
625.000000	68.074951
624.000000	67.988825
623.000000	67.954382
622.000000	67.886079
621.000000	67.860481
620.000000	67.851733
619.000000	67.751719
618.000000	67.705748
617.000000	67.670238
616.000000	67.599212
615.000000	67.527994
614.000000	67.479714
613.000000	67.451763
612.000000	67.410063
611.000000	67.338933
610.000000	67.266826
609.000000	67.228004
608.000000	67.163602
607.000000	67.071520
606.000000	67.035502
605.000000	67.032687
604.000000	66.919053
603.000000	66.918359
602.000000	66.827869
601.000000	66.753316
600.000000	66.709538
599.000000	66.731990
598.000000	66.610873
597.000000	66.551404
596.000000	66.532892
595.000000	66.481318
594.000000	66.402989
593.000000	66.356977
592.000000	66.262721
591.000000	66.217776
590.000000	66.119868
589.000000	66.097214
588.000000	65.967797
587.000000	65.939510
586.000000	65.860426
585.000000	65.783787
584.000000	65.745142
583.000000	65.677180
582.000000	65.675635
581.000000	65.641522
580.000000	65.461087
579.000000	65.517678
578.000000	65.338474
577.000000	65.279475
576.000000	65.222432
575.000000	65.209665
574.000000	65.136863
573.000000	65.032472
572.000000	64.974650
571.000000	64.845443
570.000000	64.792318
569.000000	64.726548
568.000000	64.685235
567.000000	64.588192
566.000000	64.512265
565.000000	64.449235
564.000000	64.356928
563.000000	64.281360
562.000000	64.219794
561.000000	64.078437
560.000000	64.028411
559.000000	63.967220
558.000000	63.880475
557.000000	63.799968
556.000000	63.747842
555.000000	63.643509
554.000000	63.545163
553.000000	63.475811
552.000000	63.345957
551.000000	63.288776
550.000000	63.188659
549.000000	63.100945
548.000000	63.020577
547.000000	62.945312
546.000000	62.828436
545.000000	62.799897
544.000000	62.703818
543.000000	62.586845
542.000000	62.490736
541.000000	62.386468
540.000000	62.281260
539.000000	62.192074
538.000000	62.082644
537.000000	62.033969
536.000000	61.912435
535.000000	61.825978
534.000000	61.685252
533.000000	61.606357
532.000000	61.506680
531.000000	61.432016
530.000000	61.317579
529.000000	61.239168
528.000000	61.131180
527.000000	61.027164
526.000000	60.906644
525.000000	60.806132
524.000000	60.673544
523.000000	60.577125
522.000000	60.486965
521.000000	60.336840
520.000000	60.261946
519.000000	60.120813
518.000000	60.010520
517.000000	59.939170
516.000000	59.796692
515.000000	59.676975
514.000000	59.585709
513.000000	59.479612
512.000000	59.409565
511.000000	59.262219
510.000000	59.116613
509.000000	58.993565
508.000000	58.836496
507.000000	58.727407
506.000000	58.646624
505.000000	58.497869
504.000000	58.409998
503.000000	58.302934
502.000000	58.186051
501.000000	58.046456
500.000000	57.878473
499.000000	57.750380
498.000000	57.637422
497.000000	57.525261
496.000000	57.354929
495.000000	57.244783
494.000000	57.136767
493.000000	56.998381
492.000000	56.893765
491.000000	56.740238
490.000000	56.611808
489.000000	56.475803
488.000000	56.340569
487.000000	56.233981
486.000000	56.101139
485.000000	56.038164
484.000000	55.963535
483.000000	55.830116
482.000000	55.661780
481.000000	55.509475
480.000000	55.378759
479.000000	55.279353
478.000000	55.190473
477.000000	55.036945
476.000000	54.904723
475.000000	54.800714
474.000000	54.670853
473.000000	54.540061
472.000000	54.419387
471.000000	54.296099
470.000000	54.190447
469.000000	54.104158
468.000000	53.936809
467.000000	53.783006
466.000000	53.657869
465.000000	53.555035
464.000000	53.451304
463.000000	53.275253
462.000000	53.120230
461.000000	53.025270
460.000000	52.917499
459.000000	52.733450
458.000000	52.582408
457.000000	52.459247
456.000000	52.293817
455.000000	52.148806
454.000000	52.008135
453.000000	51.823622
452.000000	51.674603
451.000000	51.501642
450.000000	51.314447
449.000000	51.180927
448.000000	51.038340
447.000000	50.868265
446.000000	50.723263
445.000000	50.581428
444.000000	50.399063
443.000000	50.247254
442.000000	50.067783
441.000000	49.864385
440.000000	49.677655
439.000000	49.489771
438.000000	49.326931
437.000000	49.130828
436.000000	48.956206
435.000000	48.778598
434.000000	48.617777
433.000000	48.416249
432.000000	48.245172
431.000000	48.089515
430.000000	47.895805
429.000000	47.653698
428.000000	47.444683
427.000000	47.258360
426.000000	47.084039
425.000000	46.899501
424.000000	46.672597
423.000000	46.475210
422.000000	46.290966
421.000000	46.100244
420.000000	45.924429
419.000000	45.636239
418.000000	45.431711
417.000000	45.271200
416.000000	45.049138
415.000000	44.822225
414.000000	44.632035
413.000000	44.480645
412.000000	44.251265
411.000000	44.061637
410.000000	43.902071
409.000000	43.648144
408.000000	43.430390
407.000000	43.236324
406.000000	43.041368
405.000000	42.763200
404.000000	42.604623
403.000000	42.438126
402.000000	42.205961
401.000000	41.996430
400.000000	41.777061
399.000000	41.584906
398.000000	41.318417
397.000000	41.102425
396.000000	40.890121
395.000000	40.694347
394.000000	40.482002
393.000000	40.267673
392.000000	40.020005
391.000000	39.775312
390.000000	39.585287
389.000000	39.371218
388.000000	39.170165
387.000000	38.914477
386.000000	38.715591
385.000000	38.481616
384.000000	38.266863
383.000000	37.975896
382.000000	37.762242
381.000000	37.559107
380.000000	37.322715
379.000000	37.057529
378.000000	36.981160
377.000000	36.725355
376.000000	36.524642
375.000000	36.199630
374.000000	36.069959
373.000000	35.889258
372.000000	35.734472
371.000000	35.312193
370.000000	35.095018
369.000000	34.989587
368.000000	34.744730
367.000000	34.596129
366.000000	34.460356
365.000000	34.253158
364.000000	33.971765
363.000000	33.712684
362.000000	33.564001
361.000000	33.437527
360.000000	33.224621
359.000000	33.001409
358.000000	32.954310
357.000000	32.595038
356.000000	32.637440
355.000000	32.332396
354.000000	32.114361
353.000000	31.983199
352.000000	31.801548
351.000000	31.662620
350.000000	31.422813
349.000000	31.218588
348.000000	31.083063
347.000000	30.978632
346.000000	30.792599
345.000000	30.534458
344.000000	30.417557
343.000000	30.447484
342.000000	29.882033
341.000000	29.972570
340.000000	29.722997
339.000000	29.465507
338.000000	29.359371
337.000000	29.091782
336.000000	29.118859
335.000000	28.884485
334.000000	28.784647
333.000000	28.629369
332.000000	28.368699
331.000000	28.393649
330.000000	28.220917
329.000000	28.011090
328.000000	27.785219
327.000000	27.700284
326.000000	27.527540
325.000000	27.373349
324.000000	27.317864
323.000000	27.165607
322.000000	27.143201
321.000000	26.964861
320.000000	26.798512
319.000000	26.661185
318.000000	26.576551
317.000000	26.542786
316.000000	26.515576
315.000000	26.354252
314.000000	26.166495
313.000000	26.086203
312.000000	26.026703
311.000000	25.943763
310.000000	25.924926
309.000000	25.759179
308.000000	25.702441
307.000000	25.624753
306.000000	25.614472
305.000000	25.455513
304.000000	25.403082
303.000000	25.297538
302.000000	25.118386
301.000000	25.107492
300.000000	25.090930
299.000000	25.023547
298.000000	24.806080
297.000000	24.668266
296.000000	24.616892
295.000000	24.472165
294.000000	24.360923
293.000000	24.213623
292.000000	24.001021
291.000000	23.780152
290.000000	23.857033
289.000000	23.641171
288.000000	23.475595
287.000000	23.312303
286.000000	23.155077
285.000000	23.041182
284.000000	23.091575
283.000000	22.941329
282.000000	22.975776
281.000000	22.893738
280.000000	22.755256
279.000000	22.721781
278.000000	22.765888
277.000000	22.803250
276.000000	22.774851
275.000000	22.763208
274.000000	22.740207
273.000000	22.771878
272.000000	22.748914
271.000000	22.832196
270.000000	22.802485
269.000000	22.780314
268.000000	22.849702
267.000000	22.798785
266.000000	22.788588
265.000000	22.827212
264.000000	22.933601
263.000000	23.089141
262.000000	23.145232
261.000000	23.192362
260.000000	23.393264
259.000000	23.417119
258.000000	23.562610
257.000000	23.772630
256.000000	23.839622
255.000000	23.958116
254.000000	24.114390
253.000000	24.271383
252.000000	24.461826
251.000000	24.638556
250.000000	24.783628
249.000000	24.889174
248.000000	24.995365
247.000000	25.096983
246.000000	25.113332
245.000000	25.252359
244.000000	25.261802
243.000000	25.182670
242.000000	25.238371
241.000000	25.170222
240.000000	25.000724
239.000000	24.903173
238.000000	24.643942
237.000000	24.368094
236.000000	24.092529
235.000000	23.847958
234.000000	23.557057
233.000000	23.299374
232.000000	22.996569
231.000000	22.612433
230.000000	22.318846
229.000000	22.020537
228.000000	21.693193
227.000000	21.414926
226.000000	21.191619
225.000000	20.801412
224.000000	20.470034
223.000000	20.216147
222.000000	19.864294
221.000000	19.600094
220.000000	19.395768
219.000000	19.252189
218.000000	19.086807
217.000000	18.842088
216.000000	18.714355
215.000000	18.643323
214.000000	18.505057
213.000000	18.352176
212.000000	18.404644
211.000000	18.427167
210.000000	18.368658
209.000000	18.421047
208.000000	18.344670
207.000000	18.353219
206.000000	18.648665
205.000000	18.801112
204.000000	18.990793
203.000000	19.329392
202.000000	19.870946
201.000000	20.303922
200.000000	20.967341
