PE UV       SUBTECH     SPECTRUM    ASCII       PEDS        4.00        
   -1
RTmsopph191.Sample.asc
18/03/19
11:09:46.00
18/03/19
11:09:46.00
Administrator

200.000000
1
Lambda 750
750N8071901
PerkinElmer UV WinLab 6.0.4.0738 / 1.61.00 Lambda 900

0
0
3350/servo 860.8/2
0
0
UV/VIS
1
1
1
CommonBeamDepol,150mm sphere / downward view
0
0
0
0
Program
Program
3350/servo 860.8/2
3350/0.2 860.8/0.2
3350/0.2 860.8/0.2
0
1
 
 
 
0
 
860.8
319.2
860.8
Front
100
on
 
 
0
0
0
 
0
 
 
 
0
 
 
0
0
0
0
0
 
 
 
 
0
0


0
0
#HDR
-1
-1
#GR
nm
%R
1.0
0.0
2350.000000
-1.000000
2151
8
73.504697
18.421751
#DATA
2350.000000	36.719425
2349.000000	36.715027
2348.000000	36.666660
2347.000000	37.103471
2346.000000	37.002532
2345.000000	37.059580
2344.000000	37.066966
2343.000000	36.698515
2342.000000	36.881453
2341.000000	37.128353
2340.000000	36.874637
2339.000000	37.339707
2338.000000	37.112638
2337.000000	37.514866
2336.000000	37.467045
2335.000000	37.309273
2334.000000	37.645978
2333.000000	37.406865
2332.000000	37.770874
2331.000000	37.607184
2330.000000	37.530929
2329.000000	37.349070
2328.000000	37.269391
2327.000000	37.377268
2326.000000	37.505087
2325.000000	37.265996
2324.000000	37.408584
2323.000000	37.277428
2322.000000	37.308280
2321.000000	37.467676
2320.000000	37.186954
2319.000000	37.097129
2318.000000	37.215822
2317.000000	37.277549
2316.000000	37.109677
2315.000000	37.016538
2314.000000	36.978278
2313.000000	36.811843
2312.000000	36.749287
2311.000000	36.780466
2310.000000	36.733082
2309.000000	36.771625
2308.000000	36.707072
2307.000000	36.641549
2306.000000	36.676307
2305.000000	36.644350
2304.000000	36.434442
2303.000000	36.474254
2302.000000	36.438888
2301.000000	36.255694
2300.000000	36.131721
2299.000000	35.962747
2298.000000	35.870407
2297.000000	35.803514
2296.000000	35.951242
2295.000000	35.714525
2294.000000	35.564899
2293.000000	35.435065
2292.000000	35.620832
2291.000000	35.564716
2290.000000	35.496097
2289.000000	35.488014
2288.000000	35.427730
2287.000000	35.270588
2286.000000	35.363221
2285.000000	35.252949
2284.000000	35.216431
2283.000000	35.108544
2282.000000	35.234588
2281.000000	35.191026
2280.000000	35.160653
2279.000000	35.324560
2278.000000	35.303642
2277.000000	35.176021
2276.000000	35.211272
2275.000000	35.332035
2274.000000	35.504956
2273.000000	35.477765
2272.000000	35.581416
2271.000000	35.692442
2270.000000	35.736949
2269.000000	35.667827
2268.000000	35.672980
2267.000000	35.821500
2266.000000	36.018436
2265.000000	36.098840
2264.000000	36.111609
2263.000000	36.112635
2262.000000	36.380762
2261.000000	36.694231
2260.000000	36.715862
2259.000000	36.782804
2258.000000	37.007038
2257.000000	37.288817
2256.000000	37.332297
2255.000000	37.428348
2254.000000	37.590423
2253.000000	37.754337
2252.000000	37.976859
2251.000000	38.085900
2250.000000	38.241802
2249.000000	38.630963
2248.000000	38.752489
2247.000000	38.833357
2246.000000	39.117155
2245.000000	39.340874
2244.000000	39.499708
2243.000000	39.707251
2242.000000	39.768378
2241.000000	39.842545
2240.000000	40.133755
2239.000000	40.301263
2238.000000	40.242138
2237.000000	40.310633
2236.000000	40.504158
2235.000000	40.622421
2234.000000	40.662009
2233.000000	40.755417
2232.000000	40.846472
2231.000000	40.929144
2230.000000	41.007639
2229.000000	40.997891
2228.000000	41.086651
2227.000000	41.069854
2226.000000	40.989595
2225.000000	41.117047
2224.000000	41.145105
2223.000000	41.002573
2222.000000	40.916798
2221.000000	41.003550
2220.000000	41.029871
2219.000000	40.994777
2218.000000	40.890160
2217.000000	40.870818
2216.000000	40.942956
2215.000000	40.917734
2214.000000	40.889097
2213.000000	40.729740
2212.000000	40.719470
2211.000000	40.698015
2210.000000	40.683739
2209.000000	40.571237
2208.000000	40.589883
2207.000000	40.569196
2206.000000	40.423049
2205.000000	40.405227
2204.000000	40.383596
2203.000000	40.346174
2202.000000	40.208203
2201.000000	40.172020
2200.000000	40.056155
2199.000000	40.142673
2198.000000	40.092620
2197.000000	39.997041
2196.000000	39.878853
2195.000000	39.728389
2194.000000	39.654889
2193.000000	39.694878
2192.000000	39.578624
2191.000000	39.531462
2190.000000	39.510191
2189.000000	39.371841
2188.000000	39.358548
2187.000000	39.286057
2186.000000	39.297956
2185.000000	39.233955
2184.000000	39.160161
2183.000000	39.202924
2182.000000	39.234045
2181.000000	39.227221
2180.000000	39.160374
2179.000000	39.153166
2178.000000	39.240051
2177.000000	39.221106
2176.000000	39.125422
2175.000000	39.208909
2174.000000	39.321050
2173.000000	39.444367
2172.000000	39.387772
2171.000000	39.468886
2170.000000	39.494027
2169.000000	39.591556
2168.000000	39.734541
2167.000000	39.555923
2166.000000	39.804122
2165.000000	39.837276
2164.000000	39.958980
2163.000000	40.189127
2162.000000	40.285102
2161.000000	40.108715
2160.000000	40.390983
2159.000000	40.636147
2158.000000	40.605927
2157.000000	40.728808
2156.000000	40.942651
2155.000000	41.110603
2154.000000	41.211105
2153.000000	41.339139
2152.000000	41.439108
2151.000000	41.598358
2150.000000	41.771118
2149.000000	41.574068
2148.000000	41.868068
2147.000000	42.122070
2146.000000	42.196046
2145.000000	42.388432
2144.000000	42.564738
2143.000000	42.457138
2142.000000	42.695440
2141.000000	42.858282
2140.000000	43.021293
2139.000000	42.994417
2138.000000	43.407354
2137.000000	43.270354
2136.000000	43.303836
2135.000000	43.368959
2134.000000	43.366436
2133.000000	43.528510
2132.000000	43.700168
2131.000000	43.786639
2130.000000	43.996010
2129.000000	43.841137
2128.000000	44.007344
2127.000000	43.956393
2126.000000	44.019841
2125.000000	44.002142
2124.000000	44.217844
2123.000000	44.285179
2122.000000	44.192873
2121.000000	44.172157
2120.000000	44.165527
2119.000000	44.266830
2118.000000	44.509066
2117.000000	44.486842
2116.000000	44.499906
2115.000000	44.615001
2114.000000	44.466684
2113.000000	44.388647
2112.000000	44.532479
2111.000000	44.493216
2110.000000	44.537974
2109.000000	44.635207
2108.000000	44.614342
2107.000000	44.684302
2106.000000	44.627809
2105.000000	44.625883
2104.000000	44.787575
2103.000000	44.796773
2102.000000	44.727745
2101.000000	44.733929
2100.000000	44.719368
2099.000000	44.719142
2098.000000	44.669096
2097.000000	44.772047
2096.000000	44.715487
2095.000000	44.742481
2094.000000	44.717445
2093.000000	44.704325
2092.000000	44.720894
2091.000000	44.700520
2090.000000	44.719778
2089.000000	44.746779
2088.000000	44.750646
2087.000000	44.671329
2086.000000	44.722477
2085.000000	44.686259
2084.000000	44.512392
2083.000000	44.468284
2082.000000	44.437385
2081.000000	44.487503
2080.000000	44.364358
2079.000000	44.306332
2078.000000	44.247400
2077.000000	44.089618
2076.000000	44.006864
2075.000000	43.933906
2074.000000	43.819563
2073.000000	43.734640
2072.000000	43.753352
2071.000000	43.720825
2070.000000	43.511785
2069.000000	43.321866
2068.000000	43.312213
2067.000000	43.214834
2066.000000	43.002480
2065.000000	42.848701
2064.000000	42.730985
2063.000000	42.570874
2062.000000	42.493546
2061.000000	42.345538
2060.000000	42.193573
2059.000000	42.131887
2058.000000	42.005249
2057.000000	41.829737
2056.000000	41.656834
2055.000000	41.543106
2054.000000	41.419593
2053.000000	41.324031
2052.000000	41.175339
2051.000000	41.005155
2050.000000	40.968054
2049.000000	40.908046
2048.000000	40.775993
2047.000000	40.768970
2046.000000	40.692024
2045.000000	40.662935
2044.000000	40.651528
2043.000000	40.583497
2042.000000	40.571658
2041.000000	40.609875
2040.000000	40.590105
2039.000000	40.582424
2038.000000	40.642539
2037.000000	40.705267
2036.000000	40.757330
2035.000000	40.883533
2034.000000	40.889562
2033.000000	40.894296
2032.000000	41.051252
2031.000000	41.144933
2030.000000	41.256641
2029.000000	41.407476
2028.000000	41.502897
2027.000000	41.578235
2026.000000	41.681382
2025.000000	41.756691
2024.000000	41.805227
2023.000000	41.859576
2022.000000	41.877405
2021.000000	41.894550
2020.000000	41.908557
2019.000000	41.931169
2018.000000	41.989678
2017.000000	41.991057
2016.000000	41.948074
2015.000000	41.955738
2014.000000	41.952798
2013.000000	41.921309
2012.000000	41.909390
2011.000000	41.852627
2010.000000	41.802400
2009.000000	41.732809
2008.000000	41.674286
2007.000000	41.589289
2006.000000	41.504737
2005.000000	41.429383
2004.000000	41.307401
2003.000000	41.231569
2002.000000	41.175186
2001.000000	41.054110
2000.000000	40.956341
1999.000000	40.914147
1998.000000	40.838638
1997.000000	40.739477
1996.000000	40.647944
1995.000000	40.538803
1994.000000	40.439872
1993.000000	40.365085
1992.000000	40.239483
1991.000000	40.132216
1990.000000	40.027232
1989.000000	39.937864
1988.000000	39.856371
1987.000000	39.754160
1986.000000	39.633152
1985.000000	39.540531
1984.000000	39.462435
1983.000000	39.346535
1982.000000	39.261975
1981.000000	39.177887
1980.000000	39.065037
1979.000000	38.966994
1978.000000	38.866107
1977.000000	38.761147
1976.000000	38.681640
1975.000000	38.623812
1974.000000	38.518503
1973.000000	38.394167
1972.000000	38.292821
1971.000000	38.221161
1970.000000	38.160025
1969.000000	38.102043
1968.000000	37.971051
1967.000000	37.887376
1966.000000	37.796464
1965.000000	37.713134
1964.000000	37.588172
1963.000000	37.536581
1962.000000	37.483971
1961.000000	37.378140
1960.000000	37.325870
1959.000000	37.236285
1958.000000	37.182447
1957.000000	37.084341
1956.000000	37.056843
1955.000000	37.022242
1954.000000	36.927609
1953.000000	36.878417
1952.000000	36.808930
1951.000000	36.786136
1950.000000	36.720402
1949.000000	36.711078
1948.000000	36.709150
1947.000000	36.676667
1946.000000	36.666447
1945.000000	36.698940
1944.000000	36.713271
1943.000000	36.692549
1942.000000	36.706660
1941.000000	36.740286
1940.000000	36.783016
1939.000000	36.817249
1938.000000	36.882731
1937.000000	36.916422
1936.000000	37.072191
1935.000000	37.199161
1934.000000	37.276407
1933.000000	37.371482
1932.000000	37.502105
1931.000000	37.683718
1930.000000	37.879981
1929.000000	38.028706
1928.000000	38.159201
1927.000000	38.342725
1926.000000	38.527375
1925.000000	38.762050
1924.000000	38.987168
1923.000000	39.191065
1922.000000	39.411488
1921.000000	39.702137
1920.000000	39.939322
1919.000000	40.249418
1918.000000	40.550469
1917.000000	40.895425
1916.000000	41.056112
1915.000000	41.456904
1914.000000	41.782775
1913.000000	42.172332
1912.000000	42.479540
1911.000000	42.819384
1910.000000	43.244249
1909.000000	43.525016
1908.000000	44.052860
1907.000000	44.437013
1906.000000	44.838194
1905.000000	45.328896
1904.000000	45.738672
1903.000000	46.209813
1902.000000	46.660852
1901.000000	47.155181
1900.000000	47.624375
1899.000000	48.089951
1898.000000	48.585404
1897.000000	49.106861
1896.000000	49.526599
1895.000000	50.022391
1894.000000	50.430647
1893.000000	50.968687
1892.000000	51.441053
1891.000000	51.812468
1890.000000	52.286573
1889.000000	52.720354
1888.000000	53.121588
1887.000000	53.560996
1886.000000	53.900393
1885.000000	54.353950
1884.000000	54.716003
1883.000000	55.142483
1882.000000	55.417074
1881.000000	55.738129
1880.000000	56.081194
1879.000000	56.326085
1878.000000	56.651998
1877.000000	56.918030
1876.000000	57.221366
1875.000000	57.465659
1874.000000	57.661012
1873.000000	57.903551
1872.000000	58.078891
1871.000000	58.256959
1870.000000	58.431908
1869.000000	58.573748
1868.000000	58.744811
1867.000000	58.823732
1866.000000	58.935864
1865.000000	59.074630
1864.000000	59.147945
1863.000000	59.255079
1862.000000	59.330237
1861.000000	59.373019
1860.000000	59.454961
1859.000000	59.518142
1858.000000	59.608027
1857.000000	59.615659
1856.000000	59.641916
1855.000000	59.704345
1854.000000	59.769212
1853.000000	59.785402
1852.000000	59.788025
1851.000000	59.803051
1850.000000	59.839174
1849.000000	59.832522
1848.000000	59.857980
1847.000000	59.859273
1846.000000	59.879163
1845.000000	59.834380
1844.000000	59.807626
1843.000000	59.799266
1842.000000	59.802446
1841.000000	59.797098
1840.000000	59.766349
1839.000000	59.714116
1838.000000	59.675620
1837.000000	59.663734
1836.000000	59.653780
1835.000000	59.598201
1834.000000	59.559497
1833.000000	59.540871
1832.000000	59.511106
1831.000000	59.460054
1830.000000	59.419589
1829.000000	59.414616
1828.000000	59.402691
1827.000000	59.361408
1826.000000	59.320129
1825.000000	59.305245
1824.000000	59.275486
1823.000000	59.250163
1822.000000	59.208491
1821.000000	59.190612
1820.000000	59.172513
1819.000000	59.131756
1818.000000	59.095885
1817.000000	59.059053
1816.000000	59.046574
1815.000000	59.027511
1814.000000	58.988213
1813.000000	58.961628
1812.000000	58.913628
1811.000000	58.881199
1810.000000	58.861418
1809.000000	58.840674
1808.000000	58.819221
1807.000000	58.789721
1806.000000	58.771446
1805.000000	58.737957
1804.000000	58.683733
1803.000000	58.656104
1802.000000	58.653848
1801.000000	58.639442
1800.000000	58.596418
1799.000000	58.568018
1798.000000	58.554040
1797.000000	58.539988
1796.000000	58.520887
1795.000000	58.496838
1794.000000	58.489912
1793.000000	58.472861
1792.000000	58.450842
1791.000000	58.457985
1790.000000	58.422045
1789.000000	58.392064
1788.000000	58.397053
1787.000000	58.376856
1786.000000	58.348650
1785.000000	58.328303
1784.000000	58.315437
1783.000000	58.305441
1782.000000	58.275726
1781.000000	58.229218
1780.000000	58.197955
1779.000000	58.189589
1778.000000	58.149788
1777.000000	58.112719
1776.000000	58.087561
1775.000000	58.033821
1774.000000	58.005107
1773.000000	57.943149
1772.000000	57.896395
1771.000000	57.873362
1770.000000	57.832674
1769.000000	57.776892
1768.000000	57.737634
1767.000000	57.679936
1766.000000	57.657448
1765.000000	57.614226
1764.000000	57.609158
1763.000000	57.521648
1762.000000	57.468343
1761.000000	57.452901
1760.000000	57.398614
1759.000000	57.360532
1758.000000	57.319346
1757.000000	57.285342
1756.000000	57.252624
1755.000000	57.217615
1754.000000	57.169365
1753.000000	57.132695
1752.000000	57.100378
1751.000000	57.060364
1750.000000	57.022338
1749.000000	56.974583
1748.000000	56.917993
1747.000000	56.870900
1746.000000	56.853476
1745.000000	56.792877
1744.000000	56.760701
1743.000000	56.724247
1742.000000	56.682835
1741.000000	56.659166
1740.000000	56.623111
1739.000000	56.550161
1738.000000	56.526188
1737.000000	56.512294
1736.000000	56.495176
1735.000000	56.471668
1734.000000	56.489956
1733.000000	56.455483
1732.000000	56.473065
1731.000000	56.513838
1730.000000	56.491996
1729.000000	56.548393
1728.000000	56.598639
1727.000000	56.649525
1726.000000	56.713039
1725.000000	56.768901
1724.000000	56.845562
1723.000000	56.903677
1722.000000	57.037175
1721.000000	57.096599
1720.000000	57.205105
1719.000000	57.269612
1718.000000	57.371029
1717.000000	57.455331
1716.000000	57.571446
1715.000000	57.640155
1714.000000	57.740019
1713.000000	57.828600
1712.000000	57.862250
1711.000000	57.945766
1710.000000	58.011148
1709.000000	58.075180
1708.000000	58.094782
1707.000000	58.134546
1706.000000	58.183728
1705.000000	58.212145
1704.000000	58.247300
1703.000000	58.230077
1702.000000	58.276484
1701.000000	58.331309
1700.000000	58.308489
1699.000000	58.325670
1698.000000	58.352584
1697.000000	58.414997
1696.000000	58.428251
1695.000000	58.455939
1694.000000	58.471404
1693.000000	58.519775
1692.000000	58.558956
1691.000000	58.625384
1690.000000	58.710959
1689.000000	58.786153
1688.000000	58.872445
1687.000000	58.967970
1686.000000	59.082001
1685.000000	59.187863
1684.000000	59.316044
1683.000000	59.459017
1682.000000	59.603783
1681.000000	59.762232
1680.000000	59.860681
1679.000000	60.012129
1678.000000	60.208091
1677.000000	60.330560
1676.000000	60.500419
1675.000000	60.651819
1674.000000	60.828616
1673.000000	60.954885
1672.000000	61.126973
1671.000000	61.227411
1670.000000	61.383671
1669.000000	61.567771
1668.000000	61.677007
1667.000000	61.786814
1666.000000	61.864546
1665.000000	61.942554
1664.000000	62.037463
1663.000000	62.124562
1662.000000	62.193292
1661.000000	62.275410
1660.000000	62.317204
1659.000000	62.387912
1658.000000	62.435994
1657.000000	62.452899
1656.000000	62.485394
1655.000000	62.518425
1654.000000	62.547768
1653.000000	62.569785
1652.000000	62.587113
1651.000000	62.570000
1650.000000	62.601648
1649.000000	62.596131
1648.000000	62.572031
1647.000000	62.577359
1646.000000	62.561299
1645.000000	62.559218
1644.000000	62.534764
1643.000000	62.509544
1642.000000	62.509569
1641.000000	62.497614
1640.000000	62.472042
1639.000000	62.453178
1638.000000	62.407029
1637.000000	62.376402
1636.000000	62.360506
1635.000000	62.340020
1634.000000	62.322894
1633.000000	62.268798
1632.000000	62.245215
1631.000000	62.206513
1630.000000	62.155017
1629.000000	62.114295
1628.000000	62.090948
1627.000000	62.056966
1626.000000	62.006583
1625.000000	61.958112
1624.000000	61.933273
1623.000000	61.908417
1622.000000	61.867990
1621.000000	61.814628
1620.000000	61.782220
1619.000000	61.742996
1618.000000	61.682083
1617.000000	61.647143
1616.000000	61.592552
1615.000000	61.540859
1614.000000	61.505853
1613.000000	61.455518
1612.000000	61.394166
1611.000000	61.344722
1610.000000	61.297671
1609.000000	61.242595
1608.000000	61.196914
1607.000000	61.143273
1606.000000	61.071340
1605.000000	61.016958
1604.000000	60.975929
1603.000000	60.913476
1602.000000	60.859444
1601.000000	60.805949
1600.000000	60.758166
1599.000000	60.713220
1598.000000	60.647679
1597.000000	60.593871
1596.000000	60.550204
1595.000000	60.508437
1594.000000	60.467484
1593.000000	60.441015
1592.000000	60.385166
1591.000000	60.330687
1590.000000	60.296413
1589.000000	60.250318
1588.000000	60.204058
1587.000000	60.165981
1586.000000	60.136677
1585.000000	60.094008
1584.000000	60.053236
1583.000000	60.022921
1582.000000	59.981649
1581.000000	59.938211
1580.000000	59.897757
1579.000000	59.870663
1578.000000	59.855006
1577.000000	59.802685
1576.000000	59.748230
1575.000000	59.729729
1574.000000	59.692217
1573.000000	59.659631
1572.000000	59.621297
1571.000000	59.579662
1570.000000	59.550699
1569.000000	59.496612
1568.000000	59.462260
1567.000000	59.435007
1566.000000	59.408989
1565.000000	59.377610
1564.000000	59.363953
1563.000000	59.349214
1562.000000	59.316077
1561.000000	59.291259
1560.000000	59.290122
1559.000000	59.263409
1558.000000	59.241947
1557.000000	59.233929
1556.000000	59.221897
1555.000000	59.195125
1554.000000	59.164931
1553.000000	59.132555
1552.000000	59.112856
1551.000000	59.100249
1550.000000	59.080761
1549.000000	59.026297
1548.000000	58.995433
1547.000000	58.955425
1546.000000	58.905063
1545.000000	58.864711
1544.000000	58.788915
1543.000000	58.727599
1542.000000	58.679484
1541.000000	58.600664
1540.000000	58.536001
1539.000000	58.450880
1538.000000	58.372786
1537.000000	58.298753
1536.000000	58.236537
1535.000000	58.155071
1534.000000	58.093461
1533.000000	58.018599
1532.000000	57.948029
1531.000000	57.873177
1530.000000	57.806898
1529.000000	57.734297
1528.000000	57.664409
1527.000000	57.612141
1526.000000	57.562826
1525.000000	57.496951
1524.000000	57.450911
1523.000000	57.413684
1522.000000	57.371577
1521.000000	57.331076
1520.000000	57.289115
1519.000000	57.247458
1518.000000	57.239025
1517.000000	57.217679
1516.000000	57.224742
1515.000000	57.194245
1514.000000	57.207888
1513.000000	57.168870
1512.000000	57.147555
1511.000000	57.097080
1510.000000	57.071383
1509.000000	57.052604
1508.000000	57.031034
1507.000000	57.029420
1506.000000	57.002481
1505.000000	56.974684
1504.000000	56.991224
1503.000000	56.961780
1502.000000	56.956661
1501.000000	56.974127
1500.000000	56.961808
1499.000000	56.955942
1498.000000	56.973737
1497.000000	57.000023
1496.000000	57.001619
1495.000000	56.995635
1494.000000	56.990813
1493.000000	57.016121
1492.000000	57.011756
1491.000000	57.027113
1490.000000	57.047265
1489.000000	57.081961
1488.000000	57.138102
1487.000000	57.148917
1486.000000	57.194248
1485.000000	57.242396
1484.000000	57.280012
1483.000000	57.289185
1482.000000	57.328945
1481.000000	57.372617
1480.000000	57.419261
1479.000000	57.450572
1478.000000	57.503157
1477.000000	57.540302
1476.000000	57.592084
1475.000000	57.653935
1474.000000	57.671920
1473.000000	57.732692
1472.000000	57.779734
1471.000000	57.835054
1470.000000	57.873511
1469.000000	57.903423
1468.000000	57.932543
1467.000000	57.997681
1466.000000	58.010006
1465.000000	58.047416
1464.000000	58.108485
1463.000000	58.164914
1462.000000	58.196572
1461.000000	58.223134
1460.000000	58.250474
1459.000000	58.338625
1458.000000	58.376571
1457.000000	58.405669
1456.000000	58.456202
1455.000000	58.523209
1454.000000	58.566075
1453.000000	58.625328
1452.000000	58.684413
1451.000000	58.733887
1450.000000	58.802655
1449.000000	58.866012
1448.000000	58.922182
1447.000000	59.013497
1446.000000	59.059503
1445.000000	59.137282
1444.000000	59.235188
1443.000000	59.287718
1442.000000	59.370522
1441.000000	59.445334
1440.000000	59.530566
1439.000000	59.616545
1438.000000	59.706283
1437.000000	59.806577
1436.000000	59.920128
1435.000000	60.013710
1434.000000	60.098343
1433.000000	60.221082
1432.000000	60.337613
1431.000000	60.448275
1430.000000	60.565407
1429.000000	60.686582
1428.000000	60.819904
1427.000000	60.947364
1426.000000	61.068212
1425.000000	61.219774
1424.000000	61.369077
1423.000000	61.518300
1422.000000	61.657702
1421.000000	61.811812
1420.000000	61.983043
1419.000000	62.147684
1418.000000	62.314580
1417.000000	62.484895
1416.000000	62.655489
1415.000000	62.838600
1414.000000	63.011257
1413.000000	63.177954
1412.000000	63.358079
1411.000000	63.535309
1410.000000	63.717435
1409.000000	63.902092
1408.000000	64.079184
1407.000000	64.270629
1406.000000	64.445922
1405.000000	64.614952
1404.000000	64.778117
1403.000000	64.938150
1402.000000	65.105360
1401.000000	65.267094
1400.000000	65.428285
1399.000000	65.579069
1398.000000	65.736966
1397.000000	65.880143
1396.000000	66.027730
1395.000000	66.171040
1394.000000	66.303853
1393.000000	66.429421
1392.000000	66.559872
1391.000000	66.688529
1390.000000	66.805770
1389.000000	66.950671
1388.000000	67.077002
1387.000000	67.166352
1386.000000	67.257816
1385.000000	67.357631
1384.000000	67.460059
1383.000000	67.538752
1382.000000	67.607287
1381.000000	67.693127
1380.000000	67.780319
1379.000000	67.830161
1378.000000	67.884008
1377.000000	67.948447
1376.000000	67.990110
1375.000000	68.046289
1374.000000	68.111781
1373.000000	68.156666
1372.000000	68.186948
1371.000000	68.231684
1370.000000	68.282428
1369.000000	68.327840
1368.000000	68.380957
1367.000000	68.422818
1366.000000	68.458909
1365.000000	68.514545
1364.000000	68.560173
1363.000000	68.600641
1362.000000	68.648260
1361.000000	68.690399
1360.000000	68.731559
1359.000000	68.764765
1358.000000	68.816709
1357.000000	68.858617
1356.000000	68.915050
1355.000000	68.976376
1354.000000	69.013301
1353.000000	69.036196
1352.000000	69.104500
1351.000000	69.156284
1350.000000	69.197079
1349.000000	69.254448
1348.000000	69.302688
1347.000000	69.344576
1346.000000	69.379090
1345.000000	69.452525
1344.000000	69.523893
1343.000000	69.558436
1342.000000	69.591925
1341.000000	69.629927
1340.000000	69.660453
1339.000000	69.723807
1338.000000	69.767322
1337.000000	69.818551
1336.000000	69.840814
1335.000000	69.884738
1334.000000	69.919572
1333.000000	69.923575
1332.000000	69.965758
1331.000000	70.002823
1330.000000	70.037281
1329.000000	70.057798
1328.000000	70.079506
1327.000000	70.093630
1326.000000	70.129216
1325.000000	70.163815
1324.000000	70.174595
1323.000000	70.206241
1322.000000	70.221724
1321.000000	70.205142
1320.000000	70.231749
1319.000000	70.260725
1318.000000	70.248862
1317.000000	70.297313
1316.000000	70.310589
1315.000000	70.295709
1314.000000	70.323985
1313.000000	70.341215
1312.000000	70.351895
1311.000000	70.369497
1310.000000	70.375254
1309.000000	70.380441
1308.000000	70.404535
1307.000000	70.430235
1306.000000	70.439497
1305.000000	70.454679
1304.000000	70.468022
1303.000000	70.491908
1302.000000	70.505884
1301.000000	70.512471
1300.000000	70.508916
1299.000000	70.519274
1298.000000	70.511322
1297.000000	70.523889
1296.000000	70.525546
1295.000000	70.522945
1294.000000	70.539912
1293.000000	70.526618
1292.000000	70.536687
1291.000000	70.515040
1290.000000	70.529640
1289.000000	70.536719
1288.000000	70.565948
1287.000000	70.567733
1286.000000	70.542269
1285.000000	70.550872
1284.000000	70.531998
1283.000000	70.545206
1282.000000	70.536998
1281.000000	70.532528
1280.000000	70.542963
1279.000000	70.556384
1278.000000	70.570544
1277.000000	70.553601
1276.000000	70.553847
1275.000000	70.558831
1274.000000	70.559056
1273.000000	70.562101
1272.000000	70.566510
1271.000000	70.578598
1270.000000	70.571528
1269.000000	70.603166
1268.000000	70.598596
1267.000000	70.594508
1266.000000	70.610135
1265.000000	70.593947
1264.000000	70.608838
1263.000000	70.645515
1262.000000	70.688271
1261.000000	70.672144
1260.000000	70.654068
1259.000000	70.656112
1258.000000	70.692960
1257.000000	70.698849
1256.000000	70.686213
1255.000000	70.732610
1254.000000	70.716625
1253.000000	70.714330
1252.000000	70.742437
1251.000000	70.727814
1250.000000	70.733773
1249.000000	70.722850
1248.000000	70.770650
1247.000000	70.731412
1246.000000	70.712737
1245.000000	70.726853
1244.000000	70.728827
1243.000000	70.720341
1242.000000	70.721609
1241.000000	70.698585
1240.000000	70.671762
1239.000000	70.678227
1238.000000	70.655929
1237.000000	70.641649
1236.000000	70.643310
1235.000000	70.639557
1234.000000	70.613084
1233.000000	70.600355
1232.000000	70.569061
1231.000000	70.564620
1230.000000	70.580731
1229.000000	70.546924
1228.000000	70.555641
1227.000000	70.522892
1226.000000	70.526252
1225.000000	70.523827
1224.000000	70.506483
1223.000000	70.493966
1222.000000	70.487072
1221.000000	70.489786
1220.000000	70.485065
1219.000000	70.448270
1218.000000	70.443925
1217.000000	70.430635
1216.000000	70.421203
1215.000000	70.395661
1214.000000	70.371703
1213.000000	70.346734
1212.000000	70.336425
1211.000000	70.328181
1210.000000	70.295071
1209.000000	70.268260
1208.000000	70.221672
1207.000000	70.183046
1206.000000	70.182486
1205.000000	70.177698
1204.000000	70.127735
1203.000000	70.126417
1202.000000	70.104144
1201.000000	70.062564
1200.000000	70.032219
1199.000000	69.999506
1198.000000	70.013763
1197.000000	69.987738
1196.000000	69.964699
1195.000000	69.942715
1194.000000	69.923521
1193.000000	69.911979
1192.000000	69.897343
1191.000000	69.883383
1190.000000	69.880998
1189.000000	69.850135
1188.000000	69.836332
1187.000000	69.850266
1186.000000	69.849287
1185.000000	69.847939
1184.000000	69.851377
1183.000000	69.863574
1182.000000	69.888170
1181.000000	69.909797
1180.000000	69.932939
1179.000000	69.950122
1178.000000	69.977641
1177.000000	70.013378
1176.000000	70.042370
1175.000000	70.082673
1174.000000	70.125414
1173.000000	70.176717
1172.000000	70.229378
1171.000000	70.266504
1170.000000	70.312187
1169.000000	70.371015
1168.000000	70.430212
1167.000000	70.501221
1166.000000	70.562014
1165.000000	70.618818
1164.000000	70.680113
1163.000000	70.738785
1162.000000	70.797905
1161.000000	70.862040
1160.000000	70.915048
1159.000000	70.957405
1158.000000	71.018299
1157.000000	71.082742
1156.000000	71.130101
1155.000000	71.166917
1154.000000	71.218372
1153.000000	71.273256
1152.000000	71.318138
1151.000000	71.362905
1150.000000	71.410786
1149.000000	71.445582
1148.000000	71.478963
1147.000000	71.524316
1146.000000	71.553830
1145.000000	71.577760
1144.000000	71.631024
1143.000000	71.679971
1142.000000	71.706990
1141.000000	71.742369
1140.000000	71.775370
1139.000000	71.808940
1138.000000	71.833065
1137.000000	71.865565
1136.000000	71.904537
1135.000000	71.931221
1134.000000	71.965659
1133.000000	72.003475
1132.000000	72.030045
1131.000000	72.058619
1130.000000	72.083479
1129.000000	72.097920
1128.000000	72.129429
1127.000000	72.127783
1126.000000	72.144838
1125.000000	72.166696
1124.000000	72.186609
1123.000000	72.204127
1122.000000	72.217485
1121.000000	72.239925
1120.000000	72.246220
1119.000000	72.259121
1118.000000	72.273512
1117.000000	72.268179
1116.000000	72.282577
1115.000000	72.296992
1114.000000	72.309383
1113.000000	72.315340
1112.000000	72.310063
1111.000000	72.320158
1110.000000	72.322355
1109.000000	72.335239
1108.000000	72.333258
1107.000000	72.334486
1106.000000	72.339537
1105.000000	72.343524
1104.000000	72.375378
1103.000000	72.369968
1102.000000	72.369582
1101.000000	72.358525
1100.000000	72.365067
1099.000000	72.365355
1098.000000	72.386460
1097.000000	72.398948
1096.000000	72.400900
1095.000000	72.408692
1094.000000	72.419436
1093.000000	72.426340
1092.000000	72.427475
1091.000000	72.420345
1090.000000	72.422014
1089.000000	72.435381
1088.000000	72.438797
1087.000000	72.435476
1086.000000	72.425177
1085.000000	72.427351
1084.000000	72.452476
1083.000000	72.445292
1082.000000	72.452970
1081.000000	72.451797
1080.000000	72.445295
1079.000000	72.448517
1078.000000	72.445231
1077.000000	72.450708
1076.000000	72.450996
1075.000000	72.460071
1074.000000	72.462093
1073.000000	72.458478
1072.000000	72.449228
1071.000000	72.451790
1070.000000	72.442991
1069.000000	72.432769
1068.000000	72.446114
1067.000000	72.461182
1066.000000	72.465278
1065.000000	72.457651
1064.000000	72.457461
1063.000000	72.448927
1062.000000	72.462474
1061.000000	72.450411
1060.000000	72.464301
1059.000000	72.453247
1058.000000	72.433299
1057.000000	72.460616
1056.000000	72.447088
1055.000000	72.438885
1054.000000	72.455728
1053.000000	72.467343
1052.000000	72.434699
1051.000000	72.435810
1050.000000	72.435375
1049.000000	72.435366
1048.000000	72.454765
1047.000000	72.457690
1046.000000	72.443109
1045.000000	72.437947
1044.000000	72.446798
1043.000000	72.444766
1042.000000	72.464944
1041.000000	72.476588
1040.000000	72.469638
1039.000000	72.477281
1038.000000	72.470632
1037.000000	72.467058
1036.000000	72.461465
1035.000000	72.493347
1034.000000	72.483958
1033.000000	72.478744
1032.000000	72.495199
1031.000000	72.497870
1030.000000	72.504924
1029.000000	72.500356
1028.000000	72.498882
1027.000000	72.493182
1026.000000	72.518655
1025.000000	72.528759
1024.000000	72.512569
1023.000000	72.536216
1022.000000	72.535401
1021.000000	72.540742
1020.000000	72.544568
1019.000000	72.561689
1018.000000	72.565630
1017.000000	72.604998
1016.000000	72.575563
1015.000000	72.583204
1014.000000	72.607666
1013.000000	72.601529
1012.000000	72.625834
1011.000000	72.621345
1010.000000	72.645081
1009.000000	72.642675
1008.000000	72.655218
1007.000000	72.667015
1006.000000	72.671017
1005.000000	72.689343
1004.000000	72.715413
1003.000000	72.699057
1002.000000	72.707674
1001.000000	72.724961
1000.000000	72.738847
999.000000	72.752837
998.000000	72.756652
997.000000	72.776184
996.000000	72.788853
995.000000	72.793075
994.000000	72.805158
993.000000	72.814791
992.000000	72.823010
991.000000	72.833454
990.000000	72.851200
989.000000	72.845585
988.000000	72.842985
987.000000	72.872799
986.000000	72.877414
985.000000	72.867137
984.000000	72.880094
983.000000	72.923767
982.000000	72.910920
981.000000	72.910337
980.000000	72.936662
979.000000	72.945658
978.000000	72.943030
977.000000	72.971040
976.000000	72.984872
975.000000	72.964633
974.000000	72.973095
973.000000	72.986964
972.000000	72.995259
971.000000	73.006628
970.000000	73.005287
969.000000	73.024033
968.000000	73.030416
967.000000	73.025046
966.000000	73.040580
965.000000	73.047945
964.000000	73.056000
963.000000	73.077480
962.000000	73.082227
961.000000	73.072068
960.000000	73.080874
959.000000	73.095935
958.000000	73.107624
957.000000	73.112579
956.000000	73.139570
955.000000	73.138371
954.000000	73.135512
953.000000	73.145077
952.000000	73.155873
951.000000	73.157940
950.000000	73.168293
949.000000	73.190200
948.000000	73.195353
947.000000	73.211657
946.000000	73.209880
945.000000	73.202486
944.000000	73.218876
943.000000	73.222179
942.000000	73.236684
941.000000	73.254934
940.000000	73.247547
939.000000	73.231090
938.000000	73.241884
937.000000	73.248235
936.000000	73.231009
935.000000	73.244374
934.000000	73.271991
933.000000	73.268099
932.000000	73.278250
931.000000	73.266345
930.000000	73.264254
929.000000	73.281552
928.000000	73.294027
927.000000	73.283564
926.000000	73.277543
925.000000	73.296695
924.000000	73.284043
923.000000	73.297572
922.000000	73.297076
921.000000	73.267828
920.000000	73.284680
919.000000	73.287907
918.000000	73.302646
917.000000	73.319287
916.000000	73.294741
915.000000	73.286308
914.000000	73.319582
913.000000	73.287548
912.000000	73.276781
911.000000	73.283036
910.000000	73.287703
909.000000	73.337622
908.000000	73.315506
907.000000	73.297062
906.000000	73.287793
905.000000	73.302116
904.000000	73.331063
903.000000	73.332132
902.000000	73.340733
901.000000	73.360166
900.000000	73.356660
899.000000	73.386885
898.000000	73.352637
897.000000	73.340578
896.000000	73.320786
895.000000	73.333102
894.000000	73.385015
893.000000	73.404640
892.000000	73.422015
891.000000	73.386552
890.000000	73.404420
889.000000	73.403440
888.000000	73.470475
887.000000	73.463690
886.000000	73.381940
885.000000	73.410895
884.000000	73.394346
883.000000	73.350035
882.000000	73.395697
881.000000	73.474970
880.000000	73.504697
879.000000	73.418524
878.000000	73.408980
877.000000	73.465418
876.000000	73.461176
875.000000	73.440557
874.000000	73.424489
873.000000	73.454775
872.000000	73.472955
871.000000	73.497843
870.000000	73.450103
869.000000	73.445341
868.000000	73.400020
867.000000	73.446543
866.000000	73.499671
865.000000	73.462885
864.000000	73.457490
863.000000	73.416347
862.000000	73.433437
861.000000	73.305967
860.000000	73.470709
859.000000	73.075414
858.000000	72.912111
857.000000	72.824573
856.000000	73.443866
855.000000	72.998727
854.000000	73.049201
853.000000	73.193699
852.000000	72.496067
851.000000	73.094511
850.000000	72.799509
849.000000	72.666634
848.000000	73.047041
847.000000	73.031937
846.000000	72.820621
845.000000	72.882016
844.000000	72.855086
843.000000	72.871104
842.000000	72.817681
841.000000	72.749619
840.000000	72.664785
839.000000	72.762604
838.000000	72.733845
837.000000	72.921470
836.000000	72.985608
835.000000	72.529056
834.000000	72.746400
833.000000	72.754044
832.000000	72.862289
831.000000	72.908990
830.000000	72.917045
829.000000	72.645021
828.000000	72.675600
827.000000	72.894282
826.000000	72.759394
825.000000	72.585610
824.000000	72.371639
823.000000	72.471323
822.000000	72.626745
821.000000	72.621366
820.000000	72.677659
819.000000	72.727662
818.000000	72.665555
817.000000	72.567439
816.000000	72.637118
815.000000	72.882233
814.000000	72.482567
813.000000	72.468308
812.000000	72.490536
811.000000	72.743769
810.000000	72.711804
809.000000	72.637103
808.000000	72.625266
807.000000	72.795120
806.000000	72.556957
805.000000	72.576794
804.000000	72.672673
803.000000	72.704816
802.000000	72.508770
801.000000	72.462238
800.000000	72.574645
799.000000	72.546533
798.000000	72.339762
797.000000	72.590247
796.000000	72.545577
795.000000	72.501797
794.000000	72.460393
793.000000	72.474836
792.000000	72.467480
791.000000	72.555241
790.000000	72.424978
789.000000	72.450903
788.000000	72.470650
787.000000	72.477311
786.000000	72.470966
785.000000	72.404793
784.000000	72.345467
783.000000	72.483055
782.000000	72.541685
781.000000	72.523186
780.000000	72.542713
779.000000	72.497024
778.000000	72.335256
777.000000	72.352457
776.000000	72.362854
775.000000	72.386862
774.000000	72.435948
773.000000	72.412258
772.000000	72.354658
771.000000	72.322814
770.000000	72.288087
769.000000	72.306179
768.000000	72.293403
767.000000	72.329108
766.000000	72.240851
765.000000	72.348971
764.000000	72.231921
763.000000	72.196342
762.000000	72.138041
761.000000	72.148534
760.000000	72.143122
759.000000	72.177365
758.000000	72.322994
757.000000	72.231286
756.000000	72.112973
755.000000	72.068020
754.000000	72.093547
753.000000	72.133363
752.000000	72.201192
751.000000	72.087595
750.000000	71.983590
749.000000	71.908250
748.000000	71.946931
747.000000	72.073334
746.000000	72.106463
745.000000	72.047681
744.000000	71.895137
743.000000	71.919672
742.000000	71.908491
741.000000	71.874341
740.000000	71.899139
739.000000	71.881389
738.000000	71.838558
737.000000	71.827451
736.000000	71.739529
735.000000	71.779085
734.000000	71.822844
733.000000	71.856478
732.000000	71.788634
731.000000	71.678577
730.000000	71.714671
729.000000	71.733321
728.000000	71.704965
727.000000	71.722884
726.000000	71.660240
725.000000	71.565974
724.000000	71.571194
723.000000	71.644987
722.000000	71.566835
721.000000	71.586716
720.000000	71.620836
719.000000	71.539664
718.000000	71.519384
717.000000	71.486505
716.000000	71.393909
715.000000	71.426596
714.000000	71.420056
713.000000	71.388287
712.000000	71.396400
711.000000	71.371449
710.000000	71.343386
709.000000	71.309988
708.000000	71.279882
707.000000	71.245315
706.000000	71.229456
705.000000	71.214749
704.000000	71.151768
703.000000	71.141813
702.000000	71.148496
701.000000	71.076519
700.000000	71.031485
699.000000	71.037060
698.000000	70.980623
697.000000	70.989672
696.000000	71.016847
695.000000	70.936688
694.000000	70.853075
693.000000	70.897976
692.000000	70.899835
691.000000	70.892051
690.000000	70.833104
689.000000	70.658150
688.000000	70.542052
687.000000	70.545146
686.000000	70.527707
685.000000	70.520428
684.000000	70.512162
683.000000	70.493347
682.000000	70.518195
681.000000	70.468289
680.000000	70.421573
679.000000	70.320732
678.000000	70.263816
677.000000	70.273778
676.000000	70.242668
675.000000	70.219892
674.000000	70.217878
673.000000	70.153638
672.000000	70.125146
671.000000	70.087452
670.000000	70.029375
669.000000	69.982914
668.000000	69.974222
667.000000	69.975207
666.000000	69.879004
665.000000	69.803565
664.000000	69.769201
663.000000	69.771159
662.000000	69.740922
661.000000	69.634699
660.000000	69.560660
659.000000	69.578296
658.000000	69.523370
657.000000	69.423863
656.000000	69.437584
655.000000	69.408467
654.000000	69.375675
653.000000	69.332588
652.000000	69.275359
651.000000	69.225369
650.000000	69.189388
649.000000	69.166092
648.000000	69.139193
647.000000	69.105436
646.000000	69.017608
645.000000	68.915293
644.000000	68.899783
643.000000	68.820998
642.000000	68.872713
641.000000	68.875456
640.000000	68.736783
639.000000	68.716062
638.000000	68.634616
637.000000	68.624347
636.000000	68.523291
635.000000	68.499050
634.000000	68.467341
633.000000	68.385428
632.000000	68.338016
631.000000	68.283497
630.000000	68.236789
629.000000	68.244042
628.000000	68.122686
627.000000	68.104090
626.000000	68.048437
625.000000	67.898880
624.000000	67.928515
623.000000	67.978904
622.000000	67.856463
621.000000	67.803156
620.000000	67.681787
619.000000	67.679776
618.000000	67.632371
617.000000	67.572899
616.000000	67.520101
615.000000	67.515676
614.000000	67.424673
613.000000	67.342049
612.000000	67.220501
611.000000	67.279653
610.000000	67.215200
609.000000	67.131303
608.000000	67.063041
607.000000	66.996808
606.000000	66.950008
605.000000	66.847306
604.000000	66.771533
603.000000	66.706183
602.000000	66.663175
601.000000	66.625196
600.000000	66.532322
599.000000	66.458044
598.000000	66.444910
597.000000	66.428209
596.000000	66.317751
595.000000	66.195929
594.000000	66.098067
593.000000	66.047067
592.000000	65.976825
591.000000	65.941417
590.000000	65.857485
589.000000	65.741425
588.000000	65.705590
587.000000	65.664309
586.000000	65.545681
585.000000	65.551119
584.000000	65.450492
583.000000	65.411259
582.000000	65.374124
581.000000	65.251721
580.000000	65.159068
579.000000	65.076776
578.000000	64.982882
577.000000	64.937554
576.000000	64.853948
575.000000	64.768809
574.000000	64.631572
573.000000	64.552028
572.000000	64.479209
571.000000	64.401571
570.000000	64.361302
569.000000	64.200753
568.000000	64.215647
567.000000	64.117802
566.000000	63.973016
565.000000	63.946602
564.000000	63.831901
563.000000	63.750085
562.000000	63.653099
561.000000	63.588686
560.000000	63.471694
559.000000	63.446998
558.000000	63.316260
557.000000	63.235846
556.000000	63.112320
555.000000	63.059059
554.000000	62.931445
553.000000	62.856418
552.000000	62.707978
551.000000	62.615891
550.000000	62.563057
549.000000	62.427187
548.000000	62.305469
547.000000	62.230417
546.000000	62.097524
545.000000	62.028547
544.000000	61.900176
543.000000	61.804411
542.000000	61.677503
541.000000	61.615183
540.000000	61.498067
539.000000	61.447791
538.000000	61.302922
537.000000	61.201831
536.000000	61.105612
535.000000	61.008526
534.000000	60.894204
533.000000	60.791335
532.000000	60.701065
531.000000	60.549776
530.000000	60.431941
529.000000	60.328580
528.000000	60.192501
527.000000	60.108523
526.000000	60.000261
525.000000	59.847194
524.000000	59.723668
523.000000	59.673149
522.000000	59.533061
521.000000	59.431008
520.000000	59.321443
519.000000	59.197935
518.000000	59.052531
517.000000	58.971598
516.000000	58.841978
515.000000	58.748328
514.000000	58.626505
513.000000	58.468783
512.000000	58.356391
511.000000	58.263576
510.000000	58.100063
509.000000	58.009455
508.000000	57.903105
507.000000	57.758882
506.000000	57.625911
505.000000	57.470573
504.000000	57.353541
503.000000	57.251086
502.000000	57.151353
501.000000	56.984007
500.000000	56.807227
499.000000	56.703811
498.000000	56.573346
497.000000	56.423366
496.000000	56.279991
495.000000	56.174126
494.000000	56.040646
493.000000	55.886642
492.000000	55.770389
491.000000	55.684435
490.000000	55.541850
489.000000	55.372817
488.000000	55.259006
487.000000	55.127678
486.000000	54.971869
485.000000	54.840255
484.000000	54.737921
483.000000	54.633548
482.000000	54.502961
481.000000	54.377025
480.000000	54.226006
479.000000	54.106242
478.000000	53.960788
477.000000	53.818671
476.000000	53.681044
475.000000	53.508208
474.000000	53.397593
473.000000	53.280659
472.000000	53.154202
471.000000	53.032144
470.000000	52.870797
469.000000	52.734625
468.000000	52.622701
467.000000	52.504414
466.000000	52.395414
465.000000	52.241812
464.000000	52.080524
463.000000	51.921662
462.000000	51.777988
461.000000	51.678926
460.000000	51.505851
459.000000	51.315027
458.000000	51.201377
457.000000	51.076095
456.000000	50.938820
455.000000	50.751798
454.000000	50.538779
453.000000	50.382579
452.000000	50.266825
451.000000	50.074638
450.000000	49.888401
449.000000	49.708367
448.000000	49.540038
447.000000	49.346134
446.000000	49.181860
445.000000	49.037761
444.000000	48.827447
443.000000	48.640674
442.000000	48.454855
441.000000	48.258222
440.000000	48.091426
439.000000	47.886735
438.000000	47.706121
437.000000	47.526949
436.000000	47.303330
435.000000	47.109886
434.000000	46.884486
433.000000	46.680520
432.000000	46.504479
431.000000	46.311459
430.000000	46.165823
429.000000	45.943473
428.000000	45.739486
427.000000	45.504198
426.000000	45.290505
425.000000	45.089848
424.000000	44.885058
423.000000	44.712178
422.000000	44.498171
421.000000	44.252782
420.000000	44.043752
419.000000	43.786812
418.000000	43.593810
417.000000	43.376167
416.000000	43.211063
415.000000	42.957469
414.000000	42.772937
413.000000	42.595382
412.000000	42.376109
411.000000	42.137009
410.000000	41.946195
409.000000	41.693911
408.000000	41.467480
407.000000	41.259064
406.000000	41.092544
405.000000	40.836159
404.000000	40.660987
403.000000	40.412724
402.000000	40.217640
401.000000	39.967614
400.000000	39.761043
399.000000	39.552310
398.000000	39.319107
397.000000	39.081124
396.000000	38.890230
395.000000	38.710369
394.000000	38.443063
393.000000	38.228796
392.000000	38.061074
391.000000	37.824476
390.000000	37.608903
389.000000	37.364608
388.000000	37.136330
387.000000	36.892935
386.000000	36.650039
385.000000	36.441895
384.000000	36.206783
383.000000	36.023043
382.000000	35.791072
381.000000	35.547536
380.000000	35.315413
379.000000	35.064265
378.000000	34.854338
377.000000	34.636898
376.000000	34.332740
375.000000	34.226796
374.000000	34.040562
373.000000	33.871418
372.000000	33.665204
371.000000	33.346218
370.000000	33.176681
369.000000	32.976016
368.000000	32.771503
367.000000	32.612573
366.000000	32.383808
365.000000	32.205526
364.000000	32.088136
363.000000	31.886766
362.000000	31.641187
361.000000	31.535704
360.000000	31.238218
359.000000	31.259572
358.000000	30.952688
357.000000	30.800084
356.000000	30.537491
355.000000	30.354018
354.000000	30.245509
353.000000	30.043536
352.000000	29.831238
351.000000	29.655410
350.000000	29.561675
349.000000	29.377633
348.000000	29.117449
347.000000	29.127604
346.000000	28.843518
345.000000	28.679798
344.000000	28.488335
343.000000	28.510531
342.000000	28.307327
341.000000	28.047641
340.000000	27.930929
339.000000	27.725528
338.000000	27.435080
337.000000	27.350629
336.000000	27.156774
335.000000	27.130081
334.000000	26.892914
333.000000	26.784785
332.000000	26.653067
331.000000	26.372094
330.000000	26.385218
329.000000	26.182953
328.000000	26.083329
327.000000	26.082009
326.000000	25.912599
325.000000	25.664280
324.000000	25.557362
323.000000	25.437313
322.000000	25.366943
321.000000	25.074987
320.000000	25.069097
319.000000	25.074568
318.000000	25.059074
317.000000	24.885429
316.000000	24.738546
315.000000	24.736682
314.000000	24.509027
313.000000	24.436461
312.000000	24.329125
311.000000	24.216629
310.000000	24.212308
309.000000	24.139672
308.000000	24.034354
307.000000	23.999552
306.000000	23.980908
305.000000	23.775018
304.000000	23.708051
303.000000	23.753768
302.000000	23.576343
301.000000	23.566451
300.000000	23.483079
299.000000	23.357953
298.000000	23.284139
297.000000	23.123623
296.000000	23.069413
295.000000	23.018471
294.000000	22.859034
293.000000	22.687630
292.000000	22.612258
291.000000	22.554052
290.000000	22.442080
289.000000	22.341757
288.000000	22.089004
287.000000	21.992654
286.000000	21.919216
285.000000	21.781602
284.000000	21.726022
283.000000	21.749939
282.000000	21.658555
281.000000	21.630712
280.000000	21.583263
279.000000	21.594455
278.000000	21.558551
277.000000	21.541996
276.000000	21.663070
275.000000	21.651020
274.000000	21.638508
273.000000	21.537894
272.000000	21.709758
271.000000	21.706684
270.000000	21.697250
269.000000	21.678209
268.000000	21.685803
267.000000	21.730048
266.000000	21.866475
265.000000	21.890803
264.000000	21.879289
263.000000	21.986573
262.000000	22.035424
261.000000	22.125946
260.000000	22.262321
259.000000	22.324257
258.000000	22.524810
257.000000	22.573987
256.000000	22.649317
255.000000	22.752259
254.000000	22.967026
253.000000	23.218045
252.000000	23.346840
251.000000	23.457784
250.000000	23.539959
249.000000	23.709066
248.000000	23.848957
247.000000	23.938118
246.000000	24.167881
245.000000	24.249313
244.000000	24.145866
243.000000	24.124182
242.000000	24.128065
241.000000	24.097596
240.000000	24.020922
239.000000	23.901884
238.000000	23.828198
237.000000	23.698946
236.000000	23.353681
235.000000	23.162739
234.000000	22.985751
233.000000	22.681982
232.000000	22.486579
231.000000	22.205904
230.000000	21.877522
229.000000	21.667880
228.000000	21.451400
227.000000	21.077047
226.000000	20.832036
225.000000	20.619623
224.000000	20.332608
223.000000	20.057609
222.000000	19.887372
221.000000	19.638659
220.000000	19.436786
219.000000	19.289276
218.000000	19.157425
217.000000	19.039608
216.000000	18.841069
215.000000	18.791965
214.000000	18.749750
213.000000	18.697113
212.000000	18.693394
211.000000	18.609319
210.000000	18.528596
209.000000	18.421751
208.000000	18.618948
207.000000	18.796032
206.000000	18.794167
205.000000	18.962552
204.000000	19.364821
203.000000	19.751294
202.000000	20.057457
201.000000	20.591784
200.000000	21.251071
