PE UV       SUBTECH     SPECTRUM    ASCII       PEDS        4.00        
   -1
RTmsopph201.Sample.asc
18/03/19
13:50:57.00
18/03/19
13:50:57.00
Administrator

200.000000
1
Lambda 750
750N8071901
PerkinElmer UV WinLab 6.0.4.0738 / 1.61.00 Lambda 900

0
0
3350/servo 860.8/2
0
0
UV/VIS
1
1
1
CommonBeamDepol,150mm sphere / downward view
0
0
0
0
Program
Program
3350/servo 860.8/2
3350/0.2 860.8/0.2
3350/0.2 860.8/0.2
0
1
 
 
 
0
 
860.8
319.2
860.8
Front
100
on
 
 
0
0
0
 
0
 
 
 
0
 
 
0
0
0
0
0
 
 
 
 
0
0


0
0
#HDR
-1
-1
#GR
nm
%R
1.0
0.0
2350.000000
-1.000000
2151
8
72.584027
18.410066
#DATA
2350.000000	35.374429
2349.000000	35.580035
2348.000000	35.604949
2347.000000	35.934474
2346.000000	35.329363
2345.000000	35.528269
2344.000000	35.345924
2343.000000	35.438401
2342.000000	35.575698
2341.000000	35.493235
2340.000000	35.723125
2339.000000	35.932135
2338.000000	36.094368
2337.000000	36.062945
2336.000000	36.083227
2335.000000	36.080522
2334.000000	35.956229
2333.000000	36.063720
2332.000000	36.279862
2331.000000	36.278567
2330.000000	36.021859
2329.000000	36.448808
2328.000000	36.010488
2327.000000	35.702791
2326.000000	35.835445
2325.000000	35.790897
2324.000000	35.874946
2323.000000	35.723857
2322.000000	35.904261
2321.000000	35.788623
2320.000000	35.664576
2319.000000	35.894928
2318.000000	35.937058
2317.000000	35.708659
2316.000000	35.557173
2315.000000	35.621544
2314.000000	35.573634
2313.000000	35.628852
2312.000000	35.436802
2311.000000	35.569884
2310.000000	35.513807
2309.000000	35.478440
2308.000000	35.364218
2307.000000	34.953788
2306.000000	35.099169
2305.000000	35.003091
2304.000000	35.078214
2303.000000	34.909851
2302.000000	34.924895
2301.000000	34.689644
2300.000000	34.609312
2299.000000	34.715569
2298.000000	34.550029
2297.000000	34.419618
2296.000000	34.556218
2295.000000	34.377325
2294.000000	34.093347
2293.000000	34.012472
2292.000000	33.952810
2291.000000	33.934986
2290.000000	34.035311
2289.000000	33.919197
2288.000000	33.919453
2287.000000	34.041201
2286.000000	33.961597
2285.000000	33.851842
2284.000000	33.734981
2283.000000	33.861547
2282.000000	33.942587
2281.000000	33.816504
2280.000000	33.737365
2279.000000	33.782620
2278.000000	33.754081
2277.000000	33.758689
2276.000000	33.697715
2275.000000	33.863259
2274.000000	33.925599
2273.000000	34.008293
2272.000000	34.071965
2271.000000	33.992701
2270.000000	34.071434
2269.000000	34.201322
2268.000000	34.401912
2267.000000	34.461884
2266.000000	34.396312
2265.000000	34.570755
2264.000000	34.698400
2263.000000	34.784296
2262.000000	34.810510
2261.000000	34.972883
2260.000000	35.133663
2259.000000	35.184547
2258.000000	35.470458
2257.000000	35.731703
2256.000000	35.826758
2255.000000	35.927785
2254.000000	36.097221
2253.000000	36.184170
2252.000000	36.386638
2251.000000	36.749404
2250.000000	36.989390
2249.000000	37.099164
2248.000000	37.228256
2247.000000	37.409953
2246.000000	37.585234
2245.000000	37.708749
2244.000000	37.907300
2243.000000	38.326500
2242.000000	38.534004
2241.000000	38.476929
2240.000000	38.584866
2239.000000	38.652245
2238.000000	38.746668
2237.000000	38.940955
2236.000000	39.095916
2235.000000	39.164031
2234.000000	39.210969
2233.000000	39.270871
2232.000000	39.292171
2231.000000	39.415620
2230.000000	39.535475
2229.000000	39.605129
2228.000000	39.522960
2227.000000	39.575852
2226.000000	39.570584
2225.000000	39.654390
2224.000000	39.639652
2223.000000	39.478589
2222.000000	39.511105
2221.000000	39.655349
2220.000000	39.658825
2219.000000	39.643538
2218.000000	39.571394
2217.000000	39.446365
2216.000000	39.470876
2215.000000	39.366326
2214.000000	39.282710
2213.000000	39.365866
2212.000000	39.312098
2211.000000	39.273363
2210.000000	39.228483
2209.000000	39.195087
2208.000000	39.101751
2207.000000	39.068797
2206.000000	38.984476
2205.000000	38.908504
2204.000000	38.847313
2203.000000	38.757266
2202.000000	38.676516
2201.000000	38.751729
2200.000000	38.735929
2199.000000	38.738233
2198.000000	38.652299
2197.000000	38.422703
2196.000000	38.399454
2195.000000	38.315760
2194.000000	38.197489
2193.000000	38.121536
2192.000000	38.029737
2191.000000	37.973541
2190.000000	38.127071
2189.000000	38.053636
2188.000000	37.791628
2187.000000	37.725750
2186.000000	37.858956
2185.000000	37.874228
2184.000000	37.704194
2183.000000	37.759796
2182.000000	37.830687
2181.000000	37.745007
2180.000000	37.799937
2179.000000	37.700319
2178.000000	37.652233
2177.000000	37.788973
2176.000000	37.798802
2175.000000	37.787896
2174.000000	37.784777
2173.000000	37.891044
2172.000000	37.870104
2171.000000	37.873222
2170.000000	37.871893
2169.000000	38.157592
2168.000000	38.153924
2167.000000	38.158143
2166.000000	38.285150
2165.000000	38.415279
2164.000000	38.453767
2163.000000	38.492214
2162.000000	38.598482
2161.000000	38.796265
2160.000000	38.760298
2159.000000	38.954193
2158.000000	38.968661
2157.000000	39.110346
2156.000000	39.392715
2155.000000	39.517543
2154.000000	39.703986
2153.000000	39.897218
2152.000000	39.814477
2151.000000	40.155189
2150.000000	40.213818
2149.000000	40.418729
2148.000000	40.287793
2147.000000	40.537758
2146.000000	40.921743
2145.000000	41.103855
2144.000000	41.019618
2143.000000	41.094000
2142.000000	41.191867
2141.000000	41.274614
2140.000000	41.473086
2139.000000	41.590188
2138.000000	41.710772
2137.000000	41.853279
2136.000000	41.848057
2135.000000	41.956418
2134.000000	42.253143
2133.000000	42.062612
2132.000000	42.296332
2131.000000	42.361351
2130.000000	42.530559
2129.000000	42.564269
2128.000000	42.612740
2127.000000	42.647157
2126.000000	42.692985
2125.000000	42.554300
2124.000000	42.740809
2123.000000	42.724953
2122.000000	42.951095
2121.000000	42.913365
2120.000000	42.885851
2119.000000	42.989850
2118.000000	43.011633
2117.000000	42.963383
2116.000000	43.040869
2115.000000	43.122597
2114.000000	43.004127
2113.000000	43.196548
2112.000000	43.116539
2111.000000	43.155035
2110.000000	43.192302
2109.000000	43.187600
2108.000000	43.191889
2107.000000	43.361463
2106.000000	43.346326
2105.000000	43.254325
2104.000000	43.371033
2103.000000	43.440035
2102.000000	43.354636
2101.000000	43.392644
2100.000000	43.431807
2099.000000	43.375752
2098.000000	43.320126
2097.000000	43.509385
2096.000000	43.476683
2095.000000	43.522561
2094.000000	43.464189
2093.000000	43.410378
2092.000000	43.418514
2091.000000	43.471323
2090.000000	43.392682
2089.000000	43.358768
2088.000000	43.467040
2087.000000	43.391413
2086.000000	43.335859
2085.000000	43.335212
2084.000000	43.278747
2083.000000	43.221113
2082.000000	43.140679
2081.000000	43.040399
2080.000000	43.048154
2079.000000	43.027788
2078.000000	42.957604
2077.000000	42.833690
2076.000000	42.828088
2075.000000	42.708467
2074.000000	42.632540
2073.000000	42.553764
2072.000000	42.348441
2071.000000	42.317734
2070.000000	42.219487
2069.000000	42.051397
2068.000000	41.881647
2067.000000	41.816464
2066.000000	41.658259
2065.000000	41.512054
2064.000000	41.435657
2063.000000	41.324633
2062.000000	41.213987
2061.000000	41.081420
2060.000000	40.817787
2059.000000	40.724400
2058.000000	40.598507
2057.000000	40.509363
2056.000000	40.418074
2055.000000	40.259443
2054.000000	40.102339
2053.000000	39.972540
2052.000000	39.889882
2051.000000	39.736522
2050.000000	39.608333
2049.000000	39.591326
2048.000000	39.493812
2047.000000	39.385792
2046.000000	39.305535
2045.000000	39.239986
2044.000000	39.210456
2043.000000	39.199477
2042.000000	39.197293
2041.000000	39.197862
2040.000000	39.213223
2039.000000	39.248781
2038.000000	39.318171
2037.000000	39.331935
2036.000000	39.348404
2035.000000	39.431127
2034.000000	39.528084
2033.000000	39.638034
2032.000000	39.730830
2031.000000	39.820808
2030.000000	39.953155
2029.000000	40.043945
2028.000000	40.080460
2027.000000	40.169808
2026.000000	40.292383
2025.000000	40.394132
2024.000000	40.484599
2023.000000	40.540902
2022.000000	40.588463
2021.000000	40.625143
2020.000000	40.692793
2019.000000	40.729882
2018.000000	40.731527
2017.000000	40.745133
2016.000000	40.750454
2015.000000	40.747390
2014.000000	40.757749
2013.000000	40.757310
2012.000000	40.711569
2011.000000	40.656196
2010.000000	40.618012
2009.000000	40.529160
2008.000000	40.438652
2007.000000	40.392498
2006.000000	40.342323
2005.000000	40.287372
2004.000000	40.195008
2003.000000	40.148936
2002.000000	40.072239
2001.000000	39.966254
2000.000000	39.885244
1999.000000	39.815330
1998.000000	39.735735
1997.000000	39.646718
1996.000000	39.552648
1995.000000	39.443490
1994.000000	39.356686
1993.000000	39.250021
1992.000000	39.159926
1991.000000	39.066999
1990.000000	38.971164
1989.000000	38.879732
1988.000000	38.763314
1987.000000	38.683711
1986.000000	38.579184
1985.000000	38.491947
1984.000000	38.408234
1983.000000	38.298413
1982.000000	38.236779
1981.000000	38.147324
1980.000000	38.042724
1979.000000	37.981097
1978.000000	37.895902
1977.000000	37.792657
1976.000000	37.666390
1975.000000	37.571901
1974.000000	37.448260
1973.000000	37.382683
1972.000000	37.290737
1971.000000	37.202314
1970.000000	37.144464
1969.000000	37.052410
1968.000000	36.962806
1967.000000	36.890656
1966.000000	36.805411
1965.000000	36.699983
1964.000000	36.622832
1963.000000	36.539821
1962.000000	36.449958
1961.000000	36.337312
1960.000000	36.303950
1959.000000	36.207394
1958.000000	36.148724
1957.000000	36.076455
1956.000000	35.965531
1955.000000	35.957232
1954.000000	35.888384
1953.000000	35.831229
1952.000000	35.871106
1951.000000	35.795216
1950.000000	35.746153
1949.000000	35.690418
1948.000000	35.650963
1947.000000	35.602628
1946.000000	35.607783
1945.000000	35.588828
1944.000000	35.577188
1943.000000	35.648140
1942.000000	35.626602
1941.000000	35.609168
1940.000000	35.658215
1939.000000	35.805800
1938.000000	35.853148
1937.000000	35.906534
1936.000000	36.004351
1935.000000	36.037557
1934.000000	36.133858
1933.000000	36.275342
1932.000000	36.354910
1931.000000	36.484783
1930.000000	36.627040
1929.000000	36.808582
1928.000000	36.961776
1927.000000	37.177926
1926.000000	37.320374
1925.000000	37.526406
1924.000000	37.768049
1923.000000	37.996453
1922.000000	38.285187
1921.000000	38.499425
1920.000000	38.764489
1919.000000	39.000991
1918.000000	39.296904
1917.000000	39.668329
1916.000000	39.839043
1915.000000	40.262973
1914.000000	40.633073
1913.000000	40.988685
1912.000000	41.327349
1911.000000	41.653635
1910.000000	42.069854
1909.000000	42.412584
1908.000000	42.795986
1907.000000	43.208319
1906.000000	43.670290
1905.000000	44.212563
1904.000000	44.608641
1903.000000	45.008974
1902.000000	45.533482
1901.000000	45.925725
1900.000000	46.408318
1899.000000	46.946436
1898.000000	47.434141
1897.000000	47.888291
1896.000000	48.345649
1895.000000	48.775866
1894.000000	49.270969
1893.000000	49.773477
1892.000000	50.256686
1891.000000	50.699968
1890.000000	51.190529
1889.000000	51.648756
1888.000000	52.045935
1887.000000	52.436717
1886.000000	52.859527
1885.000000	53.261727
1884.000000	53.611635
1883.000000	54.011321
1882.000000	54.349000
1881.000000	54.666137
1880.000000	54.991802
1879.000000	55.243549
1878.000000	55.545094
1877.000000	55.867592
1876.000000	56.113380
1875.000000	56.365535
1874.000000	56.568117
1873.000000	56.741243
1872.000000	56.958467
1871.000000	57.146833
1870.000000	57.304673
1869.000000	57.464946
1868.000000	57.622468
1867.000000	57.731935
1866.000000	57.840409
1865.000000	57.943156
1864.000000	58.007729
1863.000000	58.117286
1862.000000	58.209364
1861.000000	58.284440
1860.000000	58.354932
1859.000000	58.407666
1858.000000	58.479315
1857.000000	58.551724
1856.000000	58.566022
1855.000000	58.600975
1854.000000	58.646037
1853.000000	58.677508
1852.000000	58.707795
1851.000000	58.675324
1850.000000	58.668992
1849.000000	58.663151
1848.000000	58.702035
1847.000000	58.723885
1846.000000	58.694958
1845.000000	58.680592
1844.000000	58.674955
1843.000000	58.649590
1842.000000	58.640881
1841.000000	58.603300
1840.000000	58.631499
1839.000000	58.584273
1838.000000	58.550901
1837.000000	58.475698
1836.000000	58.434478
1835.000000	58.419977
1834.000000	58.377303
1833.000000	58.347915
1832.000000	58.337812
1831.000000	58.307824
1830.000000	58.272123
1829.000000	58.234303
1828.000000	58.202095
1827.000000	58.171709
1826.000000	58.129475
1825.000000	58.113886
1824.000000	58.098334
1823.000000	58.084800
1822.000000	58.031950
1821.000000	58.016051
1820.000000	57.989355
1819.000000	57.930967
1818.000000	57.911903
1817.000000	57.905532
1816.000000	57.886918
1815.000000	57.858854
1814.000000	57.793579
1813.000000	57.741125
1812.000000	57.732601
1811.000000	57.705667
1810.000000	57.690398
1809.000000	57.658627
1808.000000	57.623148
1807.000000	57.603818
1806.000000	57.584243
1805.000000	57.559304
1804.000000	57.515884
1803.000000	57.497005
1802.000000	57.490158
1801.000000	57.470572
1800.000000	57.434755
1799.000000	57.414565
1798.000000	57.387667
1797.000000	57.365029
1796.000000	57.340881
1795.000000	57.311384
1794.000000	57.311193
1793.000000	57.318355
1792.000000	57.292610
1791.000000	57.286891
1790.000000	57.276758
1789.000000	57.229477
1788.000000	57.211652
1787.000000	57.197816
1786.000000	57.189466
1785.000000	57.177329
1784.000000	57.160338
1783.000000	57.123838
1782.000000	57.069372
1781.000000	57.050003
1780.000000	57.017393
1779.000000	57.008199
1778.000000	56.972407
1777.000000	56.913762
1776.000000	56.892547
1775.000000	56.849926
1774.000000	56.799566
1773.000000	56.774417
1772.000000	56.702584
1771.000000	56.650829
1770.000000	56.594120
1769.000000	56.530609
1768.000000	56.493186
1767.000000	56.463518
1766.000000	56.431787
1765.000000	56.394557
1764.000000	56.345210
1763.000000	56.283891
1762.000000	56.242975
1761.000000	56.219638
1760.000000	56.166535
1759.000000	56.119755
1758.000000	56.083049
1757.000000	56.022746
1756.000000	55.995154
1755.000000	55.949808
1754.000000	55.901615
1753.000000	55.861326
1752.000000	55.808753
1751.000000	55.766788
1750.000000	55.724628
1749.000000	55.692676
1748.000000	55.657509
1747.000000	55.599109
1746.000000	55.523772
1745.000000	55.466859
1744.000000	55.438296
1743.000000	55.389297
1742.000000	55.331422
1741.000000	55.295620
1740.000000	55.263337
1739.000000	55.246708
1738.000000	55.180124
1737.000000	55.161156
1736.000000	55.140275
1735.000000	55.128195
1734.000000	55.141639
1733.000000	55.131878
1732.000000	55.126281
1731.000000	55.149220
1730.000000	55.171808
1729.000000	55.206797
1728.000000	55.241424
1727.000000	55.281162
1726.000000	55.353203
1725.000000	55.398253
1724.000000	55.464320
1723.000000	55.564857
1722.000000	55.656568
1721.000000	55.760026
1720.000000	55.840069
1719.000000	55.981029
1718.000000	56.017138
1717.000000	56.095698
1716.000000	56.203358
1715.000000	56.292210
1714.000000	56.375049
1713.000000	56.465060
1712.000000	56.522141
1711.000000	56.583884
1710.000000	56.662711
1709.000000	56.702436
1708.000000	56.776442
1707.000000	56.794844
1706.000000	56.869313
1705.000000	56.899726
1704.000000	56.927906
1703.000000	56.938610
1702.000000	56.995200
1701.000000	56.975296
1700.000000	57.017360
1699.000000	56.991352
1698.000000	57.023136
1697.000000	57.104183
1696.000000	57.121478
1695.000000	57.115640
1694.000000	57.186120
1693.000000	57.216412
1692.000000	57.273269
1691.000000	57.332033
1690.000000	57.401972
1689.000000	57.470745
1688.000000	57.579996
1687.000000	57.703811
1686.000000	57.776347
1685.000000	57.913763
1684.000000	58.046941
1683.000000	58.168021
1682.000000	58.325665
1681.000000	58.478304
1680.000000	58.651345
1679.000000	58.815934
1678.000000	58.982027
1677.000000	59.126142
1676.000000	59.291286
1675.000000	59.464648
1674.000000	59.612410
1673.000000	59.772224
1672.000000	59.921092
1671.000000	60.071059
1670.000000	60.212979
1669.000000	60.384639
1668.000000	60.504981
1667.000000	60.624752
1666.000000	60.738276
1665.000000	60.816848
1664.000000	60.911929
1663.000000	60.976665
1662.000000	61.056134
1661.000000	61.152892
1660.000000	61.192931
1659.000000	61.248770
1658.000000	61.302013
1657.000000	61.348625
1656.000000	61.406426
1655.000000	61.434339
1654.000000	61.452477
1653.000000	61.488476
1652.000000	61.497050
1651.000000	61.476705
1650.000000	61.485132
1649.000000	61.488254
1648.000000	61.482488
1647.000000	61.486557
1646.000000	61.478644
1645.000000	61.490088
1644.000000	61.479436
1643.000000	61.448167
1642.000000	61.423250
1641.000000	61.408853
1640.000000	61.395942
1639.000000	61.370265
1638.000000	61.354968
1637.000000	61.321741
1636.000000	61.275719
1635.000000	61.246003
1634.000000	61.228482
1633.000000	61.195851
1632.000000	61.157556
1631.000000	61.132319
1630.000000	61.091426
1629.000000	61.064415
1628.000000	61.026644
1627.000000	60.978021
1626.000000	60.949931
1625.000000	60.909898
1624.000000	60.864698
1623.000000	60.833697
1622.000000	60.802435
1621.000000	60.748289
1620.000000	60.704039
1619.000000	60.658622
1618.000000	60.622479
1617.000000	60.575671
1616.000000	60.526497
1615.000000	60.473472
1614.000000	60.417420
1613.000000	60.369052
1612.000000	60.312965
1611.000000	60.263439
1610.000000	60.232952
1609.000000	60.177716
1608.000000	60.113595
1607.000000	60.047001
1606.000000	59.990072
1605.000000	59.945813
1604.000000	59.896799
1603.000000	59.842293
1602.000000	59.788598
1601.000000	59.742752
1600.000000	59.679782
1599.000000	59.626074
1598.000000	59.592907
1597.000000	59.547811
1596.000000	59.487509
1595.000000	59.436107
1594.000000	59.392977
1593.000000	59.347405
1592.000000	59.305016
1591.000000	59.258447
1590.000000	59.209404
1589.000000	59.163864
1588.000000	59.116392
1587.000000	59.076914
1586.000000	59.035033
1585.000000	58.988047
1584.000000	58.963680
1583.000000	58.931890
1582.000000	58.888310
1581.000000	58.856324
1580.000000	58.824616
1579.000000	58.787571
1578.000000	58.739431
1577.000000	58.686426
1576.000000	58.649094
1575.000000	58.619612
1574.000000	58.586646
1573.000000	58.544577
1572.000000	58.492786
1571.000000	58.454979
1570.000000	58.426821
1569.000000	58.395618
1568.000000	58.376839
1567.000000	58.332048
1566.000000	58.296883
1565.000000	58.268215
1564.000000	58.248485
1563.000000	58.233632
1562.000000	58.207001
1561.000000	58.191874
1560.000000	58.160339
1559.000000	58.138416
1558.000000	58.118635
1557.000000	58.116867
1556.000000	58.091816
1555.000000	58.075093
1554.000000	58.058068
1553.000000	58.035951
1552.000000	58.007895
1551.000000	57.973790
1550.000000	57.944953
1549.000000	57.912002
1548.000000	57.886576
1547.000000	57.827464
1546.000000	57.779489
1545.000000	57.734353
1544.000000	57.663018
1543.000000	57.608232
1542.000000	57.551027
1541.000000	57.471298
1540.000000	57.408446
1539.000000	57.345185
1538.000000	57.247241
1537.000000	57.163944
1536.000000	57.093802
1535.000000	57.010566
1534.000000	56.930839
1533.000000	56.875176
1532.000000	56.796200
1531.000000	56.715300
1530.000000	56.661666
1529.000000	56.580518
1528.000000	56.504097
1527.000000	56.457885
1526.000000	56.405388
1525.000000	56.352402
1524.000000	56.290831
1523.000000	56.237417
1522.000000	56.197359
1521.000000	56.149067
1520.000000	56.117805
1519.000000	56.072313
1518.000000	56.042811
1517.000000	56.019662
1516.000000	56.012698
1515.000000	56.025124
1514.000000	55.996748
1513.000000	56.011568
1512.000000	55.998303
1511.000000	55.967077
1510.000000	55.935900
1509.000000	55.916056
1508.000000	55.892985
1507.000000	55.866357
1506.000000	55.857153
1505.000000	55.847777
1504.000000	55.813625
1503.000000	55.812514
1502.000000	55.804314
1501.000000	55.798834
1500.000000	55.819208
1499.000000	55.810012
1498.000000	55.808537
1497.000000	55.841317
1496.000000	55.868995
1495.000000	55.888000
1494.000000	55.896328
1493.000000	55.900623
1492.000000	55.942556
1491.000000	55.950471
1490.000000	55.986132
1489.000000	56.013027
1488.000000	56.041233
1487.000000	56.099108
1486.000000	56.131491
1485.000000	56.155298
1484.000000	56.179125
1483.000000	56.239055
1482.000000	56.260628
1481.000000	56.332806
1480.000000	56.386164
1479.000000	56.437574
1478.000000	56.483891
1477.000000	56.536594
1476.000000	56.598263
1475.000000	56.644584
1474.000000	56.685948
1473.000000	56.744648
1472.000000	56.805260
1471.000000	56.868629
1470.000000	56.911714
1469.000000	56.957397
1468.000000	56.981367
1467.000000	57.035300
1466.000000	57.077768
1465.000000	57.120062
1464.000000	57.188350
1463.000000	57.239204
1462.000000	57.242569
1461.000000	57.284854
1460.000000	57.333615
1459.000000	57.426272
1458.000000	57.454188
1457.000000	57.499564
1456.000000	57.557056
1455.000000	57.623249
1454.000000	57.696436
1453.000000	57.737420
1452.000000	57.795439
1451.000000	57.851689
1450.000000	57.930783
1449.000000	57.994885
1448.000000	58.056843
1447.000000	58.124034
1446.000000	58.197536
1445.000000	58.278785
1444.000000	58.366245
1443.000000	58.439169
1442.000000	58.521093
1441.000000	58.582446
1440.000000	58.658220
1439.000000	58.760961
1438.000000	58.841034
1437.000000	58.940632
1436.000000	59.052791
1435.000000	59.145968
1434.000000	59.250180
1433.000000	59.348458
1432.000000	59.465215
1431.000000	59.576427
1430.000000	59.700986
1429.000000	59.812687
1428.000000	59.928463
1427.000000	60.063390
1426.000000	60.202694
1425.000000	60.341860
1424.000000	60.478045
1423.000000	60.622591
1422.000000	60.786488
1421.000000	60.930185
1420.000000	61.088155
1419.000000	61.249744
1418.000000	61.413859
1417.000000	61.580565
1416.000000	61.748921
1415.000000	61.917177
1414.000000	62.091741
1413.000000	62.258757
1412.000000	62.437549
1411.000000	62.611298
1410.000000	62.785316
1409.000000	62.949143
1408.000000	63.120156
1407.000000	63.300646
1406.000000	63.480494
1405.000000	63.651403
1404.000000	63.810784
1403.000000	63.964555
1402.000000	64.134320
1401.000000	64.299999
1400.000000	64.461250
1399.000000	64.603713
1398.000000	64.746691
1397.000000	64.906879
1396.000000	65.048987
1395.000000	65.189818
1394.000000	65.337242
1393.000000	65.470370
1392.000000	65.590107
1391.000000	65.718326
1390.000000	65.844116
1389.000000	65.975341
1388.000000	66.094609
1387.000000	66.192673
1386.000000	66.279859
1385.000000	66.371200
1384.000000	66.482174
1383.000000	66.578038
1382.000000	66.654506
1381.000000	66.735089
1380.000000	66.811871
1379.000000	66.863510
1378.000000	66.932130
1377.000000	67.006524
1376.000000	67.076468
1375.000000	67.142170
1374.000000	67.191167
1373.000000	67.238929
1372.000000	67.297971
1371.000000	67.341785
1370.000000	67.385478
1369.000000	67.432366
1368.000000	67.463922
1367.000000	67.506155
1366.000000	67.557367
1365.000000	67.600428
1364.000000	67.641461
1363.000000	67.695761
1362.000000	67.743725
1361.000000	67.807461
1360.000000	67.859807
1359.000000	67.887862
1358.000000	67.917666
1357.000000	67.964413
1356.000000	68.028591
1355.000000	68.080455
1354.000000	68.129349
1353.000000	68.187653
1352.000000	68.242981
1351.000000	68.297871
1350.000000	68.351785
1349.000000	68.407679
1348.000000	68.462322
1347.000000	68.508364
1346.000000	68.576746
1345.000000	68.633210
1344.000000	68.686306
1343.000000	68.716179
1342.000000	68.741009
1341.000000	68.790969
1340.000000	68.836598
1339.000000	68.909652
1338.000000	68.964749
1337.000000	68.994987
1336.000000	69.022696
1335.000000	69.042697
1334.000000	69.075800
1333.000000	69.121441
1332.000000	69.150521
1331.000000	69.175557
1330.000000	69.224517
1329.000000	69.251954
1328.000000	69.262675
1327.000000	69.266703
1326.000000	69.321268
1325.000000	69.346671
1324.000000	69.373202
1323.000000	69.368721
1322.000000	69.401292
1321.000000	69.410626
1320.000000	69.463159
1319.000000	69.468565
1318.000000	69.482236
1317.000000	69.499868
1316.000000	69.513075
1315.000000	69.544121
1314.000000	69.554174
1313.000000	69.559509
1312.000000	69.570143
1311.000000	69.575743
1310.000000	69.600433
1309.000000	69.604368
1308.000000	69.663940
1307.000000	69.667322
1306.000000	69.654862
1305.000000	69.678253
1304.000000	69.684364
1303.000000	69.707816
1302.000000	69.721392
1301.000000	69.741895
1300.000000	69.744467
1299.000000	69.748569
1298.000000	69.757153
1297.000000	69.757023
1296.000000	69.757823
1295.000000	69.775891
1294.000000	69.763960
1293.000000	69.762325
1292.000000	69.764169
1291.000000	69.772680
1290.000000	69.770921
1289.000000	69.778082
1288.000000	69.780604
1287.000000	69.782502
1286.000000	69.773457
1285.000000	69.756865
1284.000000	69.753640
1283.000000	69.743915
1282.000000	69.763493
1281.000000	69.764253
1280.000000	69.751601
1279.000000	69.768473
1278.000000	69.769687
1277.000000	69.769672
1276.000000	69.762203
1275.000000	69.775672
1274.000000	69.774427
1273.000000	69.771144
1272.000000	69.782326
1271.000000	69.793180
1270.000000	69.790264
1269.000000	69.806772
1268.000000	69.794642
1267.000000	69.807690
1266.000000	69.812786
1265.000000	69.817635
1264.000000	69.829672
1263.000000	69.848572
1262.000000	69.855786
1261.000000	69.882127
1260.000000	69.887693
1259.000000	69.888686
1258.000000	69.891179
1257.000000	69.898902
1256.000000	69.934792
1255.000000	69.926961
1254.000000	69.930934
1253.000000	69.935303
1252.000000	69.948620
1251.000000	69.972835
1250.000000	69.961430
1249.000000	69.955350
1248.000000	69.963171
1247.000000	69.978243
1246.000000	69.955574
1245.000000	69.957285
1244.000000	69.946931
1243.000000	69.937204
1242.000000	69.951797
1241.000000	69.940028
1240.000000	69.922513
1239.000000	69.909759
1238.000000	69.905220
1237.000000	69.873795
1236.000000	69.849780
1235.000000	69.836316
1234.000000	69.829759
1233.000000	69.823658
1232.000000	69.789576
1231.000000	69.789086
1230.000000	69.784138
1229.000000	69.774489
1228.000000	69.730782
1227.000000	69.730296
1226.000000	69.726626
1225.000000	69.710000
1224.000000	69.704083
1223.000000	69.704128
1222.000000	69.679151
1221.000000	69.662236
1220.000000	69.651951
1219.000000	69.626085
1218.000000	69.623309
1217.000000	69.610502
1216.000000	69.574933
1215.000000	69.551833
1214.000000	69.529768
1213.000000	69.519111
1212.000000	69.524257
1211.000000	69.490888
1210.000000	69.461955
1209.000000	69.432617
1208.000000	69.424411
1207.000000	69.381778
1206.000000	69.357886
1205.000000	69.340155
1204.000000	69.320025
1203.000000	69.296112
1202.000000	69.264792
1201.000000	69.250805
1200.000000	69.228117
1199.000000	69.209819
1198.000000	69.186235
1197.000000	69.185030
1196.000000	69.155335
1195.000000	69.135882
1194.000000	69.103476
1193.000000	69.090598
1192.000000	69.080259
1191.000000	69.079959
1190.000000	69.071561
1189.000000	69.044366
1188.000000	69.028820
1187.000000	69.037746
1186.000000	69.046011
1185.000000	69.045284
1184.000000	69.041875
1183.000000	69.042573
1182.000000	69.063621
1181.000000	69.088315
1180.000000	69.119308
1179.000000	69.153153
1178.000000	69.185225
1177.000000	69.211623
1176.000000	69.233318
1175.000000	69.266245
1174.000000	69.313670
1173.000000	69.366868
1172.000000	69.407351
1171.000000	69.451587
1170.000000	69.506487
1169.000000	69.548865
1168.000000	69.596525
1167.000000	69.670124
1166.000000	69.727683
1165.000000	69.783494
1164.000000	69.847344
1163.000000	69.915566
1162.000000	69.972570
1161.000000	70.010589
1160.000000	70.075620
1159.000000	70.151053
1158.000000	70.207304
1157.000000	70.257678
1156.000000	70.313843
1155.000000	70.371614
1154.000000	70.408568
1153.000000	70.463152
1152.000000	70.517267
1151.000000	70.554586
1150.000000	70.596487
1149.000000	70.634972
1148.000000	70.661295
1147.000000	70.695171
1146.000000	70.734957
1145.000000	70.763865
1144.000000	70.798988
1143.000000	70.850830
1142.000000	70.891201
1141.000000	70.926237
1140.000000	70.962520
1139.000000	71.000649
1138.000000	71.028598
1137.000000	71.065698
1136.000000	71.097576
1135.000000	71.129838
1134.000000	71.173480
1133.000000	71.199272
1132.000000	71.195141
1131.000000	71.219327
1130.000000	71.245488
1129.000000	71.264424
1128.000000	71.300257
1127.000000	71.315665
1126.000000	71.337128
1125.000000	71.371726
1124.000000	71.381839
1123.000000	71.408811
1122.000000	71.417869
1121.000000	71.428529
1120.000000	71.435008
1119.000000	71.444103
1118.000000	71.467143
1117.000000	71.463206
1116.000000	71.460554
1115.000000	71.473599
1114.000000	71.460728
1113.000000	71.473386
1112.000000	71.473800
1111.000000	71.489100
1110.000000	71.501780
1109.000000	71.509827
1108.000000	71.515716
1107.000000	71.526434
1106.000000	71.539363
1105.000000	71.533139
1104.000000	71.541544
1103.000000	71.552928
1102.000000	71.552479
1101.000000	71.572482
1100.000000	71.566640
1099.000000	71.564077
1098.000000	71.556215
1097.000000	71.560429
1096.000000	71.575917
1095.000000	71.589758
1094.000000	71.586189
1093.000000	71.610574
1092.000000	71.585336
1091.000000	71.576188
1090.000000	71.575632
1089.000000	71.579550
1088.000000	71.592471
1087.000000	71.603087
1086.000000	71.600792
1085.000000	71.600665
1084.000000	71.601514
1083.000000	71.609496
1082.000000	71.612471
1081.000000	71.597169
1080.000000	71.614013
1079.000000	71.616302
1078.000000	71.620686
1077.000000	71.608020
1076.000000	71.606392
1075.000000	71.610275
1074.000000	71.599497
1073.000000	71.584304
1072.000000	71.576510
1071.000000	71.586786
1070.000000	71.592695
1069.000000	71.599981
1068.000000	71.617990
1067.000000	71.610385
1066.000000	71.599014
1065.000000	71.594617
1064.000000	71.593414
1063.000000	71.589769
1062.000000	71.588783
1061.000000	71.590181
1060.000000	71.581972
1059.000000	71.601596
1058.000000	71.583899
1057.000000	71.578154
1056.000000	71.587278
1055.000000	71.594439
1054.000000	71.583435
1053.000000	71.566309
1052.000000	71.567822
1051.000000	71.564026
1050.000000	71.557588
1049.000000	71.576835
1048.000000	71.543376
1047.000000	71.552654
1046.000000	71.539606
1045.000000	71.560765
1044.000000	71.550148
1043.000000	71.553355
1042.000000	71.554759
1041.000000	71.540008
1040.000000	71.577023
1039.000000	71.563733
1038.000000	71.553490
1037.000000	71.559128
1036.000000	71.537813
1035.000000	71.544274
1034.000000	71.566962
1033.000000	71.559811
1032.000000	71.569969
1031.000000	71.576762
1030.000000	71.586229
1029.000000	71.557305
1028.000000	71.561709
1027.000000	71.588668
1026.000000	71.588637
1025.000000	71.570768
1024.000000	71.597855
1023.000000	71.595348
1022.000000	71.575121
1021.000000	71.587256
1020.000000	71.610138
1019.000000	71.593182
1018.000000	71.612885
1017.000000	71.611927
1016.000000	71.610151
1015.000000	71.619991
1014.000000	71.636233
1013.000000	71.642143
1012.000000	71.649197
1011.000000	71.653598
1010.000000	71.641293
1009.000000	71.654860
1008.000000	71.646850
1007.000000	71.670608
1006.000000	71.663465
1005.000000	71.699887
1004.000000	71.695870
1003.000000	71.701846
1002.000000	71.705777
1001.000000	71.725690
1000.000000	71.730816
999.000000	71.728048
998.000000	71.741861
997.000000	71.747686
996.000000	71.771000
995.000000	71.781573
994.000000	71.775428
993.000000	71.780147
992.000000	71.795995
991.000000	71.783765
990.000000	71.810013
989.000000	71.807131
988.000000	71.794218
987.000000	71.830530
986.000000	71.845640
985.000000	71.852776
984.000000	71.853342
983.000000	71.873557
982.000000	71.869191
981.000000	71.881827
980.000000	71.898644
979.000000	71.912931
978.000000	71.918297
977.000000	71.936599
976.000000	71.935317
975.000000	71.934714
974.000000	71.940328
973.000000	71.938461
972.000000	71.962477
971.000000	71.978711
970.000000	71.977752
969.000000	71.994182
968.000000	72.009989
967.000000	72.013098
966.000000	71.997050
965.000000	72.001670
964.000000	72.034958
963.000000	72.043549
962.000000	72.047889
961.000000	72.056852
960.000000	72.071154
959.000000	72.068490
958.000000	72.060039
957.000000	72.065609
956.000000	72.080297
955.000000	72.101394
954.000000	72.113217
953.000000	72.115444
952.000000	72.108448
951.000000	72.098684
950.000000	72.123928
949.000000	72.154174
948.000000	72.149616
947.000000	72.150472
946.000000	72.158803
945.000000	72.166729
944.000000	72.163430
943.000000	72.159931
942.000000	72.177827
941.000000	72.171345
940.000000	72.158605
939.000000	72.154692
938.000000	72.170985
937.000000	72.178391
936.000000	72.155840
935.000000	72.165758
934.000000	72.195244
933.000000	72.216455
932.000000	72.226967
931.000000	72.226059
930.000000	72.226975
929.000000	72.222635
928.000000	72.210903
927.000000	72.220226
926.000000	72.203629
925.000000	72.203027
924.000000	72.198818
923.000000	72.209807
922.000000	72.206041
921.000000	72.198241
920.000000	72.195464
919.000000	72.205189
918.000000	72.205309
917.000000	72.170213
916.000000	72.179611
915.000000	72.223198
914.000000	72.177518
913.000000	72.177776
912.000000	72.200719
911.000000	72.229608
910.000000	72.229102
909.000000	72.226143
908.000000	72.208707
907.000000	72.183983
906.000000	72.201954
905.000000	72.242284
904.000000	72.270890
903.000000	72.248525
902.000000	72.210341
901.000000	72.251784
900.000000	72.282445
899.000000	72.265918
898.000000	72.256024
897.000000	72.267429
896.000000	72.275277
895.000000	72.300801
894.000000	72.279401
893.000000	72.298622
892.000000	72.282452
891.000000	72.285496
890.000000	72.363853
889.000000	72.368356
888.000000	72.359671
887.000000	72.356988
886.000000	72.345672
885.000000	72.387090
884.000000	72.352275
883.000000	72.369134
882.000000	72.365475
881.000000	72.368483
880.000000	72.358452
879.000000	72.355390
878.000000	72.459774
877.000000	72.376016
876.000000	72.370970
875.000000	72.452126
874.000000	72.396218
873.000000	72.382121
872.000000	72.379787
871.000000	72.454163
870.000000	72.423228
869.000000	72.337751
868.000000	72.341625
867.000000	72.324416
866.000000	72.348213
865.000000	72.288636
864.000000	72.344058
863.000000	72.467744
862.000000	72.477470
861.000000	72.434561
860.000000	72.524225
859.000000	71.891379
858.000000	72.230739
857.000000	72.227713
856.000000	72.097438
855.000000	72.584027
854.000000	72.214311
853.000000	71.732316
852.000000	71.936909
851.000000	72.068569
850.000000	71.968440
849.000000	71.791966
848.000000	71.887649
847.000000	72.354481
846.000000	72.439156
845.000000	71.749905
844.000000	72.308397
843.000000	72.150146
842.000000	72.107859
841.000000	72.006262
840.000000	72.042094
839.000000	72.166770
838.000000	71.982684
837.000000	71.852969
836.000000	72.006982
835.000000	71.974371
834.000000	72.065859
833.000000	71.732904
832.000000	71.894851
831.000000	72.161020
830.000000	71.919061
829.000000	71.996514
828.000000	72.111834
827.000000	71.986239
826.000000	72.037785
825.000000	71.886599
824.000000	72.100081
823.000000	71.921741
822.000000	72.027617
821.000000	71.888909
820.000000	71.794854
819.000000	71.792704
818.000000	71.929327
817.000000	71.871267
816.000000	71.737747
815.000000	71.957571
814.000000	71.892280
813.000000	71.873139
812.000000	71.928387
811.000000	71.856636
810.000000	71.795043
809.000000	71.819651
808.000000	71.910385
807.000000	71.860912
806.000000	71.673699
805.000000	71.817767
804.000000	71.628108
803.000000	71.720204
802.000000	71.784127
801.000000	71.927629
800.000000	71.879987
799.000000	71.553832
798.000000	71.693899
797.000000	71.869469
796.000000	71.790513
795.000000	71.692040
794.000000	71.902791
793.000000	71.850054
792.000000	71.924784
791.000000	71.704082
790.000000	71.867142
789.000000	71.785164
788.000000	71.803384
787.000000	71.610845
786.000000	71.750746
785.000000	71.868010
784.000000	71.717195
783.000000	71.699722
782.000000	71.696643
781.000000	71.738215
780.000000	71.634375
779.000000	71.687371
778.000000	71.670452
777.000000	71.676925
776.000000	71.654612
775.000000	71.633237
774.000000	71.553243
773.000000	71.643572
772.000000	71.534809
771.000000	71.595883
770.000000	71.569196
769.000000	71.556754
768.000000	71.598442
767.000000	71.558307
766.000000	71.518297
765.000000	71.484635
764.000000	71.504409
763.000000	71.520002
762.000000	71.508790
761.000000	71.577408
760.000000	71.473858
759.000000	71.451815
758.000000	71.401986
757.000000	71.484425
756.000000	71.436940
755.000000	71.379290
754.000000	71.303304
753.000000	71.335238
752.000000	71.378834
751.000000	71.328425
750.000000	71.353028
749.000000	71.256630
748.000000	71.190690
747.000000	71.318364
746.000000	71.296890
745.000000	71.295004
744.000000	71.211561
743.000000	71.152670
742.000000	71.146086
741.000000	71.147070
740.000000	71.071117
739.000000	71.135762
738.000000	71.173891
737.000000	71.083864
736.000000	71.078383
735.000000	71.152105
734.000000	71.112704
733.000000	71.086842
732.000000	71.028693
731.000000	70.975108
730.000000	70.971665
729.000000	71.057007
728.000000	71.036016
727.000000	70.916971
726.000000	70.918786
725.000000	70.942994
724.000000	70.924660
723.000000	70.891885
722.000000	70.943710
721.000000	70.975811
720.000000	70.932292
719.000000	70.898253
718.000000	70.773382
717.000000	70.770062
716.000000	70.769751
715.000000	70.664155
714.000000	70.652286
713.000000	70.656446
712.000000	70.642948
711.000000	70.676245
710.000000	70.682461
709.000000	70.636165
708.000000	70.570593
707.000000	70.553900
706.000000	70.553459
705.000000	70.558515
704.000000	70.552218
703.000000	70.513000
702.000000	70.505703
701.000000	70.412779
700.000000	70.365677
699.000000	70.351952
698.000000	70.327386
697.000000	70.318942
696.000000	70.305556
695.000000	70.306008
694.000000	70.238351
693.000000	70.190065
692.000000	70.177237
691.000000	70.160518
690.000000	70.078677
689.000000	69.970364
688.000000	69.933719
687.000000	69.933372
686.000000	69.989381
685.000000	70.000716
684.000000	69.874295
683.000000	69.875455
682.000000	69.859716
681.000000	69.818462
680.000000	69.743723
679.000000	69.741297
678.000000	69.753420
677.000000	69.688354
676.000000	69.629901
675.000000	69.561171
674.000000	69.514085
673.000000	69.549788
672.000000	69.536322
671.000000	69.534953
670.000000	69.472990
669.000000	69.367769
668.000000	69.339210
667.000000	69.311540
666.000000	69.268783
665.000000	69.217443
664.000000	69.245207
663.000000	69.232408
662.000000	69.158100
661.000000	69.092821
660.000000	69.105054
659.000000	69.110349
658.000000	69.011083
657.000000	68.975776
656.000000	68.903106
655.000000	68.889500
654.000000	68.878133
653.000000	68.774978
652.000000	68.773174
651.000000	68.850109
650.000000	68.646655
649.000000	68.673574
648.000000	68.656395
647.000000	68.590153
646.000000	68.481087
645.000000	68.445103
644.000000	68.447877
643.000000	68.357097
642.000000	68.348692
641.000000	68.269066
640.000000	68.233558
639.000000	68.234346
638.000000	68.146668
637.000000	68.064513
636.000000	68.036453
635.000000	68.057130
634.000000	68.054924
633.000000	67.954480
632.000000	67.905531
631.000000	67.890196
630.000000	67.882434
629.000000	67.831479
628.000000	67.746030
627.000000	67.739899
626.000000	67.576754
625.000000	67.632690
624.000000	67.593152
623.000000	67.533884
622.000000	67.463914
621.000000	67.488524
620.000000	67.389395
619.000000	67.290872
618.000000	67.282670
617.000000	67.271311
616.000000	67.149945
615.000000	67.183042
614.000000	67.099724
613.000000	67.064957
612.000000	66.992634
611.000000	66.933437
610.000000	66.843823
609.000000	66.877799
608.000000	66.815131
607.000000	66.699881
606.000000	66.710863
605.000000	66.697403
604.000000	66.543725
603.000000	66.556164
602.000000	66.454591
601.000000	66.372971
600.000000	66.328622
599.000000	66.278665
598.000000	66.229030
597.000000	66.161066
596.000000	66.122729
595.000000	66.079103
594.000000	66.014262
593.000000	65.967979
592.000000	65.864326
591.000000	65.840430
590.000000	65.717957
589.000000	65.688433
588.000000	65.572601
587.000000	65.590013
586.000000	65.544787
585.000000	65.390857
584.000000	65.368180
583.000000	65.311509
582.000000	65.247649
581.000000	65.184057
580.000000	65.027234
579.000000	65.086738
578.000000	64.957137
577.000000	64.924051
576.000000	64.842019
575.000000	64.813538
574.000000	64.700885
573.000000	64.655629
572.000000	64.579978
571.000000	64.470077
570.000000	64.436405
569.000000	64.350269
568.000000	64.261169
567.000000	64.188120
566.000000	64.125530
565.000000	64.091516
564.000000	63.989520
563.000000	63.887931
562.000000	63.784776
561.000000	63.686959
560.000000	63.660087
559.000000	63.607063
558.000000	63.496046
557.000000	63.398959
556.000000	63.322706
555.000000	63.274106
554.000000	63.133774
553.000000	63.111905
552.000000	63.008847
551.000000	62.876556
550.000000	62.776042
549.000000	62.752858
548.000000	62.653906
547.000000	62.574732
546.000000	62.451761
545.000000	62.409926
544.000000	62.312043
543.000000	62.223649
542.000000	62.119246
541.000000	62.057389
540.000000	61.947853
539.000000	61.839959
538.000000	61.712573
537.000000	61.645575
536.000000	61.553485
535.000000	61.452571
534.000000	61.358373
533.000000	61.294595
532.000000	61.157204
531.000000	61.075842
530.000000	60.969348
529.000000	60.885246
528.000000	60.774791
527.000000	60.651621
526.000000	60.539538
525.000000	60.425981
524.000000	60.321250
523.000000	60.214180
522.000000	60.093163
521.000000	60.013020
520.000000	59.919684
519.000000	59.770871
518.000000	59.683814
517.000000	59.576526
516.000000	59.444144
515.000000	59.322282
514.000000	59.231342
513.000000	59.110909
512.000000	59.023670
511.000000	58.898535
510.000000	58.777618
509.000000	58.656368
508.000000	58.531432
507.000000	58.389683
506.000000	58.307299
505.000000	58.164812
504.000000	58.065158
503.000000	57.968417
502.000000	57.827024
501.000000	57.660351
500.000000	57.540393
499.000000	57.429305
498.000000	57.278000
497.000000	57.209158
496.000000	57.080229
495.000000	56.920040
494.000000	56.789186
493.000000	56.728766
492.000000	56.608720
491.000000	56.424558
490.000000	56.317335
489.000000	56.196842
488.000000	56.040938
487.000000	55.953095
486.000000	55.803825
485.000000	55.704396
484.000000	55.624264
483.000000	55.482057
482.000000	55.306066
481.000000	55.220017
480.000000	55.113845
479.000000	54.978440
478.000000	54.872011
477.000000	54.732953
476.000000	54.590272
475.000000	54.487700
474.000000	54.378819
473.000000	54.259054
472.000000	54.148336
471.000000	54.018592
470.000000	53.882391
469.000000	53.777521
468.000000	53.657999
467.000000	53.532302
466.000000	53.384600
465.000000	53.282606
464.000000	53.180017
463.000000	53.047319
462.000000	52.894894
461.000000	52.759861
460.000000	52.643342
459.000000	52.482055
458.000000	52.335334
457.000000	52.224725
456.000000	52.064956
455.000000	51.892422
454.000000	51.757353
453.000000	51.572897
452.000000	51.413370
451.000000	51.287229
450.000000	51.151872
449.000000	51.008415
448.000000	50.836980
447.000000	50.623409
446.000000	50.467695
445.000000	50.299378
444.000000	50.128326
443.000000	50.015268
442.000000	49.850332
441.000000	49.644675
440.000000	49.428273
439.000000	49.266679
438.000000	49.139043
437.000000	48.960321
436.000000	48.772007
435.000000	48.592375
434.000000	48.405743
433.000000	48.188319
432.000000	48.042010
431.000000	47.855469
430.000000	47.684826
429.000000	47.464093
428.000000	47.267666
427.000000	47.119301
426.000000	46.903462
425.000000	46.689562
424.000000	46.485171
423.000000	46.309762
422.000000	46.161360
421.000000	45.972675
420.000000	45.752613
419.000000	45.488618
418.000000	45.289550
417.000000	45.092726
416.000000	44.921595
415.000000	44.715803
414.000000	44.481779
413.000000	44.304398
412.000000	44.070788
411.000000	43.909212
410.000000	43.719116
409.000000	43.457879
408.000000	43.320684
407.000000	43.113320
406.000000	42.888310
405.000000	42.668098
404.000000	42.424546
403.000000	42.245153
402.000000	41.988230
401.000000	41.839103
400.000000	41.638038
399.000000	41.414728
398.000000	41.179658
397.000000	41.032257
396.000000	40.790460
395.000000	40.554401
394.000000	40.383247
393.000000	40.161394
392.000000	39.918659
391.000000	39.703999
390.000000	39.517132
389.000000	39.273559
388.000000	39.014163
387.000000	38.789757
386.000000	38.608654
385.000000	38.422110
384.000000	38.104325
383.000000	37.919150
382.000000	37.690277
381.000000	37.472325
380.000000	37.255308
379.000000	37.038809
378.000000	36.878696
377.000000	36.717032
376.000000	36.394163
375.000000	36.267084
374.000000	35.997179
373.000000	35.863397
372.000000	35.746866
371.000000	35.364493
370.000000	35.087848
369.000000	34.977598
368.000000	34.835542
367.000000	34.594997
366.000000	34.409205
365.000000	34.186043
364.000000	34.056410
363.000000	33.775276
362.000000	33.543368
361.000000	33.400292
360.000000	33.193479
359.000000	33.043870
358.000000	32.937597
357.000000	32.662205
356.000000	32.644916
355.000000	32.402345
354.000000	32.108324
353.000000	31.978204
352.000000	31.873888
351.000000	31.559021
350.000000	31.424319
349.000000	31.241643
348.000000	31.058480
347.000000	30.901487
346.000000	30.916013
345.000000	30.685867
344.000000	30.410971
343.000000	30.231822
342.000000	30.068218
341.000000	29.982921
340.000000	29.794566
339.000000	29.542658
338.000000	29.496995
337.000000	29.381053
336.000000	29.210427
335.000000	28.851438
334.000000	28.849712
333.000000	28.536901
332.000000	28.290583
331.000000	28.406832
330.000000	28.291103
329.000000	28.006963
328.000000	27.911464
327.000000	27.760409
326.000000	27.602777
325.000000	27.551834
324.000000	27.367797
323.000000	27.261030
322.000000	27.103376
321.000000	27.009533
320.000000	26.797010
319.000000	26.709000
318.000000	26.662874
317.000000	26.446500
316.000000	26.681985
315.000000	26.527874
314.000000	26.413155
313.000000	26.265954
312.000000	26.092194
311.000000	25.960361
310.000000	26.029252
309.000000	25.941404
308.000000	25.772077
307.000000	25.614704
306.000000	25.606531
305.000000	25.524212
304.000000	25.537381
303.000000	25.484160
302.000000	25.394510
301.000000	25.218323
300.000000	25.094674
299.000000	25.054787
298.000000	24.886500
297.000000	24.874641
296.000000	24.771045
295.000000	24.717326
294.000000	24.479829
293.000000	24.270010
292.000000	24.101741
291.000000	23.896199
290.000000	23.943752
289.000000	23.812606
288.000000	23.683252
287.000000	23.430499
286.000000	23.376789
285.000000	23.321510
284.000000	23.255993
283.000000	23.243971
282.000000	23.091541
281.000000	23.146781
280.000000	23.062502
279.000000	23.011468
278.000000	22.946129
277.000000	23.020477
276.000000	23.080054
275.000000	22.983223
274.000000	23.082730
273.000000	23.061857
272.000000	23.082104
271.000000	23.096743
270.000000	23.117389
269.000000	23.129472
268.000000	23.144897
267.000000	23.245543
266.000000	23.246526
265.000000	23.250163
264.000000	23.336281
263.000000	23.493154
262.000000	23.607852
261.000000	23.672519
260.000000	23.741554
259.000000	23.882463
258.000000	24.037659
257.000000	24.198957
256.000000	24.320996
255.000000	24.452183
254.000000	24.589508
253.000000	24.698985
252.000000	24.825853
251.000000	25.113696
250.000000	25.318876
249.000000	25.365296
248.000000	25.420847
247.000000	25.613336
246.000000	25.706885
245.000000	25.826417
244.000000	25.815104
243.000000	25.742360
242.000000	25.804936
241.000000	25.598271
240.000000	25.442671
239.000000	25.345528
238.000000	25.157285
237.000000	24.820054
236.000000	24.446564
235.000000	24.197652
234.000000	23.991183
233.000000	23.778065
232.000000	23.376723
231.000000	23.011226
230.000000	22.719097
229.000000	22.324590
228.000000	21.967660
227.000000	21.714240
226.000000	21.359509
225.000000	21.014658
224.000000	20.732244
223.000000	20.425140
222.000000	20.167901
221.000000	19.851155
220.000000	19.640593
219.000000	19.421783
218.000000	19.182504
217.000000	19.055171
216.000000	18.843851
215.000000	18.729126
214.000000	18.699771
213.000000	18.553151
212.000000	18.502620
211.000000	18.418030
210.000000	18.410066
209.000000	18.499379
208.000000	18.513744
207.000000	18.492129
206.000000	18.593809
205.000000	18.813657
204.000000	19.077852
203.000000	19.477674
202.000000	19.795426
201.000000	20.310118
200.000000	21.012535
