PE UV       SUBTECH     SPECTRUM    ASCII       PEDS        4.00        
   -1
TTmsopph201.Sample.asc
18/03/19
12:36:22.00
18/03/19
12:36:22.00
Administrator

200.000000
1
Lambda 750
750N8071901
PerkinElmer UV WinLab 6.0.4.0738 / 1.61.00 Lambda 900

0
0
3350/servo 860.8/2
0
0
UV/VIS
1
1
1
CommonBeamDepol,150mm sphere / downward view
0
0
0
0
Program
Program
3350/servo 860.8/2
3350/0.2 860.8/0.2
3350/0.2 860.8/0.2
0
1
 
 
 
0
 
860.8
319.2
860.8
Front
100
on
 
 
0
0
0
 
0
 
 
 
0
 
 
0
0
0
0
0
 
 
 
 
0
0


0
0
#HDR
-1
-1
#GR
nm
%T
1.0
0.0
2350.000000
-1.000000
2151
8
8.467720
0.002824
#DATA
2350.000000	1.523606
2349.000000	2.101663
2348.000000	2.067710
2347.000000	2.432531
2346.000000	2.148962
2345.000000	1.507180
2344.000000	1.286885
2343.000000	1.708016
2342.000000	1.534066
2341.000000	1.629250
2340.000000	1.867394
2339.000000	2.166997
2338.000000	1.986938
2337.000000	2.513712
2336.000000	2.406519
2335.000000	2.632770
2334.000000	2.450831
2333.000000	2.188334
2332.000000	2.498869
2331.000000	2.820736
2330.000000	2.417624
2329.000000	2.756192
2328.000000	2.241953
2327.000000	2.243031
2326.000000	2.284405
2325.000000	2.366860
2324.000000	2.059688
2323.000000	2.128741
2322.000000	2.256091
2321.000000	2.150203
2320.000000	2.018265
2319.000000	2.078992
2318.000000	2.337448
2317.000000	2.155154
2316.000000	2.102384
2315.000000	1.970891
2314.000000	1.965984
2313.000000	1.997954
2312.000000	2.105093
2311.000000	2.220945
2310.000000	2.169544
2309.000000	2.314965
2308.000000	1.940745
2307.000000	2.095849
2306.000000	2.028243
2305.000000	2.097810
2304.000000	1.995910
2303.000000	2.049088
2302.000000	2.034845
2301.000000	1.886313
2300.000000	1.699165
2299.000000	1.858326
2298.000000	1.853002
2297.000000	1.845348
2296.000000	1.906008
2295.000000	1.745931
2294.000000	1.787040
2293.000000	1.830964
2292.000000	1.875809
2291.000000	1.942176
2290.000000	1.918760
2289.000000	1.780359
2288.000000	1.782660
2287.000000	1.808676
2286.000000	1.794958
2285.000000	1.668980
2284.000000	1.594877
2283.000000	1.729594
2282.000000	1.742119
2281.000000	1.592090
2280.000000	1.561594
2279.000000	1.750892
2278.000000	1.767384
2277.000000	1.832744
2276.000000	1.837136
2275.000000	1.759178
2274.000000	1.784998
2273.000000	1.792485
2272.000000	1.821649
2271.000000	1.687777
2270.000000	1.645438
2269.000000	1.744873
2268.000000	1.825009
2267.000000	1.872668
2266.000000	1.789373
2265.000000	1.785122
2264.000000	1.905212
2263.000000	1.790655
2262.000000	1.661494
2261.000000	1.921230
2260.000000	2.080855
2259.000000	2.046711
2258.000000	2.053726
2257.000000	2.003486
2256.000000	1.989976
2255.000000	1.957197
2254.000000	2.075424
2253.000000	2.132958
2252.000000	2.142214
2251.000000	2.104192
2250.000000	2.046648
2249.000000	2.232732
2248.000000	2.330186
2247.000000	2.321388
2246.000000	2.378341
2245.000000	2.487977
2244.000000	2.636357
2243.000000	2.689405
2242.000000	2.620851
2241.000000	2.601468
2240.000000	2.592589
2239.000000	2.557512
2238.000000	2.522477
2237.000000	2.557969
2236.000000	2.640297
2235.000000	2.686348
2234.000000	2.712396
2233.000000	2.715814
2232.000000	2.745306
2231.000000	2.741491
2230.000000	2.713528
2229.000000	2.709635
2228.000000	2.843882
2227.000000	2.799915
2226.000000	2.736243
2225.000000	2.655454
2224.000000	2.652643
2223.000000	2.694567
2222.000000	2.646443
2221.000000	2.628907
2220.000000	2.626047
2219.000000	2.675086
2218.000000	2.720396
2217.000000	2.649662
2216.000000	2.709766
2215.000000	2.752786
2214.000000	2.742191
2213.000000	2.691294
2212.000000	2.733917
2211.000000	2.691612
2210.000000	2.567468
2209.000000	2.581022
2208.000000	2.534281
2207.000000	2.527128
2206.000000	2.540988
2205.000000	2.528101
2204.000000	2.503029
2203.000000	2.513367
2202.000000	2.485811
2201.000000	2.424724
2200.000000	2.490457
2199.000000	2.437445
2198.000000	2.385640
2197.000000	2.456119
2196.000000	2.380381
2195.000000	2.330561
2194.000000	2.294572
2193.000000	2.193718
2192.000000	2.287400
2191.000000	2.254974
2190.000000	2.245454
2189.000000	2.279651
2188.000000	2.249431
2187.000000	2.275483
2186.000000	2.189475
2185.000000	2.118370
2184.000000	2.321332
2183.000000	2.369972
2182.000000	2.343872
2181.000000	2.253131
2180.000000	2.302391
2179.000000	2.117255
2178.000000	2.179473
2177.000000	2.329597
2176.000000	2.270235
2175.000000	2.321756
2174.000000	2.321662
2173.000000	2.135358
2172.000000	2.199612
2171.000000	2.333032
2170.000000	2.337500
2169.000000	2.386997
2168.000000	2.440778
2167.000000	2.445926
2166.000000	2.434532
2165.000000	2.410342
2164.000000	2.435026
2163.000000	2.236427
2162.000000	2.354830
2161.000000	2.466440
2160.000000	2.468450
2159.000000	2.419735
2158.000000	2.335455
2157.000000	2.541623
2156.000000	2.488391
2155.000000	2.605120
2154.000000	2.611199
2153.000000	2.675439
2152.000000	2.785067
2151.000000	2.771624
2150.000000	2.676906
2149.000000	2.734437
2148.000000	2.285042
2147.000000	2.464255
2146.000000	2.508205
2145.000000	2.538744
2144.000000	2.665090
2143.000000	2.676795
2142.000000	2.682129
2141.000000	2.769175
2140.000000	2.668858
2139.000000	2.770689
2138.000000	2.879907
2137.000000	2.994233
2136.000000	3.040104
2135.000000	2.842672
2134.000000	2.989152
2133.000000	2.772803
2132.000000	2.924557
2131.000000	2.866690
2130.000000	3.001848
2129.000000	3.031689
2128.000000	2.946610
2127.000000	2.914588
2126.000000	2.771084
2125.000000	2.892887
2124.000000	2.900144
2123.000000	2.808313
2122.000000	2.928961
2121.000000	2.908413
2120.000000	2.889058
2119.000000	2.905879
2118.000000	2.992859
2117.000000	2.918234
2116.000000	2.965002
2115.000000	3.124962
2114.000000	3.206797
2113.000000	3.115167
2112.000000	2.988469
2111.000000	2.865764
2110.000000	2.956399
2109.000000	2.903333
2108.000000	2.797056
2107.000000	2.975776
2106.000000	2.944293
2105.000000	2.999571
2104.000000	3.019473
2103.000000	3.050214
2102.000000	2.967728
2101.000000	2.997108
2100.000000	3.039900
2099.000000	3.081085
2098.000000	3.026046
2097.000000	3.054889
2096.000000	3.036777
2095.000000	2.920535
2094.000000	2.926859
2093.000000	2.990607
2092.000000	2.993101
2091.000000	3.006087
2090.000000	2.952268
2089.000000	3.095041
2088.000000	3.047812
2087.000000	2.926137
2086.000000	3.006679
2085.000000	3.022538
2084.000000	2.921989
2083.000000	2.955020
2082.000000	2.963622
2081.000000	2.897404
2080.000000	2.799296
2079.000000	2.848019
2078.000000	2.858830
2077.000000	2.863874
2076.000000	2.801079
2075.000000	2.821269
2074.000000	2.838833
2073.000000	2.839290
2072.000000	2.768148
2071.000000	2.787537
2070.000000	2.815402
2069.000000	2.730623
2068.000000	2.630943
2067.000000	2.553621
2066.000000	2.541561
2065.000000	2.569893
2064.000000	2.534073
2063.000000	2.469769
2062.000000	2.511505
2061.000000	2.440229
2060.000000	2.454372
2059.000000	2.448870
2058.000000	2.405294
2057.000000	2.399811
2056.000000	2.352436
2055.000000	2.312077
2054.000000	2.293219
2053.000000	2.277995
2052.000000	2.163657
2051.000000	2.200676
2050.000000	2.218611
2049.000000	2.130494
2048.000000	2.107581
2047.000000	2.162890
2046.000000	2.141172
2045.000000	2.142417
2044.000000	2.068582
2043.000000	2.050723
2042.000000	2.046615
2041.000000	2.019423
2040.000000	2.103328
2039.000000	2.143648
2038.000000	2.063565
2037.000000	2.051913
2036.000000	2.080757
2035.000000	2.130689
2034.000000	2.185065
2033.000000	2.203188
2032.000000	2.219748
2031.000000	2.209497
2030.000000	2.195076
2029.000000	2.175960
2028.000000	2.221925
2027.000000	2.246554
2026.000000	2.237424
2025.000000	2.274195
2024.000000	2.371704
2023.000000	2.406939
2022.000000	2.314779
2021.000000	2.315373
2020.000000	2.345062
2019.000000	2.344876
2018.000000	2.342794
2017.000000	2.329188
2016.000000	2.306568
2015.000000	2.309832
2014.000000	2.343261
2013.000000	2.331886
2012.000000	2.296167
2011.000000	2.318407
2010.000000	2.327178
2009.000000	2.333647
2008.000000	2.324324
2007.000000	2.246164
2006.000000	2.221620
2005.000000	2.227381
2004.000000	2.193307
2003.000000	2.207246
2002.000000	2.183413
2001.000000	2.161844
2000.000000	2.166361
1999.000000	2.152490
1998.000000	2.135499
1997.000000	2.102533
1996.000000	2.114526
1995.000000	2.106328
1994.000000	2.056421
1993.000000	2.052715
1992.000000	2.030852
1991.000000	2.014208
1990.000000	2.031776
1989.000000	1.998056
1988.000000	1.989461
1987.000000	1.939854
1986.000000	1.946525
1985.000000	1.944774
1984.000000	1.946448
1983.000000	1.960792
1982.000000	1.977069
1981.000000	1.943787
1980.000000	1.889159
1979.000000	1.867891
1978.000000	1.879091
1977.000000	1.832425
1976.000000	1.829693
1975.000000	1.814860
1974.000000	1.798990
1973.000000	1.828017
1972.000000	1.799749
1971.000000	1.801119
1970.000000	1.774697
1969.000000	1.744466
1968.000000	1.786626
1967.000000	1.770994
1966.000000	1.742980
1965.000000	1.735456
1964.000000	1.723928
1963.000000	1.699279
1962.000000	1.688170
1961.000000	1.668993
1960.000000	1.727604
1959.000000	1.672868
1958.000000	1.685621
1957.000000	1.674588
1956.000000	1.670924
1955.000000	1.700622
1954.000000	1.687324
1953.000000	1.671410
1952.000000	1.653815
1951.000000	1.686129
1950.000000	1.644153
1949.000000	1.670649
1948.000000	1.674471
1947.000000	1.647763
1946.000000	1.688385
1945.000000	1.710138
1944.000000	1.713057
1943.000000	1.694979
1942.000000	1.615184
1941.000000	1.663483
1940.000000	1.707139
1939.000000	1.697116
1938.000000	1.729445
1937.000000	1.677632
1936.000000	1.823384
1935.000000	1.697184
1934.000000	1.792518
1933.000000	1.810350
1932.000000	1.769282
1931.000000	1.800920
1930.000000	1.817887
1929.000000	1.825565
1928.000000	1.930623
1927.000000	1.882586
1926.000000	1.896007
1925.000000	1.956060
1924.000000	1.979813
1923.000000	1.981302
1922.000000	2.008506
1921.000000	2.116180
1920.000000	2.094660
1919.000000	2.172635
1918.000000	2.245746
1917.000000	2.337863
1916.000000	2.205609
1915.000000	2.333743
1914.000000	2.337789
1913.000000	2.474452
1912.000000	2.486699
1911.000000	2.567839
1910.000000	2.614200
1909.000000	2.693914
1908.000000	2.817284
1907.000000	2.843864
1906.000000	2.919360
1905.000000	3.013047
1904.000000	3.107874
1903.000000	3.231832
1902.000000	3.244127
1901.000000	3.357235
1900.000000	3.456880
1899.000000	3.623222
1898.000000	3.726398
1897.000000	3.842126
1896.000000	3.893080
1895.000000	4.062424
1894.000000	4.165716
1893.000000	4.250295
1892.000000	4.349600
1891.000000	4.436647
1890.000000	4.599943
1889.000000	4.688646
1888.000000	4.817222
1887.000000	4.930238
1886.000000	5.037307
1885.000000	5.140588
1884.000000	5.246681
1883.000000	5.330624
1882.000000	5.426053
1881.000000	5.545247
1880.000000	5.609950
1879.000000	5.688014
1878.000000	5.783113
1877.000000	5.877978
1876.000000	5.957721
1875.000000	6.004209
1874.000000	6.060284
1873.000000	6.090530
1872.000000	6.163435
1871.000000	6.209229
1870.000000	6.263115
1869.000000	6.273625
1868.000000	6.338047
1867.000000	6.336255
1866.000000	6.329601
1865.000000	6.397874
1864.000000	6.432475
1863.000000	6.417759
1862.000000	6.405190
1861.000000	6.430843
1860.000000	6.449060
1859.000000	6.492611
1858.000000	6.548571
1857.000000	6.556749
1856.000000	6.507516
1855.000000	6.497573
1854.000000	6.517972
1853.000000	6.548428
1852.000000	6.531948
1851.000000	6.522508
1850.000000	6.500301
1849.000000	6.485768
1848.000000	6.527198
1847.000000	6.538430
1846.000000	6.517812
1845.000000	6.540922
1844.000000	6.520002
1843.000000	6.497256
1842.000000	6.531027
1841.000000	6.505536
1840.000000	6.484542
1839.000000	6.499234
1838.000000	6.493025
1837.000000	6.452035
1836.000000	6.423162
1835.000000	6.433774
1834.000000	6.416457
1833.000000	6.367461
1832.000000	6.353324
1831.000000	6.344825
1830.000000	6.321333
1829.000000	6.294789
1828.000000	6.287149
1827.000000	6.291944
1826.000000	6.292818
1825.000000	6.264627
1824.000000	6.255479
1823.000000	6.257429
1822.000000	6.226695
1821.000000	6.205032
1820.000000	6.192425
1819.000000	6.176923
1818.000000	6.170942
1817.000000	6.166030
1816.000000	6.145563
1815.000000	6.132997
1814.000000	6.118996
1813.000000	6.120798
1812.000000	6.115359
1811.000000	6.100630
1810.000000	6.094961
1809.000000	6.096760
1808.000000	6.098071
1807.000000	6.075172
1806.000000	6.071499
1805.000000	6.068008
1804.000000	6.054400
1803.000000	6.057647
1802.000000	6.039054
1801.000000	6.037697
1800.000000	6.048160
1799.000000	6.042242
1798.000000	6.029961
1797.000000	6.027873
1796.000000	6.018881
1795.000000	6.000744
1794.000000	5.990096
1793.000000	5.989556
1792.000000	6.013960
1791.000000	6.026262
1790.000000	6.008501
1789.000000	6.003125
1788.000000	5.998945
1787.000000	6.005625
1786.000000	5.999573
1785.000000	5.978431
1784.000000	5.976181
1783.000000	5.986677
1782.000000	5.977325
1781.000000	5.965540
1780.000000	5.936680
1779.000000	5.938356
1778.000000	5.954774
1777.000000	5.945088
1776.000000	5.908769
1775.000000	5.871873
1774.000000	5.879753
1773.000000	5.864650
1772.000000	5.832810
1771.000000	5.802357
1770.000000	5.794009
1769.000000	5.794578
1768.000000	5.775357
1767.000000	5.752656
1766.000000	5.713328
1765.000000	5.708937
1764.000000	5.735377
1763.000000	5.702309
1762.000000	5.661526
1761.000000	5.641898
1760.000000	5.615993
1759.000000	5.579157
1758.000000	5.559368
1757.000000	5.555025
1756.000000	5.536748
1755.000000	5.527424
1754.000000	5.531367
1753.000000	5.496654
1752.000000	5.478286
1751.000000	5.466653
1750.000000	5.450357
1749.000000	5.475446
1748.000000	5.437487
1747.000000	5.415365
1746.000000	5.393854
1745.000000	5.398338
1744.000000	5.384091
1743.000000	5.380406
1742.000000	5.332997
1741.000000	5.315179
1740.000000	5.303829
1739.000000	5.288774
1738.000000	5.279374
1737.000000	5.267456
1736.000000	5.243647
1735.000000	5.256918
1734.000000	5.255916
1733.000000	5.242297
1732.000000	5.229556
1731.000000	5.258307
1730.000000	5.260409
1729.000000	5.245706
1728.000000	5.258035
1727.000000	5.275929
1726.000000	5.287000
1725.000000	5.295548
1724.000000	5.344412
1723.000000	5.336724
1722.000000	5.377150
1721.000000	5.360793
1720.000000	5.399756
1719.000000	5.420711
1718.000000	5.440134
1717.000000	5.450046
1716.000000	5.493707
1715.000000	5.506464
1714.000000	5.498733
1713.000000	5.568623
1712.000000	5.540305
1711.000000	5.543585
1710.000000	5.569702
1709.000000	5.591197
1708.000000	5.597842
1707.000000	5.676590
1706.000000	5.654297
1705.000000	5.645202
1704.000000	5.625232
1703.000000	5.630532
1702.000000	5.632805
1701.000000	5.603608
1700.000000	5.665300
1699.000000	5.601208
1698.000000	5.637421
1697.000000	5.656387
1696.000000	5.689806
1695.000000	5.661395
1694.000000	5.666181
1693.000000	5.677204
1692.000000	5.702714
1691.000000	5.706739
1690.000000	5.715104
1689.000000	5.712385
1688.000000	5.763079
1687.000000	5.804883
1686.000000	5.835002
1685.000000	5.878662
1684.000000	5.913052
1683.000000	5.944146
1682.000000	5.984833
1681.000000	6.039185
1680.000000	6.082214
1679.000000	6.111822
1678.000000	6.161900
1677.000000	6.204056
1676.000000	6.261832
1675.000000	6.301741
1674.000000	6.345439
1673.000000	6.389560
1672.000000	6.410187
1671.000000	6.463330
1670.000000	6.519569
1669.000000	6.585467
1668.000000	6.595416
1667.000000	6.644779
1666.000000	6.667154
1665.000000	6.683510
1664.000000	6.706200
1663.000000	6.701040
1662.000000	6.714649
1661.000000	6.742549
1660.000000	6.782065
1659.000000	6.813440
1658.000000	6.830335
1657.000000	6.840180
1656.000000	6.849287
1655.000000	6.843220
1654.000000	6.843249
1653.000000	6.866992
1652.000000	6.884462
1651.000000	6.883841
1650.000000	6.861100
1649.000000	6.869287
1648.000000	6.865271
1647.000000	6.846358
1646.000000	6.834695
1645.000000	6.826568
1644.000000	6.815253
1643.000000	6.835516
1642.000000	6.824129
1641.000000	6.778100
1640.000000	6.775123
1639.000000	6.757620
1638.000000	6.746617
1637.000000	6.745671
1636.000000	6.732009
1635.000000	6.733938
1634.000000	6.708268
1633.000000	6.688872
1632.000000	6.686524
1631.000000	6.675757
1630.000000	6.646327
1629.000000	6.623276
1628.000000	6.629866
1627.000000	6.610455
1626.000000	6.603043
1625.000000	6.596763
1624.000000	6.571203
1623.000000	6.555683
1622.000000	6.553859
1621.000000	6.539025
1620.000000	6.517753
1619.000000	6.490272
1618.000000	6.476800
1617.000000	6.451403
1616.000000	6.442223
1615.000000	6.434022
1614.000000	6.407697
1613.000000	6.379276
1612.000000	6.359894
1611.000000	6.341137
1610.000000	6.331136
1609.000000	6.310124
1608.000000	6.288861
1607.000000	6.269142
1606.000000	6.249791
1605.000000	6.238066
1604.000000	6.215218
1603.000000	6.194251
1602.000000	6.183886
1601.000000	6.166932
1600.000000	6.148948
1599.000000	6.118753
1598.000000	6.096954
1597.000000	6.087664
1596.000000	6.073118
1595.000000	6.061560
1594.000000	6.055205
1593.000000	6.045557
1592.000000	6.030635
1591.000000	6.011159
1590.000000	5.988245
1589.000000	5.959681
1588.000000	5.948445
1587.000000	5.951079
1586.000000	5.934121
1585.000000	5.910620
1584.000000	5.900641
1583.000000	5.896711
1582.000000	5.882234
1581.000000	5.873085
1580.000000	5.860270
1579.000000	5.842376
1578.000000	5.824427
1577.000000	5.811010
1576.000000	5.791571
1575.000000	5.778785
1574.000000	5.772473
1573.000000	5.759248
1572.000000	5.741702
1571.000000	5.724786
1570.000000	5.717078
1569.000000	5.701924
1568.000000	5.695408
1567.000000	5.682995
1566.000000	5.678005
1565.000000	5.661222
1564.000000	5.646310
1563.000000	5.637461
1562.000000	5.620957
1561.000000	5.598099
1560.000000	5.586835
1559.000000	5.586132
1558.000000	5.595888
1557.000000	5.598025
1556.000000	5.580742
1555.000000	5.569103
1554.000000	5.557438
1553.000000	5.556587
1552.000000	5.549625
1551.000000	5.537255
1550.000000	5.515933
1549.000000	5.500194
1548.000000	5.485489
1547.000000	5.462086
1546.000000	5.444770
1545.000000	5.435190
1544.000000	5.401824
1543.000000	5.386763
1542.000000	5.365215
1541.000000	5.330307
1540.000000	5.313583
1539.000000	5.281625
1538.000000	5.258048
1537.000000	5.238741
1536.000000	5.210146
1535.000000	5.167368
1534.000000	5.146449
1533.000000	5.149292
1532.000000	5.116795
1531.000000	5.109664
1530.000000	5.104926
1529.000000	5.133333
1528.000000	5.169713
1527.000000	5.175259
1526.000000	5.121996
1525.000000	5.070270
1524.000000	5.026210
1523.000000	5.029792
1522.000000	5.020640
1521.000000	5.004901
1520.000000	4.991756
1519.000000	4.995738
1518.000000	4.979339
1517.000000	4.936889
1516.000000	4.949622
1515.000000	4.952175
1514.000000	4.924749
1513.000000	4.907786
1512.000000	4.900037
1511.000000	4.905472
1510.000000	4.897026
1509.000000	4.894663
1508.000000	4.868484
1507.000000	4.870202
1506.000000	4.835849
1505.000000	4.835304
1504.000000	4.816067
1503.000000	4.845884
1502.000000	4.874093
1501.000000	4.843525
1500.000000	4.839013
1499.000000	4.843089
1498.000000	4.827365
1497.000000	4.824908
1496.000000	4.818609
1495.000000	4.817565
1494.000000	4.813087
1493.000000	4.808836
1492.000000	4.813149
1491.000000	4.823922
1490.000000	4.815801
1489.000000	4.811822
1488.000000	4.850541
1487.000000	4.844780
1486.000000	4.854410
1485.000000	4.868691
1484.000000	4.877747
1483.000000	4.900027
1482.000000	4.886670
1481.000000	4.897614
1480.000000	4.918653
1479.000000	4.921457
1478.000000	4.936310
1477.000000	4.941274
1476.000000	4.962900
1475.000000	4.974992
1474.000000	4.962423
1473.000000	4.987014
1472.000000	4.983564
1471.000000	4.967496
1470.000000	4.979506
1469.000000	5.011789
1468.000000	4.990784
1467.000000	5.026062
1466.000000	5.013265
1465.000000	5.038624
1464.000000	5.081398
1463.000000	5.088701
1462.000000	5.094146
1461.000000	5.089771
1460.000000	5.152350
1459.000000	5.146522
1458.000000	5.125791
1457.000000	5.154879
1456.000000	5.142048
1455.000000	5.202707
1454.000000	5.206953
1453.000000	5.200651
1452.000000	5.227526
1451.000000	5.229997
1450.000000	5.266665
1449.000000	5.300198
1448.000000	5.298091
1447.000000	5.311018
1446.000000	5.319270
1445.000000	5.319591
1444.000000	5.362210
1443.000000	5.379011
1442.000000	5.399203
1441.000000	5.412864
1440.000000	5.420032
1439.000000	5.427059
1438.000000	5.443297
1437.000000	5.471093
1436.000000	5.498273
1435.000000	5.566846
1434.000000	5.595201
1433.000000	5.611823
1432.000000	5.629950
1431.000000	5.671671
1430.000000	5.682390
1429.000000	5.717333
1428.000000	5.740944
1427.000000	5.757606
1426.000000	5.784573
1425.000000	5.843243
1424.000000	5.889902
1423.000000	5.912713
1422.000000	5.914572
1421.000000	5.950430
1420.000000	6.016344
1419.000000	6.075747
1418.000000	6.133240
1417.000000	6.177517
1416.000000	6.197766
1415.000000	6.244701
1414.000000	6.288084
1413.000000	6.339268
1412.000000	6.386811
1411.000000	6.434448
1410.000000	6.484090
1409.000000	6.557103
1408.000000	6.604709
1407.000000	6.630235
1406.000000	6.696052
1405.000000	6.750319
1404.000000	6.802197
1403.000000	6.860889
1402.000000	6.916395
1401.000000	6.977499
1400.000000	7.022849
1399.000000	7.051693
1398.000000	7.095334
1397.000000	7.145428
1396.000000	7.194726
1395.000000	7.237854
1394.000000	7.275172
1393.000000	7.300599
1392.000000	7.331526
1391.000000	7.362022
1390.000000	7.391030
1389.000000	7.425558
1388.000000	7.464171
1387.000000	7.501680
1386.000000	7.538802
1385.000000	7.592394
1384.000000	7.619447
1383.000000	7.623347
1382.000000	7.639850
1381.000000	7.676705
1380.000000	7.739150
1379.000000	7.775696
1378.000000	7.776930
1377.000000	7.773325
1376.000000	7.777727
1375.000000	7.808258
1374.000000	7.837991
1373.000000	7.841371
1372.000000	7.836190
1371.000000	7.838170
1370.000000	7.837462
1369.000000	7.838350
1368.000000	7.869831
1367.000000	7.901137
1366.000000	7.914375
1365.000000	7.925501
1364.000000	7.923050
1363.000000	7.921958
1362.000000	7.923119
1361.000000	7.924027
1360.000000	7.938377
1359.000000	7.947757
1358.000000	7.942082
1357.000000	7.947778
1356.000000	7.992068
1355.000000	8.044353
1354.000000	8.082084
1353.000000	8.081109
1352.000000	8.072837
1351.000000	8.077566
1350.000000	8.099538
1349.000000	8.127332
1348.000000	8.121243
1347.000000	8.130746
1346.000000	8.167654
1345.000000	8.173969
1344.000000	8.173253
1343.000000	8.186307
1342.000000	8.191786
1341.000000	8.230728
1340.000000	8.251845
1339.000000	8.253270
1338.000000	8.256188
1337.000000	8.263819
1336.000000	8.272370
1335.000000	8.282281
1334.000000	8.278584
1333.000000	8.317231
1332.000000	8.339221
1331.000000	8.338259
1330.000000	8.335113
1329.000000	8.330744
1328.000000	8.322529
1327.000000	8.346481
1326.000000	8.382185
1325.000000	8.381238
1324.000000	8.396083
1323.000000	8.410845
1322.000000	8.396176
1321.000000	8.408085
1320.000000	8.416810
1319.000000	8.399624
1318.000000	8.414722
1317.000000	8.439761
1316.000000	8.436275
1315.000000	8.436942
1314.000000	8.440414
1313.000000	8.419493
1312.000000	8.444381
1311.000000	8.467720
1310.000000	8.436112
1309.000000	8.450891
1308.000000	8.452345
1307.000000	8.437798
1306.000000	8.423512
1305.000000	8.451126
1304.000000	8.461030
1303.000000	8.451126
1302.000000	8.444416
1301.000000	8.438852
1300.000000	8.418859
1299.000000	8.404295
1298.000000	8.398946
1297.000000	8.401682
1296.000000	8.389265
1295.000000	8.385550
1294.000000	8.383637
1293.000000	8.385483
1292.000000	8.379982
1291.000000	8.374807
1290.000000	8.388311
1289.000000	8.370255
1288.000000	8.378735
1287.000000	8.395718
1286.000000	8.375528
1285.000000	8.376262
1284.000000	8.369583
1283.000000	8.313094
1282.000000	8.304460
1281.000000	8.289138
1280.000000	8.304930
1279.000000	8.323940
1278.000000	8.328595
1277.000000	8.318689
1276.000000	8.329759
1275.000000	8.299290
1274.000000	8.303575
1273.000000	8.299202
1272.000000	8.329592
1271.000000	8.296952
1270.000000	8.304616
1269.000000	8.304816
1268.000000	8.289643
1267.000000	8.277605
1266.000000	8.293294
1265.000000	8.306120
1264.000000	8.355045
1263.000000	8.363867
1262.000000	8.335397
1261.000000	8.311959
1260.000000	8.313561
1259.000000	8.333948
1258.000000	8.326333
1257.000000	8.318873
1256.000000	8.330570
1255.000000	8.318987
1254.000000	8.308566
1253.000000	8.296554
1252.000000	8.295065
1251.000000	8.287511
1250.000000	8.277079
1249.000000	8.279698
1248.000000	8.279154
1247.000000	8.283035
1246.000000	8.264150
1245.000000	8.268695
1244.000000	8.271254
1243.000000	8.274905
1242.000000	8.243132
1241.000000	8.252611
1240.000000	8.247521
1239.000000	8.193054
1238.000000	8.172908
1237.000000	8.177455
1236.000000	8.191498
1235.000000	8.141695
1234.000000	8.144213
1233.000000	8.132581
1232.000000	8.078212
1231.000000	8.080545
1230.000000	8.094303
1229.000000	8.102609
1228.000000	8.113594
1227.000000	8.111019
1226.000000	8.063849
1225.000000	8.047316
1224.000000	8.039169
1223.000000	8.041515
1222.000000	8.061016
1221.000000	8.054654
1220.000000	8.041594
1219.000000	8.044417
1218.000000	8.041194
1217.000000	8.029514
1216.000000	8.009547
1215.000000	7.991707
1214.000000	7.996790
1213.000000	8.026508
1212.000000	8.017321
1211.000000	8.002795
1210.000000	8.006696
1209.000000	7.996983
1208.000000	7.968951
1207.000000	7.961544
1206.000000	7.960244
1205.000000	7.954650
1204.000000	7.934774
1203.000000	7.949630
1202.000000	7.930984
1201.000000	7.915913
1200.000000	7.914610
1199.000000	7.914012
1198.000000	7.890267
1197.000000	7.867517
1196.000000	7.843525
1195.000000	7.824872
1194.000000	7.808474
1193.000000	7.796793
1192.000000	7.810311
1191.000000	7.831534
1190.000000	7.783648
1189.000000	7.696209
1188.000000	7.694254
1187.000000	7.701800
1186.000000	7.694797
1185.000000	7.684119
1184.000000	7.687881
1183.000000	7.697765
1182.000000	7.707262
1181.000000	7.717693
1180.000000	7.729392
1179.000000	7.744179
1178.000000	7.764519
1177.000000	7.770147
1176.000000	7.780217
1175.000000	7.794406
1174.000000	7.805277
1173.000000	7.813040
1172.000000	7.837647
1171.000000	7.849274
1170.000000	7.856445
1169.000000	7.872325
1168.000000	7.889353
1167.000000	7.905587
1166.000000	7.920035
1165.000000	7.931086
1164.000000	7.949864
1163.000000	7.970392
1162.000000	7.985749
1161.000000	8.002627
1160.000000	8.012751
1159.000000	8.022552
1158.000000	8.043104
1157.000000	8.063034
1156.000000	8.039860
1155.000000	8.027291
1154.000000	8.048442
1153.000000	8.065207
1152.000000	8.086873
1151.000000	8.102160
1150.000000	8.112891
1149.000000	8.133478
1148.000000	8.154076
1147.000000	8.167305
1146.000000	8.177849
1145.000000	8.180978
1144.000000	8.191057
1143.000000	8.192783
1142.000000	8.193760
1141.000000	8.222498
1140.000000	8.234977
1139.000000	8.246107
1138.000000	8.260773
1137.000000	8.261139
1136.000000	8.236584
1135.000000	8.221812
1134.000000	8.225189
1133.000000	8.237059
1132.000000	8.243335
1131.000000	8.254408
1130.000000	8.263765
1129.000000	8.277667
1128.000000	8.290522
1127.000000	8.300344
1126.000000	8.305982
1125.000000	8.307996
1124.000000	8.313810
1123.000000	8.311198
1122.000000	8.274523
1121.000000	8.258080
1120.000000	8.260920
1119.000000	8.271413
1118.000000	8.286022
1117.000000	8.278695
1116.000000	8.274779
1115.000000	8.271804
1114.000000	8.283604
1113.000000	8.287435
1112.000000	8.291629
1111.000000	8.289990
1110.000000	8.278535
1109.000000	8.282818
1108.000000	8.285474
1107.000000	8.283312
1106.000000	8.290314
1105.000000	8.292324
1104.000000	8.287562
1103.000000	8.260042
1102.000000	8.231933
1101.000000	8.236132
1100.000000	8.240384
1099.000000	8.245376
1098.000000	8.255937
1097.000000	8.261400
1096.000000	8.256165
1095.000000	8.258138
1094.000000	8.205301
1093.000000	8.202893
1092.000000	8.222890
1091.000000	8.215791
1090.000000	8.238483
1089.000000	8.230973
1088.000000	8.236720
1087.000000	8.196661
1086.000000	8.172268
1085.000000	8.169425
1084.000000	8.188982
1083.000000	8.191549
1082.000000	8.196790
1081.000000	8.193377
1080.000000	8.163739
1079.000000	8.151335
1078.000000	8.168310
1077.000000	8.171910
1076.000000	8.176190
1075.000000	8.170331
1074.000000	8.168147
1073.000000	8.127944
1072.000000	8.125071
1071.000000	8.121724
1070.000000	8.126919
1069.000000	8.129688
1068.000000	8.125207
1067.000000	8.135632
1066.000000	8.094785
1065.000000	8.081171
1064.000000	8.091470
1063.000000	8.101689
1062.000000	8.096277
1061.000000	8.094409
1060.000000	8.104364
1059.000000	8.067263
1058.000000	8.056670
1057.000000	8.060904
1056.000000	8.068599
1055.000000	8.083428
1054.000000	8.074418
1053.000000	8.034642
1052.000000	8.019137
1051.000000	8.014922
1050.000000	8.018217
1049.000000	8.057694
1048.000000	7.988501
1047.000000	8.010566
1046.000000	8.024247
1045.000000	8.005399
1044.000000	8.016788
1043.000000	7.971915
1042.000000	7.966777
1041.000000	7.977053
1040.000000	7.974979
1039.000000	7.939927
1038.000000	7.942309
1037.000000	7.936221
1036.000000	7.963475
1035.000000	7.967016
1034.000000	7.942601
1033.000000	7.927593
1032.000000	7.937580
1031.000000	7.943566
1030.000000	7.912440
1029.000000	7.921416
1028.000000	7.923673
1027.000000	7.945357
1026.000000	7.905924
1025.000000	7.898554
1024.000000	7.900147
1023.000000	7.872087
1022.000000	7.872756
1021.000000	7.885838
1020.000000	7.891072
1019.000000	7.867860
1018.000000	7.871312
1017.000000	7.864676
1016.000000	7.831057
1015.000000	7.835140
1014.000000	7.861089
1013.000000	7.861370
1012.000000	7.826149
1011.000000	7.831216
1010.000000	7.813177
1009.000000	7.819487
1008.000000	7.835794
1007.000000	7.843296
1006.000000	7.802428
1005.000000	7.809702
1004.000000	7.794710
1003.000000	7.801237
1002.000000	7.809449
1001.000000	7.816464
1000.000000	7.787418
999.000000	7.747236
998.000000	7.764304
997.000000	7.787059
996.000000	7.791230
995.000000	7.759029
994.000000	7.740529
993.000000	7.747954
992.000000	7.759409
991.000000	7.779691
990.000000	7.760886
989.000000	7.732332
988.000000	7.735107
987.000000	7.738766
986.000000	7.742343
985.000000	7.780859
984.000000	7.793667
983.000000	7.802108
982.000000	7.806351
981.000000	7.795275
980.000000	7.807221
979.000000	7.820887
978.000000	7.838468
977.000000	7.837020
976.000000	7.834307
975.000000	7.828610
974.000000	7.824003
973.000000	7.828955
972.000000	7.830816
971.000000	7.840333
970.000000	7.840401
969.000000	7.838701
968.000000	7.837815
967.000000	7.837951
966.000000	7.829804
965.000000	7.839379
964.000000	7.848055
963.000000	7.842821
962.000000	7.833470
961.000000	7.840122
960.000000	7.848341
959.000000	7.842978
958.000000	7.841331
957.000000	7.850406
956.000000	7.838098
955.000000	7.821866
954.000000	7.826452
953.000000	7.826656
952.000000	7.824750
951.000000	7.831480
950.000000	7.829690
949.000000	7.823035
948.000000	7.827136
947.000000	7.829679
946.000000	7.833425
945.000000	7.826149
944.000000	7.815750
943.000000	7.819719
942.000000	7.826532
941.000000	7.819582
940.000000	7.811108
939.000000	7.803352
938.000000	7.789012
937.000000	7.788226
936.000000	7.800955
935.000000	7.804645
934.000000	7.783506
933.000000	7.768962
932.000000	7.770585
931.000000	7.782183
930.000000	7.790700
929.000000	7.774340
928.000000	7.770563
927.000000	7.784785
926.000000	7.766259
925.000000	7.750760
924.000000	7.756687
923.000000	7.757959
922.000000	7.749858
921.000000	7.748021
920.000000	7.756716
919.000000	7.762566
918.000000	7.767135
917.000000	7.742471
916.000000	7.736064
915.000000	7.747311
914.000000	7.719624
913.000000	7.708262
912.000000	7.708353
911.000000	7.701543
910.000000	7.700950
909.000000	7.716070
908.000000	7.741031
907.000000	7.709881
906.000000	7.693847
905.000000	7.728885
904.000000	7.729534
903.000000	7.695479
902.000000	7.713029
901.000000	7.729643
900.000000	7.703273
899.000000	7.689423
898.000000	7.706772
897.000000	7.700853
896.000000	7.694776
895.000000	7.721929
894.000000	7.723263
893.000000	7.701523
892.000000	7.681578
891.000000	7.717235
890.000000	7.694176
889.000000	7.730586
888.000000	7.754060
887.000000	7.715939
886.000000	7.679819
885.000000	7.699016
884.000000	7.675657
883.000000	7.654950
882.000000	7.647811
881.000000	7.700656
880.000000	7.748565
879.000000	7.719283
878.000000	7.718763
877.000000	7.639014
876.000000	7.631921
875.000000	7.657998
874.000000	7.608602
873.000000	7.658768
872.000000	7.682869
871.000000	7.582080
870.000000	7.577897
869.000000	7.593439
868.000000	7.628422
867.000000	7.686278
866.000000	7.715988
865.000000	7.624433
864.000000	7.541206
863.000000	7.716223
862.000000	7.735865
861.000000	7.665479
860.000000	7.708642
859.000000	7.580836
858.000000	7.647542
857.000000	7.635262
856.000000	7.623861
855.000000	7.685693
854.000000	7.640208
853.000000	7.635841
852.000000	7.640112
851.000000	7.636675
850.000000	7.607193
849.000000	7.622169
848.000000	7.628511
847.000000	7.587188
846.000000	7.558858
845.000000	7.525904
844.000000	7.568869
843.000000	7.511795
842.000000	7.567898
841.000000	7.516081
840.000000	7.513991
839.000000	7.517499
838.000000	7.517498
837.000000	7.491677
836.000000	7.512188
835.000000	7.529427
834.000000	7.525320
833.000000	7.468239
832.000000	7.480927
831.000000	7.527215
830.000000	7.463632
829.000000	7.469836
828.000000	7.458224
827.000000	7.461310
826.000000	7.428172
825.000000	7.447558
824.000000	7.442000
823.000000	7.401384
822.000000	7.418136
821.000000	7.406842
820.000000	7.393689
819.000000	7.410208
818.000000	7.370864
817.000000	7.369187
816.000000	7.342930
815.000000	7.381833
814.000000	7.403970
813.000000	7.340554
812.000000	7.367229
811.000000	7.388726
810.000000	7.369045
809.000000	7.316983
808.000000	7.331884
807.000000	7.307849
806.000000	7.337709
805.000000	7.340261
804.000000	7.301457
803.000000	7.283115
802.000000	7.274601
801.000000	7.289823
800.000000	7.275643
799.000000	7.283106
798.000000	7.292845
797.000000	7.274772
796.000000	7.244621
795.000000	7.260888
794.000000	7.260108
793.000000	7.265453
792.000000	7.232978
791.000000	7.217115
790.000000	7.203071
789.000000	7.221041
788.000000	7.225169
787.000000	7.204751
786.000000	7.207513
785.000000	7.206486
784.000000	7.168754
783.000000	7.156328
782.000000	7.158030
781.000000	7.156910
780.000000	7.140540
779.000000	7.132171
778.000000	7.122109
777.000000	7.130920
776.000000	7.133586
775.000000	7.111730
774.000000	7.108547
773.000000	7.115684
772.000000	7.093161
771.000000	7.104715
770.000000	7.072838
769.000000	7.058087
768.000000	7.054762
767.000000	7.049768
766.000000	7.033462
765.000000	7.060918
764.000000	7.035383
763.000000	7.045633
762.000000	7.026860
761.000000	7.016375
760.000000	7.003218
759.000000	7.000921
758.000000	6.987619
757.000000	6.982379
756.000000	6.968616
755.000000	6.967906
754.000000	6.963501
753.000000	6.946899
752.000000	6.936653
751.000000	6.930091
750.000000	6.931585
749.000000	6.923388
748.000000	6.914104
747.000000	6.900790
746.000000	6.891225
745.000000	6.880383
744.000000	6.879503
743.000000	6.872577
742.000000	6.843106
741.000000	6.837363
740.000000	6.831225
739.000000	6.827433
738.000000	6.816234
737.000000	6.804798
736.000000	6.807982
735.000000	6.801153
734.000000	6.779110
733.000000	6.780672
732.000000	6.777989
731.000000	6.757278
730.000000	6.733397
729.000000	6.727626
728.000000	6.727147
727.000000	6.715771
726.000000	6.695443
725.000000	6.685810
724.000000	6.696885
723.000000	6.686044
722.000000	6.670486
721.000000	6.670166
720.000000	6.656026
719.000000	6.641369
718.000000	6.639120
717.000000	6.627973
716.000000	6.613767
715.000000	6.604061
714.000000	6.593632
713.000000	6.582160
712.000000	6.577106
711.000000	6.571824
710.000000	6.546992
709.000000	6.541115
708.000000	6.545087
707.000000	6.523076
706.000000	6.508692
705.000000	6.501556
704.000000	6.488411
703.000000	6.472703
702.000000	6.469605
701.000000	6.457910
700.000000	6.437970
699.000000	6.433553
698.000000	6.428437
697.000000	6.421823
696.000000	6.412807
695.000000	6.389971
694.000000	6.374089
693.000000	6.362759
692.000000	6.354727
691.000000	6.349394
690.000000	6.330176
689.000000	6.312629
688.000000	6.294704
687.000000	6.295415
686.000000	6.285399
685.000000	6.266013
684.000000	6.253677
683.000000	6.246722
682.000000	6.237803
681.000000	6.223415
680.000000	6.203520
679.000000	6.201118
678.000000	6.185373
677.000000	6.164786
676.000000	6.148172
675.000000	6.128836
674.000000	6.128503
673.000000	6.132323
672.000000	6.107701
671.000000	6.083873
670.000000	6.073218
669.000000	6.067353
668.000000	6.061667
667.000000	6.047919
666.000000	6.030251
665.000000	6.007092
664.000000	6.000807
663.000000	5.984065
662.000000	5.967583
661.000000	5.951646
660.000000	5.941811
659.000000	5.931593
658.000000	5.916693
657.000000	5.902605
656.000000	5.883248
655.000000	5.877357
654.000000	5.858178
653.000000	5.838322
652.000000	5.830413
651.000000	5.823336
650.000000	5.803733
649.000000	5.785125
648.000000	5.774776
647.000000	5.765742
646.000000	5.747132
645.000000	5.727011
644.000000	5.709145
643.000000	5.692227
642.000000	5.681970
641.000000	5.665234
640.000000	5.652486
639.000000	5.633742
638.000000	5.628364
637.000000	5.606341
636.000000	5.592179
635.000000	5.586681
634.000000	5.556672
633.000000	5.541175
632.000000	5.533612
631.000000	5.520013
630.000000	5.501446
629.000000	5.481681
628.000000	5.462811
627.000000	5.454186
626.000000	5.428832
625.000000	5.429567
624.000000	5.413384
623.000000	5.388091
622.000000	5.365072
621.000000	5.361862
620.000000	5.343193
619.000000	5.330688
618.000000	5.315916
617.000000	5.294520
616.000000	5.270321
615.000000	5.259448
614.000000	5.244156
613.000000	5.221366
612.000000	5.206625
611.000000	5.189713
610.000000	5.178279
609.000000	5.153154
608.000000	5.141112
607.000000	5.119181
606.000000	5.101043
605.000000	5.083542
604.000000	5.057261
603.000000	5.050098
602.000000	5.030598
601.000000	5.012356
600.000000	4.990386
599.000000	4.974385
598.000000	4.964798
597.000000	4.938510
596.000000	4.923913
595.000000	4.898609
594.000000	4.880154
593.000000	4.866145
592.000000	4.840838
591.000000	4.821872
590.000000	4.812408
589.000000	4.792408
588.000000	4.771365
587.000000	4.750774
586.000000	4.721277
585.000000	4.705745
584.000000	4.690430
583.000000	4.673777
582.000000	4.655712
581.000000	4.629959
580.000000	4.605517
579.000000	4.598127
578.000000	4.569153
577.000000	4.552838
576.000000	4.527427
575.000000	4.512925
574.000000	4.484796
573.000000	4.468727
572.000000	4.441708
571.000000	4.430715
570.000000	4.410429
569.000000	4.389862
568.000000	4.370028
567.000000	4.346545
566.000000	4.322691
565.000000	4.301021
564.000000	4.279532
563.000000	4.254460
562.000000	4.222702
561.000000	4.200373
560.000000	4.181947
559.000000	4.163660
558.000000	4.138999
557.000000	4.121315
556.000000	4.092652
555.000000	4.074149
554.000000	4.051511
553.000000	4.027967
552.000000	4.009601
551.000000	3.984955
550.000000	3.960234
549.000000	3.938650
548.000000	3.911462
547.000000	3.891375
546.000000	3.867397
545.000000	3.850999
544.000000	3.824637
543.000000	3.797596
542.000000	3.779675
541.000000	3.761857
540.000000	3.731038
539.000000	3.709483
538.000000	3.687554
537.000000	3.666270
536.000000	3.639541
535.000000	3.615604
534.000000	3.591844
533.000000	3.575739
532.000000	3.550414
531.000000	3.526810
530.000000	3.498645
529.000000	3.475989
528.000000	3.457329
527.000000	3.436769
526.000000	3.412570
525.000000	3.391192
524.000000	3.363519
523.000000	3.343395
522.000000	3.324052
521.000000	3.302928
520.000000	3.278195
519.000000	3.253330
518.000000	3.228841
517.000000	3.207640
516.000000	3.183951
515.000000	3.160658
514.000000	3.135210
513.000000	3.106876
512.000000	3.081741
511.000000	3.056032
510.000000	3.032548
509.000000	3.007775
508.000000	2.982176
507.000000	2.953126
506.000000	2.922720
505.000000	2.896619
504.000000	2.875505
503.000000	2.851336
502.000000	2.818401
501.000000	2.791017
500.000000	2.765467
499.000000	2.742316
498.000000	2.719478
497.000000	2.696076
496.000000	2.666561
495.000000	2.640174
494.000000	2.620786
493.000000	2.598731
492.000000	2.572792
491.000000	2.549737
490.000000	2.523851
489.000000	2.500934
488.000000	2.485532
487.000000	2.464317
486.000000	2.437652
485.000000	2.419211
484.000000	2.398102
483.000000	2.370531
482.000000	2.346050
481.000000	2.322679
480.000000	2.294301
479.000000	2.264846
478.000000	2.238501
477.000000	2.210360
476.000000	2.181959
475.000000	2.163277
474.000000	2.141050
473.000000	2.113827
472.000000	2.087149
471.000000	2.063537
470.000000	2.038834
469.000000	2.014872
468.000000	1.992170
467.000000	1.968781
466.000000	1.942601
465.000000	1.918446
464.000000	1.892531
463.000000	1.868705
462.000000	1.846312
461.000000	1.821363
460.000000	1.793096
459.000000	1.767268
458.000000	1.742375
457.000000	1.716671
456.000000	1.693926
455.000000	1.672274
454.000000	1.643181
453.000000	1.615357
452.000000	1.597050
451.000000	1.574865
450.000000	1.550660
449.000000	1.524168
448.000000	1.498980
447.000000	1.473742
446.000000	1.452067
445.000000	1.431474
444.000000	1.411817
443.000000	1.388906
442.000000	1.358951
441.000000	1.335655
440.000000	1.316068
439.000000	1.294014
438.000000	1.271980
437.000000	1.247878
436.000000	1.223856
435.000000	1.198501
434.000000	1.177341
433.000000	1.156969
432.000000	1.136354
431.000000	1.115837
430.000000	1.094609
429.000000	1.072327
428.000000	1.049399
427.000000	1.031222
426.000000	1.010494
425.000000	0.994242
424.000000	0.971020
423.000000	0.949844
422.000000	0.932109
421.000000	0.911920
420.000000	0.890466
419.000000	0.871039
418.000000	0.850797
417.000000	0.829455
416.000000	0.811226
415.000000	0.797313
414.000000	0.777269
413.000000	0.760627
412.000000	0.744715
411.000000	0.722912
410.000000	0.704643
409.000000	0.689404
408.000000	0.672672
407.000000	0.651932
406.000000	0.636862
405.000000	0.625993
404.000000	0.607713
403.000000	0.588643
402.000000	0.578570
401.000000	0.563016
400.000000	0.548731
399.000000	0.534523
398.000000	0.522564
397.000000	0.509121
396.000000	0.497270
395.000000	0.490472
394.000000	0.477050
393.000000	0.457144
392.000000	0.446091
391.000000	0.436096
390.000000	0.426227
389.000000	0.416446
388.000000	0.407117
387.000000	0.392408
386.000000	0.382556
385.000000	0.371890
384.000000	0.368596
383.000000	0.355607
382.000000	0.342138
381.000000	0.332380
380.000000	0.324157
379.000000	0.313417
378.000000	0.316182
377.000000	0.330945
376.000000	0.317553
375.000000	0.312330
374.000000	0.303297
373.000000	0.296268
372.000000	0.278157
371.000000	0.265652
370.000000	0.261602
369.000000	0.251676
368.000000	0.245344
367.000000	0.243481
366.000000	0.229802
365.000000	0.219376
364.000000	0.217471
363.000000	0.214640
362.000000	0.210003
361.000000	0.208229
360.000000	0.198080
359.000000	0.185510
358.000000	0.188945
357.000000	0.181434
356.000000	0.178587
355.000000	0.170200
354.000000	0.166974
353.000000	0.168064
352.000000	0.161469
351.000000	0.159449
350.000000	0.152022
349.000000	0.146890
348.000000	0.150131
347.000000	0.143835
346.000000	0.142524
345.000000	0.141315
344.000000	0.137552
343.000000	0.141640
342.000000	0.122495
341.000000	0.125906
340.000000	0.126492
339.000000	0.114601
338.000000	0.126045
337.000000	0.111388
336.000000	0.116695
335.000000	0.102801
334.000000	0.107531
333.000000	0.102899
332.000000	0.105559
331.000000	0.109417
330.000000	0.098354
329.000000	0.098202
328.000000	0.099380
327.000000	0.087609
326.000000	0.088763
325.000000	0.090415
324.000000	0.079122
323.000000	0.078048
322.000000	0.086209
321.000000	0.082493
320.000000	0.085056
319.000000	0.071723
318.000000	0.095914
317.000000	0.095262
316.000000	0.095197
315.000000	0.092176
314.000000	0.094086
313.000000	0.097055
312.000000	0.100518
311.000000	0.089609
310.000000	0.088729
309.000000	0.089013
308.000000	0.093314
307.000000	0.087655
306.000000	0.082587
305.000000	0.083986
304.000000	0.091342
303.000000	0.080794
302.000000	0.089244
301.000000	0.084500
300.000000	0.086297
299.000000	0.080720
298.000000	0.090519
297.000000	0.079145
296.000000	0.086922
295.000000	0.086588
294.000000	0.081269
293.000000	0.084066
292.000000	0.081061
291.000000	0.078823
290.000000	0.078580
289.000000	0.084268
288.000000	0.078840
287.000000	0.080228
286.000000	0.080809
285.000000	0.083240
284.000000	0.086521
283.000000	0.087888
282.000000	0.080829
281.000000	0.086042
280.000000	0.085931
279.000000	0.090075
278.000000	0.088612
277.000000	0.089502
276.000000	0.092773
275.000000	0.094509
274.000000	0.093770
273.000000	0.097168
272.000000	0.101210
271.000000	0.100652
270.000000	0.097712
269.000000	0.099252
268.000000	0.107773
267.000000	0.114563
266.000000	0.115041
265.000000	0.107872
264.000000	0.109061
263.000000	0.109306
262.000000	0.113843
261.000000	0.120457
260.000000	0.123326
259.000000	0.122064
258.000000	0.117969
257.000000	0.127569
256.000000	0.131919
255.000000	0.131624
254.000000	0.133222
253.000000	0.133695
252.000000	0.134259
251.000000	0.128964
250.000000	0.129726
249.000000	0.128411
248.000000	0.134692
247.000000	0.134486
246.000000	0.131672
245.000000	0.129269
244.000000	0.133384
243.000000	0.132014
242.000000	0.132043
241.000000	0.120424
240.000000	0.112400
239.000000	0.112374
238.000000	0.105269
237.000000	0.096129
236.000000	0.094963
235.000000	0.095064
234.000000	0.087499
233.000000	0.079680
232.000000	0.076479
231.000000	0.073470
230.000000	0.070441
229.000000	0.069454
228.000000	0.061547
227.000000	0.058535
226.000000	0.055589
225.000000	0.045834
224.000000	0.044026
223.000000	0.044924
222.000000	0.043181
221.000000	0.034498
220.000000	0.033015
219.000000	0.038690
218.000000	0.043735
217.000000	0.042700
216.000000	0.035803
215.000000	0.026014
214.000000	0.016401
213.000000	0.013096
212.000000	0.028660
211.000000	0.039945
210.000000	0.027748
209.000000	0.018134
208.000000	0.021701
207.000000	0.011693
206.000000	0.002824
205.000000	0.016908
204.000000	0.027671
203.000000	0.026142
202.000000	0.023964
201.000000	0.012945
200.000000	0.003013
